gyro_x_0,gyro_y_0,gyro_z_0,acc_x_0,acc_y_0,acc_z_0,gyro_x_1,gyro_y_1,gyro_z_1,acc_x_1,acc_y_1,acc_z_1,gyro_x_2,gyro_y_2,gyro_z_2,acc_x_2,acc_y_2,acc_z_2,gyro_x_3,gyro_y_3,gyro_z_3,acc_x_3,acc_y_3,acc_z_3,gyro_x_4,gyro_y_4,gyro_z_4,acc_x_4,acc_y_4,acc_z_4,gyro_x_5,gyro_y_5,gyro_z_5,acc_x_5,acc_y_5,acc_z_5,gyro_x_6,gyro_y_6,gyro_z_6,acc_x_6,acc_y_6,acc_z_6,gyro_x_7,gyro_y_7,gyro_z_7,acc_x_7,acc_y_7,acc_z_7,gyro_x_8,gyro_y_8,gyro_z_8,acc_x_8,acc_y_8,acc_z_8,gyro_x_9,gyro_y_9,gyro_z_9,acc_x_9,acc_y_9,acc_z_9,gyro_x_10,gyro_y_10,gyro_z_10,acc_x_10,acc_y_10,acc_z_10,gyro_x_11,gyro_y_11,gyro_z_11,acc_x_11,acc_y_11,acc_z_11,gyro_x_12,gyro_y_12,gyro_z_12,acc_x_12,acc_y_12,acc_z_12,gyro_x_13,gyro_y_13,gyro_z_13,acc_x_13,acc_y_13,acc_z_13,gyro_x_14,gyro_y_14,gyro_z_14,acc_x_14,acc_y_14,acc_z_14,gyro_x_15,gyro_y_15,gyro_z_15,acc_x_15,acc_y_15,acc_z_15,gyro_x_16,gyro_y_16,gyro_z_16,acc_x_16,acc_y_16,acc_z_16,gyro_x_17,gyro_y_17,gyro_z_17,acc_x_17,acc_y_17,acc_z_17,gyro_x_18,gyro_y_18,gyro_z_18,acc_x_18,acc_y_18,acc_z_18,gyro_x_19,gyro_y_19,gyro_z_19,acc_x_19,acc_y_19,acc_z_19,gyro_x_20,gyro_y_20,gyro_z_20,acc_x_20,acc_y_20,acc_z_20,gyro_x_21,gyro_y_21,gyro_z_21,acc_x_21,acc_y_21,acc_z_21,gyro_x_22,gyro_y_22,gyro_z_22,acc_x_22,acc_y_22,acc_z_22,gyro_x_23,gyro_y_23,gyro_z_23,acc_x_23,acc_y_23,acc_z_23,gyro_x_24,gyro_y_24,gyro_z_24,acc_x_24,acc_y_24,acc_z_24,gyro_x_25,gyro_y_25,gyro_z_25,acc_x_25,acc_y_25,acc_z_25,gyro_x_26,gyro_y_26,gyro_z_26,acc_x_26,acc_y_26,acc_z_26,gyro_x_27,gyro_y_27,gyro_z_27,acc_x_27,acc_y_27,acc_z_27,gyro_x_28,gyro_y_28,gyro_z_28,acc_x_28,acc_y_28,acc_z_28,gyro_x_29,gyro_y_29,gyro_z_29,acc_x_29,acc_y_29,acc_z_29,motion_type
0.40067499876022,0.46048748493195,0.5517874956131,-0.59042501449585,-0.38857498764992,-0.083599999547,0.16596250236034,0.41277500987053,0.69134998321533,0.92805004119873,0.79395002126694,0.5830500125885,1.51005005836487,1.68195009231567,1.79700005054474,10.0690507888794,9.77205085754394,9.29505062103272,0.66247498989105,0.76711249351501,0.74717497825623,0.2268749922514,0.45210000872612,0.39696249365807,0.94957500696182,1.23268747329712,1.27283751964569,0.64800000190735,0.9300000667572,1.08600008487701,1.96500015258789,1.92000007629395,1.8139500617981,9.19695091247559,9.31395053863525,9.45600032806396,0.63511252403259,0.42872500419617,-0.08112499862909,0.25602498650551,0.12155000120401,-0.24901250004768,1.28232502937317,1.29071247577667,1.16668748855591,1.12395000457764,1.2150000333786,1.87905013561249,1.5529500246048,1.59105002880096,1.27305006980896,9.52695083618164,9.85605049133301,9.82395076751709,-0.29782500863075,-0.4298250079155,-0.52359998226166,-0.43285000324249,-0.62796247005463,-0.86734998226166,1.08350002765656,0.9981124997139,0.92386251688004,2.18805003166199,2.71905016899109,5.36595010757446,1.24905002117157,1.17495000362396,0.98295003175735,9.94395065307617,10.8610506057739,11.3239507675171,-0.99453747272491,-1.79231250286102,-2.55419993400574,-4.50903749465942,-7.54325008392334,-9.65263748168945,-0.80849999189377,-2.24963760375977,-3.16978740692139,21.8290519714355,23.9749507904053,26.7100505828857,2.13000011444092,2.81805014610291,0.20700001716614,8.12400054931641,8.39700031280518,9.81195068359375,-3.28597497940063,-3.29010009765625,-2.58238744735718,-10.2532377243042,-6.03459978103638,-3.49428749084473,-3.10516238212585,0.13406249880791,2.1290500164032,30.8130016326904,24.5140514373779,18.1240501403809,-2.86005020141602,-14.7370510101318,-19.6990509033203,11.3809509277344,12.0730504989624,13.4599504470825,-2.2508749961853,-2.93424987792969,-7.84794998168945,-1.29703748226166,0.77109998464584,6.17306232452393,3.79321241378784,5.09877490997314,5.1990122795105,13.5900011062622,9.528000831604,-0.76395004987717,-23.8159503936768,-26.1510009765625,-23.650951385498,11.6539506912231,8.86200046539307,7.95600032806396,-10.6668376922607,-11.1119251251221,-9.58704948425293,11.2868251800537,15.4111375808716,16.9483871459961,3.59920001029968,2.09357500076294,1.35973751544952,-3.49005007743835,-3.63795018196106,-4.213050365448,-19.7380504608154,-17.7349510192871,-16.7560501098633,8.11395072937012,6.86700010299683,7.44405031204224,-6.35868740081787,0.41909998655319,2.11310005187988,15.6459875106812,7.74166250228882,5.65675020217896,1.40470004081726,2.97261238098145,2.83772492408752,-4.75005006790161,-7.71195030212402,-8.15100002288818,-15.7450504302979,-14.064001083374,-12.6199502944946,9.19005012512207,10.5289506912231,9.88395023345947,2.97357487678528,3.39913749694824,3.76323747634888,4.49844980239868,3.94514989852905,3.80819988250732,2.22956252098084,1.5497624874115,0.79351252317429,-8.33505058288574,-8.91195011138916,-8.97000026702881,-11.5870504379272,-10.3560009002686,-9.38205051422119,9.78600025177002,11.0239505767822,13.0170001983643,SWING_RIGHT
0.06531249731779,0.02846249938011,-0.01883750036359,0.08951249718666,0.25973749160767,0.3452624976635,0.3119874894619,0.30373749136925,0.24956250190735,3.12405014038086,3.05700016021729,2.79795002937317,1.35900008678436,1.18395006656647,1.08405005931854,9.42705059051514,8.96505069732666,9.22995090484619,-0.07204999774694,-0.13997499644756,-0.2056999951601,0.40397500991821,0.4838624894619,0.5710374712944,0.21999999880791,0.26399999856949,0.33206251263618,2.64705014228821,2.76705002784729,3.66495013237,1.00905001163483,1.01205003261566,0.88005006313324,10.1760005950928,11.0989503860474,12.0060005187988,-0.34306249022484,-1.33567500114441,-2.26613759994507,0.48276248574257,-1.9186749458313,-4.25535011291504,0.33453750610352,-0.71967500448227,-1.78901243209839,5.67705011367798,20.1049518585205,25.0270519256592,0.25005000829697,-1.00095009803772,-1.46595001220703,12.4710006713867,13.1460008621216,14.9329509735107,-3.13981246948242,-3.82442498207092,-4.09433746337891,-6.13469982147217,-7.34731245040894,-7.26467514038086,-2.50139999389648,-2.66420006752014,-1.77003753185272,29.8290004730225,35.9119529724121,35.5429534912109,-3.23595023155212,-8.22705078125,-15.9150009155273,14.7370510101318,12.9570007324219,9.22305011749268,-3.97443747520447,-3.81603741645813,-3.98502492904663,-6.26106262207031,-5.00073766708374,-3.3411123752594,-0.05128749832511,2.08848738670349,4.33798742294312,30.003002166748,21.9469509124756,13.032000541687,-27.6460514068604,-38.1550521850586,-45.8029518127441,6.6060004234314,7.45305013656616,12.445050239563,-4.92346239089966,-10.4336376190186,-10.8033752441406,-0.74456250667572,12.7157249450684,19.1677742004395,6.11421251296997,5.71504974365234,4.4999623298645,3.57705020904541,-12.6750001907349,-18.5209503173828,-49.3660507202149,-40.3180503845215,-28.2709522247314,15.7540512084961,11.8939504623413,11.9580001831055,-8.68889999389648,-4.63498735427856,0.07479999959469,21.2169380187988,19.2660865783691,12.7461128234863,3.9114625453949,3.86017489433289,4.71542501449585,-17.8150501251221,-13.7310009002686,-13.6810503005981,-20.5849514007568,-17.2009506225586,-12.8809509277344,14.5590009689331,12.9670505523682,8.14605045318604,2.39827489852905,3.04892492294312,3.84010004997253,7.53403759002686,5.4777250289917,4.96430015563965,5.36016225814819,5.45434999465942,5.29911231994629,-15.1680011749268,-15.024001121521,-12.2410507202148,-8.1739501953125,-4.15605020523071,-2.30895018577576,5.16405010223389,3.91305017471313,5.24505043029785,5.43372488021851,16.7862739562988,18.0757503509521,5.11142492294312,7.97609996795654,5.60188770294189,4.3324875831604,-2.74889993667603,-4.1886625289917,-9.10605049133301,-3.18795013427734,-1.11405003070831,-1.49700009822845,-0.02895000204444,1.06200003623962,9.65700054168701,12.6739501953125,11.0149507522583,16.4103507995605,11.8108377456665,2.66584992408752,1.56681251525879,-3.84436249732971,-9.37145042419434,-3.28130006790161,-0.68433749675751,3.99134993553162,0.12105000764132,1.09995007514954,0.45405003428459,2.01495003700256,2.97105002403259,3.7300500869751,9.44400024414062,9.58695030212402,10.617000579834,SWING_RIGHT
-0.08662500232458,-0.0015124999918,-0.01498750038445,0.1342000067234,0.33123749494553,0.34979999065399,1.03729999065399,1.30308747291565,1.50796246528625,1.02105009555817,1.6270500421524,2.0460000038147,1.25895011425018,0.97800004482269,0.87105005979538,10.2910509109497,10.252950668335,10.5090007781982,-0.09982500225306,-0.43793749809265,-0.51067501306534,0.12416250258684,-0.88247501850128,-1.24753749370575,1.61713743209839,1.70967495441437,1.83548748493195,2.54505014419556,2.80800008773804,3.32805013656616,0.49200001358986,0.33195000886917,0.02505000121891,11.0719509124756,9.91305065155029,9.56100082397461,-0.54106247425079,-0.598537504673,-0.81111252307892,-1.51689994335175,-1.89708745479584,-2.80445003509521,2.01753759384155,2.17855000495911,2.11914992332459,4.90395021438599,8.19705009460449,13.8870010375977,-0.69195002317429,-1.6030501127243,-2.17005014419556,10.3750505447388,11.0790004730225,11.0989503860474,-1.12722504138947,-1.53450000286102,-1.79299998283386,-4.40797519683838,-6.23823738098145,-7.46776247024536,1.67378747463226,0.92056250572205,0.14079999923706,20.4070510864258,24.0180015563965,24.65505027771,-2.41395020484924,-2.56995010375977,-2.59200000762939,10.8400506973267,9.73305034637451,8.12205028533936,-1.89667499065399,-2.26228737831116,-2.48971247673035,-7.75458765029907,-5.95237493515015,-4.79393768310547,-0.48716250061989,-0.39778751134872,0.9288125038147,29.7900009155273,40.9849510192871,33.1960525512695,-3.91095018386841,-20.8470001220703,-40.1430015563965,7.1850004196167,6.19095039367676,6.38295030593872,-2.7531623840332,-2.93562507629395,-6.47707509994507,-3.51917505264282,-1.66925001144409,7.35734987258911,3.22932505607605,5.83701229095459,7.6154375076294,19.6759510040283,5.82600021362305,-6.83595037460327,-51.5670013427734,-49.0600509643555,-42.1810531616211,11.3430004119873,14.836950302124,10.7419500350952,-11.8184003829956,-12.2281503677368,-10.6149997711182,21.8765239715576,27.1900749206543,27.5688877105713,4.12967491149902,2.69761252403259,2.486412525177,-10.407000541687,-16.7490005493164,-24.2839508056641,-37.0729522705078,-30.1609516143799,-21.9889507293701,6.72495031356812,7.46295022964478,15.2920503616333,0.60912501811981,2.77859997749329,4.08099985122681,10.1958999633789,5.51429986953735,4.90943765640259,6.37161254882813,6.41052484512329,5.09946250915527,-16.2630004882813,-10.7640008926392,-8.48400020599365,-15.178050994873,-12.7440004348755,-9.75795078277588,12.1690502166748,8.34195041656494,8.86905002593994,6.54128742218018,9.39413738250732,9.859299659729,5.9087872505188,6.69679975509644,5.3651123046875,2.56437492370605,-0.49623748660088,-2.40116238594055,-7.08000040054321,-4.2610502243042,-0.92205005884171,-6.67500019073486,-4.4239501953125,-2.73795008659363,11.7049503326416,12.0900001525879,10.0159502029419,9.01683712005615,7.37123727798462,5.93642473220825,2.66268754005432,-0.87395000457764,-4.03369998931885,-3.38126254081726,-3.34702491760254,-2.2844250202179,0.29805001616478,-0.02700000070035,-0.27300000190735,-0.93705004453659,1.08795011043549,2.25495004653931,7.92495059967041,7.20195055007935,7.63995027542114,SWING_RIGHT
-0.11123749613762,-0.00769999995828,0.05664999783039,1.23406255245209,1.08047497272491,0.90282499790192,0.63208746910095,0.60651248693466,0.6210874915123,2.18295001983643,2.22405004501343,1.92405009269714,3.24600005149841,2.99295020103455,2.72700023651123,8.94795036315918,9.48900032043457,9.32595062255859,-0.02516249939799,-0.18631249666214,-0.44494998455048,1.05036246776581,1.38765001296997,1.71599996089935,0.80355000495911,0.92977499961853,1.09106254577637,0.75105005502701,0.05400000140071,0.29100000858307,2.23800015449524,2.02305006980896,1.45500004291534,8.95695018768311,9.40005016326904,9.85605049133301,-0.81908750534058,-1.24176251888275,-1.74446249008179,1.8935124874115,1.73909997940063,0.79089999198914,1.30886244773865,1.55883753299713,1.71751248836517,1.20300006866455,3.40395021438599,8.19900035858154,0.75600004196167,-0.10605000704527,-1.60995006561279,9.74295043945312,9.57300090789795,9.04395008087158,-2.40088748931885,-3.07958745956421,-3.82277488708496,-1.60352504253387,-5.3975625038147,-8.64792537689209,1.54646253585815,0.75625002384186,-0.19525000452995,16.4020500183105,25.7550010681152,30.3550510406494,-1.81095004081726,-2.15295004844666,-3.88005018234253,9.04395008087158,11.953950881958,15.6630010604858,-4.12087488174438,-3.71387505531311,-3.35458755493164,-9.9166374206543,-6.39278745651245,-3.74976253509521,-0.83160001039505,-0.05252499878407,1.22567498683929,32.4490509033203,28.4920520782471,30.8850021362305,-6.93600034713745,-20.5660514831543,-29.2410011291504,17.0599498748779,11.3569507598877,7.67805051803589,-3.61377501487732,-4.40481233596802,-5.58634996414185,-2.24496245384216,-1.203125,0.2419999986887,2.57468748092651,4.13146257400513,5.4229998588562,25.0360507965088,13.0249509811401,2.83395004272461,-39.5710525512695,-42.3010520935059,-37.6909523010254,4.14105033874512,5.3860502243042,8.26800060272217,-7.78305006027222,-11.6580753326416,-13.5999870300293,3.7262499332428,12.4477376937866,20.7129993438721,5.90521240234375,4.70085000991821,3.2297375202179,-1.65495002269745,-1.49505007266998,-4.75500011444092,-32.0310020446777,-26.6380519866943,-22.5349502563477,5.12805032730103,2.08800005912781,3.6910502910614,-12.3722496032715,-2.6996750831604,2.39676237106323,23.3569869995117,14.3413877487183,7.13006258010864,2.92806243896484,4.9964747428894,6.12424993515015,-7.47000026702881,-16.8090000152588,-19.4809513092041,-21.939001083374,-21.3300018310547,-18.2860507965088,8.03999996185303,20.5849514007568,20.6310005187988,5.06728744506836,6.63079977035522,7.55424976348877,5.19433736801147,5.46521234512329,6.05233764648438,5.41076231002808,3.58434987068176,1.07112503051758,-14.9929504394531,-8.51895046234131,-4.94100046157837,-15.7549505233765,-13.3690509796143,-10.4569501876831,14.2309503555298,12.0160503387451,13.2130508422852,8.0216121673584,7.55521249771118,6.1550498008728,6.28911256790161,5.35535001754761,2.9438750743866,-1.52129995822906,-3.33767509460449,-3.68431258201599,-2.5530002117157,-0.93405002355576,0.46605002880096,-7.40595054626465,-4.52205038070679,-1.9690500497818,13.3860006332397,11.60205078125,9.07005023956299,SWING_RIGHT
0.51700001955032,0.72462499141693,0.4268000125885,0.68832498788834,1.37032496929169,2.50112509727478,0.13584999740124,0.23677499592304,0.77852499485016,-0.36405003070831,-0.71205002069473,0.20700001716614,3.73305010795593,3.51000022888184,2.79600024223328,9.09195041656494,8.9239501953125,9.8100004196167,-0.06104999780655,-0.77976250648499,-1.6299250125885,2.34850001335144,1.56694996356964,0.32257500290871,1.07896244525909,1.36193752288818,1.638587474823,0.72900003194809,1.66605007648468,3.77805018424988,2.01104998588562,0.7219500541687,-0.49605002999306,10.1430006027222,10.1839504241943,10.3560009002686,-3.34386253356934,-3.67028737068176,-3.28515005111694,-2.81421256065369,-4.2803750038147,-5.4247875213623,2.24482488632202,2.67519998550415,2.9750874042511,8.46000003814697,10.4530506134033,10.3500003814697,-2.58705019950867,-1.59795010089874,-1.28595006465912,10.9360504150391,11.8050003051758,12.9160509109497,-2.35454988479614,-0.2223374992609,0.08566249907017,-5.66156244277954,-4.71487474441528,-4.6139497756958,3.18615007400513,2.53769993782043,1.44333744049072,10.4190006256104,17.4649505615234,25.4530506134033,-2.07405018806458,-1.9039500951767,-2.37405014038086,12.211950302124,8.0110502243042,7.54905033111572,-0.38995000720024,-1.50122499465942,-2.70324993133545,-5.09396266937256,-5.7311372756958,-5.99403762817383,0.12897500395775,-0.70743751525879,-0.61366248130798,34.4920501708984,40.5100517272949,43.7800521850586,-5.71005010604858,-12.3660001754761,-26.7360019683838,7.54395055770874,7.65705013275146,6.42105007171631,-3.57678747177124,-3.84972500801086,-3.71291255950928,-5.4852876663208,-4.17037487030029,-2.13619995117188,0.90694999694824,3.29381251335144,5.3949499130249,32.5110015869141,17.7270011901855,12.3190507888794,-42.5209503173828,-46.0009536743164,-45.7690505981445,5.01495027542114,8.24100017547607,11.6830501556396,-4.20433759689331,-7.14023733139038,-13.4025373458862,0.75473749637604,6.97647476196289,25.3908882141113,6.80927515029907,6.60797500610352,3.33616256713867,7.85400056838989,0.39900001883507,-12.8830509185791,-50.109001159668,-46.5210037231445,-31.5160522460938,12.0780010223389,10.3030500411987,7.93995046615601,-11.7151374816895,-7.41454982757568,-0.56608748435974,25.9000492095947,21.8013114929199,10.1561622619629,3.04012489318848,3.43076252937317,5.46356248855591,-17.0650501251221,-17.7259502410889,-12.8740501403809,-26.0340003967285,-20.9809513092041,-19.3189506530762,11.5009508132935,13.5409507751465,12.3439502716064,1.8458000421524,2.92957496643066,4.63980007171631,5.24603748321533,4.3579249382019,5.05092477798462,5.72165012359619,4.89114999771118,3.04122495651245,-8.9170503616333,-6.97905015945435,-6.97500038146973,-17.69700050354,-15.2830505371094,-11.1109504699707,10.9330501556396,11.613000869751,12.9090003967285,6.71605014801025,7.87187480926514,6.98857498168945,6.2627124786377,6.33572483062744,2.57894992828369,0.24708749353886,-2.34794998168945,-4.05900001525879,-6.08100032806396,-3.13500022888184,1.8139500617981,-7.588050365448,-5.07300043106079,0.05595000088215,12.6630010604858,10.2769508361816,5.94000005722046,SWING_RIGHT
0.3272500038147,0.13983750343323,-0.11219999939203,1.1837375164032,0.95246249437332,-0.35186249017715,1.17865002155304,1.61039996147156,2.64522504806519,2.19000005722046,3.12195014953613,4.60200023651123,2.73900008201599,2.43195009231567,2.35304999351501,9.63300037384033,7.89405059814453,6.51000022888184,-0.02626249939203,0.05128749832511,0.2435124963522,-1.38393747806549,-2.81311249732971,-4.46407508850098,3.11781239509583,3.61899995803833,4.01183748245239,5.78700017929077,6.76005029678345,8.5420503616333,1.57695007324219,1.14600002765656,1.31400001049042,5.01495027542114,4.60995006561279,7.26900053024292,0.60885000228882,0.69616252183914,0.56718748807907,-5.01476240158081,-3.73587489128113,-2.36238741874695,4.65836238861084,4.83381223678589,4.73508739471436,11.0350503921509,13.360050201416,17.275951385498,-0.51300001144409,-1.36095011234283,-1.4760000705719,12.0589504241943,11.4720001220703,8.88105010986328,0.33715000748634,0.02584999985993,-0.48647499084473,-2.01396250724792,-2.62295007705688,-3.52329993247986,4.14617490768433,3.18724989891052,2.08931255340576,23.0269508361816,27.1530017852783,30.1470012664795,-1.37700009346008,-2.33505010604858,-4.69905042648315,7.26195049285889,6.35400009155273,7.45800018310547,-1.26101243495941,-2.2236499786377,-3.07903742790222,-4.14878749847412,-3.94638752937317,-3.02390003204346,1.3029500246048,1.28658747673035,1.84731245040894,33.3040504455566,31.9980010986328,29.320951461792,-12.1240501403809,-19.4500503540039,-26.4289512634277,10.6050004959106,12.7579507827759,11.2710008621216,-3.73862504959106,-4.93418741226196,-6.76912498474121,-1.69015002250671,0.85621249675751,4.1784873008728,2.87581253051758,5.70473766326904,6.31757497787476,24.3870010375977,5.71095037460327,-2.14394998550415,-33.9979515075684,-40.9860000610351,-39.6190528869629,5.0440502166748,6.45900011062622,10.1550006866455,-15.4237871170044,-16.5323123931885,-15.0431871414185,20.8169498443604,26.4617366790771,27.1924114227295,2.9991500377655,2.4342999458313,2.66502499580383,-7.40295028686523,-15.6760511398315,-21.0430507659912,-37.1400032043457,-31.0110015869141,-24.5370006561279,8.29605007171631,10.9740009307861,16.3699512481689,-11.3504877090454,-0.31006249785423,3.24348759651184,24.8935489654541,9.19737529754639,4.53090000152588,3.50707507133484,7.55287504196167,7.66741228103638,-20.9190006256104,-17.260950088501,-12.6439504623413,-20.896951675415,-17.0500507354736,-13.3410005569458,16.1980514526367,13.0510501861572,10.2960004806519,4.91218757629395,10.0143995285034,11.0054998397827,4.88166236877441,9.14498710632324,8.85128784179688,5.91373729705811,-1.1365749835968,-3.3958375453949,-9.94500064849854,-5.42505025863647,-2.56500005722046,-9.81495094299316,-4.0770001411438,-2.5530002117157,9.30000019073486,10.3129501342773,10.2630004882813,10.4113626480103,8.4588623046875,6.79277515411377,6.28182506561279,1.7433625459671,-2.62006258964539,-3.98804998397827,-2.93617486953735,-0.88192498683929,-0.85800004005432,-0.49905002117157,-1.00604999065399,-0.53700000047684,1.8840000629425,3.31305027008057,9.27105045318604,7.78905057907104,6.75195026397705,SWING_RIGHT
-1.03248751163483,-0.87092500925064,-1.38242495059967,1.47936248779297,3.66341257095337,3.38098740577698,3.50239992141724,3.4511125087738,3.15645003318787,0.62595003843307,0.48000001907349,1.50495004653931,0.49695003032684,-1.6189501285553,-1.80900013446808,10.2360000610352,14.9190006256104,13.0270509719849,-1.83136248588562,-1.79272496700287,-1.31477499008179,2.3753125667572,1.29621243476868,0.32133749127388,2.79262495040894,2.5008499622345,2.30298757553101,2.60895013809204,3.09300017356873,3.12405014038086,-1.23600006103516,-0.74505001306534,-0.56100004911423,10.1209506988525,9.51300048828125,11.2060508728027,-0.35268750786781,-0.12155000120401,-0.16458749771118,-1.42106246948242,-2.37517499923706,-3.1516375541687,1.95607495307922,1.52927494049072,0.97226250171661,4.63995027542114,6.6109504699707,10.1080503463745,-1.13295006752014,-2.14394998550415,-3.07995009422302,11.9779500961304,10.8880500793457,10.9570503234863,-0.48565000295639,-1.36276245117188,-2.86989998817444,-3.89881253242493,-5.253737449646,-6.86248731613159,0.2245374917984,-1.09353744983673,-2.58046245574951,19.0390510559082,34.3840522766113,47.6140518188477,-3.8950502872467,-4.53194999694824,-11.0340003967285,12.3919506072998,14.7250509262085,15.8890504837036,-4.27734994888306,-5.03951263427734,-5.08914995193481,-7.78181266784668,-7.66988754272461,-6.27316236495972,-3.00629997253418,-2.15462493896484,-0.10518749803305,44.2590026855469,31.2199516296387,21.810001373291,-20.9569511413574,-30.4290008544922,-34.3999519348145,10.6939506530762,5.49405002593994,4.01205015182495,-4.29728746414185,-5.58855009078979,-10.2665748596191,-2.05658745765686,0.76450002193451,10.0519371032715,4.59621238708496,6.2485499382019,6.78933763504028,10.5990009307861,-2.32605004310608,-13.4580001831055,-52.3000526428223,-52.7269515991211,-42.5839538574219,5.39100027084351,2.27295017242432,4.90995025634766,-13.0420122146606,-11.8244495391846,-8.49530029296875,21.157262802124,24.2290115356445,23.7936878204346,6.95543766021729,7.30688762664795,7.42596244812012,-18.9829502105713,-29.2440013885498,-30.2280006408691,-35.0269508361816,-25.7470512390137,-18.4540500640869,8.91195011138916,16.8970508575439,19.3930511474609,-1.80400002002716,2.9886999130249,4.64791250228882,15.9708995819092,5.80387496948242,3.2627375125885,8.04100036621094,8.49364948272705,7.51767492294312,-19.1340007781982,-9.55905055999756,-4.5799503326416,-15.0480003356934,-12.3030004501343,-8.77095031738281,13.3999509811401,8.07600021362305,8.14095020294189,8.54424953460693,9.49038791656494,9.53603744506836,3.67977499961853,2.8582124710083,0.9842249751091,1.82091248035431,-1.12282502651215,-3.17253756523132,-3.11400008201599,-2.61105012893677,-1.56000006198883,-1.01805007457733,1.26105010509491,3.28200006484985,11.2930507659912,9.04605007171631,6.838050365448,10.442850112915,10.9613628387451,12.3492870330811,-1.03386247158051,-3.67262506484985,-4.67458724975586,-4.69246244430542,-4.73316240310669,-4.03411245346069,0.06105000153184,1.30395007133484,0.66000002622604,4.74300003051758,5.57400035858154,5.05695009231567,5.73105049133301,5.58795022964478,6.27705049514771,SWING_RIGHT
-0.08538749814034,0.26592499017715,1.06273746490479,0.13983750343323,-0.04372499883175,-2.69527506828308,2.00268745422363,2.22213745117188,1.82008743286133,3.18900012969971,4.84605026245117,8.25195026397705,2.7720000743866,2.95905017852783,2.10600018501282,5.80800008773804,4.84800004959106,6.35400009155273,1.02327501773834,0.93527501821518,0.65353751182556,-4.89018726348877,-5.63502502441406,-5.36978769302368,1.37266254425049,1.23378753662109,1.24231255054474,8.10105037689209,8.10105037689209,5.26005029678345,2.62800002098084,2.62800002098084,2.37000012397766,8.88600063323975,8.88600063323975,9.78600025177002,0.48702499270439,0.33412501215935,-0.0937749966979,-3.17872500419617,-0.36767500638962,1.47028744220734,1.67103743553162,2.13743758201599,2.33021259307861,4.6690502166748,5.73495006561279,9.81300067901611,1.20105004310608,0.03195000067353,-0.99705004692078,8.78505039215088,8.41604995727539,8.82299995422363,-1.02189993858337,-2.43980002403259,-5.00678730010986,1.4161125421524,-0.32147499918938,-4.81937503814697,2.06057500839233,1.31986248493195,-0.19662499427795,16.3690509796143,25.8619518280029,39.2820014953613,-2.04105019569397,-3.30105018615723,-10.0669507980347,10.4689502716064,13.3519506454468,13.2400503158569,-5.37047481536865,-5.06687498092651,-4.28889989852905,-5.61962509155273,-5.01984977722168,-2.09893751144409,-0.16417500376701,0.70881247520447,3.95779991149902,34.0219497680664,29.8050022125244,14.3970003128052,-18.9660015106201,-30.07200050354,-43.1899528503418,9.88200092315674,7.31400012969971,6.50700044631958,-4.738112449646,-8.88621234893799,-10.5269994735718,-0.54834997653961,9.56725025177002,19.0825252532959,5.58965015411377,6.47473764419556,5.30433750152588,7.68405055999756,-14.26305103302,-15.5580005645752,-46.1880035400391,-28.8049507141113,-22.7359504699707,9.28305053710938,8.8540506362915,9.60900020599365,-9.16973781585693,-6.09028768539429,-1.39094996452332,23.2204494476318,23.0515995025635,17.3999366760254,4.71404981613159,4.28188753128052,4.82102489471436,-14.1720008850098,-11.1760501861572,-10.0620002746582,-19.0330505371094,-17.4529514312744,-17.860050201416,10.7850008010864,10.3680000305176,9.1200008392334,3.57733750343323,4.37043762207031,5.23393726348877,4.90201234817505,3.49497509002686,3.02169990539551,5.60257482528687,4.30416250228882,2.40391254425049,-15.6640510559082,-13.7620506286621,-8.86200046539307,-12.2269506454468,-9.7170000076294,-8.02605056762695,13.6800003051758,14.8159503936768,12.7680006027222,6.34095001220703,6.9507622718811,7.26701259613037,2.63505005836487,2.57290005683899,1.73566246032715,-1.40359997749329,-2.53467488288879,-3.09443759918213,-2.10795021057129,-1.57605004310608,-0.97305005788803,-2.956050157547,0.25500002503395,2.31000018119812,7.29000043869019,6.46905040740967,6.27495050430298,7.79116249084473,9.10676288604736,10.6754999160767,0.22110000252724,-1.65893745422363,-3.66313743591309,-3.27703738212585,-3.5011625289917,-3.3101749420166,-0.91800004243851,-0.46995002031326,-0.71700000762939,4.22399997711182,5.10495042800903,5.34000015258789,6.91005039215088,6.9190502166748,7.01295042037964,SWING_RIGHT
-1.05544996261597,-1.16737496852875,-1.16008746623993,-1.63185000419617,-1.86917495727539,-1.28232502937317,1.09889996051788,1.21054995059967,1.59018754959106,3.80205011367798,2.59200000762939,2.4580500125885,1.61805009841919,1.76595008373261,1.92705011367798,8.671950340271,9.82695007324219,9.79095077514648,-0.73493748903275,-0.62878751754761,-0.43009999394417,-0.57090002298355,-0.14148749411106,0.07136250287294,1.86656248569489,2.13936257362366,2.29913759231567,3.74400019645691,4.99005031585693,4.82505035400391,0.9709500670433,-0.46005001664162,-0.94395005702972,8.60295009613037,7.47495031356812,8.97405052185059,-0.5684249997139,-0.79708749055862,-1.1640750169754,0.13062499463558,0.38389998674393,0.58121252059937,2.46427488327026,2.68592500686646,2.76375007629395,3.87105011940002,2.00805020332336,2.02005004882813,-0.65700000524521,-1.30605006217957,-3.80805015563965,10.4779500961304,10.453950881958,9.36900043487549,-3.10763740539551,-3.76722502708435,-4.33111238479614,0.03671250119805,-1.87027502059937,-4.23197507858276,2.18817496299744,0.44151249527931,-2.00158739089966,15.7960510253906,31.1790008544922,36.3070526123047,-5.33595037460327,-4.8070502281189,-5.29305028915405,11.4390001296997,14.8990507125854,15.35205078125,-4.40385007858276,-4.19416236877441,-3.80943751335144,-5.92872476577759,-5.94316244125366,-4.36425018310547,-3.82607507705688,-3.3958375453949,-1.07910001277924,35.4739532470703,31.9410018920898,28.0800018310547,-8.31300067901611,-23.578950881958,-31.1430015563965,12.8539505004883,8.13105010986328,3.35805010795593,-3.6342625617981,-4.18783760070801,-5.4617748260498,-3.21502494812012,-2.26476240158081,-0.0314874984324,1.34653747081757,4.02476263046265,6.2702751159668,27.4740009307861,10.0510501861572,-4.75500011444092,-49.0620040893555,-52.995002746582,-43.6729507446289,-1.04100000858307,3.67605018615723,11.1780004501343,-7.9432373046875,-10.6361751556396,-10.7241744995117,5.43248748779297,14.4207248687744,20.7681369781494,7.50516223907471,7.46129989624023,6.8718376159668,-9.63600063323975,-12.6340503692627,-17.1420001983643,-38.6340026855469,-32.449951171875,-25.1580009460449,4.49505043029785,-0.98295003175735,2.50500011444092,-8.56542491912842,0.07122500240803,2.19339990615845,22.0092124938965,10.4915246963501,4.68036270141602,6.65926265716553,8.18248748779297,8.1342248916626,-19.1460018157959,-19.6489505767822,-17.1010513305664,-21.0120010375977,-16.5450000762939,-12.5329504013062,7.57800054550171,11.0959501266479,9.09195041656494,3.17088747024536,4.33922481536865,5.95223760604858,2.29528737068176,1.73249995708466,1.88292503356934,7.28791236877441,5.2911376953125,2.89066243171692,-11.9250001907349,-6.4980001449585,-2.94105005264282,-8.87100028991699,-5.96400022506714,-2.66400003433228,7.9200005531311,8.06205081939697,8.22000026702881,7.89744997024536,9.52063751220703,10.9746999740601,2.16892504692078,2.314537525177,1.29703748226166,0.59028750658035,-1.49407494068146,-3.3929500579834,-1.51905012130737,-1.40100002288818,-0.21405000984669,-0.02700000070035,1.93905007839203,2.76300024986267,7.87695026397705,7.40505027770996,7.53495025634766,SWING_RIGHT
0.72531247138977,0.35488748550415,-0.23553749918938,-0.41772499680519,0.1394249945879,1.73112499713898,0.77151250839233,1.23777496814728,2.16700005531311,2.60400009155273,0.966000020504,-0.98700004816055,3.64605021476746,3.65805006027222,1.65405011177063,8.94105052947998,7.29300022125244,5.96805047988892,-0.8124874830246,-1.78282499313354,-3.10227489471436,2.40899991989136,2.69802498817444,2.67616248130798,2.49658751487732,2.67533755302429,2.74766254425049,-0.17805001139641,0.82005006074905,1.58700013160706,0.5020500421524,-0.550950050354,-2.31900000572205,7.98495054244995,9.68505001068115,12.9040508270264,-4.90985012054443,-6.14528751373291,-5.9901876449585,1.9600625038147,-1.541375041008,-4.90806245803833,2.48022508621216,0.71280002593994,-1.48967504501343,3.57195019721985,26.4040508270264,39.2869529724121,-4.45995044708252,-7.22595024108887,-8.26995086669922,19.4040012359619,22.8870010375977,17.4360008239746,-5.48941230773926,-4.82102489471436,-4.71831226348877,-7.46350002288818,-8.31558704376221,-7.97197484970093,-3.44643759727478,-4.34183740615845,-4.25713729858398,36.6229515075684,36.271053314209,41.6119537353516,-9.7339506149292,-12.8260507583618,-23.5099506378174,13.326000213623,11.8549509048462,8.97405052185059,-4.87134981155396,-4.53667497634888,-4.40123748779297,-6.74176263809204,-5.49601268768311,-4.38996267318726,-2.54663753509521,-0.07782500237226,2.33034992218018,37.6459503173828,28.2000007629395,19.6210517883301,-36.5719528198242,-44.3460006713867,-52.7700042724609,6.55800008773804,7.21395015716553,6.4830002784729,-4.90929985046387,-10.0843877792358,-11.5259370803833,-2.37572503089905,10.084662437439,18.2320880889893,4.7812876701355,6.99847507476807,7.41138744354248,6.60900020599365,-20.9950504302979,-21.1320018768311,-57.8899536132813,-28.3500022888184,-23.9719505310059,0.90105003118515,2.14800000190735,8.38304996490479,-9.99377536773682,-6.71329975128174,-1.64999997615814,20.9393253326416,19.8210372924805,13.2540378570557,7.79432487487793,8.43287467956543,9.36429977416992,-20.0779514312744,-18.564001083374,-14.5840511322021,-20.9140510559082,-18.1549510955811,-16.1470508575439,8.00400066375732,7.27905035018921,9.16095066070557,2.17112493515015,4.89939975738525,7.03422498703003,6.06938743591309,3.66602492332459,3.22327494621277,9.44817447662354,7.64637517929077,4.56018733978271,-11.6809501647949,-8.91000080108643,-5.93805027008057,-12.7990503311157,-9.30705070495606,-6.10005044937134,11.1919507980347,10.8300008773804,10.0260000228882,8.8662748336792,10.2801876068115,10.760612487793,3.47847509384155,2.3645875453949,0.2231625020504,1.07263743877411,-4.27858734130859,-4.65574979782104,-3.27195024490356,1.26105010509491,1.21305000782013,-2.9320502281189,2.35800004005432,4.05105018615723,9.0169506072998,7.63800048828125,8.30100059509277,11.6334629058838,11.9851875305176,11.348424911499,-2.55076241493225,-5.19859981536865,-6.41464996337891,-4.21960020065308,-2.75591254234314,-0.86638748645782,0.85095006227493,1.55505001544952,0.42495003342628,4.68105030059814,3.6540002822876,3.69195008277893,8.68395042419434,9.02205085754394,10.6669502258301,SWING_RIGHT
-0.01388750039041,1.25977504253387,2.08917498588562,1.26018750667572,3.28597497940063,3.88808751106262,1.81610000133514,0.67814999818802,-0.08195000141859,0.54195004701614,2.40105009078979,2.73105001449585,3.56295013427734,4.08494997024536,4.12095022201538,7.54395055770874,4.40205001831055,3.7630500793457,3.3148500919342,4.136549949646,3.60634994506836,4.4242000579834,4.05459976196289,3.10557508468628,-0.76023751497269,-1.17617499828339,-1.10123753547668,2.71905016899109,1.39995002746582,1.34700012207031,3.34905004501343,1.53405010700226,-0.09600000083447,3.57300019264221,5.03895044326782,8.23905086517334,1.15444993972778,-2.92393755912781,-6.22531223297119,1.53188753128052,-1.35506248474121,-3.872962474823,-0.42157500982285,0.72833746671677,1.7714124917984,6.36705017089844,16.6420516967773,28.3410015106201,-2.09805011749268,-2.80995011329651,-2.59395003318787,10.6939506530762,14.8350009918213,24.973051071167,-7.30345010757446,-5.3179497718811,-4.73934984207153,-4.89981269836426,-4.41429996490479,-3.0436999797821,2.1379873752594,0.66068750619888,-0.02901249937713,33.9619522094727,34.1950531005859,25.9680004119873,-4.33800029754639,-20.485050201416,-24.1609516143799,31.2859516143799,19.5030002593994,12.127950668335,-5.10138750076294,-5.86341238021851,-6.60838747024536,-2.2922625541687,-1.72521245479584,-0.89787501096725,-0.12704999744892,0.52181249856949,1.7546374797821,22.1359519958496,22.1050510406494,21.0409507751465,-28.7089519500732,-34.6009521484375,-42.5740509033203,9.23805046081543,9.35295009613037,4.97205018997192,-7.76462507247925,-10.0039501190186,-13.166449546814,-0.03616249933839,2.69444990158081,9.58787536621094,3.0743625164032,4.12761259078979,4.26167488098145,13.5739507675171,1.15305006504059,-12.7920007705688,-47.4889526367188,-44.3869514465332,-35.3149528503418,-0.23805001378059,-4.64100027084351,1.19505000114441,-13.6906003952026,-6.75509977340698,-1.27146244049072,16.2060241699219,17.6500492095947,11.6259002685547,4.68737506866455,6.35566234588623,7.79019975662232,-23.4090003967285,-14.9929504394531,-11.5560007095337,-23.7229518890381,-20.6620502471924,-17.191951751709,13.6159505844116,10.9189500808716,6.03495025634766,2.4505250453949,4.91947507858276,7.58312511444092,5.63818740844727,4.09915018081665,4.74856233596802,8.3065128326416,7.08757495880127,3.8226375579834,-10.0639505386353,-8.28000068664551,-6.25605010986328,-13.7790002822876,-11.0010004043579,-7.85400056838989,8.34405040740967,12.3030004501343,13.9819507598877,8.71172523498535,9.07032489776611,9.08902454376221,4.84357500076294,4.66152477264404,3.65873742103577,0.18232500553131,-2.87636256217957,-5.12930011749268,-3.3030002117157,-0.6730500459671,0.8440500497818,-4.80000019073486,-1.91100013256073,1.39695012569427,12.4900503158569,9.54195022583008,6.96195030212402,8.60832500457764,11.188099861145,12.2968997955322,1.02932500839233,-2.93287491798401,-4.01596260070801,-5.17605018615723,-3.20333743095398,-1.71902501583099,1.20300006866455,-1.357950091362,-2.95800018310547,4.18800020217896,5.70105028152466,6.55605030059814,5.51100015640259,6.08100032806396,8.03295040130615,SWING_RIGHT
0.49651250243187,0.32174998521805,0.15207499265671,-0.82829999923706,-0.7345250248909,-0.39737498760223,0.04578749835491,0.23141250014305,0.47148749232292,2.12100005149841,1.87905013561249,-0.40005001425743,4.03005027770996,4.60395002365112,3.50505018234253,8.22195053100586,9.21795082092285,9.06494998931885,0.00797499995679,-0.22577500343323,-0.74277502298355,0.75185000896454,1.77196252346039,2.15517497062683,0.9560375213623,1.39301252365112,1.69977498054504,-0.43605002760887,1.35195004940033,1.91700005531311,3.22500014305115,1.78995013237,1.19400000572205,8.84205055236816,8.29605007171631,7.4170503616333,-1.75642502307892,-2.39249992370605,-2.94593739509583,1.8631249666214,1.48500001430511,0.45732501149178,1.96363747119904,2.0268874168396,1.81238746643066,0.76305001974106,1.41405010223389,3.21795010566711,0.26505002379417,-0.41700002551079,-0.64500004053116,7.48695039749146,7.78095054626465,9.94905090332031,-3.42938756942749,-3.39597487449646,-3.01784992218018,-0.87738752365112,-1.74927496910095,-2.89657497406006,1.53092503547668,1.34516251087189,0.92977499961853,4.00800037384033,5.99100017547607,14.0239505767822,-0.91995006799698,-1.14300000667572,-1.86600005626678,10.2409505844116,11.4940509796143,12.4330501556396,-2.72827506065369,-2.70269989967346,-2.92599987983704,-4.67912483215332,-6.75221252441406,-7.96303749084473,0.10752499848604,-0.90076249837875,-1.36152493953705,28.0300521850586,36.036003112793,37.8139533996582,-2.98395013809204,-6.54600048065186,-13.0270509719849,13.5439510345459,16.8829517364502,22.2949504852295,-3.4511125087738,-3.86278748512268,-4.66564989089966,-5.7534122467041,-2.98760008811951,-1.10096251964569,0.04509999975562,1.59596252441406,2.70751237869263,31.8240013122559,25.3399505615234,18.4950008392334,-32.5080032348633,-38.6080513000488,-42.72705078125,20.6860504150391,12.7099504470825,4.300950050354,-6.00379991531372,-10.1670246124268,-12.3424119949341,0.28503748774529,5.22046232223511,10.4674625396729,3.56097507476807,4.54066228866577,5.00417518615723,14.2849502563477,-6.78795051574707,-11.0580005645752,-46.0849533081055,-30.1489505767822,-25.9020004272461,-2.4250500202179,-8.71395015716553,-1.82595014572144,-12.3921871185303,-9.78724956512451,0.48413750529289,14.7505874633789,15.6664752960205,7.9890251159668,5.86698770523071,7.17928743362427,9.99363708496094,-17.1990013122559,-22.5060005187988,-12.9600009918213,-22.771951675415,-19.840950012207,-15.6540002822876,8.07600021362305,15.6900005340576,14.1190509796143,5.20602512359619,8.50616264343262,10.6860876083374,3.76158738136292,2.93906259536743,4.25535011291504,9.06097507476807,6.07598733901978,1.74899995326996,-7.14195013046265,-3.90405011177063,-2.51505017280579,-12.748950958252,-9.53505039215088,-6.43305015563965,9.56805038452148,7.24005031585693,7.9830002784729,11.2446126937866,9.95596218109131,8.1596622467041,5.22596263885498,4.24847507476807,1.88168752193451,-2.69018745422363,-5.18319988250732,-5.74516248703003,-1.90200006961823,-1.80105006694794,-0.91500002145767,-4.05495023727417,-1.70295011997223,0.31500002741814,10.3750505447388,11.6929502487183,10.7130002975464,SWING_RIGHT
1.05627501010895,0.74951249361038,0.62411248683929,-0.83063751459122,-1.08033752441406,-0.63607501983643,0.04977500066161,0.1385999917984,0.43628749251366,2.78400015830994,0.56400001049042,-1.70100009441376,5.08305025100708,5.29200029373169,4.93695020675659,9.26400089263916,8.20995044708252,6.80205011367798,0.61710000038147,0.53858751058578,0.04166249930859,0.57007497549057,2.51308751106262,4.49515008926392,0.99453747272491,1.85652494430542,2.7502748966217,-3.11595010757446,-2.50095009803772,-1.72200012207031,3.75405025482178,1.50000011920929,-1.40895009040833,6.03795051574707,5.55900049209595,5.84595012664795,-1.68946254253387,-4.6215124130249,-9.01807498931885,5.82752513885498,4.86447477340698,-2.51006245613098,3.17831254005432,2.34657502174377,-0.63524997234344,1.66995012760162,5.25795030593872,14.5560007095337,-3.94200015068054,-7.65195035934448,-3.65700006484985,9.59400081634522,16.3680000305176,24.1369514465332,-7.94859981536865,-5.76125001907349,-3.2436249256134,-6.14322519302368,-8.22002506256104,-8.3252124786377,-1.8350750207901,-2.64632487297058,-3.29147505760193,21.1180515289307,30.2670021057129,32.8680000305176,-3.23100018501282,-4.6560001373291,-7.9830002784729,12.1260004043579,9.14895057678223,5.66205024719238,-3.95326256752014,-4.56348752975464,-4.47782516479492,-7.60594987869263,-6.81944990158081,-5.43537473678589,-4.05982494354248,-2.13881254196167,0.64913749694824,31.3060512542725,23.5630512237549,22.9960517883301,-26.3790016174316,-32.4720001220703,-34.8790512084961,10.4299507141113,10.0950002670288,9.52500057220459,-4.11757516860962,-5.51608753204346,-8.16433715820313,-3.56069993972778,2.824387550354,8.72946262359619,3.23248744010925,5.88898754119873,5.60216236114502,20.4900016784668,3.11205005645752,-5.00595045089722,-41.2570533752441,-40.6840515136719,-34.7590522766113,7.23105049133301,-0.18105000257492,-0.65505003929138,-10.1912250518799,-10.0714626312256,-3.78537487983704,14.74880027771,18.0244617462158,13.4136753082275,4.97970008850098,4.69246244430542,6.82096242904663,-9.62400054931641,-15.7120504379272,-23.0400009155273,-31.4659519195557,-28.0080013275146,-17.3640003204346,1.67895007133484,5.46105003356934,15.1099510192871,0.18823750317097,3.05250000953674,5.505774974823,7.61502504348755,3.83597493171692,2.74119997024536,8.30994987487793,8.39052486419678,6.45823764801025,-14.6530504226685,-6.71805047988892,-2.35500001907349,-14.9400005340576,-12.8089504241943,-9.44099998474121,13.3210506439209,11.1250505447388,9.73305034637451,10.9874877929688,10.9558620452881,10.1216497421265,6.01686239242554,4.8984375,1.91991245746613,-2.11708760261536,-4.85155010223389,-6.11641263961792,0.60705000162125,0.54900002479553,-0.44100001454353,-1.9690500497818,0.8320500254631,3.17505025863647,7.37700033187866,7.20195055007935,7.06800031661987,9.27079963684082,11.6184749603271,12.653712272644,-1.85253751277924,-4.70208740234375,-2.97385001182556,-6.04711246490479,-3.98777508735657,-2.8909375667572,-0.23805001378059,0.47805002331734,0.94200003147125,4.56405019760132,4.57605028152466,4.34295034408569,6.52605009078979,7.84905052185059,9.88905048370361,SWING_RIGHT
0.64748752117157,0.07823749631643,-0.4959625005722,-0.55123752355576,-1.09367501735687,-1.3831125497818,0.09047500044107,0.23072500526905,0.5352874994278,4.90605020523071,3.90705013275146,1.27005004882813,2.52300000190735,2.40300011634827,3.35895013809204,12.1860008239746,12.8209505081177,11.0119504928589,-0.76051247119904,-0.59207499027252,-0.16843749582767,-1.21549999713898,-0.73699998855591,-0.48303750157356,0.9286749958992,1.30391252040863,1.43728744983673,1.08600008487701,3.54105019569397,4.71000003814697,3.87405014038086,3.67995023727417,3.21000003814697,9.09195041656494,8.10494995117188,7.58505058288574,0.40273749828339,1.04390001296997,1.60269999504089,-0.54408746957779,-0.68076246976852,-0.76216250658035,1.32027494907379,1.0813000202179,0.86707496643066,3.8449501991272,2.42700004577637,2.20905017852783,3.46395015716553,3.37800025939941,2.28105020523071,7.56405019760132,6.82095050811768,5.78895044326782,1.10825002193451,0.12883749604225,-1.30487501621246,-0.89677500724792,-0.25134998559952,1.0731874704361,0.97886252403259,1.4638249874115,2.26352500915527,1.3090500831604,0.6400500535965,-0.47505003213882,0.56400001049042,-0.77895003557205,-2.90805006027222,6.34200048446655,5.83905029296875,6.59400033950806,-3.27978754043579,-5.40113735198975,-6.67686223983765,2.99653744697571,2.71383738517761,-1.32343745231628,3.22093749046326,3.36696243286133,2.0433874130249,2.58795022964478,17.4990005493164,43.6620025634766,-4.7590503692627,-7.12500047683716,-7.46100044250488,10.7659502029419,16.4680500030518,24.6709518432617,-6.39828729629517,-4.89788770675659,-3.24596238136292,-5.52777481079102,-8.2428503036499,-8.61794948577881,-0.28737500309944,-2.24001240730286,-2.90386247634888,47.2039527893066,40.5889511108398,35.4090003967285,-2.93400025367737,-10.9720506668091,-20.6650505065918,24.492000579834,17.7690010070801,10.2910509109497,-2.98196244239807,-3.51903748512268,-4.19099998474121,-3.94116258621216,-2.94208741188049,-2.1096625328064,0.2593249976635,2.42481255531311,4.65588760375977,22.4779510498047,17.6950511932373,9.59505081176758,-38.2990531921387,-43.1389503479004,-38.745002746582,4.77795028686523,6.15000009536743,6.01395034790039,-5.22224998474121,-7.03491258621216,-9.74256229400635,-0.36726251244545,3.94281244277954,12.6142501831055,6.47817516326904,7.04274988174438,6.24511241912842,4.5130500793457,0.80595004558563,-2.9610002040863,-35.779052734375,-31.5210018157959,-28.6140022277832,5.36505031585693,3.74295020103455,3.49695014953613,-10.2430620193481,-8.74761199951172,-5.38614988327026,19.633487701416,22.1066989898682,20.1799125671387,4.64475011825562,3.59823751449585,4.12293767929077,-5.39205026626587,-15.7360506057739,-28.1830520629883,-30.4819507598877,-28.9420509338379,-22.5660018920898,3.61905026435852,10.3300504684448,22.8100509643555,3.43860006332397,5.3668999671936,6.34631252288818,7.09884977340698,4.75818729400635,4.18302488327026,7.09555006027222,6.53042507171631,4.63924980163574,-14.8350009918213,-4.96005010604858,1.72305011749268,-15.5440511703491,-9.91995048522949,-4.63695001602173,14.7130508422852,6.16200017929077,3.79905009269714,SWING_RIGHT
0.98780000209808,0.59276247024536,0.56650000810623,-0.37523749470711,-0.92468750476837,-0.82513749599457,-0.17599999904633,-0.00398749997839,0.09790000319481,3.54105019569397,2.63100004196167,1.5700501203537,6.40305042266846,6.48900032043457,5.6850004196167,10.1089506149292,8.91195011138916,7.94400024414063,0.59963750839233,0.75322496891022,0.21628749370575,-0.31308749318123,0.4989874958992,1.59967494010925,0.27678748965263,0.46763750910759,0.90048748254776,0.32895001769066,0.78405004739761,1.74900007247925,4.90395021438599,4.1850004196167,1.51005005836487,6.49095010757446,6.44505023956299,7.58700037002563,-0.66934996843338,-2.16864991188049,-3.77850008010864,1.80606245994568,1.95057499408722,2.33227491378784,1.20546245574951,1.59802496433258,1.97436249256134,1.0069500207901,-0.47700002789497,-1.71495008468628,0.01095000095665,-0.83100003004074,-0.65400004386902,7.04595041275024,7.46100044250488,8.80905055999756,-5.93230009078979,-6.04064989089966,-5.5521125793457,2.4371874332428,2.06937503814697,0.67746251821518,2.05631256103516,1.85748744010925,1.44677495956421,0.72000002861023,2.44605016708374,13.0369510650635,-2.82195019721985,-3.94200015068054,-4.55805015563965,9.69495010375977,11.5579509735107,13.5390005111694,-4.47521257400513,-3.18463754653931,-2.37627506256104,-2.96051239967346,-7.42843723297119,-9.98194980621338,0.29741248488426,-1.62263751029968,-2.91513752937317,30.6000022888184,39.4489517211914,41.1810035705566,-2.92200016975403,-4.00995016098022,-9.28605079650879,15.6250505447388,19.5670509338379,23.1859512329102,-2.01740002632141,-2.56753754615784,-3.43502497673035,-10.5727872848511,-8.47522449493408,-4.87657499313354,-3.42292499542236,-2.50469994544983,-0.3812874853611,45.8370018005371,33.1189498901367,19.101001739502,-21.2080516815186,-31.3300514221191,-30.2809505462646,20.2480506896973,14.1520509719849,9.56595039367676,-4.12087488174438,-6.5330376625061,-9.20136260986328,-2.48819994926453,0.70812499523163,3.84051251411438,1.33375000953674,3.98626255989075,4.74650001525879,17.9470500946045,9.42795085906982,-1.40100002288818,-32.7949523925781,-41.3410530090332,-33.1549530029297,6.21795034408569,-3.21300005912781,-4.62405014038086,-12.7831001281738,-13.8363494873047,-11.7948875427246,10.7270622253418,16.4598503112793,18.222599029541,5.23517513275146,5.60216236114502,5.99692487716675,-7.21695041656494,-12.31605052948,-17.1580505371094,-29.3700008392334,-27.5790004730225,-25.2630004882813,-1.59600007534027,5.75505018234253,15.2640008926392,-7.20994997024536,-0.61448746919632,4.41856241226196,16.4894123077393,10.3071374893188,5.35493755340576,6.91253757476807,8.33195018768311,8.25921249389648,-21.4720516204834,-17.5870513916016,-9.35295009613037,-19.7830505371094,-17.3880004882813,-14.9280004501343,22.5469512939453,19.4400005340576,12.3970508575439,7.45139980316162,10.2564001083374,9.00693702697754,4.4776873588562,6.35965013504028,5.1313624382019,6.30189990997314,-1.88429999351501,-4.24503755569458,-3.40605020523071,0.01800000108778,-1.40895009040833,-11.7840003967285,-4.86705017089844,-1.57095003128052,9.52995014190674,7.59195041656494,7.76700019836426,SWING_RIGHT
0.86253750324249,0.91162496805191,1.15761244297028,2.77777504920959,2.0992124080658,1.38765001296997,1.02726244926453,1.18841254711151,1.17974996566772,1.63905012607574,1.03800010681152,-0.77595001459122,5.62005043029785,6.53700017929077,6.59700012207031,10.9620008468628,7.51800012588501,5.08005046844482,1.68327498435974,2.21127510070801,2.19807505607605,1.18359994888306,1.41418755054474,2.13716244697571,1.34846246242523,1.70967495441437,2.27053737640381,-1.72995007038116,-0.86700004339218,-1.05195009708405,5.40900039672852,3.13395023345947,0.00405000010505,3.96600008010864,4.78800010681152,6.04305028915405,0.9149249792099,-2.7366623878479,-7.8171501159668,3.61597490310669,4.20585012435913,1.75724995136261,2.88639998435974,2.56341242790222,1.60352504253387,-1.66500008106232,4.30500030517578,19.5900001525879,-2.89800024032593,-7.07805013656616,-8.35200023651123,9.97305011749268,18.9450016021729,33.1180534362793,-10.1164245605469,-6.83443737030029,-2.34657502174377,-2.48847508430481,-9.57343769073486,-9.68935012817383,0.88687497377396,0.02584999985993,-0.12911249697208,29.6820011138916,21.0960006713867,25.2880516052246,-4.97205018997192,1.67295002937317,3.60600018501282,30.4930515289307,-0.51900005340576,-4.05600023269653,-0.7987374663353,-1.81486248970032,-3.53732490539551,-8.85046291351318,-9.26942539215088,-10.2481498718262,-1.45420002937317,-2.90289998054504,-3.07958745956421,32.965950012207,40.3740005493164,42.1729507446289,-0.61605000495911,-8.64405059814453,-23.3950519561768,-5.43105030059814,-3.5269501209259,-2.05605006217957,-3.84559988975525,-2.52834987640381,-0.70963752269745,-9.84926223754883,-7.30564975738525,-3.95848751068115,-1.12323749065399,1.8770124912262,5.06618738174438,39.9520530700684,27.6630020141602,21.0580501556396,-33.6619529724121,-38.3370018005371,-37.6480522155762,4.97895002365112,10.336950302124,10.3150501251221,0.75308752059937,-4.39821243286133,-9.57769966125488,-0.00563749996945,8.52334976196289,17.3069877624512,7.08042478561401,6.72498750686646,4.48291254043579,13.5900011062622,1.87905013561249,-0.98505002260208,-35.8800010681152,-27.0450019836426,-26.5590019226074,8.30805015563965,7.4320502281189,8.53605079650879,-11.5081996917725,-10.4292373657227,-0.11838749796152,22.8062992095947,23.9501628875732,13.0413246154785,2.83731245994568,2.15984988212585,4.0631251335144,-6.63195037841797,-10.1860504150391,-10.900050163269,-24.646951675415,-22.1059513092041,-17.2590007781982,12.046950340271,17.3880004882813,20.1880512237549,3.68981242179871,5.4389500617981,6.4840874671936,8.15155029296875,6.96134996414185,7.44136238098145,4.16844987869263,2.55282497406006,-0.32504999637604,-7.16400051116943,-4.82205009460449,-3.64605021476746,-14.6770505905151,-11.4439506530762,-7.89705038070679,15.5770511627197,11.4190502166748,9.3190507888794,6.2957124710083,5.42891263961792,4.65616226196289,6.9565372467041,4.83422517776489,2.01300001144409,-4.74952507019043,-4.53144979476929,-3.25888752937317,-1.97595012187958,-1.24605000019073,-0.40800002217293,-2.27295017242432,-0.48405003547668,1.2109500169754,8.41394996643066,8.34405040740967,7.9830002784729,SWING_RIGHT
0.01251249946654,0.21216249465942,0.24928750097752,1.41308748722076,0.32917499542236,-0.64391249418259,0.41882500052452,0.04661250114441,-0.20102499425411,2.37195014953613,1.48395001888275,1.14300000667572,2.22795009613037,1.77795004844666,1.90305006504059,8.17905044555664,7.67100048065186,9.26895046234131,0.26840001344681,0.10986249893904,-0.38348749279976,-1.0558625459671,-0.94723749160767,0.6485875248909,-0.18383750319481,0.06971249729395,1.16324996948242,0.69300001859665,1.15095007419586,0.46605002880096,2.31495022773743,1.26105010509491,0.51600003242493,9.48000049591064,8.96895027160645,10.1910009384155,-0.80451250076294,-1.29098749160767,-2.1214873790741,1.36592495441437,0.92221248149872,-2.07240009307861,1.68313753604889,1.627037525177,0.23539999127388,2.30295014381409,11.3890504837036,23.0100002288818,0.08295000344515,-0.95295006036758,-0.53205001354218,11.7930002212524,10.5259504318237,11.8170003890991,-3.10461258888245,-3.62367486953735,-4.03796243667603,-6.07021236419678,-8.81966209411621,-9.84733772277832,-1.61988747119904,-2.92572498321533,-3.25751256942749,27.1270503997803,33.7660522460938,40.4410514831543,0.10200000554323,-2.76405024528503,-8.38800048828125,15.3430509567261,20.0179500579834,21.2509517669678,-4.06353759765625,-3.86100006103516,-4.33358764648438,-8.33689975738525,-5.82889986038208,-2.50827503204346,-2.12066245079041,-0.3573625087738,2.93397498130798,41.7340507507324,38.6110534667969,25.9339504241943,-16.396951675415,-25.969051361084,-46.4680519104004,16.0830001831055,10.6789503097534,11.3119506835938,-5.16284990310669,-6.76458740234375,-9.43277454376221,-0.95796251296997,1.03949999809265,4.67472505569458,4.37593746185303,5.37116241455078,5.62237501144409,18.8929500579834,7.53600025177002,-3.1279501914978,-51.9960021972656,-47.2039527893066,-36.9769515991211,6.00195026397705,-0.45195001363754,-2.14995002746582,-11.9101123809814,-11.743049621582,-8.85692501068115,10.2426500320435,14.3966627120972,15.6574001312256,5.3543872833252,5.59418725967407,6.4435248374939,-12.4429502487183,-21.9480018615723,-26.1280517578125,-32.8380012512207,-30.8290519714355,-25.0470008850098,3.00300025939941,17.8570499420166,25.7899513244629,-4.03232479095459,1.15706253051758,6.96891260147095,13.8205375671387,9.23436260223389,5.33582496643066,7.72777509689331,8.581787109375,4.99991226196289,-18.6979503631592,-9.85395050048828,-1.93095004558563,-20.2720508575439,-15.1339511871338,-5.0590500831604,20.0130004882813,11.3569507598877,5.0460000038147,8.69866275787354,8.70856285095215,7.56360006332397,5.88747501373291,5.30282497406006,3.26974987983704,1.15568745136261,-1.71943747997284,-3.17350006103516,-0.4120500087738,0.42705002427101,-0.19005000591278,-0.71895003318787,2.61195015907288,5.20095014572144,4.52895021438599,4.39005041122437,3.73395013809204,8.65727519989014,14.2623252868652,18.6507740020752,1.30487501621246,-1.14125001430511,-2.60108757019043,-4.21423768997192,-5.23228740692139,-4.302649974823,-2.1889500617981,-2.70195007324219,-1.91595005989075,7.59105014801025,7.33905029296875,5.5290002822876,4.39695024490356,5.37195014953613,5.58000040054321,SWING_RIGHT
0.19043749570847,0.15042500197887,-0.00811249949038,0.21642500162125,0.07411249727011,0.01883750036359,-0.08236250281334,-0.10037499666214,-0.02351249940693,1.26105010509491,1.64895009994507,1.24200010299683,1.46205008029938,1.35705006122589,1.26105010509491,9.63495063781738,9.56100082397461,9.42000007629394,-0.1104125007987,-0.14946250617504,-0.20845000445843,0.06792499870062,0.26949998736382,0.46323749423027,0.03588749840856,0.12691250443459,0.19744999706745,0.60195004940033,0.54900002479553,1.09095001220703,1.28700006008148,1.25100004673004,0.97395002841949,9.86295032501221,10.3780508041382,10.3080005645752,-0.31927499175072,-0.45952498912811,-0.59826248884201,0.49500000476837,0.4086500108242,0.40177500247955,0.2066625058651,0.17971250414848,0.24365000426769,1.39995002746582,0.49395000934601,0.57795000076294,0.84195005893707,0.32700002193451,-0.58500003814697,9.86805057525635,9.35295009613037,9.93705081939697,-0.89993751049042,-1.24052500724792,-1.40909993648529,0.36121249198914,0.44068750739098,0.82389998435974,0.35131248831749,0.55522501468658,0.89113748073578,0.25005000829697,-1.02795004844666,-2.00505018234253,-1.09995007514954,-0.83895003795624,0.01095000095665,10.6360502243042,10.818000793457,11.3070001602173,-1.28851246833801,-0.86597502231598,-0.5626500248909,1.38613748550415,1.50342500209808,-1.02327501773834,1.29263746738434,1.48156249523163,0.39998748898506,-1.49700009822845,8.46300029754639,28.3219509124756,0.78000003099442,-0.18495000898838,-0.35205000638962,11.9389505386353,10.2240009307861,9.22995090484619,-0.82802498340607,-1.85927498340607,-2.32471251487732,-6.73378753662109,-12.9226627349854,-11.6646747589111,-1.85652494430542,-3.31319999694824,-2.17951250076294,42.1579513549805,36.5560531616211,31.396951675415,-1.92795014381409,-7.69995021820068,-15.2280006408691,15.1129503250122,16.7290515899658,10.9549503326416,-2.69802498817444,-3.22918748855591,-4.63237476348877,-7.31169986724854,-3.90967488288879,-2.08835005760193,0.19841249287128,1.59348750114441,2.83332490921021,26.5620021820068,25.2559509277344,19.3170013427734,-21.3589515686035,-28.54905128479,-39.1279525756836,6.63705015182495,2.96295022964478,0.91305005550385,-7.02996253967285,-10.6499252319336,-14.0270624160767,-0.0772750005126,3.74495005607605,9.61441230773926,4.33166265487671,5.58813762664795,6.8781623840332,5.73000049591064,-6.90495014190674,-16.864049911499,-39.3859519958496,-33.3460502624512,-23.1289520263672,0.16800001263618,0.45495003461838,4.8120002746582,-13.9358997344971,-5.52255010604858,0.27898749709129,13.7229127883911,12.7292003631592,7.50928735733032,8.15814971923828,10.0165996551514,9.97438716888428,-18.715051651001,-7.15395021438599,-1.0110000371933,-19.3090515136719,-16.1209506988525,-16.1860504150391,8.05395030975342,11.1610507965088,11.3449506759644,3.80118751525879,6.37078762054443,7.95795011520386,3.83721256256104,3.22478747367859,3.80393743515015,8.09778785705566,4.18522500991821,-0.90323752164841,0.81300002336502,-0.89400005340576,-2.64405012130737,-13.6830005645752,-9.28095054626465,-4.86900043487549,10.9669504165649,11.2590007781982,11.6040000915527,SWING_RIGHT
-0.62576252222061,-0.05884999781847,0.44178751111031,-0.75281250476837,-0.47025001049042,-0.08428750187159,-1.54715001583099,-1.45200002193451,-1.20834994316101,1.08105003833771,-0.47895002365112,-0.85500001907349,0.04695000126958,0.6690000295639,0.69600003957748,10.207950592041,9.78795051574707,8.89500045776367,0.9229000210762,1.23131251335144,1.28851246833801,0.52249997854233,1.11993753910065,1.72906243801117,-0.73081248998642,-0.18576249480247,0.48771250247955,-0.22800001502037,-0.14595000445843,-0.26895001530647,0.1710000038147,-0.01695000007749,-0.42900002002716,8.9170503616333,9.59700012207031,9.90105056762695,0.88742500543594,-0.79928749799728,-1.76233744621277,1.92238748073578,1.76632499694824,1.35080003738403,0.9978374838829,1.73497498035431,1.78928744792938,-0.65400004386902,-1.87305009365082,-1.14300000667572,-1.07295000553131,-2.66595005989075,-2.79795002937317,9.84795093536377,8.90700054168701,9.22305011749268,-2.41257500648499,-2.72607493400574,-2.60535001754761,0.82926249504089,0.06764999777079,-1.11374998092651,1.71943747997284,1.47826254367828,0.95754998922348,0.86100006103516,2.9520001411438,10.7280006408691,-3.27195024490356,-3.73200011253357,-3.72000026702881,10.4850006103516,12.0229501724243,12.5670003890991,-2.21017503738403,-1.8434624671936,-1.49228751659393,-3.86581254005432,-7.74551248550415,-10.3020496368408,-0.9316999912262,-3.79637503623962,-5.52667474746704,26.193000793457,34.7530517578125,39.3730506896973,-2.37900018692017,-1.30305004119873,-3.19995021820068,13.921950340271,13.6540508270264,10.4850006103516,-1.41460001468658,-1.91441249847412,-2.32196259498596,-11.6599998474121,-8.13064956665039,-5.66266250610352,-6.06127500534058,-0.06916250288486,2.95295000076294,46.3300514221191,15.9660005569458,6.24000024795532,-16.396951675415,-33.1260032653809,-27.1380004882813,7.71900033950806,0.82905006408691,4.03605031967163,-3.15713739395142,-4.95109987258911,-9.35879993438721,-3.168137550354,-0.07301250100136,11.9050245285034,5.33279991149902,6.66599988937378,8.27213764190674,6.50100040435791,2.58495020866394,-10.4689502716064,-29.1400508880615,-28.0750522613525,-21.9889507293701,4.05495023727417,5.1589503288269,6.79200029373169,-8.07839965820313,-5.04336261749268,-0.83916246891022,15.5887870788574,16.1302623748779,12.9504375457764,8.70650005340576,8.5452127456665,8.33428764343262,-14.3490009307861,-17.5579509735107,-13.6180505752563,-19.4980506896973,-13.570050239563,-9.80295085906982,7.14000034332275,8.87805080413818,10.1809501647949,3.80655002593994,4.69026231765747,7.0914249420166,3.86100006103516,2.34863758087158,2.98567509651184,7.09280014038086,5.28109979629517,1.30253744125366,-2.30400013923645,0.68805003166199,1.95495009422302,-7.31505012512207,-6.2029504776001,-4.95105028152466,8.89005088806152,8.45400047302246,9.70905017852783,10.0535879135132,11.0787878036499,10.9847373962402,4.12939977645874,2.80568742752075,0.96992498636246,-4.73880004882813,-8.99538707733154,-10.746862411499,1.36395001411438,0.08505000174046,-0.43200001120567,-3.39195013046265,-1.69605004787445,-1.08000004291534,11.367000579834,11.8549509048462,11.3790006637573,SWING_RIGHT
0.80299997329712,0.52263748645782,0.28558748960495,-0.21436250209808,-0.18438750505447,-0.22728750109673,-0.1710499972105,-0.08758749812841,-0.06366249918938,1.71795010566711,1.75395011901855,1.93095004558563,0.38205000758171,0.31005001068115,0.28905001282692,10.900050163269,10.85205078125,10.5739507675171,0.01704999990761,0.00082499999553,-0.08910000324249,-0.32436248660088,-0.35997501015663,-0.58726251125336,-0.05664999783039,-0.0441375002265,-0.13213749229908,2.23995018005371,2.94705009460449,4.26195001602173,0.4609500169754,0.22395001351833,-0.56100004911423,10.5169506072998,10.5169506072998,10.2790508270264,-0.36533749103546,-0.80891251564026,-1.38380002975464,-1.09161245822906,-1.71022498607636,-2.48998737335205,-0.32628750801086,-0.48675000667572,-0.63690000772476,5.66295003890991,8.32095050811768,17.2450504302979,-1.50000011920929,-2.26800012588501,-5.0779504776001,11.8309507369995,15.9460506439209,19.3950004577637,-2.27768754959106,-3.05634999275208,-3.5957624912262,-4.05006265640259,-6.0512375831604,-7.22356224060059,-1.00196254253387,-1.48816251754761,-1.34103751182556,33.4639511108398,35.2219505310059,32.310001373291,-6.40200042724609,-8.86395072937012,-16.7410507202148,16.9639511108398,12.2239503860474,6.71295022964478,-4.40151262283325,-4.93528747558594,-6.08808755874634,-6.94595003128052,-5.04570007324219,-3.00107502937317,0.8984249830246,2.83758759498596,4.25672483444214,17.3340015411377,10.0860004425049,4.15904998779297,-32.779052734375,-31.6720523834229,-35.2549514770508,0.99900007247925,1.557000041008,2.14605021476746,-8.62386226654053,-11.343337059021,-11.5454626083374,1.17356252670288,8.35614967346191,14.1829872131348,5.79864978790283,6.98953723907471,8.20765018463135,-3.18795013427734,-10.5600004196167,-19.678050994873,-39.2449531555176,-37.4250030517578,-29.428050994873,1.92300009727478,1.57095003128052,1.87500011920929,-9.58127498626709,-5.41860008239746,-0.67512500286102,16.4595756530762,14.5314121246338,8.49543762207031,9.53713703155518,10.1880626678467,10.3101625442505,-27.4159507751465,-25.3210506439209,-13.4100008010864,-18.1450500488281,-12.3109502792358,-12.4930505752563,5.81295013427734,10.4160003662109,11.5560007095337,3.32186245918274,6.17361259460449,11.9018621444702,0.68777501583099,1.42367494106293,4.93295001983643,7.8692626953125,4.86997509002686,-0.97638750076294,-1.65495002269745,0.12300000339746,0.1710000038147,-8.68695068359375,-5.76495027542114,-2.76405024528503,8.91900062561035,7.68105030059814,7.48695039749146,13.4580869674683,13.4552001953125,12.1350622177124,4.22482490539551,2.0315625667572,-0.50819998979568,-4.9456000328064,-7.5312876701355,-8.35037517547607,-0.89595001935959,-2.15400004386902,-1.52100002765656,-0.32100000977516,0.85395002365112,1.15995001792908,7.93695020675659,8.11905002593994,7.77195024490356,8.29345035552979,8.61409950256348,9.11982536315918,-4.35242509841919,-3.27772498130798,-0.96937501430511,-5.671875,-3.98832488059998,-2.79468750953674,-1.37295007705688,-0.72795003652573,-0.04395000264049,2.12295007705688,2.17095017433167,1.02600002288818,8.78999996185303,9.85305023193359,10.0230007171631,SWING_RIGHT
-0.55412501096725,-0.56856250762939,-0.43573749065399,-0.23017500340939,0.57626247406006,1.48238754272461,0.77439999580383,0.95562499761581,1.07758748531342,1.27305006980896,0.36705002188683,0.40800002217293,1.94295012950897,2.10900020599365,1.92000007629395,10.1140508651733,9.79800033569336,9.44400024414062,-0.43986248970032,-0.34430000185966,-0.16761249303818,1.74845004081726,1.39823746681213,1.25468754768372,0.92551249265671,0.45086249709129,0.36465001106262,1.37805008888245,0.90195006132126,0.18300001323223,1.59105002880096,1.84095013141632,2.14904999732971,9.421950340271,8.99295043945313,8.65305042266846,0.13158750534058,0.2435124963522,0.19208750128746,1.23364996910095,0.94146251678467,0.67292499542236,0.39173749089241,0.37647500634193,0.42102500796318,-0.1489500105381,0.04905000329018,0.16095000505447,1.94595015048981,1.31100010871887,0.87795001268387,7.85100030899048,7.03200054168701,6.72495031356812,0.08401250094175,-0.32793748378754,-1.06191253662109,0.75019997358322,0.76559996604919,0.47891250252724,0.65848749876022,0.88838750123978,0.96277499198914,0.41295000910759,1.27305006980896,2.90595006942749,0.37995001673698,-0.5100000500679,-1.25505006313324,7.11600017547607,8.73495006561279,11.1130504608154,-2.05865001678467,-3.80737495422363,-3.93387508392334,-0.45663750171661,-3.75705003738403,-6.06347513198853,0.71128749847412,-0.54216247797012,-1.93311250209808,5.12895011901855,20.2510509490967,33.7729530334473,-2.43105006217957,-3.54495024681091,-1.18605005741119,13.5679502487183,16.4490013122559,13.9030504226685,-3.86952495574951,-3.77740001678467,-3.8420250415802,-7.93044996261597,-8.7282247543335,-7.33576250076294,-3.2905125617981,-3.71332502365112,-1.40263748168945,36.5869522094727,33.586051940918,24.1950016021729,-5.1589503288269,-10.371000289917,-27.4999504089355,11.3910007476807,7.65705013275146,3.25005006790161,-3.89413738250732,-4.09213733673096,-5.08144998550415,-5.48611259460449,-3.67949986457825,-1.1785124540329,1.12942504882813,3.15864992141724,5.09946250915527,16.8670501708984,10.9650001525879,6.01200008392334,-29.0449504852295,-30.1180515289307,-33.8590507507324,5.90595006942749,7.69005060195923,4.69905042648315,-10.0168752670288,-10.8235874176025,-8.94176292419434,9.24797534942627,14.8638877868652,16.7986507415771,7.30757474899292,8.41486263275146,9.43703746795654,-15.6109504699707,-23.4070510864258,-23.776050567627,-26.6140518188477,-16.5349502563477,-13.5199508666992,-3.01695013046265,1.0200001001358,7.06800031661987,-5.3237247467041,2.31522488594055,5.27642488479614,15.1355876922607,4.14342498779297,1.71641254425049,10.495512008667,10.4626502990723,7.99727487564087,-19.6900501251221,-5.59500026702881,-0.18195000290871,-12.3109502792358,-9.34800052642822,-7.52805042266846,12.8280010223389,13.3549509048462,10.746000289917,10.0901622772217,12.6355628967285,11.5680122375488,2.27122497558594,1.95758748054504,-1.88223743438721,2.56244993209839,-3.11093759536743,-9.11638736724854,3.11505007743835,2.74605011940002,-2.38305020332336,-4.85295009613037,-2.67105007171631,2.54505014419556,8.65799999237061,8.08095073699951,8.30100059509277,SWING_RIGHT
1.97257494926453,1.62332499027252,0.97666251659393,-0.1703625023365,0.88151252269745,1.8133499622345,1.22045004367828,1.54577493667603,1.86504995822906,3.57000017166138,3.30105018615723,2.01495003700256,1.86405003070831,1.25100004673004,1.09305000305176,9.09195041656494,9.99705028533936,10.1070003509521,0.21532499790192,-0.52071249485016,-1.08913743495941,2.5231249332428,2.82686257362366,2.77970004081726,2.09646248817444,2.16438746452332,2.06621241569519,1.05705010890961,0.95895004272461,0.94005006551743,1.16505002975464,0.62895005941391,0.32895001769066,10.0090503692627,9.56295013427734,8.98905086517334,-1.26926255226135,-1.08872497081757,-1.04582500457764,2.68331241607666,1.92376244068146,0.36286249756813,1.95799994468689,1.65371251106262,0.97831249237061,0.83700001239777,4.69995021820068,11.8320007324219,0.52305001020432,-0.34305000305176,0.31695002317429,8.5890007019043,10.2720003128052,12.5329504013062,-1.22526252269745,-2.1038875579834,-3.45606255531311,-2.66997504234314,-6.48271226882935,-9.28400039672852,-0.62012499570847,-2.9546000957489,-4.60611248016357,23.5060520172119,33.6940498352051,35.1599998474121,1.44105005264282,0.56894999742508,-3.40605020523071,15.2160005569458,15.1219511032104,13.3330507278442,-4.49074983596802,-5.12998723983765,-5.1486873626709,-10.0281496047974,-8.82447528839111,-6.71549987792969,-4.76135015487671,-3.49923753738403,-1.18401253223419,33.5770530700684,33.0910530090332,31.0549507141113,-8.7679500579834,-12.4180507659912,-23.4880504608154,9.27600002288818,4.7920503616333,-0.89505004882813,-4.7470498085022,-5.11293745040894,-6.86551237106323,-5.17605018615723,-2.23987507820129,1.83782494068146,1.48307502269745,6.29268741607666,7.93086242675781,23.3260517120361,4.21605014801025,-1.82505011558533,-36.0859527587891,-35.1520500183105,-38.6440505981445,-3.57705020904541,13.735050201416,9.52005004882812,-9.8115873336792,-10.9911994934082,-5.17192506790161,9.41531276702881,17.1022491455078,18.7734241485596,8.30898761749268,8.24573707580566,9.22624969482422,-13.5040502548218,-27.1980018615723,-17.6089515686035,-38.1580505371094,-26.2879505157471,-15.774001121521,3.97305011749268,4.30605030059814,11.8789501190186,-0.28833749890327,2.57454991340637,3.2627375125885,13.32457447052,7.02542495727539,4.04112482070923,9.27643775939941,8.36110019683838,6.60591268539429,-7.71495056152344,-2.04105019569397,2.38394999504089,-12.4900503158569,-7.74795055389404,-3.1279501914978,9.29505062103272,5.53305006027222,3.41505026817322,6.29323768615723,8.79587459564209,21.8985252380371,2.19862508773804,0.56870001554489,-3.3659999370575,0.41511249542236,-2.96821236610413,-7.33864974975586,-0.3120000064373,-4.00995016098022,-0.21600000560284,4.93995046615601,7.67205047607422,5.36400032043457,1.73205006122589,3.74295020103455,6.26805019378662,20.0831127166748,12.061224937439,0.86556249856949,-2.84253740310669,-1.58056247234344,0.47519999742508,-3.17350006103516,-0.93568748235703,1.31573748588562,0.89700001478195,0.51405000686646,-1.46595001220703,4.72395038604736,3.5029501914978,2.76495003700256,8.57700061798096,10.3540506362915,11.7360010147095,SWING_RIGHT
0.30277499556541,-1.4918749332428,-3.57788753509521,1.96817493438721,0.99756246805191,0.09473749995232,1.83149993419647,1.68190002441406,1.56983745098114,1.54800009727478,1.86705005168915,1.51500010490417,-0.70005005598068,-1.77300012111664,-1.33005011081696,11.3620510101318,14.9860506057739,16.8730506896973,-5.14813756942749,-5.55293750762939,-4.65918731689453,-0.78801250457764,-1.12942504882813,-1.04995000362396,1.25688743591309,0.95823746919632,0.67581248283386,2.00999999046326,2.58795022964478,2.45295000076294,-0.94395005702972,-0.97500002384186,-0.56505000591278,16.8900012969971,15.2179508209229,12.3340501785278,-3.27414989471436,-0.41401249170303,0.42294999957085,-1.13327503204346,-1.03372502326965,-1.24932503700256,0.27307498455048,0.03368749842048,0.01704999990761,1.91505014896393,3.12195014953613,5.03295040130615,0.20205001533031,0.24105000495911,-0.4909500181675,9.51300048828125,7.06095027923584,8.75594997406006,0.62232500314713,0.15592500567436,-0.66192501783371,-2.03128743171692,-3.32681250572205,-4.89926242828369,-0.19057500362396,-0.65628749132156,-1.36056244373322,8.13899993896484,13.9900503158569,20.7559509277344,-1.41795003414154,-1.57395005226135,-0.79995006322861,11.9340009689331,14.8399505615234,14.4949502944946,-1.54096245765686,-2.52326250076294,-3.57678747177124,-6.32445001602173,-7.38787508010864,-7.83475017547607,-2.10113739967346,-2.58293747901917,-1.91180002689362,30.2310009002686,42.7189521789551,39.9310531616211,-1.29405009746552,-8.824049949646,-31.0999507904053,13.1179504394531,10.7509508132935,5.57100009918213,-4.4967999458313,-6.00077486038208,-6.91212511062622,-7.31238746643066,-4.34266233444214,-0.56650000810623,0.43628749251366,5.97038745880127,7.71154975891113,25.6710014343262,-1.52805006504059,-10.2460508346558,-44.1259536743164,-37.7719535827637,-27.4110012054443,-3.09795022010803,7.72905015945435,12.0850505828857,-8.73193740844727,-9.46591281890869,-7.51189994812012,5.98922491073608,14.2381248474121,18.6828117370605,8.00896263122559,8.42572498321533,9.22886276245117,-14.26305103302,-19.594051361084,-16.9570503234863,-24.5440502166748,-15.1440010070801,-10.6290006637573,9.421950340271,6.77805042266846,6.73695039749146,-3.6565375328064,1.44966244697571,5.01641225814819,18.6096630096436,14.4544124603271,8.13560009002686,9.92708778381348,9.98098754882812,9.09988784790039,-11.3479509353638,-6.98895025253296,-4.75200033187866,-7.35495042800903,-5.25705003738403,-2.83095002174377,7.38600015640259,6.52395009994507,5.80305004119873,6.00723743438721,11.1042251586914,14.3658628463745,4.56073760986328,3.70218753814697,2.41903758049011,7.22411251068115,-0.16335000097752,-4.26359987258911,-3.71700024604797,-1.9980001449585,-1.2720000743866,-1.04205000400543,0.85395002365112,0.41805002093315,5.62395048141479,5.60895013809204,6.29700040817261,16.0160007476807,14.5063877105713,9.89394950866699,0.29988750815392,-2.02881240844727,-3.84408736228943,-6.63671255111694,-7.07121229171753,-4.66125011444092,-1.86105012893677,-3.09195017814636,-2.52495002746582,-0.07200000435114,-0.42195001244545,-1.04205000400543,7.55895042419434,9.37395000457764,10.9330501556396,SWING_RIGHT
-1.60036253929138,-1.79960000514984,-1.70926249027252,2.42756247520447,1.95703744888306,1.29085004329681,2.06964993476868,1.91056251525879,1.6218124628067,-0.19005000591278,0.81795001029968,0.67200005054474,-1.10205006599426,-1.13595008850098,-0.67995005846024,10.8570003509521,10.5049505233765,10.2559509277344,-1.44333744049072,-1.02698755264282,-0.5546749830246,0.45100000500679,-0.46956250071526,-1.24300003051758,1.27201247215271,0.90323752164841,0.6319500207901,0.28395000100136,0.15195000171661,0.65505003929138,-0.12495000660419,0.10395000129938,-0.24495001137257,9.83895015716553,9.55905055999756,9.72405052185059,-0.19992500543594,-0.13681249320507,-0.5906999707222,-1.74033749103546,-1.7598625421524,-1.60778748989105,0.53570002317429,0.75061249732971,1.0477499961853,1.09800004959106,1.78305006027222,4.03695011138916,-1.52805006504059,-3.60495018959045,-5.10405015945435,11.1300001144409,14.2480506896973,16.7650508880615,-1.92279994487762,-2.17965006828308,-2.00791239738464,-2.41958737373352,-4.48002481460571,-7.31238746643066,0.89980000257492,-0.43834999203682,-2.54388737678528,15.0799503326416,26.3250007629395,32.2240524291992,-3.30105018615723,2.06595015525818,1.36905002593994,11.3959503173828,6.74895048141479,5.78895044326782,-1.87055003643036,-1.80097496509552,-1.87618744373322,-9.53493785858154,-10.7115249633789,-10.3489370346069,-4.05707502365112,-4.4166374206543,-2.80513739585876,35.4520530700684,35.3230514526367,28.5949516296387,-2.2110002040863,-14.824951171875,-28.2229518890381,3.82995009422302,2.38995003700256,-1.91700005531311,-1.98646247386932,-1.98054993152618,-2.60823750495911,-8.72080039978027,-6.52121257781982,-3.49951243400574,0.37757501006126,3.85247492790222,7.2085747718811,20.7829513549805,6.42000007629395,-0.90300005674362,-37.2640533447266,-35.8420524597168,-37.336051940918,-2.39205002784729,1.08495008945465,7.52505016326904,-8.42008781433105,-8.3956127166748,-5.85419988632202,12.5394496917725,20.1112995147705,22.4721755981445,10.3217124938965,10.444637298584,10.3028745651245,-18.6220512390137,-25.4070014953613,-21.6610507965088,-26.8870506286621,-20.1520500183105,-12.0540008544922,18.1039505004883,15.5959510803223,10.0849504470825,-1.56213748455048,3.5622124671936,5.20918750762939,20.2636489868164,11.9319753646851,5.58360004425049,9.65318775177002,8.71186256408691,7.4516749382019,-11.2930507659912,-3.42795014381409,0.56595003604889,-8.28194999694824,-6.42600011825562,-4.07205009460449,6.52395009994507,5.50395011901855,5.71200037002563,4.82817506790161,5.04611253738403,7.62465000152588,2.95597505569458,1.90781247615814,1.4441624879837,5.29484987258911,2.4950749874115,-2.3066999912262,1.61805009841919,0.81300002336502,-0.15600000321865,-1.6429500579834,0.27195000648499,0.91095006465912,6.04995012283325,6.36795043945313,7.32600021362305,11.9579620361328,12.3824253082275,9.6516752243042,-3.34042501449585,-4.2140998840332,-4.26112508773804,-10.1857252120972,-10.70973777771,-7.78318738937378,0.03495000302792,0.28095000982285,0.20505000650883,0.90900003910065,1.00499999523163,0.3529500067234,9.04395008087158,10.0900506973267,11.3020505905151,SWING_RIGHT
-0.94751250743866,-0.79736250638962,-0.4311999976635,-3.06734991073608,-3.22148752212524,-2.92379999160767,0.80134999752045,1.06204998493195,1.37678754329681,2.4300000667572,3.23895025253296,4.29000043869019,2.10195016860962,1.53195011615753,1.29900002479553,8.10195064544678,7.50405025482178,7.69305038452148,-0.07919999957085,0.06022499874234,-0.09762500226498,-2.64536237716675,-2.40019989013672,-2.15599989891052,1.50026249885559,1.53477501869202,1.5914249420166,5.56695032119751,6.35700035095215,6.69495010375977,0.925950050354,0.4870500266552,0.23100000619888,9.52995014190674,11.731050491333,13.3000507354736,-0.51370000839233,-0.89375001192093,-0.93706250190735,-1.91537499427795,-1.5555374622345,-0.65614998340607,1.66512501239777,1.78447496891022,1.85528743267059,6.54900026321411,6.2590503692627,5.41395044326782,-0.09600000083447,-0.51794999837875,-0.28500002622604,13.4940004348755,11.7690010070801,8.59800052642822,-0.61269998550415,-0.60362499952316,-1.08459997177124,-0.34966251254082,-0.63937497138977,-2.08023738861084,1.65453743934631,1.1061874628067,-0.26949998736382,7.23405027389526,14.8240509033203,27.1530017852783,-0.70200002193451,-0.51495003700256,1.1869500875473,9.58695030212402,11.7450008392334,12.2770509719849,-2.10732507705688,-3.27305006980896,-3.99946236610413,-4.52993726730347,-6.66379976272583,-7.67923736572266,-2.26572489738464,-3.27566242218018,-2.33144998550415,36.8509521484375,36.433952331543,29.0479507446289,0.01800000108778,-11.5039501190186,-28.7980518341064,10.3750505447388,7.31205034255981,2.74005007743835,-4.31956243515015,-4.20419979095459,-5.10812520980835,-7.27732515335083,-5.6923623085022,-1.01901245117188,0.45787498354912,3.92837500572205,8.17712497711182,20.6599502563477,12.502950668335,-0.51105004549026,-36.0930023193359,-33.925952911377,-31.7440509796143,-2.01104998588562,-0.77295005321503,9.55395030975342,-7.77658748626709,-9.51939964294434,-7.58367490768433,5.69043731689453,15.5062875747681,20.3544006347656,8.59828758239746,8.63431262969971,8.97256278991699,-13.6330509185791,-20.5140018463135,-19.5150012969971,-23.8879508972168,-15.9799509048462,-12.8110504150391,11.3449506759644,15.8530511856079,17.2249507904053,-3.61102509498596,2.06098747253418,6.81298732757568,20.9959754943848,16.6068382263184,8.75586223602295,8.89900016784668,8.31861209869385,7.39928722381592,-13.6470003128052,-6.67995023727417,-1.39395010471344,-9.46500015258789,-8.05200004577637,-7.11300039291382,14.3680505752563,11.4169502258301,9.19500064849854,8.31888771057129,8.88965034484863,7.16416263580322,5.35768747329712,4.27803754806519,0.23306250572205,4.88455009460449,0.33783748745918,-6.68717479705811,1.20600008964539,1.3090500831604,0.60000002384186,-5.63100004196167,-3.70305013656616,-1.52100002765656,7.54905033111572,6.64905023574829,7.0489501953125,5.60752487182617,4.08196258544922,4.03438758850098,-2.67987489700317,-4.72793769836426,-4.70511245727539,-7.95712518692017,-6.82357501983643,-5.28055000305176,0.80595004558563,1.29195010662079,1.01205003261566,-1.32495009899139,-0.60600000619888,-0.4240500330925,7.32405042648315,8.22000026702881,9.57300090789795,SWING_RIGHT
1.88388752937317,1.54027497768402,0.94792497158051,-0.72490000724792,-2.49108743667603,-2.70105004310608,-0.3077250123024,-0.5490375161171,-0.21628749370575,0.31695002317429,3.30105018615723,2.23995018005371,6.64005041122437,3.85695028305054,3.4740002155304,9.6109504699707,7.75305032730103,7.23795032501221,0.26606249809265,-0.53432500362396,-1.43082499504089,-2.33034992218018,-1.64230000972748,-0.56746250391006,0.32766249775887,0.9589250087738,1.67048752307892,1.38105010986328,0.07800000160933,-1.94295012950897,2.80800008773804,1.95795011520386,1.40895009040833,7.2330002784729,8.02095031738281,8.22000026702881,-2.22199988365173,-3.17583751678467,-4.34940004348755,1.03262495994568,3.33574986457825,5.31712484359741,2.40143752098084,3.37397503852844,4.08347511291504,-3.51600027084351,-3.72195029258728,-2.28299999237061,0.01095000095665,-1.50195002555847,-2.29500007629395,7.71195030212402,9.68505001068115,11.5390501022339,-5.22788763046265,-5.67352485656738,-4.68132495880127,5.8825249671936,1.51195001602173,-2.7497251033783,3.9811749458313,1.84126245975494,0.04427500069141,-0.09600000083447,8.19000053405762,15.2239503860474,-3.44700026512146,-2.74995017051697,-0.550950050354,11.5579509735107,9.81495094299316,9.85995006561279,-3.07903742790222,-1.71132504940033,-1.01681244373322,-6.9858250617981,-10.3692874908447,-11.9506750106812,-1.94796252250671,-4.04731225967407,-5.42753744125366,22.2220516204834,28.441951751709,33.8110504150391,1.58895003795624,2.1780002117157,-1.13295006752014,10.7779502868652,12.4729509353638,12.0760507583618,-0.97831249237061,-1.58812499046326,-2.26696252822876,-11.4166250228882,-9.09947490692139,-6.42001247406006,-5.38876247406006,-3.60813736915588,-0.90337496995926,33.3799514770508,26.2909507751465,20.0209503173828,-9.88500022888184,-16.1380500793457,-22.1760005950928,9.63000011444092,4.15995025634766,3.49200010299683,-2.83703756332397,-5.28302478790283,-7.66204977035522,-4.12596225738525,0.3272500038147,4.0746750831604,1.93599998950958,5.70817518234253,6.55792474746704,14.5630502700806,3.65595006942749,-0.81495004892349,-25.1599502563477,-22.1520004272461,-21.7950019836426,5.86500024795532,7.95195055007935,5.85300016403198,-9.67339992523193,-9.70076274871826,-7.5963249206543,8.99855041503906,13.1613626480103,15.0622997283936,6.59738731384277,6.46511268615723,6.74946260452271,-6.38595008850098,-12.3060007095337,-16.0950012207031,-20.8230018615723,-16.6789512634277,-11.4750003814697,3.61695027351379,3.61695027351379,6.30900049209595,-3.94322490692139,-0.21972499787807,2.18886256217957,14.0010747909546,10.4246997833252,6.47583723068237,7.66919994354248,8.89019966125488,9.32689952850342,-15.7810506820679,-12.2050504684448,-6.82395029067993,-7.94205045700073,-6.06405019760132,-5.04900026321411,9.34800052642822,10.5310506820679,10.4659509658813,4.20158767700195,13.4682626724243,15.2215251922607,3.92108750343323,4.58108758926392,3.0106999874115,8.28767490386963,-2.39153742790222,-6.66792488098145,-2.76705002784729,1.48605012893677,2.0179500579834,-4.11300039291382,-0.85095006227493,-0.04605000093579,9.70905017852783,6.99300050735474,6.22005033493042,SWING_RIGHT
0.20941250026226,-0.14038750529289,-1.11636245250702,1.91729998588562,2.28607487678528,2.55791258811951,1.00925004482269,1.27324998378754,1.51566255092621,-0.91095006465912,-0.83100003004074,0.24300001561642,3.05205011367798,2.4060001373291,2.41800022125244,9.00300025939941,9.73605060577393,12.7939510345459,-1.59224998950958,-1.86284995079041,-1.638587474823,1.82338750362396,1.45337498188019,1.31972503662109,1.28397500514984,1.27861249446869,1.39865005016327,-1.39695012569427,-1.76595008373261,-1.85400009155273,1.68495011329651,1.97205007076263,1.7610000371933,10.7230501174927,10.5090007781982,7.25895023345947,-1.21838748455048,-0.76326251029968,-0.69382500648499,1.38118743896484,1.86422502994537,1.5057624578476,1.70898747444153,2.36115002632141,2.30229997634888,-1.91895008087158,0.55395001173019,5.57400035858154,1.39995002746582,-0.28995001316071,-3.02805018424988,2.40900015830994,0.71895003318787,4.09995031356812,-1.75051248073578,-3.50391244888306,-3.96398758888245,-0.83104997873306,-4.16253757476807,-10.2950372695923,1.93888747692108,1.65838754177094,0.33687499165535,8.73600006103516,14.7280502319336,30.0850505828857,-4.94400024414063,-3.90405011177063,1.00499999523163,9.80805015563965,23.076000213623,9.4480504989624,-2.80115008354187,-1.29263746738434,-1.72342503070831,-10.8376121520996,-9.41558742523193,-8.00923728942871,-0.4101625084877,-1.11237502098084,-1.4716625213623,32.881950378418,37.4970016479492,35.859001159668,-0.38805001974106,-7.35495042800903,-22.5919513702393,3.94005012512207,0.29700002074242,-2.90400004386902,-3.21488738059998,-4.5413498878479,-5.05340003967285,-6.81546258926392,-6.06842517852783,-5.50384998321533,-0.4296875,1.76701247692108,4.43616247177124,30.6049518585205,19.7070007324219,11.6910009384155,-34.7329521179199,-37.185001373291,-39.175952911377,-3.89595007896423,-3.28995013237,0.47400003671646,-4.96567487716675,-5.67476224899292,-9.29953765869141,-3.68720006942749,0.82059997320175,21.3493499755859,7.12552499771118,8.90890026092529,9.59969997406006,5.52195024490356,-0.44805002212524,-30.0750007629395,-38.086051940918,-38.1030006408691,-24.4560012817383,7.05600023269653,9.89595031738281,18.5850009918213,-7.07148742675781,-3.34675002098084,2.35523748397827,24.2840118408203,22.731912612915,14.2370252609253,9.83399963378906,9.73871231079102,9.17702484130859,-29.8159523010254,-16.8250503540039,-6.00000047683716,-15.3600006103516,-11.1540002822876,-9.95895004272461,16.1160011291504,9.4819507598877,8.08305072784424,5.37886238098145,6.94402503967285,8.05571269989014,3.74921250343323,3.5989248752594,2.55516242980957,5.99774980545044,2.01767492294312,-2.83786249160767,4.42500019073486,4.01999998092651,1.06200003623962,-4.62495040893555,-2.62305021286011,-0.7620000243187,6.65595054626465,7.21395015716553,8.61495018005371,8.925950050354,8.85334968566895,8.40138721466064,-0.37207499146461,-4.57091236114502,-3.24554991722107,-7.67552518844604,-10.1642751693726,-7.6007251739502,-0.95100003480911,-2.0310001373291,-2.37105011940002,0.73200005292892,0.80805003643036,1.57905006408691,9.28095054626465,9.61800003051758,10.0999507904053,SWING_RIGHT
-1.34392499923706,0.03588749840856,1.42821252346039,-8.43136215209961,-5.22830009460449,-1.78543746471405,-0.67883747816086,0.01292499992996,0.3573625087738,3.80895018577576,1.49805009365082,1.0480500459671,2.35800004005432,2.7480001449585,1.98195004463196,7.03905010223389,7.83900022506714,8.00895023345947,2.42508745193481,2.78905010223389,2.17442488670349,1.65632498264313,5.38243770599365,8.17891216278076,0.84356248378754,1.93476247787476,2.88131237030029,0.94005006551743,0.89895004034042,1.42095005512238,0.65505003929138,0.3199500143528,-0.07200000435114,8.63895034790039,9.43605041503906,9.09195041656494,-0.76504999399185,-2.26379990577698,-2.81022500991821,7.45854997634888,4.31365013122559,1.23296248912811,2.30656242370605,0.76725000143051,-0.55673748254776,2.08695006370544,2.05395007133484,2.60400009155273,-0.73605000972748,-0.41700002551079,-0.26399999856949,8.3299503326416,8.82600021362305,8.96700000762939,-2.45492506027222,-1.80881249904633,-1.0978000164032,-0.57873749732971,-1.33938753604889,-1.50246250629425,-1.09119999408722,-1.10989999771118,-0.93637502193451,3.17895007133484,3.26100015640259,2.71200013160706,-0.27600002288818,-0.56100004911423,-0.94200003147125,8.91900062561035,8.61000061035156,8.84505081176758,-0.61971247196198,-0.45622500777245,-0.42611250281334,-1.32027494907379,-0.77233749628067,-0.30140000581741,-0.68557500839233,-0.29273748397827,0.06613750010729,2.16405010223389,3.03495025634766,8.16300010681152,-1.23405003547668,-1.5040500164032,-2.18505001068115,10.6440000534058,13.042950630188,16.7290515899658,-0.97597497701645,-2.04256248474121,-2.91857504844666,-3.85769987106323,-6.87403726577759,-8.48801231384277,-1.55691254138947,-2.38837504386902,-1.90918743610382,55.3980026245117,50.5170021057129,34.6350021362305,-5.70795011520386,-18.8080501556396,-25.2319507598877,24.7960510253906,14.2840509414673,4.89495038986206,-3.60249996185303,-4.16336250305176,-4.24943733215332,-8.81044960021973,-7.28749990463257,-5.48803758621216,-0.73108750581741,1.83988749980927,4.1855001449585,24.2790012359619,16.1580009460449,7.39395046234131,-31.1190013885498,-39.4870529174805,-43.4839515686035,-6.62100028991699,-8.98695087432861,-2.78895020484924,-5.32674980163574,-10.4194746017456,-14.253662109375,-3.75209999084473,4.58892488479614,17.7417621612549,6.09743738174438,8.41637516021729,10.2665748596191,-2.05305004119873,-11.1589508056641,-22.6330509185791,-44.4400520324707,-41.2639503479004,-32.2830009460449,2.45505023002625,8.24805068969727,16.7100009918213,-8.77648735046387,-1.20518743991852,5.18209981918335,22.7731628417969,16.837287902832,6.2302622795105,11.9604377746582,10.8411874771118,9.0782995223999,-24.517951965332,-13.4479503631592,-6.73305034637451,-17.002950668335,-13.6540508270264,-10.5790500640869,12.5449504852295,6.16500043869019,4.8550500869751,6.73598766326904,7.89634990692139,7.26962518692017,4.98684978485107,5.97052478790283,5.43111228942871,6.55407476425171,3.38566255569458,0.97789996862411,-2.46705007553101,-0.46995002031326,-0.70500004291534,-7.36995029449463,-4.16295003890991,-1.54305005073547,4.75395011901855,4.54800033569336,4.44300031661987,SWING_RIGHT
0.45636248588562,0.26812499761581,-0.03561250120401,-0.84136247634888,-1.23090004920959,-0.64157497882843,-0.19717499613762,-0.37496250867844,0.01388750039041,2.31495022773743,0.79605001211166,-0.20205001533031,2.64795017242432,2.81805014610291,1.58205008506775,9.85995006561279,9.80505084991455,8.28194999694824,-0.24447499215603,-0.57736247777939,-0.98175001144409,-0.01842499896884,0.79392498731613,1.77540004253387,0.39668750762939,0.91973751783371,1.54563748836517,-0.26595002412796,-0.60600000619888,-1.02105009555817,0.925950050354,0.47100001573563,0.09900000691414,8.20095062255859,9.19695091247559,10.4299507141113,-1.52349996566772,-2.06139993667603,-2.44942498207092,2.52037501335144,2.64398741722107,2.06896257400513,1.99870002269745,2.02001237869263,1.61356246471405,-0.97305005788803,-0.51495003700256,0.46995002031326,-0.25905001163483,-0.7590000629425,-1.07295000553131,11.053050994873,11.1510009765625,11.0910005569458,-2.56671237945557,-2.34561252593994,-1.84291243553162,0.89003747701645,-0.4490749835968,-3.32983756065369,0.86734998226166,0.09487500041723,-1.25771248340607,2.03895020484924,4.36695003509521,9.72705078125,-1.39200007915497,-1.45200002193451,-2.15295004844666,11.3959503173828,11.0410509109497,12.5430002212524,-1.70417499542236,-1.60998749732971,-1.59348750114441,-4.83202505111694,-6.40048742294312,-8.27956199645996,-1.87880003452301,-2.58774995803833,-3.73889994621277,14.0140504837036,24.1159515380859,36.634952545166,-1.78695011138916,1.43805003166199,2.73405003547669,13.3740005493164,10.2000007629395,7.69005060195923,-1.96033751964569,-2.31329989433289,-2.71246242523193,-9.75479984283447,-9.16808700561523,-7.38897514343262,-2.94043755531311,-0.68722498416901,2.40666246414185,36.7549514770508,24.492000579834,15.4699506759644,-23.7780017852783,-29.8210506439209,-31.0759506225586,0.48900002241135,-3.65100026130676,-0.95700001716614,-3.27373743057251,-4.972825050354,-8.2237377166748,-4.98602485656738,-1.69922494888306,4.61477518081665,5.16367483139038,6.9640998840332,8.3065128326416,7.95195055007935,0.09000000357628,-6.12900018692017,-33.586051940918,-33.5980529785156,-34.2850532531738,4.26300001144409,10.8690004348755,11.5750503540039,-10.2531003952026,-8.83781242370605,-5.1727499961853,12.1375370025635,16.5617370605469,17.1507873535156,9.33844947814941,10.3162126541138,10.5769128799438,-17.1870002746582,-23.6680507659912,-20.1949501037598,-26.8150520324707,-17.8170013427734,-11.6329507827759,13.6249504089355,13.7689504623413,9.70200061798096,3.50418758392334,3.88478755950928,4.01486253738403,7.50103759765625,3.68280005455017,2.17717504501343,9.10744953155518,7.57996225357056,5.44885015487671,-3.17895007133484,0.44595003128052,1.7370001077652,-8.50305080413818,-5.63595008850098,-3.13500022888184,6.86895036697388,6.79200029373169,6.94800043106079,6.49893760681152,10.9220371246338,11.961537361145,3.10695004463196,1.06576251983643,-0.65848749876022,0.75515002012253,-10.0244379043579,-12.7521619796753,2.05800008773804,0.0730499997735,-0.79095005989075,-1.66995012760162,0.55905002355576,0.59700000286102,7.5799503326416,9.24495029449463,10.1290502548218,SWING_RIGHT
-3.05648756027222,-3.62216258049011,-3.52302503585815,-2.18735003471375,-2.63436245918274,-1.94672501087189,0.38953748345375,0.39036250114441,0.7067499756813,1.33500003814697,0.15900000929832,0.92295002937317,-1.10400009155273,-0.76905006170273,-1.29105007648468,8.69895076751709,9.57495021820068,10.5690002441406,-3.14421248435974,-2.44365000724792,-1.69564998149872,-0.7957124710083,0.2774749994278,0.89319998025894,1.04170000553131,1.1365749835968,1.01378750801086,2.26905012130737,2.22795009613037,1.31295001506805,-1.79205012321472,-1.6429500579834,-1.09995007514954,10.9210500717163,10.7610006332397,10.8259506225586,-0.92839998006821,-0.23072500526905,0.22893749177456,1.12804996967316,1.01859998703003,0.67182499170303,0.77508747577667,0.44123750925064,0.1024374961853,0.71505004167557,0.89700001478195,1.6270500421524,-0.63495004177094,-0.33105000853539,0.05100000277162,10.8019504547119,10.6410007476807,10.2990007400513,0.8595125079155,1.03661251068115,1.13024997711182,-0.28668749332428,-0.67952501773834,-1.06369996070862,-0.49857500195503,-0.69437497854233,-0.86075001955032,3.51000022888184,3.61305022239685,3.88095021247864,0.21405000984669,0.36300000548363,0.39405003190041,10.4760007858276,10.3390502929688,10.6270503997803,0.94269996881485,0.49348750710487,-0.25107499957085,-1.5778124332428,-2.61153745651245,-5.38092517852783,-1.0506374835968,-1.55182504653931,-3.19921255111694,6.05100011825562,18.2509517669678,41.5909538269043,0.07500000298023,2.75100016593933,3.07395005226135,11.8270502090454,12.8449506759644,14.2980003356934,-1.59651243686676,-2.76512503623962,-3.84353756904602,-8.50162506103516,-9.85159969329834,-9.78587532043457,-3.79183745384216,-2.44681239128113,-0.1913999915123,44.7499504089355,31.2970523834229,18.1960506439209,-10.9930505752563,-26.3790016174316,-27.820951461792,13.3830003738403,7.389000415802,6.49500036239624,-5.05518770217896,-6.76087474822998,-9.44941234588623,-3.07862496376038,0.6737499833107,6.02098751068115,5.05065011978149,5.71298742294312,6.20235013961792,0.0730499997735,2.4250500202179,-10.9189500808716,-28.2850513458252,-31.7800521850586,-31.2769508361816,10.3609504699707,8.425950050354,6.01605033874512,-10.3872995376587,-8.64655017852783,-5.19158744812012,11.4783620834351,14.2058124542236,13.9511623382568,7.39846229553223,9.05203723907471,10.0523500442505,-21.9529514312744,-23.6080513000488,-18.3679504394531,-20.4319515228271,-12.3850507736206,-8.5290002822876,7.95900058746338,9.34305000305176,9.50595092773438,-0.88577497005463,1.7881875038147,2.58788752555847,10.2744121551514,5.30200004577637,1.9406750202179,9.83977508544922,9.15901279449463,8.29908752441406,-11.0250005722046,-4.92705011367798,-1.21200001239777,-6.796950340271,-5.7049503326416,-3.49005007743835,9.97995090484619,9.35295009613037,7.81995058059692,12.4902248382568,15.6545124053955,17.0104007720947,3.43337488174438,2.43278741836548,0.10779999941587,-1.69949996471405,-6.77352476119995,-10.3507251739502,0.3870000243187,0.11100000888109,-0.74805003404617,0.27195000648499,1.75395011901855,2.68395018577576,6.58605051040649,7.08900022506714,8.33505058288574,SWING_RIGHT
-1.45158743858337,-1.27861249446869,-1.23420000076294,-2.23616242408752,-2.11612510681152,-1.77168750762939,-0.77508747577667,-0.05857500061393,0.34251248836517,0.20505000650883,1.46400010585785,1.82400012016296,-0.67605000734329,-1.87095010280609,-2.27295017242432,9.99900054931641,10.0039501190186,9.93900012969971,-1.23461246490479,-1.35231244564056,-1.55278754234314,-1.53903746604919,-1.42793750762939,-1.29964995384216,0.60554999113083,0.74813747406006,0.86143749952316,1.29405009746552,0.81105005741119,0.99495005607605,-2.38305020332336,-2.73300004005432,-3.34605026245117,10.2199506759644,10.453950881958,10.5480003356934,-1.62043750286102,-1.22622501850128,-0.81894999742508,-0.86308747529984,-0.73699998855591,-1.5358749628067,1.10797500610352,1.10687494277954,0.25244998931885,2.31195020675659,6.59700012207031,19.5370502471924,-3.51900005340576,-3.6889500617981,-2.24700021743774,13.9510507583618,14.8609504699707,14.1709508895874,-0.64405000209808,-1.26761245727539,-2.23203754425049,-3.85921239852905,-6.67479991912842,-8.64723777770996,-2.1900999546051,-4.94573736190796,-6.34356260299683,33.6559524536133,43.4440536499023,42.0049514770508,-1.74600005149841,-5.22900009155273,-11.1540002822876,14.9809503555298,15.4170007705688,14.5279502868652,-2.99200010299683,-3.46142506599426,-3.37590003013611,-9.01752471923828,-7.52565002441406,-5.20795011520386,-5.93848752975464,-3.4299373626709,-0.34979999065399,37.6699523925781,30.187952041626,26.181001663208,-18.1140003204346,-23.9839515686035,-26.2930507659912,12.4210510253906,9.52305030822754,6.1360502243042,-4.61491250991821,-7.10201263427734,-11.1945629119873,-1.74405002593994,0.62851250171661,5.31272506713867,3.3932249546051,4.69521236419678,5.68686246871948,24.2839508056641,11.1810007095337,-0.44805002212524,-45.867000579834,-47.5729522705078,-43.5079536437988,-1.74705004692078,-5.72295045852661,-8.29305076599121,-14.5169744491577,-14.6920127868652,-12.0205249786377,11.1498746871948,14.3383626937866,14.3323125839233,6.66888761520386,7.32338762283325,7.78607511520386,-8.05200004577637,-12.7680006027222,-15.3910503387451,-34.4809532165527,-27.1500015258789,-22.806001663208,-6.26700019836426,-0.72705000638962,7.15395021438599,-6.76458740234375,-1.2442375421524,2.85491251945496,10.7014875411987,5.36786270141602,3.06198740005493,8.49598789215088,8.93585014343262,8.51372528076172,-14.7490510940552,-10.9170007705688,-7.4370002746582,-19.5289516448975,-17.6179504394531,-15.7669506072998,13.7520008087158,15.0889511108398,12.2269506454468,10.0861749649048,11.2530002593994,9.8565502166748,7.50337505340576,8.72437477111816,7.42926263809204,2.96656250953674,-0.57887500524521,-2.50414991378784,-4.74495029449463,-4.77105045318604,-4.46205043792725,-10.7560501098633,-7.68600034713745,-4.53404998779297,6.57705020904541,5.72205018997192,4.7590503692627,6.22833728790283,2.41587495803833,1.53862500190735,3.60236239433289,-0.55137497186661,-1.66553747653961,-2.20508742332459,-0.0576125010848,1.50961244106293,-3.78195023536682,-2.91300010681152,-2.8000500202179,-1.8469500541687,-0.44295001029968,0.5059500336647,4.67505025863647,5.75805044174194,7.22805023193359,SWING_RIGHT
-0.89471250772476,-1.1756249666214,-1.20216250419617,2.33736252784729,2.29693746566772,2.06978750228882,1.77320003509521,1.51497495174408,1.18291246891022,2.20395016670227,1.35405004024506,1.23000001907349,-0.36000001430511,0.11805000901222,0.36000001430511,10.2100505828857,10.5910501480103,10.3489503860474,-0.82871252298355,-0.49513748288155,-0.02213750034571,1.08693754673004,0.63800001144409,0.46997499465942,0.36574998497963,0.05376249924302,-0.11316250264645,2.67405009269714,1.96695005893707,1.09995007514954,-0.02700000070035,0.57105004787445,1.17195010185242,8.89005088806152,9.06300067901611,9.4150505065918,0.45416250824928,0.83283752202988,0.95796251296997,0.4628250002861,0.47973749041557,0.41098749637604,-0.20460000634193,-0.27362498641014,-0.33481249213219,0.93495005369186,1.07895004749298,1.11195003986359,1.27305006980896,1.07205009460449,0.94200003147125,9.41205024719238,9.06494998931885,8.81100082397461,0.92014998197556,0.72820001840591,0.33701249957085,0.4628250002861,0.5017374753952,0.18411250412464,-0.31679999828339,-0.29562500119209,-0.42391249537468,1.42395007610321,2.78400015830994,5.20305013656616,0.76800000667572,0.40800002217293,0.23295001685619,8.95005035400391,10.6410007476807,13.7310009002686,-1.0118625164032,-1.73483753204346,-2.21567487716675,-2.30202507972717,-4.90847492218018,-7.83777475357056,-1.14674997329712,-1.74982500076294,-2.05026245117188,17.0149517059326,34.3770027160645,46.278003692627,-0.77400004863739,0.27705001831055,-5.44395017623901,15.903000831604,14.9190006256104,13.9530010223389,-2.48916244506836,-2.5618999004364,-2.63835000991821,-9.40610027313232,-9.68343734741211,-8.52884960174561,-1.32109999656677,0.00604999996722,1.71943747997284,46.5750007629395,42.0670509338379,34.3140029907227,-15.9420003890991,-24.3460502624512,-30.7210521697998,11.3910007476807,6.89100027084351,4.37805032730103,-2.77241253852844,-3.16112494468689,-4.52952480316162,-6.2129373550415,-4.24765014648438,-2.05851244926453,3.41591238975525,4.4878625869751,5.51485013961792,24.7920017242432,17.451000213623,9.31005001068115,-34.5289497375488,-39.7050018310547,-42.3730506896973,1.52295005321503,1.47105002403259,1.1539500951767,-13.5958623886108,-15.159649848938,-13.4587745666504,12.2680253982544,18.2675628662109,19.6759757995605,6.73392486572266,7.3518500328064,7.63565015792847,-3.25305008888245,-11.0800504684448,-20.0299510955811,-42.7440032958984,-38.3640022277832,-33.1069526672363,2.7610502243042,4.60095024108887,12.9019508361816,-8.47783756256104,-0.92344999313354,3.26040005683899,17.0187873840332,9.0246753692627,4.62192487716675,8.02064990997314,8.63169956207275,7.90652513504028,-25.6489505767822,-20.0920505523682,-10.5480003356934,-25.8619518280029,-21.9100513458252,-19.3810501098633,21.3469505310059,20.5609512329102,13.4890508651733,5.61921262741089,9.14168739318848,11.5530252456665,5.04501247406006,9.85998725891113,13.2126502990723,5.78366231918335,1.27160000801086,-3.29821252822876,-4.84305000305176,-1.76595008373261,0.74295002222061,-15.8460006713867,-11.1750001907349,-7.16400051116943,8.61705017089844,6.76095008850098,6.35205030441284,SWING_RIGHT
-5.03607511520386,-4.01912498474121,-2.6478374004364,-1.50053751468658,-0.87697499990463,-1.20106244087219,0.72544997930527,0.78141248226166,0.54326248168945,0.68595004081726,2.97300004959106,4.9680004119873,0.95700001716614,0.91605001688004,1.05300009250641,9.80505084991455,8.44995021820068,7.85805034637451,-1.36537504196167,-0.02392499893904,1.32563745975494,-1.79781246185303,-2.16328740119934,-1.9571750164032,0.31322500109673,0.10986249893904,-0.01718750037253,3.87900018692017,0.99705004692078,0.23295001685619,1.97505009174347,3.81195020675659,3.98205018043518,7.94205045700073,8.73495006561279,9.43395042419434,2.33213758468628,2.62322497367859,1.51566255092621,-1.46437501907349,-1.00539994239807,-0.39256250858307,-0.03767500072718,0.04936249926686,0.51452499628067,2.34600019454956,4.51800012588501,3.72795009613037,2.65695023536682,2.01104998588562,2.52795004844666,9.4480504989624,9.33300018310547,9.3120002746582,0.80079996585846,0.20556250214577,-0.28393748402596,-0.11288750171661,-0.09102500230074,-0.8761500120163,0.82568746805191,1.04939997196198,1.01777493953705,2.5639500617981,4.0770001411438,11.9590501785278,2.52495002746582,2.56905007362366,3.29400014877319,9.16800022125244,9.89100074768066,11.9059505462646,-1.46066248416901,-1.9679000377655,-2.59393739700317,-5.12902498245239,-6.68731260299683,-7.831862449646,-0.07631249725819,-0.48963749408722,-0.77371251583099,22.2409515380859,24.5809516906738,41.6860504150391,1.05705010890961,1.08600008487701,1.12695002555847,10.0519504547119,8.43105030059814,7.70505046844482,-3.45523738861084,-4.55083751678467,-4.97406244277954,-8.21094989776611,-6.19258737564087,-3.63549995422363,-0.26633748412132,3.75265002250671,5.45641231536865,50.4880523681641,17.4370517730713,13.1260509490967,-20.5969505310059,-29.8489513397217,-28.1989517211914,5.05800008773804,13.2250509262085,12.8539505004883,-5.81336259841919,-7.7192497253418,-12.9376497268677,-0.25423750281334,3.77671241760254,15.1002502441406,6.46250009536743,5.88898754119873,5.32523727416992,10.5390005111694,7.15305042266846,-8.93100070953369,-31.9590015411377,-36.8880004882813,-29.1430511474609,9.30195045471191,4.40205001831055,-2.2260000705719,-12.1867628097534,-9.87167453765869,-5.55142498016357,17.3300876617432,16.6208629608154,11.8607501983643,5.574387550354,6.03418731689453,6.65458726882935,-13.0099506378174,-15.7500009536743,-17.1660003662109,-23.5980014801025,-20.1589508056641,-17.1060009002686,-0.91905003786087,3.20505023002625,10.4380502700806,-2.24125003814697,0.08841250091791,3.33657503128052,5.91181230545044,2.30298757553101,1.29855000972748,7.37440013885498,7.80848741531372,6.86784982681274,-14.2750511169434,-9.64305019378662,-6.44505023956299,-15.0630006790161,-14.0610008239746,-12.5790004730225,15.0289506912231,15.03600025177,13.3570508956909,8.10493755340576,12.3758249282837,13.5508995056152,3.7427499294281,7.16581249237061,7.88425016403198,3.37026238441467,-1.86298751831055,-5.52474975585938,-4.32105016708374,-2.94900012016296,-1.55205011367798,-10.1170501708984,-6.87600040435791,-4.35000038146973,11.2570505142212,9.42705059051514,8.14995002746582,SWING_RIGHT
0.75129997730255,0.595787525177,0.02818750031292,-0.80767500400543,-0.83091247081757,-0.73906248807907,0.25011250376701,0.43367499113083,0.61063748598099,0.11595000326633,0.72705000638962,1.11495006084442,0.7990500330925,-0.28500002622604,-1.44195008277893,6.54795026779175,7.26195049285889,9.95400047302246,-0.95246249437332,-2.0103874206543,-2.85848736763,-0.75322496891022,-0.87958747148514,-1.18387496471405,0.64487498998642,0.60334998369217,0.60541248321533,0.96900004148483,0.93705004453659,3.34395027160645,-2.02395009994507,-1.96395003795624,-1.71000003814697,13.3909502029419,15.9079504013062,13.9849510192871,-2.35798740386963,-1.51800000667572,-0.74456250667572,-1.51277494430542,-2.14211249351501,-3.1799623966217,0.50599998235703,0.02749999985099,-0.91533750295639,6.78405046463013,10.1800508499146,13.8540010452271,-1.33905005455017,-0.5100000500679,0.17805001139641,10.9570503234863,9.70905017852783,9.74505043029785,-0.59097498655319,-1.52501249313354,-3.0109748840332,-4.91273736953735,-7.49581241607666,-9.61124992370606,-2.63642501831055,-4.8449501991272,-5.59322500228882,22.4850006103516,36.5299530029297,41.077953338623,0.04200000315905,-2.51700019836426,-11.1160507202148,10.1809501647949,10.5690002441406,11.3140506744385,-3.95738744735718,-4.2491626739502,-3.77574992179871,-9.8040246963501,-7.9030876159668,-0.88880002498627,-4.35091257095337,-1.59238743782043,3.67386245727539,36.8170509338379,27.8890514373779,29.7660007476807,-23.076000213623,-28.851001739502,-41.0580024719238,17.7949504852295,23.9140510559082,6.67995023727417,-5.058762550354,-7.6649374961853,-10.9406003952026,1.25771248340607,3.20017504692078,6.73103761672974,4.30031251907349,4.32162475585938,4.15442514419556,21.2880001068115,6.21405029296875,-5.18595027923584,-50.722053527832,-45.3640518188477,-36.1000518798828,-2.34105014801025,-8.69295024871826,-8.25,-13.669150352478,-14.0989751815796,-11.8292627334595,11.8416376113892,15.1795873641968,14.9052753448486,4.28725004196167,5.06934976577759,6.09413766860962,-14.3970003128052,-15.1800003051758,-16.0690498352051,-29.943000793457,-29.0209522247314,-30.1729507446289,-4.85100030899048,1.17405009269714,10.1839504241943,-7.30235004425049,-1.57973754405975,8.44002532958984,11.0631122589111,5.68617486953735,4.5342001914978,7.73808765411377,9.18830013275146,5.67668724060059,-18.9570007324219,-17.1340503692627,-3.90405011177063,-25.4470520019531,-19.594051361084,-12.7420501708984,19.1890506744385,21.6889514923096,8.98095035552979,11.2781620025635,11.9911003112793,10.4710378646851,7.12992477416992,8.52857494354248,7.24941253662109,1.1727374792099,-2.81270003318787,-4.86323738098145,-0.65700000524521,0.80100005865097,0.77205002307892,-7.49895048141479,-3.25695013999939,0.34800001978874,4.83795022964478,3.41805005073547,4.64400005340576,7.49924993515015,5.58524990081787,7.11397504806519,3.17405009269714,-1.22801244258881,-3.94954991340637,-4.43272495269775,-3.04026246070862,-2.66681241989136,-0.10305000841618,-0.84300005435944,-0.12300000339746,2.52795004844666,2.90400004386902,1.89300012588501,7.24500036239624,9.32100009918213,10.1760005950928,SWING_RIGHT
2.1793749332428,0.6736124753952,-0.70894998311996,-2.29817509651184,-1.77209997177124,-1.22718751430511,1.111412525177,1.73346245288849,2.08312487602234,5.72505044937134,6.19200038909912,2.06805014610291,5.09805011749268,5.35905027389526,4.71900033950806,11.3620510101318,10.5520505905151,7.45605039596558,-1.42628753185272,-0.96305000782013,-0.6737499833107,-0.07741250097752,2.27493739128113,3.68032503128052,2.22186255455017,2.19312500953674,1.90011250972748,-2.92200016975403,-3.21000003814697,-0.87495005130768,4.85100030899048,2.84595012664795,0.49005001783371,5.9370002746582,5.09205007553101,6.23895025253296,-1.02726244926453,-2.19821238517761,-4.48043727874756,4.62343740463257,6.00847482681274,7.06516265869141,1.70706248283386,1.63968753814697,1.12117505073547,-1.30605006217957,-2.82705020904541,-2.55600023269653,-1.14705002307892,-2.49795007705688,-3.62895011901855,7.17795038223267,8.21700000762939,11.0119504928589,-7.49333763122559,-6.7739372253418,-4.85773754119873,2.88928747177124,-3.17198753356934,-9.92763710021973,-0.46612501144409,-1.60311245918274,-3.06900000572205,14.2350006103516,33.1860008239746,41.2360534667969,-3.16395020484924,-2.54100012779236,-0.60600000619888,21.5620517730713,16.7050514221191,9.49605083465576,-2.8804874420166,-1.50534999370575,-1.55911254882813,-13.4254999160767,-13.0007619857788,-8.21961212158203,-4.01004981994629,-4.23912477493286,-1.88443744182587,35.193000793457,32.3959503173828,39.118953704834,-1.33005011081696,-4.37400007247925,-26.4130516052246,7.76700019836426,7.30695056915283,1.59795010089874,-1.66072499752045,-1.81967496871948,-2.03747487068176,-6.30684995651245,-5.09946250915527,-3.33987498283386,0.78539997339249,3.72501254081726,6.43403768539429,31.4740524291992,17.2549514770508,7.19100046157837,-43.2180023193359,-43.6710014343262,-37.2139511108398,-0.71505004167557,5.08005046844482,11.9340009689331,-2.5396249294281,-4.39876270294189,-9.27506256103516,-0.50998747348785,4.15662479400635,16.3814754486084,8.20874977111816,8.80756282806396,7.22782516479492,5.31105041503906,-4.04805040359497,-17.1130504608154,-43.4749526977539,-43.5679512023926,-30.6040515899658,11.2780504226685,4.73699998855591,3.42705011367798,-10.851637840271,-9.06537532806396,0.32353749871254,25.8571491241455,27.3989372253418,15.4324502944946,5.96145009994507,6.10252475738525,7.13404989242554,-22.605001449585,-21.3090019226074,-13.4890508651733,-20.0629501342773,-17.2009506225586,-12.1860008239746,7.63800048828125,11.7520503997803,10.8780002593994,3.81246256828308,6.51942491531372,10.0616998672485,7.19221258163452,6.72498750686646,7.79171228408813,7.54489994049072,5.65784978866577,2.15228748321533,-9.7600507736206,-7.31700038909912,-6.23205041885376,-9.09705066680908,-6.52200031280518,-4.0770001411438,8.41604995727539,6.85695028305054,6.60795021057129,12.1382246017456,12.2502870559692,10.2291746139526,7.62396240234375,6.06319999694824,2.97880005836487,-0.94902497529984,-3.30714988708496,-3.94886255264282,-4.45800018310547,-2.09805011749268,-1.24605000019073,-2.79300022125244,-0.65895003080368,1.01400005817413,7.88205051422119,7.55895042419434,7.50600051879883,SWING_RIGHT
1.13203752040863,1.1669625043869,0.90117502212524,0.16843749582767,0.40576249361038,0.27348750829697,0.28792500495911,0.56746250391006,0.54326248168945,2.66400003433228,3.25800013542175,3.20295023918152,1.22505009174347,0.62595003843307,0.37200000882149,9.74805068969727,9.78600025177002,10.2000007629395,0.49500000476837,0.08098749816418,-0.7264124751091,0.09212499856949,-0.02419999986887,-0.80629998445511,0.47437500953674,0.39572501182556,-0.21615000069141,3.01905012130737,3.51195025444031,10.8259506225586,0.41100001335144,0.2790000140667,0.3870000243187,10.7389507293701,11.2540502548218,13.1650505065918,-1.1365749835968,-1.75353753566742,-2.56905007362366,-1.99471247196198,-3.78908753395081,-5.55513763427734,-1.05833745002747,-2.24358749389648,-3.0832998752594,17.0320510864258,23.7619514465332,27.8569507598877,0.4870500266552,-0.95100003480911,-3.27705025672913,14.3770503997803,14.9620504379272,13.6519508361816,-3.24197506904602,-3.78097486495972,-4.18962478637695,-6.64441251754761,-6.84983730316162,-6.03515005111694,-3.11588740348816,-2.14610004425049,-0.22439999878407,32.60205078125,28.5070514678955,22.5070514678955,-7.20195055007935,-16.9980010986328,-20.2050018310547,12.318000793457,9.60900020599365,8.39895057678223,-4.36644983291626,-4.77798748016357,-7.72007513046265,-4.61876249313354,-3.02128744125366,1.59431254863739,1.48967504501343,2.69665002822876,3.92672491073608,23.4240016937256,21.3930015563965,7.12095022201538,-19.2970504760742,-27.0400505065918,-36.3490524291992,8.94300079345703,7.70700025558472,5.05605030059814,-10.4106750488281,-12.3641376495361,-12.4044246673584,5.77005004882813,10.5940999984741,13.8642625808716,4.16982507705688,4.42433738708496,4.78156232833862,-0.10305000841618,-7.59000015258789,-12.5190010070801,-39.0510025024414,-33.3649520874023,-24.6760520935059,0.2710500061512,-3.3139500617981,-0.37500002980232,-6.32032489776611,-2.25156259536743,1.10302495956421,11.5949621200562,7.17667484283447,3.53154993057251,6.80528736114502,7.77617502212524,7.9316873550415,-13.5919504165649,-10.8280506134033,-6.57705020904541,-15.9460506439209,-14.3700008392334,-13.2349510192871,13.2349510192871,16.0349998474121,13.6300506591797,4.27501249313354,12.3480501174927,13.1845998764038,2.2710874080658,8.91811275482178,9.81488704681396,6.5014123916626,-3.41082501411438,-6.95956230163574,-3.63105010986328,-2.31900000572205,-2.62095022201538,-11.0460004806519,-4.86495018005371,-2.59200000762939,9.98700046539307,7.09200048446655,7.85100030899048,11.8375120162964,8.6311502456665,7.144362449646,8.49103736877441,4.44166231155396,-0.56856250762939,-8.28299999237061,-6.59065008163452,-1.9933375120163,-3.175950050354,-2.15100002288818,0.49395000934601,-0.60900002717972,1.00005006790161,0.82305002212524,8.78295040130615,8.36595058441162,9.00495052337646,8.10383701324463,8.14797496795654,6.73323726654053,-1.03688752651215,-1.52982497215271,-2.12602496147156,-1.09972500801086,-0.29466250538826,0.75652498006821,0.49395000934601,-0.90795004367828,-1.5040500164032,0.95700001716614,2.0419499874115,1.73505008220673,9.50595092773438,10.4449501037598,11.1300001144409,SWING_RIGHT
0.04001250118017,0.52112501859665,0.85745000839233,-1.78516244888306,-2.52917504310608,-3.09828758239746,0.96016252040863,0.7873250246048,0.64569997787476,3.26505017280579,4.22294998168945,3.22695016860962,3.34500026702881,2.50200009346008,1.86705005168915,5.78205013275146,5.80995035171509,6.796950340271,0.99013751745224,0.74236249923706,-1.22484993934631,-2.78189992904663,-1.41941249370575,2.79620003700256,0.86831247806549,1.49366247653961,3.08082509040833,1.17495000362396,-0.25200000405312,-2.76405024528503,1.66605007648468,0.97395002841949,-0.31905001401901,8.20800018310547,8.22195053100586,9.77700042724609,-2.39717507362366,-3.21296238899231,-3.42210006713867,4.96815013885498,6.03872489929199,5.7476372718811,3.55795001983643,3.4212749004364,2.7335000038147,-2.71905016899109,-1.31505000591278,0.14205001294613,-0.63000005483627,-1.24800002574921,-1.28895008563995,11.5699501037598,13.2679510116577,14.8639507293701,-2.33200001716614,-1.46231245994568,-0.684475004673,1.57299995422363,-1.33512496948242,-4.22317504882813,0.348149985075,-1.10054993629456,-2.91527509689331,5.15295028686523,11.1619501113892,19.219051361084,-0.97500002384186,0.68595004081726,2.42700004577637,14.4640502929688,12.7080001831055,11.332950592041,-0.60500001907349,-2.94731259346008,-3.36380004882813,-7.30331230163574,-12.0465126037598,-11.6466627120972,-5.36016225814819,-7.30496263504028,-4.87547492980957,31.2919521331787,46.0399513244629,44.8000526428223,2.19000005722046,-10.7850008010864,-23.6250019073486,11.4430503845215,11.3640003204346,9.88905048370361,-2.92393755912781,-1.65123748779297,-1.17301249504089,-9.65662479400635,-6.82192516326904,-2.29322504997253,-0.8428750038147,3.42498755455017,7.13404989242554,38.3070030212402,27.1200008392334,15.4060506820679,-35.7150001525879,-40.7850036621094,-46.2510032653809,6.00405025482178,4.78500032424927,5.88705015182495,-2.80527496337891,-5.98400020599365,-10.1950750350952,0.02227500081062,4.90861225128174,15.2299127578735,7.73478746414185,7.72529983520508,7.0691499710083,2.10405015945435,-11.0610008239746,-17.0650501251221,-47.4700508117676,-37.6120529174805,-26.4079513549805,2.36205005645752,2.18204998970032,6.91395044326782,-8.6693754196167,-4.73302507400513,0.86116248369217,23.1841506958008,20.5072994232178,11.4853754043579,6.50925016403198,6.68373727798462,7.3167872428894,-13.6069507598877,-10.7610006332397,-7.84605026245117,-18.9930000305176,-16.7220001220703,-13.9750509262085,10.9980001449585,11.2879505157471,9.49605083465576,3.82800006866455,5.73842477798462,6.91968727111816,5.88224983215332,4.82817506790161,4.82666254043579,6.6643500328064,4.25878763198853,0.8397125005722,-5.58300018310547,-4.47000026702881,-3.94500017166138,-12.5070009231567,-10.4089508056641,-8.28194999694824,7.78095054626465,7.97100019454956,8.79900074005127,7.37343740463257,7.22039985656738,6.42276239395142,5.02699995040894,4.84962511062622,3.5265998840332,-2.45217490196228,-4.83120012283325,-5.44252490997314,-3.23400020599365,-1.60500001907349,-1.3819500207901,-5.61705017089844,-4.26300001144409,-2.75205016136169,9.23295021057129,9.6709508895874,9.68805027008057,SWING_RIGHT
