gyro_x_0,gyro_y_0,gyro_z_0,acc_x_0,acc_y_0,acc_z_0,gyro_x_1,gyro_y_1,gyro_z_1,acc_x_1,acc_y_1,acc_z_1,gyro_x_2,gyro_y_2,gyro_z_2,acc_x_2,acc_y_2,acc_z_2,gyro_x_3,gyro_y_3,gyro_z_3,acc_x_3,acc_y_3,acc_z_3,gyro_x_4,gyro_y_4,gyro_z_4,acc_x_4,acc_y_4,acc_z_4,gyro_x_5,gyro_y_5,gyro_z_5,acc_x_5,acc_y_5,acc_z_5,gyro_x_6,gyro_y_6,gyro_z_6,acc_x_6,acc_y_6,acc_z_6,gyro_x_7,gyro_y_7,gyro_z_7,acc_x_7,acc_y_7,acc_z_7,gyro_x_8,gyro_y_8,gyro_z_8,acc_x_8,acc_y_8,acc_z_8,gyro_x_9,gyro_y_9,gyro_z_9,acc_x_9,acc_y_9,acc_z_9,gyro_x_10,gyro_y_10,gyro_z_10,acc_x_10,acc_y_10,acc_z_10,gyro_x_11,gyro_y_11,gyro_z_11,acc_x_11,acc_y_11,acc_z_11,gyro_x_12,gyro_y_12,gyro_z_12,acc_x_12,acc_y_12,acc_z_12,gyro_x_13,gyro_y_13,gyro_z_13,acc_x_13,acc_y_13,acc_z_13,gyro_x_14,gyro_y_14,gyro_z_14,acc_x_14,acc_y_14,acc_z_14,gyro_x_15,gyro_y_15,gyro_z_15,acc_x_15,acc_y_15,acc_z_15,gyro_x_16,gyro_y_16,gyro_z_16,acc_x_16,acc_y_16,acc_z_16,gyro_x_17,gyro_y_17,gyro_z_17,acc_x_17,acc_y_17,acc_z_17,gyro_x_18,gyro_y_18,gyro_z_18,acc_x_18,acc_y_18,acc_z_18,gyro_x_19,gyro_y_19,gyro_z_19,acc_x_19,acc_y_19,acc_z_19,gyro_x_20,gyro_y_20,gyro_z_20,acc_x_20,acc_y_20,acc_z_20,gyro_x_21,gyro_y_21,gyro_z_21,acc_x_21,acc_y_21,acc_z_21,gyro_x_22,gyro_y_22,gyro_z_22,acc_x_22,acc_y_22,acc_z_22,gyro_x_23,gyro_y_23,gyro_z_23,acc_x_23,acc_y_23,acc_z_23,gyro_x_24,gyro_y_24,gyro_z_24,acc_x_24,acc_y_24,acc_z_24,gyro_x_25,gyro_y_25,gyro_z_25,acc_x_25,acc_y_25,acc_z_25,gyro_x_26,gyro_y_26,gyro_z_26,acc_x_26,acc_y_26,acc_z_26,gyro_x_27,gyro_y_27,gyro_z_27,acc_x_27,acc_y_27,acc_z_27,gyro_x_28,gyro_y_28,gyro_z_28,acc_x_28,acc_y_28,acc_z_28,gyro_x_29,gyro_y_29,gyro_z_29,acc_x_29,acc_y_29,acc_z_29,motion_type
-6.63671255111694,-7.09293746948242,-6.4644250869751,18.8438243865967,23.7616500854492,24.3478126525879,-6.35071229934692,-8.40468788146973,-9.25870037078857,-32.3860511779785,-22.1830501556396,-0.54405003786087,-10.0710000991821,-11.8630504608154,-7.33095026016235,-3.40695023536682,-4.44900035858154,-2.26695013046265,-4.29495000839233,-0.64789998531342,-4.06230020523071,19.4743995666504,7.37371253967285,7.94956254959106,-8.09352493286133,-3.41701245307922,5.78228759765625,19.0530014038086,41.0659523010254,51.003002166748,6.95100021362305,22.6240501403809,31.9909515380859,1.78395009040833,5.03205013275146,7.42500019073486,-4.13008737564087,-4.70016241073608,-0.69588750600815,9.68054962158203,10.2471876144409,5.51375007629395,6.34273767471313,7.05319976806641,0.20858749747276,42.1650009155273,14.6299505233765,-14.4829511642456,29.7469520568848,-5.39595031738281,-23.5620002746582,14.2309503555298,11.6689500808716,4.83795022964478,-1.380499958992,-4.34004974365234,-12.0938119888306,3.0465874671936,6.19850015640259,23.91455078125,1.52528750896454,2.85339999198914,-3.79211258888245,-39.9589500427246,-52.6210517883301,-34.7590522766113,-25.9020004272461,-21.6630001068115,-20.1060009002686,-0.04695000126958,-2.89695024490356,-10.1989507675171,-12.9903125762939,-13.0013122558594,-10.3647499084473,30.5168876647949,31.7593364715576,28.6573371887207,-4.34912490844727,-5.19598770141602,-6.26848745346069,-4.59195041656494,15.4660511016846,36.1440010070801,-15.5509510040283,1.52400004863739,19.3050003051758,-12.8749504089355,-4.17795038223267,5.40300035476685,-2.97536253929138,-7.75059986114502,-7.54668760299683,11.840537071228,20.0795364379883,20.5658740997314,0.13213749229908,-10.6236619949341,-11.654637336731,51.5730018615723,26.2099514007568,13.2409505844116,31.1440505981445,19.0770015716553,-0.2490000128746,11.2999505996704,15.996000289917,13.51305103302,-7.51822519302368,-2.76113748550415,-4.19306230545044,20.1352252960205,7.85111236572266,8.46092510223389,-11.5938625335693,-2.87086248397827,-0.10944999754429,-10.1980504989624,-41.0389518737793,-45.3810005187988,-20.8870506286621,-22.8100509643555,-16.9309501647949,7.50105047225952,5.32200002670288,6.26100015640259,-11.0573377609253,-11.8002500534058,-11.2540998458862,20.5921382904053,27.3222122192383,28.8689498901367,-4.52320003509521,-7.76613759994507,-8.52334976196289,-19.8019504547119,2.46105003356934,22.2720012664795,-13.6810503005981,-0.89595001935959,16.396951675415,-0.28905001282692,-3.70905017852783,-1.95105004310608,-8.78322505950928,7.07478761672974,7.5937123298645,25.3224124908447,-11.5361127853394,-14.850549697876,-7.34208726882935,18.1434001922607,20.0793991088867,37.4470520019531,32.3860511779785,17.659049987793,30.492000579834,26.1480007171631,9.95505046844482,3.11805009841919,7.6210503578186,9.45795059204102,7.60319995880127,3.9945125579834,-2.44337487220764,-15.275975227356,-11.8123502731323,4.99702501296997,19.135461807251,10.8739128112793,3.14462494850159,0.4870500266552,-34.2900009155273,-53.8260040283203,-13.5850505828857,-28.8940505981445,-24.7429504394531,10.1170501708984,13.9290008544922,12.5140504837036,SHAKE
-11.1533126831055,-0.58918750286102,11.4404125213623,20.692512512207,0.52029997110367,-22.1486377716064,-9.22844982147217,-1.05888748168945,3.99973750114441,44.6749534606934,47.0220031738281,35.3059501647949,29.3020515441895,37.4689521789551,30.6769523620605,10.3249502182007,6.92895030975342,-1.62495005130768,12.9798622131348,13.1579246520996,11.5157623291016,-24.7673244476318,-23.6783256530762,-18.3569374084473,3.50102496147156,2.76608753204346,2.38809990882874,23.2950019836426,9.03000068664551,-23.9580020904541,15.3360004425049,-6.78300046920776,-29.253002166748,1.30800008773804,11.5920009613037,19.5580501556396,-0.4295499920845,-8.06190013885498,-13.5979251861572,3.05621242523193,15.5522127151489,27.0434989929199,-0.09583749622107,0.15180000662804,-4.83807516098022,-58.537052154541,-44.8570518493652,-14.6599502563477,-29.8879508972168,-29.0929508209229,-21.9529514312744,21.0090007781982,5.88000011444092,-8.11305046081543,-14.0703744888306,-6.28773736953735,0.38692501187325,28.4946746826172,15.5394248962402,-8.78391265869141,-6.43389987945557,-6.59560012817383,-1.28026247024536,5.63595008850098,53.5750541687012,47.2930526733398,-2.89305019378662,33.1069526672363,36.2280006408691,-6.81795024871826,11.5630502700806,-0.5950500369072,10.6213245391846,11.4662628173828,9.82258701324463,-22.9905490875244,-24.2768630981445,-9.41077518463135,-2.00887489318848,-3.02321243286133,-2.47224998474121,33.2130012512207,21.3000011444092,-32.8480529785156,25.627950668335,8.47500038146973,-34.2949523925781,-8.03700065612793,-0.66495001316071,24.0799503326416,-0.76779997348785,-10.7373752593994,-12.6168622970581,4.8023247718811,19.5647373199463,29.0490741729736,0.67856252193451,1.03345000743866,-1.8492374420166,-61.1329536437988,-36.1050033569336,-12.1459503173828,-30.927001953125,-29.6430015563965,-19.0530014038086,20.2000503540039,2.08605003356934,-11.6290502548218,-12.8200874328613,-11.8273372650146,-2.25775003433228,29.6392250061035,27.3311500549316,12.5153875350952,-2.84088754653931,-4.02448749542236,-3.19893741607666,6.01005029678345,31.195951461792,49.5610542297363,-3.21900010108948,14.496000289917,31.957950592041,-8.13195037841797,6.85200023651123,15.9720010757446,0.61297500133514,11.1251249313354,11.8791751861572,-11.4802875518799,-23.8046875,-24.5664367675781,-0.52016252279282,-3.85481238365173,-5.50824975967407,45.9019508361816,32.7889518737793,20.0430011749268,36.8050498962402,27.9580516815186,12.9490509033203,7.30995035171509,-1.66605007648468,3.44205021858215,11.7688999176025,10.2489748001099,-0.93610000610352,-22.9741878509521,-7.9400749206543,4.82350015640259,-5.92019987106323,-5.03703737258911,-0.57887500524521,7.51695013046265,-19.7929515838623,-59.8330535888672,-6.8430004119873,-29.7250518798828,-29.6650505065918,15.6109504699707,20.6520004272461,17.4670505523682,-8.37691211700439,-13.0299119949341,-13.3392877578735,16.1133499145508,26.49267578125,28.0656757354736,0.62562501430511,-3.81081247329712,-5.316575050354,-43.2900009155273,-17.4100513458252,0.31500002741814,-30.2590522766113,-23.3160018920898,-8.54100036621094,5.61405038833618,-7.24905014038086,-8.20905017852783,SHAKE
-8.37691211700439,-13.0299119949341,-13.3392877578735,16.1133499145508,26.49267578125,28.0656757354736,0.62562501430511,-3.81081247329712,-5.316575050354,-43.2900009155273,-17.4100513458252,0.31500002741814,-30.2590522766113,-23.3160018920898,-8.54100036621094,5.61405038833618,-7.24905014038086,-8.20905017852783,-12.3998870849609,-5.36525011062622,-0.14231249690056,26.9137001037598,15.9629249572754,-0.5517874956131,-6.44861268997192,-6.51887512207031,-5.34558725357056,27.0670509338379,52.6939506530762,51.0049514770508,9.15705013275146,28.7989521026611,37.1380500793457,5.19705009460449,10.9639501571655,-1.16295003890991,5.55898761749268,6.30492496490479,6.38522481918335,-11.8915500640869,-13.8179244995117,-13.2383623123169,-6.95887517929077,-8.90848731994629,-9.14842510223389,38.1079521179199,24.0010509490967,10.8100509643555,29.8860015869141,14.2950010299683,-4.80495023727417,-10.2160501480103,-4.08000040054321,12.0490503311157,5.57328748703003,-0.27348750829697,-5.34778738021851,-6.91033744812012,3.09306240081787,11.3042879104614,-5.24246263504028,-1.72493743896484,2.38837504386902,-12.8929510116577,-49.4220008850098,-49.5409507751465,-25.9720516204834,-30.3690013885498,-26.9869518280029,26.0050506591797,22.231050491333,9.98205089569092,-12.874400138855,-12.3679876327515,-7.92563724517822,28.3530502319336,27.72536277771,20.728536605835,-2.8032124042511,-3.7514123916626,-5.38051223754883,-3.66000008583069,11.2339506149292,38.0080528259277,-13.1920509338379,3.53595018386841,19.7290515899658,-5.57895040512085,0.20100000500679,10.135950088501,-0.47547498345375,8.85486221313477,11.5478000640869,3.41385006904602,-18.2184753417969,-22.7471752166748,-1.07827496528625,-0.03849999979138,-3.09058737754822,52.4089508056641,44.9239540100098,30.1180515289307,34.441951751709,34.5450019836426,22.981050491333,9.58695030212402,-4.74795007705688,-9.95700073242188,12.1276378631592,11.7353496551514,2.47197508811951,-23.4863758087158,-21.1538257598877,-1.42669999599457,-4.25658750534058,-3.68981242179871,-3.10268759727478,19.1659507751465,-1.86105012893677,-41.109001159668,4.44105005264282,-18.8059501647949,-32.423999786377,2.03805017471313,20.8150501251221,27.1380004882813,-12.0349626541138,-13.4868249893188,-13.4648246765137,21.8950881958008,28.2304000854492,28.3735370635986,-0.4673624932766,-2.56712508201599,-3.74769997596741,-30.3570022583008,-9.85095024108887,7.83495044708252,-28.1700019836426,-17.4360008239746,-1.92300009727478,2.28495001792908,-8.72205066680908,-5.04495000839233,-11.705512046814,-1.71214997768402,3.00300002098084,24.9250373840332,8.7668628692627,-11.940637588501,-4.65781259536743,-2.10031247138977,1.16737496852875,32.0220031738281,50.9650535583496,44.3140525817871,17.4610500335693,32.074951171875,34.7119522094727,6.32295036315918,9.4480504989624,-1.8600001335144,10.0343370437622,10.7714748382568,10.7434253692627,-21.2995758056641,-22.2946624755859,-21.0218257904053,-5.37459993362427,-7.01387500762939,-7.28695011138916,30.3550510406494,20.098051071167,5.9170503616333,25.6230010986328,9.93600082397461,-10.6680002212524,-12.38805103302,-5.87895011901855,12.0109510421753,SHAKE
-0.47547498345375,8.85486221313477,11.5478000640869,3.41385006904602,-18.2184753417969,-22.7471752166748,-1.07827496528625,-0.03849999979138,-3.09058737754822,52.4089508056641,44.9239540100098,30.1180515289307,34.441951751709,34.5450019836426,22.981050491333,9.58695030212402,-4.74795007705688,-9.95700073242188,12.1276378631592,11.7353496551514,2.47197508811951,-23.4863758087158,-21.1538257598877,-1.42669999599457,-4.25658750534058,-3.68981242179871,-3.10268759727478,19.1659507751465,-1.86105012893677,-41.109001159668,4.44105005264282,-18.8059501647949,-32.423999786377,2.03805017471313,20.8150501251221,27.1380004882813,-12.0349626541138,-13.4868249893188,-13.4648246765137,21.8950881958008,28.2304000854492,28.3735370635986,-0.4673624932766,-2.56712508201599,-3.74769997596741,-30.3570022583008,-9.85095024108887,7.83495044708252,-28.1700019836426,-17.4360008239746,-1.92300009727478,2.28495001792908,-8.72205066680908,-5.04495000839233,-11.705512046814,-1.71214997768402,3.00300002098084,24.9250373840332,8.7668628692627,-11.940637588501,-4.65781259536743,-2.10031247138977,1.16737496852875,32.0220031738281,50.9650535583496,44.3140525817871,17.4610500335693,32.074951171875,34.7119522094727,6.32295036315918,9.4480504989624,-1.8600001335144,10.0343370437622,10.7714748382568,10.7434253692627,-21.2995758056641,-22.2946624755859,-21.0218257904053,-5.37459993362427,-7.01387500762939,-7.28695011138916,30.3550510406494,20.098051071167,5.9170503616333,25.6230010986328,9.93600082397461,-10.6680002212524,-12.38805103302,-5.87895011901855,12.0109510421753,-0.61916249990463,-10.1146373748779,-13.2504625320435,4.05721235275269,17.6962490081787,27.423412322998,0.03712499886751,1.20120000839233,-2.32856249809265,-55.324951171875,-37.4130020141602,-12.748950958252,-28.9510517120361,-27.5959510803223,-19.3759517669678,27.0690021514893,12.2220001220703,-4.4850001335144,-13.5302753448486,-12.5707998275757,-3.4403874874115,28.049861907959,26.2696495056152,13.1001749038696,-3.43598747253418,-4.39917516708374,-3.63233757019043,2.3860502243042,19.2859516143799,40.8960037231445,-4.51005029678345,13.2499504089355,28.219051361084,-8.80500030517578,-0.98595005273819,8.19795036315918,0.93623751401901,10.1627626419067,11.0957002639771,-2.66062498092651,-17.6763114929199,-19.5735378265381,-0.17283749580383,0.51713746786118,-1.19570004940033,44.1510009765625,30.9490509033203,20.601001739502,33.9220504760742,28.1380519866943,15.0559511184692,2.02395009994507,-8.32605075836182,-4.58100032806396,9.12119960784912,-0.72847497463226,-6.96519994735718,-12.3195877075195,3.13142490386963,13.1440372467041,-1.51703751087189,-0.8259624838829,1.07043755054474,-13.7650508880615,-46.138053894043,-42.7180519104004,-22.2859516143799,-27.8059520721436,-25.006950378418,24.3259506225586,25.0210514068604,14.871000289917,-14.2608127593994,-15.1383371353149,-14.4131622314453,25.2575130462646,26.6157379150391,25.3796119689941,-2.73941254615784,-4.29577493667603,-5.25992488861084,-17.5080013275146,-1.63395011425018,14.5870504379272,-21.3490505218506,-8.15295028686523,9.10500049591064,0.35505002737045,-6.25695037841797,-2.40405011177063,SHAKE
13.8274126052856,14.0409498214722,12.8804502487183,-23.7135257720947,-23.6941375732422,-20.2544364929199,-1.05476248264313,-1.9519499540329,-1.74831247329712,23.2930507659912,11.1259508132935,-4.05495023727417,16.7020511627197,1.80495011806488,-16.0710010528564,-3.29700016975403,7.11105012893677,20.6929512023926,0.34732499718666,-4.19526243209839,-13.5914621353149,1.37967503070831,8.58247470855713,21.9582004547119,-0.94283747673035,1.66209995746613,-0.15565000474453,-29.6200523376465,-44.5240516662598,-30.2160015106201,-27.2410507202148,-24.916051864624,-22.1350517272949,25.0830020904541,16.8199501037598,3.03495025634766,-15.3950500488281,-15.1691370010376,-12.1959753036499,26.685998916626,26.4636631011963,22.1974506378174,-1.66196250915527,-2.76897501945496,-3.81232500076294,-10.8349504470825,0.65205001831055,15.3240003585815,-15.5940008163452,-4.43595027923584,11.8999509811401,-4.51095008850098,-3.07905006408691,3.50895023345947,-2.84019994735718,2.0103874206543,12.4884376525879,8.70966243743896,-5.59240007400513,-19.1732749938965,-0.97707498073578,-0.53542500734329,-0.50228750705719,40.0360527038574,43.878002166748,31.8550510406494,26.812952041626,34.4269523620605,28.9450511932373,10.0540504455566,2.12400007247925,-8.81700038909912,13.5987501144409,13.5786752700806,10.4971628189087,-21.0783367156982,-20.9570617675781,-11.480975151062,-1.69867503643036,-2.49521255493164,-1.29359996318817,21.0079517364502,10.4530506134033,-5.41995048522949,15.6790504455566,0.64305001497269,-18.44700050354,-4.89195013046265,10.2049503326416,21.3040504455566,-4.97873735427856,-13.7695245742798,-14.8889122009277,9.47911262512207,23.6292381286621,25.8604507446289,1.64010000228882,-1.22636246681213,-2.73762488365173,-50.3890533447266,-27.6390018463135,-5.91600036621094,-25.7869510650635,-24.0730514526367,-15.7120504379272,17.1799507141113,3.21405005455017,-4.36005020141602,-14.5767869949341,-11.0598125457764,-2.20604991912842,25.5583629608154,19.9232006072998,5.40443754196167,-4.20034980773926,-4.78348731994629,-1.35231244564056,4.50104999542236,22.8709506988525,45.4680023193359,-2.76900005340576,14.2249507904053,28.2700519561768,-4.29300022125244,2.90505003929138,7.56600046157837,2.01382493972778,11.8786249160767,12.7568378448486,-11.9545249938965,-21.689525604248,-23.0704364776611,-0.68791252374649,-5.64093732833862,-7.28461265563965,43.5979537963867,29.0809516906738,18.7969512939453,33.2269515991211,26.8660507202148,13.981050491333,-1.23705005645752,-7.764000415802,-0.89205002784729,9.46288776397705,-0.67154997587204,-5.07319974899292,-7.1577000617981,2.9363124370575,9.58608722686768,-7.39529991149902,-1.16503751277924,1.65563750267029,-5.50395011901855,-31.9879512786865,-49.3570518493652,-15.0289506912231,-28.8409519195557,-26.5990505218506,20.7150001525879,19.195951461792,12.9739503860474,-13.7251119613647,-14.6940746307373,-14.4045000076294,23.919225692749,26.1208744049072,25.6466369628906,-0.90543746948242,-2.04008746147156,-3.18683743476868,-30.9900016784668,-10.4910001754761,6.23295021057129,-25.3320007324219,-17.4070510864258,-2.11500000953674,4.70100021362305,0.91500002145767,2.19105005264282,SHAKE
2.01382493972778,11.8786249160767,12.7568378448486,-11.9545249938965,-21.689525604248,-23.0704364776611,-0.68791252374649,-5.64093732833862,-7.28461265563965,43.5979537963867,29.0809516906738,18.7969512939453,33.2269515991211,26.8660507202148,13.981050491333,-1.23705005645752,-7.764000415802,-0.89205002784729,9.46288776397705,-0.67154997587204,-5.07319974899292,-7.1577000617981,2.9363124370575,9.58608722686768,-7.39529991149902,-1.16503751277924,1.65563750267029,-5.50395011901855,-31.9879512786865,-49.3570518493652,-15.0289506912231,-28.8409519195557,-26.5990505218506,20.7150001525879,19.195951461792,12.9739503860474,-13.7251119613647,-14.6940746307373,-14.4045000076294,23.919225692749,26.1208744049072,25.6466369628906,-0.90543746948242,-2.04008746147156,-3.18683743476868,-30.9900016784668,-10.4910001754761,6.23295021057129,-25.3320007324219,-17.4070510864258,-2.11500000953674,4.70100021362305,0.91500002145767,2.19105005264282,-10.7145500183105,-1.64367496967316,5.42313766479492,19.9084873199463,4.09364986419678,-13.2995500564575,-4.50477504730225,-1.23447501659393,0.74373751878738,27.3859519958496,48.1549530029297,46.9980010986328,16.795051574707,32.5349998474121,34.4850006103516,6.796950340271,9.79305076599121,1.01805007457733,15.8336753845215,15.7823877334595,9.94785022735596,-25.5238494873047,-24.633674621582,-9.88831233978272,-1.93572497367859,-2.21718740463257,-2.5414125919342,20.0329513549805,5.32305002212524,-25.560001373291,8.30895042419434,-11.8390502929688,-31.2460517883301,-4.37700033187866,9.97500038146973,19.0720500946045,0.58038747310638,-10.1473627090454,-13.3386001586914,1.43096244335175,15.5091753005981,26.8565006256104,1.0118625164032,3.13142490386963,1.51291251182556,-53.1430511474609,-38.4640502929688,-18.9330005645752,-29.344051361084,-28.666051864624,-20.4919509887695,24.1200008392334,13.2970504760742,-4.34100008010864,-13.9268245697021,-13.417799949646,-3.70218753814697,27.8825244903564,26.5596370697021,13.5566749572754,0.90213751792908,-0.3287625014782,-0.95314997434616,-0.29295000433922,20.4310512542725,43.7920532226563,-7.03200054168701,10.992000579834,29.4889507293701,-9.70605087280273,-0.13995000720024,12.2629508972168,12.0928497314453,13.5888500213623,13.5070371627808,-21.0806751251221,-23.397274017334,-22.680212020874,-0.47891250252724,-2.17414999008179,-3.02939987182617,34.2430534362793,20.377950668335,7.14495038986206,28.1430015563965,13.303050994873,-4.74195003509521,0.13199999928474,-0.72495001554489,9.68805027008057,11.0824995040894,-0.36712500452995,-6.31290006637573,-15.3473377227783,2.45300006866455,11.8376502990723,-2.0211124420166,-0.61489999294281,2.27974987030029,-15.9250507354736,-42.1789512634277,-39.1519508361816,-23.8879508972168,-27.553050994873,-25.078950881958,21.0349502563477,20.5420513153076,11.7690010070801,-13.8300247192383,-14.5440626144409,-13.7369375228882,24.3207244873047,26.6835250854492,25.5188999176025,0.32958748936653,-0.83929997682571,-1.77649998664856,-20.5020008087158,-3.80805015563965,10.0339508056641,-20.5810508728027,-9.61395072937012,6.08895015716553,1.03005003929138,-3.92895007133484,0.91995006799698,SHAKE
11.6692123413086,14.8585252761841,15.2814750671387,-19.179874420166,-24.2915744781494,-24.9866371154785,1.43508744239807,-0.19387499988079,-1.22856247425079,37.7269515991211,25.4839515686035,17.1780014038086,30.517951965332,21.5470504760742,7.6560001373291,4.4239501953125,-1.59600007534027,0.75000005960464,14.1469621658325,3.11794996261597,-1.45860004425049,-21.9517364501953,-3.21516251564026,3.69063758850098,-1.34901249408722,-1.34406244754791,1.7850250005722,3.83100008964539,-26.4580516815186,-49.9870529174805,-11.8630504608154,-28.8790512084961,-26.9680519104004,9.84795093536377,18.2380504608154,21.7969512939453,-11.0199375152588,-14.0494747161865,-12.9549751281738,17.9881629943848,25.6581878662109,24.5771617889404,2.19793748855591,0.30992498993874,-2.02413749694824,-35.4490509033203,-14.521050453186,23.1060009002686,-25.2580509185791,-17.2249507904053,14.497950553894,12.2269506454468,-2.59800004959106,1.399050116539,-3.43543744087219,3.90967488288879,14.1197376251221,10.2475996017456,-6.98527479171753,-22.6436367034912,-1.13877499103546,1.52281248569489,1.70169997215271,43.6360511779785,44.0170516967773,30.1519508361816,30.435001373291,33.5190010070801,25.0120506286621,10.0470008850098,4.83300018310547,-5.31600046157837,15.4065999984741,15.2238626480103,10.6888370513916,-24.9902114868164,-24.366512298584,-14.3082494735718,0.67113751173019,-0.10436250269413,-0.40108749270439,19.0290012359619,6.08700037002563,-19.2919502258301,11.1190509796143,-7.11105012893677,-26.9869518280029,-7.39500045776367,3.23595023155212,17.9670009613037,0.27417498826981,-8.41720008850098,-14.3951501846313,1.45254993438721,14.948037147522,26.9102630615234,0.84315001964569,2.80651259422302,-0.99371248483658,-48.6600036621094,-41.4150009155273,1.58700013160706,-27.3559513092041,-26.7259521484375,-9.05295085906982,29.6700019836426,25.57200050354,-8.3430004119873,-13.7608623504639,-5.77486228942871,0.90007501840591,25.4703617095947,13.2094869613647,-3.70260000228882,-2.20673751831055,-3.19068741798401,-1.30693745613098,17.6880016326904,43.4560508728027,46.1149520874023,9.94005012512207,26.3539505004883,34.6620025634766,-4.25699996948242,5.16795015335083,-0.15705001354218,12.6845121383667,14.6679496765137,14.5869626998901,-23.3216495513916,-26.9728240966797,-26.5145378112793,-1.43783748149872,-3.44767498970032,-4.50092506408691,34.582950592041,23.2710018157959,12.1459503173828,29.1600017547607,15.4990510940552,-1.33395004272461,-9.53595066070557,-8.78894996643066,4.20600032806396,12.6849250793457,1.11306250095367,-13.2857999801636,-19.480037689209,-0.04317500069737,24.6999492645264,-3.74316239356995,-2.0064001083374,0.0787874981761,-8.53605079650879,-39.528003692627,-25.5379505157471,-19.1680507659912,-27.7009506225586,-23.1739501953125,20.5920009613037,28.6110019683838,5.39805030822754,-14.4585371017456,-14.254075050354,-10.8030996322632,27.3497123718262,26.7180366516113,20.580587387085,-0.90488749742508,-2.00708746910095,-3.20759987831116,-5.45595026016235,7.36605024337768,24.8179512023926,-14.2219505310059,-0.21795001626015,16.8550510406494,-6.29100036621094,-3.80205011367798,6.81600046157837,SHAKE
5.8055248260498,14.6265621185303,15.9948253631592,-9.96792507171631,-22.2558879852295,-24.617862701416,1.15431249141693,0.44508749246597,-0.53020000457764,41.0899505615234,28.8660011291504,19.4560508728027,31.5150012969971,27.1219520568848,15.5230503082275,1.73400008678436,-12.7090501785278,-9.38295078277588,9.55157470703125,0.12471249699593,-5.88912487030029,-11.5215377807617,1.69798743724823,11.1156377792358,-2.02125000953674,0.09652499854565,1.78804993629456,-9.62100028991699,-41.3620529174805,-45.1030540466309,-18.5590515136719,-27.1189517974854,-25.8619518280029,26.8890018463135,25.10205078125,15.7930507659912,-14.3060503005981,-15.250262260437,-14.7482500076294,24.3534507751465,25.6526870727539,24.4701881408691,-0.91602498292923,-2.15847492218018,-3.56867504119873,-23.9959506988525,-6.48105049133301,8.65395069122314,-22.6789512634277,-14.2390508651733,-1.62405002117157,3.88500022888184,-2.68395018577576,-0.51900005340576,-10.1316871643066,-1.34021246433258,6.43183755874634,17.1364879608154,2.9826500415802,-13.9154119491577,-4.26937484741211,-1.05366253852844,0.72132498025894,23.5939502716064,40.6300506591797,38.9320526123047,16.9789505004883,30.3529510498047,32.3290519714355,8.52405071258545,11.5819501876831,-4.19295024871826,16.2461757659912,15.8718996047974,9.06523704528809,-25.6583251953125,-24.5404491424561,-8.6725378036499,-2.62418746948242,-3.05181241035461,-3.45468759536743,20.2080001831055,5.41095018386841,-24.6000003814697,10.1779508590698,-9.00600051879883,-26.4049510955811,-8.15595054626465,15.3040504455566,29.3029518127441,-0.10711249709129,-10.2792253494263,-14.4960746765137,2.73693752288818,17.4382991790771,26.4695739746094,-0.04757500067353,0.53734999895096,-1.89337503910065,-51.2509536743164,-39.9660034179688,-17.1150016784668,-27.3010520935059,-27.7560005187988,-22.4610004425049,25.5049514770508,10.1929502487183,-4.40595006942749,-14.8480749130249,-13.9987373352051,-4.99111270904541,26.2591991424561,24.0215244293213,10.7299499511719,-2.96917510032654,-3.90610003471375,-3.33299994468689,1.75395011901855,15.7429504394531,35.5240516662598,-12.6360006332397,3.4740002155304,21.8080501556396,-4.50600004196167,5.21400022506714,13.7520008087158,10.6709623336792,13.0777626037598,13.4448871612549,-23.1089382171631,-26.8222618103027,-26.8625507354736,-3.36050009727478,-6.88737487792969,-8.01047515869141,37.9380035400391,28.1230506896973,18.1530017852783,32.6140518188477,21.9559516906738,4.03905010223389,-16.8499507904053,-16.5769500732422,5.33895015716553,12.8288869857788,1.96157503128052,-1.60283744335175,-22.057336807251,-0.78663748502731,5.60834980010986,-6.69570016860962,-4.63952493667603,-0.06902500241995,-2.90805006027222,-25.7779502868652,-46.1599540710449,-10.9360504150391,-25.7200508117676,-24.7189502716064,28.5300006866455,30.340051651001,17.4690017700195,-11.1203126907349,-13.9512996673584,-14.026237487793,19.4045505523682,25.4882373809814,25.5212364196777,0.40562498569489,-1.44086253643036,-2.00956249237061,-30.211051940918,-14.9449510574341,0.00300000002608,-22.9450511932373,-15.9319505691528,-6.39000034332275,6.05505037307739,-0.64095002412796,1.61205005645752,SHAKE
1.71778750419617,15.0022125244141,15.3458251953125,-3.21131253242493,-24.0299129486084,-24.2670993804932,0.20047499239445,-1.17246246337891,-1.70665001869202,41.1190528869629,21.4680004119873,11.6190004348755,32.662052154541,17.6880016326904,0.47805002331734,0.31905001401901,-8.27100086212158,10.8469505310059,12.7781496047974,1.34035003185272,-4.06697511672974,-17.3643245697021,-0.03121249936521,9.52737522125244,-1.65398752689362,-0.85511249303818,0.80189996957779,-10.6339502334595,-41.7960014343262,-45.003002166748,-18.3649501800537,-26.2860012054443,-26.4220504760742,25.2340507507324,23.3610019683838,17.8360500335693,-13.5100622177124,-14.7587003707886,-11.4362878799438,23.4739990234375,24.6149749755859,18.1389999389648,-1.79217493534088,-4.38198757171631,-4.76643753051758,-26.1559505462646,7.87305021286011,24.5400009155273,-22.992000579834,-3.41295027732849,15.4969511032104,4.20795011520386,0.68505001068115,11.6539506912231,-1.77801251411438,5.36236238479614,13.6628246307373,2.75907492637634,-15.2580995559692,-25.6052494049072,-1.99361252784729,0.28888750076294,-2.61470007896423,45.4750518798828,44.6539535522461,31.7040023803711,29.3710517883301,33.1789512634277,27.8599510192871,11.69700050354,-7.28205013275146,-24.8950519561768,14.9333248138428,14.6217498779297,8.92691230773926,-28.0106754302979,-26.4995498657227,-10.5437746047974,-3.99836254119873,-4.14012479782104,-4.48181247711182,24.9690017700195,10.2679500579834,-24.1690502166748,12.3450002670288,-11.0800504684448,-31.1790008544922,-13.6120510101318,10.0780506134033,29.226001739502,0.73218750953674,-12.0320749282837,-12.1862125396729,0.3587374985218,26.7051124572754,27.2863254547119,0.23361249268055,3.17858743667603,2.43856239318848,-52.7290534973145,-16.8880500793457,-1.25295007228851,-27.6990013122559,-20.2810516357422,-8.59800052642822,32.4979515075684,-0.70305001735687,-6.13005018234253,-11.7240753173828,-3.53952503204346,1.78722500801086,26.4174633026123,15.074125289917,-2.57097506523132,1.4719375371933,-1.67461252212524,0.99756246805191,14.5720510482788,33.5380516052246,42.8119506835938,7.22700023651123,23.8579502105713,32.3530502319336,2.90805006027222,13.8670511245728,8.94105052947998,12.2776498794556,15.3059501647949,15.4189748764038,-21.2984752655029,-26.5878257751465,-27.0674247741699,1.64628744125366,-1.11099994182587,-2.37723755836487,35.22705078125,25.537052154541,18.0910511016846,30.6720008850098,21.480001449585,4.18305015563965,-12.3190507888794,-18.574951171875,0.43800002336502,13.7299251556396,-2.33351254463196,-13.1564121246338,-21.7903118133545,6.12163734436035,23.17919921875,-2.32237505912781,1.82366251945496,0.6931374669075,-2.62305021286011,-50.6170539855957,-29.3590507507324,-16.9930515289307,-29.0089511871338,-27.4399509429932,23.5930519104004,25.2049503326416,6.36795043945313,-14.4687128067017,-14.3340997695923,-12.2412128448486,26.8012256622314,26.2407741546631,22.3493881225586,-0.62260001897812,-1.78571248054504,-3.08990001678467,-9.9060001373291,6.64995050430298,25.0290012359619,-17.7790508270264,-5.43000030517578,16.0770015716553,-5.89305019378662,-2.29605007171631,11.5129508972168,SHAKE
1.78722500801086,12.2776498794556,15.3059501647949,-2.57097506523132,-21.2984752655029,-26.5878257751465,0.99756246805191,1.64628744125366,-1.11099994182587,42.8119506835938,35.22705078125,25.537052154541,32.3530502319336,30.6720008850098,21.480001449585,8.94105052947998,-12.3190507888794,-18.574951171875,15.4189748764038,13.7299251556396,-2.33351254463196,-27.0674247741699,-21.7903118133545,6.12163734436035,-2.37723755836487,-2.32237505912781,1.82366251945496,18.0910511016846,-2.62305021286011,-50.6170539855957,4.18305015563965,-16.9930515289307,-29.0089511871338,0.43800002336502,23.5930519104004,25.2049503326416,-13.1564121246338,-14.4687128067017,-14.3340997695923,23.17919921875,26.8012256622314,26.2407741546631,0.6931374669075,-0.62260001897812,-1.78571248054504,-29.3590507507324,-9.9060001373291,6.64995050430298,-27.4399509429932,-17.7790508270264,-5.43000030517578,6.36795043945313,-5.89305019378662,-2.29605007171631,-12.2412128448486,-1.36771249771118,3.89551258087158,22.3493881225586,4.7011251449585,-13.2085247039795,-3.08990001678467,-1.07277500629425,0.88247501850128,25.0290012359619,47.8920021057129,45.8779525756836,16.0770015716553,31.4290523529053,35.509952545166,11.5129508972168,13.5439510345459,-6.76200008392334,13.571249961853,14.5271501541138,9.76566219329834,-25.6972370147705,-27.8172130584717,-11.1831502914429,-1.95002496242523,-3.65571236610413,-4.71941232681274,30.8869514465332,23.803050994873,-17.1460514068604,29.0119514465332,12.3000001907349,-26.8600521087646,-22.3830013275146,-8.58300018310547,35.7910499572754,-0.5654000043869,-7.85675001144409,-14.0179872512817,2.45313739776611,13.8007373809814,25.7735500335693,-0.36107498407364,2.90083742141724,0.29961249232292,-49.7160034179688,-40.5859527587891,-20.0320510864258,-28.9150505065918,-27.832950592041,-20.803050994873,27.4660511016846,10.2100505828857,-1.75005006790161,-13.4206876754761,-7.18781232833862,-0.54147499799728,25.3262615203857,16.6292495727539,2.64233756065369,-1.72631251811981,-3.18793749809265,-0.75652498006821,9.46395015716553,31.1359519958496,46.8000030517578,1.41405010223389,19.0060501098633,32.2090530395508,0.87900006771088,11.8240509033203,8.80905055999756,9.17647457122803,12.6742000579834,13.3214120864868,-17.2228374481201,-22.8910007476807,-24.3839740753174,-0.62507498264313,-4.36741256713867,-5.39577484130859,38.568000793457,29.1750011444092,22.4590511322021,33.9960021972656,24.8569507598877,8.35995006561279,-12.0940504074097,-17.1640510559082,0.51495003700256,12.7287874221802,2.9664249420166,-1.92073750495911,-22.0819492340088,-2.68757510185242,4.96320009231567,-4.90146255493164,-3.82800006866455,1.12708747386932,5.66805028915405,-24.9130516052246,-50.9160041809082,-11.5510501861572,-30.4189510345459,-28.276050567627,26.1630020141602,34.1910018920898,25.2150020599365,-14.6911878585815,-14.6876125335693,-13.3443746566772,25.8939990997314,26.3381252288818,24.3236122131348,-0.41717499494553,-1.41515004634857,-2.5636875629425,-20.4060001373291,-5.7460503578186,10.0410003662109,-20.8870506286621,-14.1960010528564,-1.31295001506805,-3.09105014801025,0.94800007343292,6.31800031661987,SHAKE
-14.6911878585815,-14.6876125335693,-13.3443746566772,25.8939990997314,26.3381252288818,24.3236122131348,-0.41717499494553,-1.41515004634857,-2.5636875629425,-20.4060001373291,-5.7460503578186,10.0410003662109,-20.8870506286621,-14.1960010528564,-1.31295001506805,-3.09105014801025,0.94800007343292,6.31800031661987,-4.61752510070801,8.90023708343506,11.8095998764038,12.7668752670288,-18.5523242950439,-23.4936618804932,-2.45602488517761,-2.67506241798401,-7.35982513427734,33.7830009460449,41.3730010986328,30.5809516906738,19.0060501098633,34.498950958252,25.1749515533447,10.5480003356934,-19.4560508728027,-18.4930515289307,12.3710126876831,11.9725370407104,2.53398752212524,-24.6366996765137,-21.8960494995117,-2.08119988441467,-8.45418739318848,-7.39172506332397,-5.71395015716553,20.215051651001,6.3139500617981,-10.0189504623413,8.65395069122314,-4.32300043106079,-21.1219501495361,3.56400012969971,29.0779514312744,33.0850524902344,-1.1785124540329,-7.92948722839355,-14.2705745697021,3.75361251831055,12.4390745162964,24.840612411499,-0.05059999972582,2.98883748054504,0.32216250896454,-38.2060508728027,-43.9320030212402,-29.4930019378662,-28.6519508361816,-25.4020519256592,-22.3390502929688,16.1860504150391,4.59600019454956,3.9060001373291,-14.597825050354,-8.82199954986572,-2.78107500076294,26.1794490814209,18.9444751739502,6.14913749694824,-0.04427500069141,-3.49195003509521,-0.69781249761581,-10.078950881958,19.0489501953125,44.4139518737793,-17.0359516143799,9.25305080413818,27.9529514312744,3.4939501285553,5.1540002822876,14.1520509719849,1.23708748817444,12.7000503540039,14.7728624343872,-10.1652374267578,-21.9895496368408,-25.3908882141113,-2.21608757972717,-5.2943000793457,-6.70408725738525,49.6470031738281,36.2400016784668,25.3810520172119,36.9829521179199,32.2120513916016,17.1900005340576,3.57300019264221,-9.00900077819824,-1.20105004310608,15.0779752731323,-14.0504369735718,-13.5649251937866,-25.8491744995117,25.3387756347656,25.1036491394043,-7.15000009536743,0.48839998245239,-0.82665002346039,11.743950843811,-11.8290004730225,4.36005020141602,-1.19805002212524,-14.3010005950928,-8.26995086669922,16.9879512786865,-2.65995001792908,-0.78195005655289,-10.6474494934082,-2.82493758201599,9.67037487030029,20.1874752044678,8.75641250610352,-18.6704368591309,-2.41972494125366,-1.28878748416901,-6.43926239013672,14.2009506225586,35.9239501953125,38.3140525817871,6.57105016708374,23.1630020141602,32.1850509643555,5.86995029449463,12.6720008850098,-13.1599502563477,10.9603996276855,11.2476377487183,10.5319499969482,-21.4471130371094,-21.9492626190186,-12.5005378723145,-8.16791248321533,-9.02274990081787,-5.68947505950928,27.4020004272461,15.2689504623413,2.34600019454956,21.0870018005371,5.16000032424927,-10.7779502868652,-5.77095031738281,13.4719505310059,30.2800521850586,0.26276248693466,-2.22639989852905,-10.3526496887207,1.51868748664856,5.91195011138916,17.2235240936279,-1.82613754272461,1.48389995098114,2.85133743286133,-17.6490001678467,-43.582950592041,-39.7360534667969,-26.2690505981445,-25.9740009307861,-23.506950378418,26.8579521179199,9.41205024719238,1.70100009441376,SHAKE
-14.0504369735718,-13.5649251937866,-10.6474494934082,25.3387756347656,25.1036491394043,20.1874752044678,0.48839998245239,-0.82665002346039,-2.41972494125366,-11.8290004730225,4.36005020141602,14.2009506225586,-14.3010005950928,-8.26995086669922,6.57105016708374,-2.65995001792908,-0.78195005655289,5.86995029449463,-2.82493758201599,9.67037487030029,10.9603996276855,8.75641250610352,-18.6704368591309,-21.4471130371094,-1.28878748416901,-6.43926239013672,-8.16791248321533,35.9239501953125,38.3140525817871,27.4020004272461,23.1630020141602,32.1850509643555,21.0870018005371,12.6720008850098,-13.1599502563477,-5.77095031738281,11.2476377487183,10.5319499969482,0.26276248693466,-21.9492626190186,-12.5005378723145,1.51868748664856,-9.02274990081787,-5.68947505950928,-1.82613754272461,15.2689504623413,2.34600019454956,-17.6490001678467,5.16000032424927,-10.7779502868652,-26.2690505981445,13.4719505310059,30.2800521850586,26.8579521179199,-2.22639989852905,-10.3526496887207,-13.5467748641968,5.91195011138916,17.2235240936279,25.1944007873535,1.48389995098114,2.85133743286133,1.16600000858307,-43.582950592041,-39.7360534667969,-24.6240005493164,-25.9740009307861,-23.506950378418,-19.3230018615723,9.41205024719238,1.70100009441376,2.84505009651184,-13.5566749572754,-12.6105375289917,-2.23038744926453,26.1072616577148,24.7651252746582,5.55582475662231,0.07356250286102,-1.69894993305206,-1.14716243743896,-6.04305028915405,6.6259503364563,39.4969520568848,-14.4229507446289,-6.8430004119873,25.2250518798828,1.78905010223389,0.06495000422001,12.0300006866455,2.5943500995636,11.764087677002,13.1961498260498,-12.198037147522,-21.5848865509033,-24.0657997131348,-2.17401242256165,-7.09293746948242,-8.75256252288818,45.8940010070801,33.1620025634766,19.6399517059326,30.7030506134033,28.8970508575439,18.5430011749268,4.02600002288818,1.16595005989075,10.8450002670288,8.8889627456665,-0.23856249451637,-2.68482494354248,-6.53152513504028,3.0714750289917,7.90336227416992,-8.08004951477051,-2.3011999130249,0.42707499861717,0.8850000500679,-15.0940504074097,-38.0069999694824,-6.43800020217896,-20.8510513305664,-22.3840503692627,28.5679512023926,19.6969509124756,5.75505018234253,-8.38076210021973,-12.0554494857788,-12.5985746383667,16.4905128479004,21.9399127960205,23.2148132324219,1.87329995632172,0.29851248860359,-1.43096244335175,-35.764949798584,-21.3109512329102,-5.03205013275146,-20.7360000610352,-18.2190017700195,-13.2660007476807,2.66100001335144,5.29305028915405,1.2190500497818,-11.6984996795654,-6.70835018157959,-2.7974374294281,21.6763248443604,14.29518699646,6.87018728256226,-3.26658749580383,-4.16583728790283,-3.13898754119873,9.13800048828125,22.5960006713867,41.743953704834,-3.75105023384094,13.2360010147095,29.9560508728027,-1.69200003147125,3.00795006752014,10.2559509277344,10.9184627532959,11.8865995407104,11.5673246383667,-19.0011253356934,-21.8329372406006,-20.9009628295898,-7.11383724212646,-7.87118768692017,-7.45841264724732,32.719051361084,20.4589500427246,7.44195032119751,30.1350021362305,12.4600505828857,-7.29105043411255,0.91305005550385,8.64795017242432,28.3380012512207,SHAKE
-4.98176240921021,-13.0499877929688,-15.1259622573853,8.7950496673584,19.7844619750977,23.8279247283936,2.1628749370575,1.94521248340607,0.28228750824928,-48.8970031738281,-35.5500030517578,-13.6230010986328,-29.3700008392334,-28.1080513000488,-22.8220520019531,2.16795015335083,-2.02305006980896,2.01405000686646,-14.6623125076294,-12.0828123092651,-4.55606269836426,23.8756370544434,20.9375381469727,10.7826128005981,-1.627037525177,-4.05184984207153,-3.35307502746582,3.20595026016235,14.1409502029419,38.3479499816895,-14.6479511260986,2.69595003128052,25.0080013275146,0.73995006084442,2.63895010948181,12.0010509490967,-1.18414998054504,11.5592126846313,12.5107126235962,1.62222504615784,-16.8922882080078,-18.2821369171143,-5.28728723526001,-10.5720996856689,-11.5253877639771,53.0719528198242,27.6679515838623,16.534049987793,39.4159507751465,26.461051940918,6.83895015716553,9.78600025177002,1.81095004081726,16.8349514007568,11.5929002761841,-2.42728757858276,-11.7002878189087,-13.5269746780396,6.38495016098022,17.4765243530273,-8.1222620010376,0.5879499912262,0.59922498464584,2.32695007324219,-50.1190528869629,-35.5860023498535,-14.5000505447388,-31.6909523010254,-30.0120010375977,29.7510013580322,8.68695068359375,-2.36295008659363,-15.3045749664307,-15.6894378662109,-6.29777479171753,24.708475112915,25.9738864898682,14.9678373336792,-2.12960004806519,-3.8150749206543,-4.79173755645752,-15.5490007400513,6.20595026016235,39.72705078125,-22.7980518341064,-14.8639507293701,26.5620021820068,-7.51500034332275,-9.02100086212158,15.0379505157471,-1.99553751945496,0.48551249504089,1.95263743400574,6.09867477416992,1.80276250839233,-0.32078748941422,-7.35129976272583,-13.3454751968384,-15.893762588501,51.3690032958984,41.3290519714355,28.935001373291,42.3690032958984,40.9609527587891,25.8820514678955,14.4180002212524,5.39595031738281,10.4209508895874,2.6504499912262,1.76989996433258,-3.02005004882813,-0.86487501859665,1.16558754444122,6.11654996871948,-16.5441379547119,-11.3456745147705,0.40755000710487,15.7309503555298,5.95500040054321,-47.8150520324707,7.23195028305054,-10.7299509048462,-31.749002456665,21.1699504852295,26.3170509338379,9.43905067443848,-10.4339122772217,-14.9472122192383,-15.2422876358032,14.0575876235962,22.1633491516113,24.8958873748779,1.88718748092651,-0.77976250648499,-2.29377508163452,-43.3890037536621,-21.6679515838623,2.26200008392334,-29.7460517883301,-23.461950302124,-15.1990509033203,4.0090503692627,-2.86605024337769,-8.09700012207031,-14.1484746932983,-7.25628757476807,-1.91345000267029,25.1033744812012,17.9619007110596,7.63317489624023,-4.24778747558594,-4.9634747505188,-3.49057507514954,17.3700008392334,32.1300010681152,46.6660537719727,-0.51495003700256,21.0270004272461,39.0660018920898,-3.55605006217957,10.1050500869751,19.123950958252,10.3346376419067,13.7047624588013,12.9463129043579,-15.0885620117188,-20.7568626403809,-19.1735496520996,-5.97973728179932,-9.83001232147217,-8.7950496673584,48.1050033569336,18.2440509796143,9.81600093841553,40.1029510498047,10.077000617981,-8.38800048828125,13.1509504318237,9.65895080566406,20.7979507446289,SHAKE
-11.5439500808716,-15.0679378509521,-14.7208871841431,14.4898872375488,25.0780754089355,27.7344379425049,3.78262495994568,0.95947498083115,-0.32394999265671,-40.7800521850586,-17.7330017089844,4.76895046234131,-33.904052734375,-24.5730018615723,-12.1980009078979,-3.88095021247864,-7.7160005569458,-6.51300048828125,-12.7531251907349,2.14513754844666,13.761549949646,26.92236328125,-1.27861249446869,-15.5902996063232,-2.47541236877441,-4.08732509613037,-3.40271258354187,26.1790504455566,49.2930030822754,36.577953338623,10.5270004272461,46.8310508728027,38.1370506286621,5.84400033950806,30.3469505310059,20.1400508880615,15.4092121124268,15.7283496856689,12.9454870223999,-18.032299041748,-18.5565872192383,-10.3119497299194,-4.72051239013672,-5.13108730316162,-2.00653743743896,21.8119506835938,12.8359508514404,3.67695021629334,19.8250503540039,1.6800000667572,-21.3780002593994,7.93995046615601,7.87500047683716,12.7579507827759,0.76683747768402,-3.70796251296997,-14.4185247421265,0.98037499189377,5.31671237945557,18.24831199646,-1.32385003566742,2.12671256065369,1.09903752803802,-31.4370021820068,-53.9170532226563,-33.1710014343262,-39.154052734375,-36.1650009155273,-35.9470520019531,9.34995079040527,11.2330503463745,2.06505012512207,-16.0529880523682,-12.8997001647949,-2.34093737602234,25.8161754608154,25.1116256713867,12.26087474823,-0.74373751878738,-4.57242488861084,-3.6733124256134,-10.6030502319336,28.5859508514404,51.7480506896973,-25.5889511108398,7.21695041656494,32.9470520019531,-7.16205024719238,3.38205027580261,28.5250511169434,3.27263736724854,16.0606880187988,17.8752746582031,-9.72771263122559,-20.459587097168,-22.230037689209,-4.47603750228882,-7.39090013504028,-9.40073776245117,55.5630035400391,37.4809532165527,26.1040515899658,45.411003112793,39.1309509277344,19.8799514770508,37.2259521484375,24.5800514221191,12.4300508499146,17.915699005127,13.8770503997803,0.53253751993179,-22.0815372467041,-7.22205018997192,2.52243757247925,-9.51857471466064,-7.06461238861084,-2.80101251602173,11.8969507217407,-2.78295016288757,-38.2009506225586,0.41805002093315,-23.5549507141113,-39.034049987793,11.0599508285522,15.6850509643555,14.4229507446289,-3.67771244049072,-14.5070753097534,-13.6764373779297,7.59123754501343,24.862886428833,26.7992992401123,1.50851249694824,-0.17503750324249,-1.74556243419647,-52.2120018005371,-7.64805030822754,10.7670001983643,-37.3240509033203,-22.5420017242432,-7.14705038070679,13.3159503936768,-10.3500003814697,-8.20695018768311,-10.8740501403809,-1.70114994049072,3.86251258850098,23.8012504577637,12.8482751846313,-8.56116199493408,-3.90692496299744,-3.96783757209778,-2.11942505836487,26.4640522003174,53.4409523010254,55.6710014343262,15.2430009841919,35.5939521789551,42.0340538024902,7.72200059890747,23.9839515686035,15.2299509048462,11.9424247741699,12.9247245788574,12.9541501998901,-18.3192615509033,-20.3931751251221,-19.638162612915,-9.79302501678467,-11.3416872024536,-11.5583877563477,39.5400009155273,27.703950881958,15.2740507125854,34.1110534667969,18.0040512084961,2.28105020523071,1.95705008506775,-0.14699999988079,9.73305034637451,SHAKE
-12.5274877548218,-12.0668621063232,-10.187237739563,28.5615005493164,30.3875007629395,28.9379749298096,1.2974499464035,-0.46997499465942,-3.63178753852844,-15.1630506515503,6.06495046615601,24.1090507507324,-25.4520015716553,-12.8640003204346,5.50500011444092,-8.07495021820068,-11.0400009155273,1.12095010280609,-0.90859997272491,0.74456250667572,5.96158742904663,15.1590995788574,2.17483758926392,-7.15852499008179,-3.36654996871948,-5.6513876914978,-9.53534984588623,43.9210510253906,52.6459541320801,40.5769500732422,28.5570011138916,39.9810028076172,38.2900505065918,17.4760513305664,20.1109504699707,10.53600025177,7.58546257019043,6.51186227798462,0.8399875164032,-9.38423728942871,-5.01173734664917,2.56643748283386,-12.4009876251221,-8.68422508239746,-3.84326243400574,29.5270519256592,7.29600048065186,-14.5290002822876,24.0520515441895,-10.1599502563477,-34.0840530395508,8.50500011444092,18.8149509429932,12.5790004730225,-2.1067750453949,-10.3457746505737,-13.9302625656128,5.06811237335205,14.2976627349854,24.8980865478516,0.80024999380112,2.39085006713867,-2.15586256980896,-53.9290542602539,-41.0440521240234,-15.5010004043579,-30.4000511169434,-29.7660007476807,-23.9220008850098,8.4190502166748,5.41995048522949,-6.20205020904541,-13.8549127578735,-12.8441495895386,-5.48707485198975,28.2915878295898,29.0655746459961,20.6661128997803,-3.77767491340637,-5.56201267242432,-6.01796245574951,1.29000008106232,14.8999509811401,34.4820022583008,-12.5119504928589,2.76000022888184,22.10205078125,-15.1000509262085,-7.02600049972534,13.042950630188,-0.9179499745369,11.3866500854492,12.4499378204346,7.99988746643066,-13.1118621826172,-14.0695495605469,-2.84556245803833,-9.61069965362549,-10.7698249816895,48.748950958252,27.0810012817383,19.7070007324219,38.5900535583496,28.4059505462646,11.3440504074097,31.7869510650635,11.017050743103,12.2530508041382,11.5212621688843,1.75724995136261,-1.66911244392395,-11.9101123809814,2.49933743476868,4.81346225738525,-9.17276287078857,-3.82236242294312,0.67856252193451,9.88005065917969,-8.94105052947998,-42.7180519104004,-7.17300033569336,-28.8030014038086,-31.5040512084961,16.78005027771,12.4300508499146,6.42105007171631,-8.10397529602051,-14.7361497879028,-14.9836502075195,10.7453498840332,23.3043251037598,28.0264873504639,2.74917507171631,-2.78176259994507,-4.68558740615845,-43.9990539550781,-20.4679508209229,0.30795001983643,-29.0110511779785,-25.0549507141113,-15.2470502853394,-0.47100001573563,-12.151050567627,-18.5410499572754,-14.3972120285034,-2.53811240196228,-2.53467488288879,29.4266490936279,11.9985246658325,13.9419498443604,-6.04298734664917,-3.05593752861023,-11.6487245559692,16.0810508728027,43.9470024108887,36.7740020751953,-1.7700001001358,35.1049499511719,39.4639511108398,-12.4050006866455,40.4110527038574,34.795051574707,0.18603749573231,1.6414749622345,1.46217501163483,11.3865127563477,10.1283874511719,10.0896120071411,-17.0208492279053,-18.3704128265381,-17.3958129882813,24.8059520721436,19.0440006256104,10.2730503082275,29.6040019989014,15.7200012207031,2.89395022392273,15.5599508285522,8.88300037384033,12.8089504241943,SHAKE
-14.7361497879028,-14.9836502075195,-14.3972120285034,23.3043251037598,28.0264873504639,29.4266490936279,-2.78176259994507,-4.68558740615845,-6.04298734664917,-20.4679508209229,0.30795001983643,16.0810508728027,-25.0549507141113,-15.2470502853394,-1.7700001001358,-12.151050567627,-18.5410499572754,-12.4050006866455,-2.53811240196228,-2.53467488288879,0.18603749573231,11.9985246658325,13.9419498443604,11.3865127563477,-3.05593752861023,-11.6487245559692,-17.0208492279053,43.9470024108887,36.7740020751953,24.8059520721436,35.1049499511719,39.4639511108398,29.6040019989014,40.4110527038574,34.795051574707,15.5599508285522,1.6414749622345,1.46217501163483,1.90877497196198,10.1283874511719,10.0896120071411,3.41687488555908,-18.3704128265381,-17.3958129882813,-7.43723726272583,19.0440006256104,10.2730503082275,2.94900012016296,15.7200012207031,2.89395022392273,-15.2539510726929,8.88300037384033,12.8089504241943,16.6140003204346,-0.9646999835968,-4.83986234664917,-13.7858877182007,4.12458753585815,6.54527473449707,16.8419628143311,-1.13726246356964,1.36826252937317,-1.84071254730225,-20.8920001983643,-46.7779541015625,-37.8199501037598,-32.9920501708984,-28.8649520874023,-27.6460514068604,11.3839502334595,4.48395013809204,-5.16300010681152,-14.2359247207642,-11.625075340271,-3.41027498245239,26.8043880462646,25.9510631561279,16.1481380462646,-6.16618728637695,-7.93237495422363,-4.46476268768311,8.99205017089844,19.1040000915527,37.1569519042969,-14.7610502243042,2.28600001335144,22.525951385498,-13.746000289917,-4.65195035934448,17.1220512390137,-0.64459997415543,-5.02328729629517,-3.45358753204346,9.61124992370606,16.6401119232178,14.7014999389648,-6.74313735961914,-18.4585494995117,-21.5179252624512,47.6670036315918,35.0569534301758,26.8080005645752,38.7090034484863,41.1979522705078,29.0430011749268,32.8740005493164,18.5899505615234,4.56494998931885,-2.23341250419617,-3.38098740577698,1.30789995193481,13.6043872833252,11.9369249343872,2.61676239967346,-22.6397876739502,-18.1476631164551,-5.52777481079102,19.6210517883301,8.97795009613037,1.00499999523163,14.9029502868652,0.90900003910065,-21.4480514526367,3.35805010795593,9.80295085906982,13.1890506744385,-5.935462474823,-14.4913997650146,-14.7815246582031,7.26467514038086,22.0329990386963,26.5181121826172,1.99553751945496,-4.36713743209839,-5.72632503509521,-52.5619506835938,-33.3679504394531,-2.18505001068115,-30.166051864624,-27.1620006561279,-20.6290512084961,10.3920001983643,0.02205000072718,-9.66795063018799,-14.3068752288818,-10.1600122451782,-1.68272495269775,27.7518997192383,24.4492874145508,8.96032524108887,-7.40740013122559,-9.58883762359619,-3.18697500228882,13.9590005874634,32.1420021057129,49.6690521240234,-4.15305042266846,17.5090503692627,37.7850036621094,-11.8849506378174,3.37500023841858,21.9700508117676,0.4961000084877,4.49322509765625,5.73484992980957,1.92981243133545,-3.09677505493164,-4.44757509231567,-4.984375,-11.8654251098633,-12.7740249633789,41.4130516052246,29.9440517425537,23.1460514068604,45.1590003967285,35.389949798584,18.6010513305664,17.5770015716553,5.91795015335083,3.18795013427734,SHAKE
-14.7815246582031,-14.3068752288818,-10.1600122451782,26.5181121826172,27.7518997192383,24.4492874145508,-5.72632503509521,-7.40740013122559,-9.58883762359619,-2.18505001068115,13.9590005874634,32.1420021057129,-20.6290512084961,-4.15305042266846,17.5090503692627,-9.66795063018799,-11.8849506378174,3.37500023841858,-1.68272495269775,0.4961000084877,4.49322509765625,8.96032524108887,1.92981243133545,-3.09677505493164,-3.18697500228882,-4.984375,-11.8654251098633,49.6690521240234,41.4130516052246,29.9440517425537,37.7850036621094,45.1590003967285,35.389949798584,21.9700508117676,17.5770015716553,5.91795015335083,5.73484992980957,5.82628726959229,3.98942494392395,-4.44757509231567,-3.77643752098084,-0.84315001964569,-12.7740249633789,-12.9144124984741,-9.81901264190674,23.1460514068604,12.9990005493164,3.86700010299683,18.6010513305664,3.23895025253296,-16.5469512939453,3.18795013427734,10.9500007629395,16.7320499420166,-0.28104999661446,-3.90802502632141,-14.8702125549316,3.39954996109009,6.44544982910156,19.4869117736816,-1.31766247749329,1.70541250705719,-3.10928750038147,-22.4230518341064,-50.662052154541,-38.2969512939453,-35.8969535827637,-32.2639503479004,-29.6410522460938,12.8059501647949,7.75500059127808,-2.85405015945435,-15.4860744476318,-13.2439994812012,-2.67726254463196,28.9078617095947,27.4503631591797,14.0721626281738,-6.88448762893677,-8.95399951934814,-3.71153736114502,9.796950340271,27.5269508361816,45.1900520324707,-9.52305030822754,11.5980005264282,35.5960502624512,-13.3510503768921,3.84600019454956,29.238000869751,3.17143750190735,11.9996252059937,12.5551252365112,-3.55973744392395,-12.2398376464844,-12.3336124420166,-7.3287501335144,-8.09586238861084,-8.51056289672852,43.9879531860351,22.5450019836426,12.5599508285522,46.2010536193848,22.2649517059326,6.97095012664795,26.6569519042969,-1.57200002670288,5.28300046920776,7.56497478485107,0.86721247434616,-13.3270502090454,-3.04727506637573,2.01932501792908,12.2299375534058,-2.5113000869751,-2.26764988899231,0.56402498483658,4.2330002784729,-9.54495048522949,-39.6160507202149,-8.83305072784424,-28.5439510345459,-29.9020519256592,16.5040512084961,15.7620010375977,-1.77105009555817,-16.1552867889404,-16.3270244598389,-15.3124122619629,25.2912006378174,26.9693870544434,27.1166496276855,-5.91593742370605,-6.08739995956421,-7.4168872833252,-23.1940517425537,-1.1620500087738,20.2560005187988,-22.6240501403809,-12.7230005264282,4.28295040130615,-10.0560007095337,-10.7620506286621,-1.77600014209747,-0.48496249318123,7.35913753509521,9.77363777160644,4.22125005722046,-4.70800018310547,-6.91666269302368,-2.94525003433228,-8.13903713226318,-9.83331203460693,40.4269523620605,31.5460510253906,26.1229515075684,43.7290534973145,44.3430023193359,30.1260013580322,26.9490013122559,16.6960506439209,4.86195039749146,10.7460374832153,1.81225001811981,-1.09711253643036,-7.86816263198853,0.75844997167587,2.27878737449646,-9.8306999206543,-2.64123749732971,0.05073750019073,17.7550506591797,-1.55205011367798,-29.0380516052246,13.1089506149292,-21.9990005493164,-35.1330032348633,2.3929500579834,13.4220008850098,9.7669506072998,SHAKE
-13.3270502090454,-16.1552867889404,-16.3270244598389,12.2299375534058,25.2912006378174,26.9693870544434,0.56402498483658,-5.91593742370605,-6.08739995956421,-39.6160507202149,-23.1940517425537,-1.1620500087738,-29.9020519256592,-22.6240501403809,-12.7230005264282,-1.77105009555817,-10.0560007095337,-10.7620506286621,-15.3124122619629,-0.48496249318123,7.35913753509521,27.1166496276855,4.22125005722046,-4.70800018310547,-7.4168872833252,-2.94525003433228,-8.13903713226318,20.2560005187988,40.4269523620605,31.5460510253906,4.28295040130615,43.7290534973145,44.3430023193359,-1.77600014209747,26.9490013122559,16.6960506439209,9.77363777160644,10.7460374832153,1.81225001811981,-6.91666269302368,-7.86816263198853,0.75844997167587,-9.83331203460693,-9.8306999206543,-2.64123749732971,26.1229515075684,17.7550506591797,-1.55205011367798,30.1260013580322,13.1089506149292,-21.9990005493164,4.86195039749146,2.3929500579834,13.4220008850098,-1.09711253643036,-7.38361263275146,-16.7011623382568,2.27878737449646,6.46593761444092,22.4661254882813,0.05073750019073,2.64027500152588,-5.16078758239746,-29.0380516052246,-45.2209510803223,-31.4659519195557,-35.1330032348633,-32.8219528198242,-30.3760509490967,9.7669506072998,6.46200037002563,-6.18105030059814,-17.5143375396729,-12.1280498504639,-2.97247505187988,26.7724876403809,24.8704490661621,9.2394495010376,-5.41475009918213,-8.90752506256104,-1.83411252498627,-8.10795021057129,31.7040023803711,50.1720008850098,-21.7350006103516,15.8850011825562,37.7269515991211,-14.1580505371094,3.28605008125305,29.7390022277832,-2.52848744392395,-0.96098750829697,0.53377497196198,11.9312877655029,9.7212495803833,8.66827487945557,-8.83877468109131,-19.9828758239746,-21.1956253051758,42.3190536499023,31.2919521331787,22.6650009155273,47.2050018310547,38.1780014038086,20.6680507659912,29.356050491333,13.4959506988525,5.73405027389526,0.90805000066757,1.54604995250702,0.19910000264645,8.55538749694824,1.73401248455048,2.99021244049072,-20.8528366088867,-13.7948246002197,-2.15091252326965,9.42795085906982,2.9760000705719,-9.0730504989624,6.05805015563965,-9.49695014953613,-26.9590511322021,5.02500009536743,9.83205032348633,10.4590501785278,-13.2114124298096,-15.9258003234863,-16.0261745452881,11.675950050354,25.4981365203857,27.9116744995117,1.54838752746582,-4.43767499923706,-4.77950000762939,-41.0580024719238,-24.4819507598877,-4.62495040893555,-28.7599506378174,-25.92405128479,-16.8919506072998,2.44500017166138,-8.29500007629395,-13.6050004959106,-14.8550872802734,-4.65753746032715,-5.21840000152588,28.2244873046875,20.7898616790771,14.9326372146606,-6.06581258773804,-6.68071269989014,-17.6257133483887,12.0019502639771,36.4510536193848,39.0160522460938,0.73605000972748,23.4910507202148,43.2049522399902,-6.86100053787231,9.31695079803467,15.831000328064,-3.84450006484985,-3.04768753051758,-3.40450000762939,13.5475997924805,13.2288751602173,13.319899559021,-21.7705116271973,-22.790075302124,-21.4803867340088,28.6840515136719,19.3339500427246,10.9510507583618,32.3359527587891,16.9720516204834,2.80995011329651,10.0090503692627,7.33800029754639,8.6050500869751,SHAKE
-15.9258003234863,-16.0261745452881,-14.8550872802734,25.4981365203857,27.9116744995117,28.2244873046875,-4.43767499923706,-4.77950000762939,-6.06581258773804,-24.4819507598877,-4.62495040893555,12.0019502639771,-25.92405128479,-16.8919506072998,0.73605000972748,-8.29500007629395,-13.6050004959106,-6.86100053787231,-4.65753746032715,-5.21840000152588,-3.84450006484985,20.7898616790771,14.9326372146606,13.5475997924805,-6.68071269989014,-17.6257133483887,-21.7705116271973,36.4510536193848,39.0160522460938,28.6840515136719,23.4910507202148,43.2049522399902,32.3359527587891,9.31695079803467,15.831000328064,10.0090503692627,-3.04768753051758,-3.40450000762939,0.78003752231598,13.2288751602173,13.319899559021,2.69087505340576,-22.790075302124,-21.4803867340088,-5.8112998008728,19.3339500427246,10.9510507583618,3.10305023193359,16.9720516204834,2.80995011329651,-16.0519504547119,7.33800029754639,8.6050500869751,10.4730005264282,-0.88660001754761,-4.49446249008179,-15.3758001327515,3.14572501182556,5.20410013198853,18.2077503204346,-0.71541249752045,2.05108737945557,-2.87045001983643,-19.2319507598877,-44.4760513305664,-40.2580528259277,-32.5729522705078,-31.1710510253906,-29.1330013275146,9.63300037384033,9.09899997711182,-0.97905004024506,-16.2254123687744,-13.6526498794556,-3.11341238021851,27.2199115753174,27.5679244995117,14.3870372772217,-5.24631261825562,-8.41376209259033,-3.28982496261597,-15.0150003433228,23.9970016479492,44.3539505004883,-25.1790008544922,9.50505065917969,34.1950531005859,-10.992000579834,-1.86900007724762,19.4380512237549,1.09683752059937,-0.01911249943078,1.58221244812012,5.51897478103638,5.63337516784668,4.29440021514893,-8.03316211700439,-14.8438119888306,-16.4737377166748,49.9369506835938,34.7170524597168,24.6529502868652,46.1820030212402,42.0430526733398,25.3549518585205,26.1490516662598,12.3060007095337,4.54305028915405,2.26627492904663,-0.77481251955032,0.68145000934601,4.30485010147095,4.49721240997314,2.70008754730225,-17.071174621582,-10.2740001678467,-2.51239991188049,13.2049503326416,5.82105016708374,-15.0840005874634,8.27100086212158,-12.1120510101318,-31.7290515899658,6.91395044326782,9.3720006942749,6.24900007247925,-1.64422500133514,-13.0451745986938,-15.3500871658325,3.89798736572266,12.3212375640869,25.908712387085,0.48441249132156,1.37829995155334,-4.90544986724854,-40.1530532836914,-39.1729507446289,-19.8649501800537,-31.2430515289307,-28.3410015106201,-23.2800006866455,5.91105031967163,0.30405002832413,-7.87095022201538,-15.7012624740601,-15.0144500732422,-4.55523729324341,27.5796127319336,27.6590881347656,19.3326377868652,-5.488450050354,-6.79717493057251,-6.88242483139038,3.03105020523071,19.1989517211914,36.3810005187988,-12.8230504989624,5.78700017929077,26.6910018920898,-12.106050491333,-4.6360502243042,11.9659509658813,-1.18593752384186,-1.51030004024506,0.31308749318123,5.29361248016357,8.54562473297119,7.18464994430542,-3.07601237297058,-16.1482753753662,-18.1141128540039,42.4069519042969,34.4560508728027,27.3430519104004,42.373950958252,42.7429504394531,30.1090507507324,22.9129505157471,12.8730001449585,4.65795040130615,SHAKE
-15.7012624740601,-15.0144500732422,-4.55523729324341,27.5796127319336,27.6590881347656,19.3326377868652,-5.488450050354,-6.79717493057251,-6.88242483139038,3.03105020523071,19.1989517211914,36.3810005187988,-12.8230504989624,5.78700017929077,26.6910018920898,-12.106050491333,-4.6360502243042,11.9659509658813,-1.18593752384186,-1.51030004024506,0.31308749318123,5.29361248016357,8.54562473297119,7.18464994430542,-3.07601237297058,-16.1482753753662,-18.1141128540039,42.4069519042969,34.4560508728027,27.3430519104004,42.373950958252,42.7429504394531,30.1090507507324,22.9129505157471,12.8730001449585,4.65795040130615,1.31408751010895,0.34058749675751,-0.90186250209808,6.96423768997192,7.36023759841919,3.18243741989136,-18.84423828125,-16.430700302124,-0.09129999577999,18.2700004577637,9.42105007171631,-25.8379516601563,14.239951133728,-0.90105003118515,-30.5440521240234,5.14905023574829,10.3849506378174,7.0770001411438,-5.69703769683838,-15.6806373596191,-16.6233367919922,5.87647485733032,21.6061992645264,26.8625507354736,2.6446750164032,-5.21826267242432,-5.91758728027344,-43.4650535583496,-30.6730518341064,-6.79995012283325,-27.1020011901855,-25.5619506835938,-20.9929504394531,5.96400022506714,-4.58505010604858,-14.7709503173828,-16.7088623046875,-13.6175870895386,-4.69864988327026,28.4454498291016,26.8305130004883,11.5652627944946,-7.06461238861084,-9.23394966125488,-1.20009994506836,7.4520001411438,22.090051651001,40.675952911377,-7.63800048828125,9.96405029296875,31.0410022735596,-17.8830013275146,-5.09295034408569,18.4369506835938,-4.8365626335144,-10.356912612915,-8.15306282043457,14.6599750518799,20.7010364532471,20.2622756958008,-8.29977512359619,-19.5076751708984,-22.0866241455078,40.8649520874023,29.191951751709,13.8540010452271,43.1500511169434,40.5319519042969,10.4869508743286,26.6760005950928,17.1600017547607,10.4110507965088,-7.10242509841919,-1.14248752593994,-2.65704989433289,12.2237501144409,4.91768741607666,4.48992490768433,-14.6317873001099,-2.97247505187988,-0.58698749542236,5.07105016708374,-6.28995037078857,-26.2999515533447,-4.31805038452148,-21.2869510650635,-27.7369518280029,10.3200006484985,7.12305021286011,3.68400025367737,-9.19682502746582,-16.7455749511719,-17.3733997344971,7.86046266555786,21.9620494842529,26.5703620910645,0.89155000448227,-8.11621284484863,-8.56006240844727,-35.2690505981445,-26.8150520324707,-7.08705043792725,-26.6449508666992,-23.215051651001,-18.7099514007568,0.4909500181675,-6.00600051879883,-11.9910001754761,-16.8910503387451,-11.2128496170044,-5.77500009536743,27.7409000396729,24.5658874511719,16.3158874511719,-9.25402450561523,-10.1468124389648,-9.66212463378906,8.51504993438721,21.4890003204346,40.0050010681152,-6.35895013809204,12.5460004806519,43.324951171875,-11.3320503234863,-2.5570502281189,23.7199516296387,-9.78257465362549,-8.59856224060059,-7.58559989929199,20.6985626220703,20.1881618499756,19.5966377258301,-20.5525379180908,-21.7870121002197,-22.1703624725342,29.4690017700195,20.7730503082275,12.421950340271,40.0720520019531,26.3920516967773,12.6090002059937,14.3010005950928,6.82605028152466,5.28300046920776,SHAKE
-16.3061256408691,-17.6059131622314,-17.6661376953125,20.3685626983643,25.1564502716064,26.6844882965088,-6.65362501144409,-6.46868753433228,-7.23813724517822,-31.4370021820068,-12.6990003585815,4.18305015563965,-22.7050514221191,-19.2900009155273,-9.45795059204102,-5.74695014953613,-12.5580005645752,-13.9279508590698,-14.2910623550415,-4.45706224441528,-1.79011249542236,25.0426006317139,9.20988750457764,7.74289989471436,-9.06936264038086,-0.32298749685287,-6.00077486038208,18.6990013122559,35.0310020446777,38.5369529724121,7.97205018997192,29.2060508728027,41.4180030822754,-2.91600012779236,18.6640510559082,29.3989505767822,-3.7013623714447,-2.75797510147095,-3.62161254882813,12.5195121765137,12.2901620864868,9.17510032653809,-16.4863872528076,-17.0095748901367,-11.8720245361328,21.3120002746582,13.3630504608154,7.83495044708252,26.8950004577637,13.5760507583618,0.45105001330376,8.39205074310303,2.4019501209259,3.23805022239685,0.37482500076294,-4.10368728637695,-14.4142627716064,2.75632500648499,4.17614984512329,19.3947868347168,-2.36156249046326,0.52112501859665,-8.81911277770996,-1.08105003833771,-36.0529518127441,-27.9240016937256,-15.4980010986328,-22.4850006103516,-22.8100509643555,3.41505026817322,7.01295042037964,-2.67900013923645,-15.5454750061035,-15.7993001937866,-3.75402498245239,24.3819122314453,26.0561122894287,9.85242462158203,-9.91636276245117,-10.8308753967285,-2.03032493591309,-9.89700031280518,4.03905010223389,34.0339508056641,-19.6470012664795,-10.8760509490967,26.6550006866455,-13.2820510864258,-16.5960006713867,16.4080505371094,-1.73882496356964,-6.51268768310547,-5.29292488098145,9.67573738098144,17.0204372406006,16.8551616668701,-7.09101247787476,-18.8608741760254,-21.0981369018555,42.7930526733398,31.5430507659912,23.1370506286621,39.9859504699707,40.3669509887695,27.9220504760742,27.715051651001,17.9749507904053,8.8210506439209,-5.14827489852905,0.20927499234676,-0.76491248607635,12.6350126266479,4.06353759765625,2.8362123966217,-16.0554618835449,-3.68252491950989,-0.8981499671936,7.54095029830933,1.5700501203537,-14.1859502792358,2.0269501209259,-13.0840501785278,-24.2620506286621,5.49705028533936,3.80100011825562,1.53000009059906,-3.36654996871948,-13.585000038147,-15.154974937439,2.81572508811951,14.1714372634888,21.7999382019043,1.37170004844666,-3.69902491569519,-3.34881258010864,-32.2090530395508,-33.4800033569336,-16.0879516601563,-24.2430019378662,-22.0420513153076,-19.8450012207031,3.49695014953613,-2.18595004081726,-10.8360004425049,-15.6510753631592,-14.2186002731323,-4.62371253967285,23.5992622375488,23.6718616485596,12.0901002883911,-3.86567497253418,-5.52199983596802,0.02901249937713,2.73405003547669,16.5190505981445,34.699951171875,-10.9980001449585,7.06605052947998,28.1689510345459,-13.4850006103516,-4.84905004501343,12.7849502563477,-5.75272512435913,-4.66138744354248,-3.89468741416931,12.7804870605469,12.6861619949341,12.9116621017456,-13.5151500701904,-14.7273502349854,-15.5009250640869,28.8870010375977,19.7410507202148,12.3709506988525,39.8110504150391,26.8350009918213,13.381950378418,20.5540504455566,13.3240509033203,7.7359504699707,SHAKE
-13.585000038147,-15.154974937439,-15.6510753631592,14.1714372634888,21.7999382019043,23.5992622375488,-3.69902491569519,-3.34881258010864,-3.86567497253418,-33.4800033569336,-16.0879516601563,2.73405003547669,-22.0420513153076,-19.8450012207031,-10.9980001449585,-2.18595004081726,-10.8360004425049,-13.4850006103516,-14.2186002731323,-4.62371253967285,-5.75272512435913,23.6718616485596,12.0901002883911,12.7804870605469,-5.52199983596802,0.02901249937713,-13.5151500701904,16.5190505981445,34.699951171875,28.8870010375977,7.06605052947998,28.1689510345459,39.8110504150391,-4.84905004501343,12.7849502563477,20.5540504455566,-4.66138744354248,-3.89468741416931,-4.04442501068115,12.6861619949341,12.9116621017456,11.129937171936,-14.7273502349854,-15.5009250640869,-12.5052127838135,19.7410507202148,12.3709506988525,7.62705039978027,26.8350009918213,13.381950378418,0.39900001883507,13.3240509033203,7.7359504699707,4.07400035858154,-1.06974995136261,-4.19113731384277,-14.3538999557495,2.86508750915527,4.05019998550415,18.6026496887207,-0.71706247329712,0.50723749399185,-8.35697460174561,-18.4399509429932,-34.2640533447266,-31.2310523986816,-22.9999504089355,-23.1150016784668,-22.276050567627,-0.70800000429153,2.83800005912781,-1.43805003166199,-15.6686744689941,-15.8628244400024,-3.7291374206543,24.0403633117676,25.4212741851807,9.57316207885742,-9.00528717041016,-9.79357528686523,-1.67103743553162,-11.7259502410889,4.56405019760132,34.3740005493164,-20.5590019226074,-11.1919507980347,27.0220508575439,-9.53805065155029,-12.738000869751,12.7609510421753,-1.06315004825592,-5.27546262741089,-4.08828735351563,7.69711256027222,14.2525625228882,14.0212869644165,-6.70917510986328,-18.1886367797852,-20.1873378753662,46.2660026550293,33.751953125,22.3080005645752,40.8910522460938,42.4770011901855,29.9359512329102,22.2550506591797,15.1390504837036,8.91405010223389,-3.38359999656677,-4.29549980163574,0.6238374710083,14.2445878982544,11.1133003234863,3.29793739318848,-21.0124740600586,-15.8065872192383,-3.69214987754822,14.3400011062622,10.6110000610352,5.38500022888184,16.195951461792,3.32505011558533,-9.528000831604,5.85300016403198,3.72000026702881,2.36595010757446,-0.28613749146461,-2.21759986877441,-15.854024887085,2.28745007514954,1.42738747596741,22.0448246002197,-1.08198750019073,1.41515004634857,-1.56007504463196,-8.00205039978027,-28.0890007019043,-23.9359512329102,-22.498950958252,-26.2999515533447,-22.9129505157471,0.57705003023148,3.74595022201538,-6.58005046844482,-16.6509742736816,-15.9532995223999,-4.97667503356934,23.7972621917725,24.5949001312256,16.7266006469727,-1.61204993724823,-3.41962504386902,-1.24080002307892,-1.29105007648468,11.743950843811,24.1860008239746,-18.4440002441406,-3.99795007705688,16.8550510406494,-12.4600505828857,-10.9609508514404,1.16595005989075,-3.26314997673035,-6.59862518310547,-7.05196237564087,4.53543758392334,13.5162496566772,15.0136251449585,-0.88371247053146,-12.879075050354,-19.0678119659424,40.5769500732422,41.9380531311035,25.8820514678955,36.0510025024414,43.4590530395508,37.6080017089844,18.7720508575439,24.2640018463135,17.4169502258301,SHAKE
-15.9532995223999,-4.97667503356934,-3.26314997673035,24.5949001312256,16.7266006469727,4.53543758392334,-3.41962504386902,-1.24080002307892,-0.88371247053146,11.743950843811,24.1860008239746,40.5769500732422,-3.99795007705688,16.8550510406494,36.0510025024414,-10.9609508514404,1.16595005989075,18.7720508575439,-6.59862518310547,-7.05196237564087,-6.2039999961853,13.5162496566772,15.0136251449585,15.3023748397827,-12.879075050354,-19.0678119659424,-20.5871868133545,41.9380531311035,25.8820514678955,17.0920505523682,43.4590530395508,37.6080017089844,24.2749519348145,24.2640018463135,17.4169502258301,10.4500503540039,-5.73540019989014,-0.35034999251366,-1.29414999485016,15.2596120834351,3.15205001831055,2.1379873752594,-20.6923751831055,-2.59971237182617,-0.62878751754761,11.8660507202148,-1.03995001316071,-16.4370002746582,10.8720006942749,-15.2850008010864,-26.4510021209717,4.82595014572144,0.94605004787445,-1.31400001049042,-5.660325050354,-14.9632997512817,-16.2269248962402,3.09925007820129,18.8384628295898,20.646312713623,3.02486252784729,-3.1857373714447,-2.02812504768372,-36.1319999694824,-34.6519508361816,-11.2230005264282,-27.9000015258789,-25.2199516296387,-23.0140514373779,-1.86705005168915,-2.69100022315979,-6.39405012130737,-15.9923496246338,-12.3752746582031,-3.30481243133545,21.2763366699219,19.9248504638672,4.14809989929199,-2.7607250213623,-5.71339988708496,0.37908750772476,5.27205038070679,18.5860500335693,39.2170524597168,-10.6770000457764,8.56305027008057,29.4259510040283,-10.0720500946045,-3.51705026626587,14.9860506057739,0.93417501449585,-1.33732497692108,-0.53845000267029,5.95333766937256,11.3190002441406,11.4449501037598,-7.90226268768311,-21.5601367950439,-22.1799869537354,46.2150039672851,20.5860004425049,13.9210510253906,43.3630523681641,29.1799507141113,14.7090005874634,25.9410018920898,11.9700002670288,6.64395046234131,-2.97989988327026,1.20945000648499,0.23553749918938,8.33937454223633,2.23286247253418,1.66237497329712,-15.4970750808716,-3.52962493896484,-1.10274994373322,10.6560001373291,5.03805017471313,-6.796950340271,2.53500008583069,-8.77995014190674,-22.0390510559082,0.50805002450943,-1.65900003910065,-2.40105009078979,-1.38847494125366,-1.74597501754761,-7.22287511825562,0.51782500743866,-0.95961248874664,-1.69111251831055,1.60379993915558,10.0498752593994,18.6591625213623,-26.5249519348145,-37.3080024719238,-24.3769512176514,-26.7570018768311,-24.2520008087158,-23.098051071167,1.48695003986359,2.61495018005371,-4.50405025482178,-8.01143741607666,-7.50804996490479,-7.90858745574951,-0.77247500419617,0.26716250181198,1.64835000038147,19.0746879577637,17.1951999664307,9.01340007781982,-2.79300022125244,10.8889503479004,22.2840003967285,-17.7259502410889,-4.29195022583008,15.3460502624512,-12.0049505233765,-12.6490507125854,0.91995006799698,-2.52230000495911,-3.61240005493164,-3.24582505226135,2.67808747291565,10.3884000778198,10.5725126266479,-0.16568750143051,-10.6907625198364,-18.2811756134033,38.4360008239746,38.9920501708984,24.8110504150391,35.1379508972168,43.7530517578125,38.0839500427246,23.7010517120361,26.1990013122559,17.5819511413574,SHAKE
-14.6658878326416,-9.5911750793457,-4.51893758773804,15.6798124313354,13.2657251358032,4.71350002288818,1.00718748569489,-3.20416259765625,-0.28613749146461,8.26095008850098,16.7329502105713,33.8040008544922,-10.9140005111694,7.83795022964478,29.1630020141602,-12.9820508956909,-5.35200023651123,12.1090507507324,-3.78592491149902,-8.35491275787354,-6.81106233596802,7.70041227340698,16.2134494781494,16.941650390625,-7.08015012741089,-18.9996128082275,-21.9929866790771,43.2859535217285,28.2019519805908,9.08295059204102,42.7429504394531,42.4069519042969,16.0360507965088,26.3140506744385,21.8640003204346,8.77095031738281,-5.84003734588623,-0.67402499914169,-1.00443744659424,12.9240369796753,3.87736248970032,2.77021241188049,-16.7037754058838,-4.29398727416992,-2.00034999847412,6.96105051040649,5.14995002746582,-2.81895017623901,4.66200017929077,-6.4960503578186,-18.5520000457764,4.77300024032593,1.26000010967255,-2.62395024299622,-15.3159875869751,-17.7799873352051,-18.5343132019043,7.50103759765625,20.4986381530762,21.8393993377686,-1.03688752651215,-5.14085006713867,-4.9207124710083,-33.0229530334473,-24.7390518188477,-6.32100009918213,-20.451000213623,-20.7390003204346,-18.8850002288818,-1.17000007629395,-6.25005006790161,-10.0009508132935,-17.9251880645752,-5.56146240234375,-3.37562489509583,22.5846500396729,16.7252254486084,4.16583728790283,-5.92143726348877,-4.59305000305176,-0.82293748855591,6.25200033187866,15.3940505981445,34.4650497436523,-11.7570009231567,4.64700031280518,31.4359512329102,-11.6989507675171,-5.23395013809204,14.0130004882813,-4.39257478713989,-9.1495246887207,-7.98022508621216,10.2456750869751,17.656925201416,18.4888000488281,-9.53397464752197,-20.9372615814209,-24.2891006469727,47.1370506286621,28.9999523162842,2.15205001831055,45.0439529418945,45.0349502563477,17.9689502716064,21.0589504241943,15.9679508209229,9.83205032348633,-5.83673763275146,-0.63841247558594,-0.7541875243187,12.1072874069214,4.46985006332397,3.265625,-16.6676120758057,-5.16890001296997,-2.87196254730225,4.37700033187866,5.05005025863647,-2.00999999046326,5.7199501991272,-6.66105031967163,-19.560001373291,7.95600032806396,1.32900011539459,-4.1380500793457,-14.1499872207642,-16.5929508209229,-17.7940120697021,9.25870037078857,19.7276744842529,21.941837310791,-8.15443706512451,-14.3431749343872,-14.7437124252319,-30.2160015106201,-22.9450511932373,-5.09205007553101,-20.9809513092041,-18.4300518035889,-15.7710008621216,5.76705026626587,-2.33895015716553,-11.3680505752563,-17.6844253540039,-6.55902481079102,-14.1447620391846,22.4069995880127,15.6039123535156,9.968337059021,-14.8608627319336,-7.2722373008728,-4.38652515411377,6.38595008850098,11.1760501861572,39.4900512695313,-5.29800033569336,13.032000541687,40.4410514831543,-12.5850009918213,-7.97895050048828,24.562952041626,-17.5036125183105,-17.430736541748,-16.4449996948242,21.5065116882324,22.6371746063232,23.1534881591797,-10.3714876174927,-11.6503753662109,-13.7926244735718,26.9620513916016,10.9650001525879,6.50100040435791,38.8870506286621,27.9199504852295,15.456000328064,25.5619506835938,16.9570503234863,9.32100009918213,SHAKE
-6.20042514801025,-1.68863749504089,-2.54361248016357,8.09627532958984,1.99856245517731,9.21896266937256,3.33808755874634,-0.29727500677109,-10.0443754196167,14.3659505844116,37.8970527648926,44.2110023498535,11.0659503936768,31.2439517974854,42.3360023498535,-4.05600023269653,11.9100008010864,20.6670017242432,-7.97279977798462,-7.55315017700195,-7.01676225662231,15.5902996063232,16.0582122802734,16.5497741699219,-20.8108997344971,-22.9725379943848,-24.7898750305176,28.3890018463135,14.8999509811401,8.97000026702881,39.7150535583496,27.2059516906738,15.0390005111694,15.8340005874634,8.65995025634766,2.07195019721985,-5.45984983444214,0.50861251354218,0.57763749361038,9.25388717651367,1.32797503471375,-1.17260003089905,-15.3558626174927,-1.70389997959137,1.02987504005432,7.81605052947998,-0.11295000463724,-18.9259510040283,4.6690502166748,-17.5799999237061,-24.5970020294189,-2.33400011062622,-5.45505046844482,-5.46000003814697,5.17990016937256,8.05007457733154,8.28355026245117,-10.2482872009277,-18.1073741912842,-18.8174247741699,14.855637550354,22.7232494354248,23.0652122497559,-36.1290016174316,-27.1380004882813,-7.18800020217896,-21.8790016174316,-21.4260005950928,-19.0429515838623,-1.12695002555847,-0.36105000972748,-0.66195005178452,8.15031242370605,3.34262490272522,1.08116245269775,-17.657886505127,-9.50743770599365,-2.67946243286133,21.395824432373,8.23143768310547,0.56292498111725,3.00705003738403,15.4440011978149,37.9450531005859,-7.7359504699707,9.55695056915283,29.1130504608154,-3.76395010948181,2.87400007247925,16.6309509277344,6.19712495803833,16.6454753875732,16.6005115509033,-14.620924949646,-19.3199882507324,-18.1568756103516,-2.32264995574951,-0.87931251525879,-2.17016243934631,46.9189529418945,17.4970512390137,11.4439506530762,41.9160003662109,28.4610004425049,15.2740507125854,16.909049987793,7.08495044708252,5.63595008850098,11.1941499710083,1.94521248340607,0.82142502069473,-4.69947481155396,0.18039999902248,0.04262499883771,-0.00233749998733,-3.0463125705719,-0.99440002441406,8.67795085906982,5.50200033187866,-8.03595066070557,3.14595007896423,-10.2150001525879,-21.8640003204346,1.96200013160706,-3.7300500869751,-5.54595041275024,-0.16596250236034,-0.41772499680519,-2.79358744621277,-1.03468751907349,-2.59998750686646,-1.84621250629425,1.42848753929138,7.97527503967285,11.5805253982544,-29.896951675415,-36.7330513000488,-19.627950668335,-23.098051071167,-20.9020519256592,-21.4330501556396,-0.8320500254631,-0.04395000264049,-3.50505018234253,-3.41852498054504,-3.63618755340576,-1.28177499771118,-0.77096247673035,1.70871245861053,1.52886247634888,11.1054620742798,3.68389987945557,-0.61668747663498,-2.7810001373291,24.6480007171631,45.0730514526367,-16.0420513153076,17.4079513549805,35.685001373291,-6.86805009841919,1.32405006885529,14.9310007095337,-4.93295001983643,-4.88289976119995,-4.25493764877319,10.575400352478,11.2144994735718,11.5638875961304,-13.9478626251221,-18.4032745361328,-20.2589740753174,40.3309516906738,23.6059513092041,13.3270502090454,42.0649528503418,34.5090026855469,20.9550018310547,13.9200010299683,8.11200046539307,5.85795021057129,SHAKE
-8.91948699951172,-10.2815628051758,-10.7419128417969,7.83406257629395,9.33116245269775,10.3606252670288,4.46448755264282,4.85691261291504,4.10341262817383,-30.5989513397217,-11.7409505844116,2.16795015335083,-20.0539512634277,-18.8200511932373,-9.85305023193359,-8.85105037689209,-11.7270002365112,-11.3800506591797,-7.79872512817383,-2.78052496910095,-6.57456254959106,8.86201286315918,5.91373729705811,14.4479503631592,0.72036248445511,-5.30571269989014,-16.1691741943359,13.3440008163452,47.194953918457,30.6760520935059,6.85305023193359,38.7259521484375,38.2039527893066,-2.26500010490417,22.8889503479004,11.0290508270264,-5.86038732528687,-5.22183752059937,0.19456249475479,14.8354253768921,15.1188125610352,2.46317505836487,-18.2253494262695,-19.4972248077393,-3.39418745040894,19.3890018463135,11.2890005111694,5.78505039215088,25.8070507049561,14.8810510635376,-7.53705024719238,5.28600025177002,3.07305026054382,-3.33300018310547,0.39696249365807,0.47368749976158,5.3356876373291,0.7537750005722,-1.96432495117188,-10.2121248245239,-1.22581243515015,1.14812505245209,13.9808626174927,-3.79395008087158,-24.9570007324219,-40.5480003356934,-18.0970516204834,-20.8200016021729,-18.3919506072998,-6.30000019073486,-3.4740002155304,-1.69500005245209,5.46246242523193,5.05229997634888,0.09116250276566,-16.6299381256104,-14.735050201416,-7.16773748397827,21.1993370056152,19.5567626953125,7.30633735656738,-8.69700050354004,5.26500034332275,31.9789524078369,-18.9310512542725,-6.91005039215088,15.9930009841919,-5.52405023574829,-4.4320502281189,4.36605024337769,0.19744999706745,-2.06607508659363,-1.68698751926422,-0.22990000247955,9.02274990081787,9.52600002288818,-1.55608749389648,-21.8356876373291,-23.5360126495361,62.8369522094727,21.7240505218506,12.6250505447388,35.0830497741699,30.9640522003174,17.5420513153076,16.0180511474609,6.24105024337769,7.69305038452148,-2.10980010032654,0.51521247625351,0.03795000165701,10.0244379043579,1.18016254901886,-0.38156250119209,-22.9554882049561,-7.8515248298645,-0.1142624989152,9.51900005340576,6.56295013427734,-29.2440013885498,4.41000032424927,-8.28495025634766,-22.6189517974854,3.56100010871887,-2.70105004310608,-6.87000036239624,4.23843765258789,2.98058748245239,2.80953741073608,-6.7253999710083,-12.8643627166748,-12.6476621627808,11.2811870574951,19.2139739990234,18.7626991271973,-45.1390533447266,-24.3190517425537,-5.3580002784729,-18.4870510101318,-20.8780517578125,-14.9839506149292,-2.32905006408691,-1.73805010318756,-1.42395007610321,-1.61012494564056,1.42958748340607,2.50896239280701,-6.01411247253418,-1.22870004177094,0.61751252412796,7.55658769607544,-2.27754998207092,-15.5601873397827,43.7560539245605,56.1379508972168,35.1859512329102,21.3240013122559,39.1570510864258,38.4079513549805,7.67400026321411,12.928050994873,0.99405002593994,3.94748759269714,4.49844980239868,3.0940248966217,-0.58850002288818,-0.47093749046326,0.85497498512268,-17.4284000396729,-18.7215881347656,-17.227237701416,18.3949508666992,10.2469501495361,6.95100021362305,23.8990516662598,11.157000541687,-0.81195002794266,-2.21205019950867,-0.26700001955032,-0.34395000338554,SHAKE
9.87662506103516,9.41641235351562,8.39231204986572,-19.0188617706299,-18.5868377685547,-15.6974124908447,21.495512008667,21.0627994537354,18.480411529541,-17.9869499206543,-0.14205001294613,17.0729999542236,-21.9460506439209,-13.8409509658813,4.24695014953613,-4.05600023269653,-4.7989501953125,-0.90705001354218,-0.08703749626875,-3.76241254806519,-3.12785005569458,-2.08903741836548,7.8051872253418,7.8159122467041,0.87064999341965,-18.3114242553711,-20.0677127838135,45.7459526062012,33.9820518493652,18.8500499725342,27.2590503692627,41.3179512023926,25.150951385498,9.11295032501221,0.03600000217557,0.1410000026226,-2.76498746871948,-4.08883762359619,0.81908750534058,8.15883731842041,7.07520008087158,1.12667500972748,-20.9213123321533,-15.6865501403809,-3.58627486228943,10.0360507965088,6.42405033111572,1.59795010089874,10.8649501800537,-1.91100013256073,-16.123950958252,1.90905010700226,1.67400002479553,-0.45900002121925,-0.59468752145767,1.2919499874115,0.12540000677109,-0.21106250584126,-7.22796249389648,-6.90964984893799,2.6273500919342,20.7568626403809,21.7007999420166,-37.8940505981445,-35.3800506591797,-12.6750001907349,-21.6799507141113,-21.1870517730713,-20.4319515228271,-0.40395000576973,-7.11495018005371,-9.24900054931641,-0.51218748092651,-0.34498751163483,-2.72896242141724,-5.93821239471436,-5.11101245880127,1.86683750152588,20.8719501495361,18.0021877288818,0.71293747425079,2.88900017738342,17.0659503936768,48.388053894043,-10.7520008087158,9.32295036315918,29.5339508056641,-8.67405033111572,-1.11000001430511,13.4860506057739,-2.20426249504089,-7.26440000534058,-6.7013373374939,7.72804975509644,14.5613870620728,14.9485874176025,-9.08916282653809,-20.515962600708,-22.2719745635986,51.6300010681152,27.4840507507324,15.2290506362915,42.5299530029297,38.2590026855469,23.1300010681152,14.3730010986328,6.71595048904419,5.25195026397705,-5.65881252288818,-0.13406249880791,-0.1142624989152,9.48021221160889,2.13523745536804,0.50256252288818,-15.1761503219604,-3.01894998550415,-0.80795001983643,7.02795028686523,0.16095000505447,-21.2250003814697,-4.00005006790161,-18.2290515899658,-26.3770503997803,-0.29399999976158,-5.12895011901855,-6.37695026397705,-0.45814999938011,1.62827503681183,1.39342498779297,-1.83466243743896,-7.06626224517822,-7.03518724441528,4.75584983825684,12.2436876296997,11.9486122131348,-41.5759506225586,-30.211051940918,-6.3880500793457,-22.4179515838623,-22.7029514312744,-20.238000869751,-0.00105000007898,-1.77105009555817,-4.84605026245117,0.98972499370575,0.81977498531342,-1.19418752193451,-6.01191234588623,-4.11894989013672,0.85965001583099,10.9775876998901,6.4938497543335,-0.54326248168945,7.31100034713745,22.2790508270264,44.8260040283203,-6.91695022583008,15.2070007324219,36.0510025024414,-7.44495058059692,-1.05300009250641,11.6299505233765,-3.80833745002747,-3.0214250087738,-2.75536251068115,9.53947448730469,9.60684967041016,9.96710014343262,-18.636474609375,-20.1221618652344,-21.1569881439209,27.6799507141113,14.7180004119873,9.18405055999756,35.5139999389648,21.5059509277344,8.32905006408691,6.8860502243042,3.59295010566711,1.94205009937286,SHAKE
-0.13406249880791,-0.1142624989152,-0.45814999938011,2.13523745536804,0.50256252288818,-1.83466243743896,-3.01894998550415,-0.80795001983643,4.75584983825684,0.16095000505447,-21.2250003814697,-41.5759506225586,-18.2290515899658,-26.3770503997803,-22.4179515838623,-5.12895011901855,-6.37695026397705,-0.00105000007898,1.62827503681183,1.39342498779297,0.98972499370575,-7.06626224517822,-7.03518724441528,-6.01191234588623,12.2436876296997,11.9486122131348,10.9775876998901,-30.211051940918,-6.3880500793457,7.31100034713745,-22.7029514312744,-20.238000869751,-6.91695022583008,-1.77105009555817,-4.84605026245117,-7.44495058059692,0.81977498531342,-1.19418752193451,-3.80833745002747,-4.11894989013672,0.85965001583099,9.53947448730469,6.4938497543335,-0.54326248168945,-18.636474609375,22.2790508270264,44.8260040283203,27.6799507141113,15.2070007324219,36.0510025024414,35.5139999389648,-1.05300009250641,11.6299505233765,6.8860502243042,-3.0214250087738,-2.75536251068115,-2.83538746833801,9.60684967041016,9.96710014343262,1.64559996128082,-20.1221618652344,-21.1569881439209,9.31672477722168,14.7180004119873,9.18405055999756,-42.8539505004883,21.5059509277344,8.32905006408691,-22.1830501556396,3.59295010566711,1.94205009937286,-0.49200001358986,-2.68303751945496,-3.11190009117126,-1.61782503128052,-2.65595006942749,-2.21924996376038,-2.38617491722107,15.4250249862671,14.7556753158569,4.94463729858398,-26.3340015411377,-2.44095015525818,26.7460517883301,-23.6100006103516,-20.1760501861572,19.9060516357422,-5.23905038833618,-8.88195037841797,0.48900002241135,-2.08587503433228,-5.4064998626709,-5.43207502365112,2.30614995956421,12.312575340271,13.1471996307373,-1.50356245040894,-15.4611873626709,-19.6706123352051,56.4180030822754,46.828052520752,21.9970512390137,38.5249519348145,43.701000213623,32.9640007019043,18.7960510253906,16.806001663208,6.98400020599365,-4.57270002365112,-4.05638742446899,-0.22797499597073,13.2673749923706,13.0536994934082,3.03366255760193,-21.4157619476318,-21.7166118621826,-7.44383764266968,12.4480504989624,9.51900005340576,6.72600030899048,17.896951675415,4.14495038986206,-9.82695007324219,3.40095019340515,0.46695002913475,-3.88800024986267,0.04427500069141,-0.32491248846054,3.71951246261597,1.43783748149872,-0.38444998860359,-15.125,-2.04861259460449,0.44577500224113,21.1883373260498,-5.11605024337769,-26.6830520629883,-21.8530502319336,-21.7950019836426,-23.9740505218506,-20.3989505767822,-6.63795042037964,-3.37800025939941,-7.49805021286011,3.5960373878479,3.32516241073608,-0.78388750553131,-15.0915870666504,-13.8400621414185,-7.10558748245239,20.7583751678467,19.8189754486084,7.8839750289917,-4.50300025939941,10.9339504241943,33.7540512084961,-14.2339506149292,1.49100005626678,25.8979511260986,-7.55295038223267,-3.67500019073486,4.70895004272461,-1.6163125038147,-8.46078777313232,-8.56143760681152,1.06218755245209,14.9434995651245,16.4158496856689,-0.1575749963522,-16.6898880004883,-18.4130382537842,53.2350044250488,36.0220527648926,16.5049514770508,41.1949501037598,41.1810035705566,27.855001449585,13.1580009460449,13.4839506149292,11.2420501708984,SHAKE
3.5960373878479,3.32516241073608,-0.78388750553131,-15.0915870666504,-13.8400621414185,-7.10558748245239,20.7583751678467,19.8189754486084,7.8839750289917,-4.50300025939941,10.9339504241943,33.7540512084961,-14.2339506149292,1.49100005626678,25.8979511260986,-7.55295038223267,-3.67500019073486,4.70895004272461,-1.6163125038147,-8.46078777313232,-8.56143760681152,1.06218755245209,14.9434995651245,16.4158496856689,-0.1575749963522,-16.6898880004883,-18.4130382537842,53.2350044250488,36.0220527648926,16.5049514770508,41.1949501037598,41.1810035705566,27.855001449585,13.1580009460449,13.4839506149292,11.2420501708984,-8.38323783874512,-7.79501247406006,-0.8204625248909,17.2810001373291,16.7451629638672,3.25723743438721,-19.8330001831055,-19.7014122009277,-3.17006254196167,8.56995010375977,7.39695024490356,5.08095026016235,13.9570503234863,0.72405004501343,-12.2050504684448,8.13794994354248,2.26095008850098,-4.30995035171509,-0.85263746976852,-1.95208752155304,-4.29330015182495,1.54178750514984,0.71513748168945,0.2714250087738,-0.95191252231598,1.52556252479553,9.0576753616333,-6.14595031738281,-31.0609512329102,-39.2400016784668,-22.0849514007568,-22.1470508575439,-20.3530502319336,-6.36300039291382,-4.32405042648315,-7.33500051498413,-6.65816259384155,-5.87138748168945,-3.61006259918213,1.53271245956421,2.50153756141663,2.47211241722107,11.4626874923706,8.79326248168945,2.39992499351501,-16.5209999084473,11.5399503707886,35.2990531921387,-21.8170509338379,3.81900024414063,25.9060516357422,-8.21595001220703,-2.80800008773804,8.96700000762939,-1.26211249828339,-4.98341226577759,-4.55771255493164,2.80156254768372,12.0851497650146,12.4350872039795,-2.26558756828308,-15.5775127410889,-17.6879997253418,61.2919540405273,38.0940017700195,17.7289505004883,40.6020011901855,41.8800010681152,26.6029510498047,16.1350498199463,4.32300043106079,0.47205001115799,-4.09763765335083,-3.72996258735657,0.3647874891758,12.8629875183105,11.7228374481201,2.03362488746643,-19.5695495605469,-17.9104747772217,-3.69545006752014,10.3980007171631,8.28495025634766,3.8449501991272,12.2880001068115,-1.77495002746582,-15.2130002975464,3.32895016670227,2.28000020980835,-2.30295014381409,0.16431249678135,0.30428749322891,6.35112476348877,0.75927501916885,-2.42371249198914,-16.6161880493164,-0.72187501192093,2.98732495307922,21.5067882537842,-10.3330507278442,-37.9140014648438,-34.9459533691406,-25.1170520782471,-22.2690010070801,-21.223051071167,-7.38000011444092,-11.461950302124,-8.5420503616333,7.16897487640381,7.19716262817383,6.44393730163574,-18.5843620300293,-18.1847877502441,-15.6301746368408,22.3536491394043,21.2848625183105,19.1613121032715,-10.8829507827759,1.41405010223389,14.7880506515503,-19.9939517974854,-7.24005031585693,13.1760005950928,-3.56295013427734,-2.23800015449524,3.18105006217957,0.06916250288486,1.90107500553131,-1.87481248378754,-2.06524991989136,3.99038743972778,8.96156215667725,2.07941246032715,-8.08940029144287,-18.1768131256104,46.7779541015625,54.7849540710449,30.3750019073486,30.4540519714355,42.1609535217285,36.0960006713867,13.3360509872437,16.806001663208,7.6279501914978,SHAKE
4.58535003662109,4.73618745803833,4.55661249160767,-15.566237449646,-15.6997499465942,-14.8638877868652,19.070837020874,18.3836116790771,17.400074005127,-23.4169502258301,-5.21700048446655,5.56005048751831,-19.3020000457764,-14.8489503860474,-1.5090000629425,-9.62700080871582,-5.89305019378662,-3.60795021057129,3.08934998512268,-1.07799994945526,-4.25108766555786,-9.10428714752197,0.16224999725819,8.62125015258789,11.0622873306274,1.25551247596741,-7.47298765182495,20.6320514678955,48.8980522155762,46.5649528503418,18.9240016937256,35.3200531005859,41.0419502258301,5.0029501914978,18.6480007171631,13.4820003509521,-4.08099985122681,-3.36008739471436,0.10504999756813,11.0056371688843,10.9323501586914,0.61599999666214,-11.141900062561,-12.5980253219604,-1.01873743534088,11.238000869751,6.36195039749146,-6.46695041656494,16.2010517120361,2.80995011329651,-17.5290012359619,2.87400007247925,1.26495003700256,-3.19395017623901,-0.12264999747276,2.54003739356995,4.79888725280762,-0.79117500782013,-8.62097454071045,-14.8895998001099,0.48620000481606,11.8472747802734,18.0518245697021,-22.4350509643555,-30.3859519958496,-18.5380516052246,-19.6200008392334,-19.1080513000488,-18.2380504608154,-6.59205007553101,-10.0459508895874,-11.3010005950928,4.67898750305176,4.03493738174438,0.30483749508858,-14.4951124191284,-13.1136503219604,-5.23737478256226,17.3452129364014,16.7336120605469,6.74107503890991,-3.1279501914978,7.02300024032593,25.4340019226074,-11.8320007324219,3.45195007324219,27.1219520568848,-10.6380004882813,-6.15900039672852,8.80395030975342,-4.33056259155273,-10.616925239563,-10.8138246536255,2.85876250267029,17.3762874603271,18.8007869720459,0.89911252260208,-10.7802753448486,-11.817437171936,54.0829544067383,39.6550521850586,14.5870504379272,38.0940017700195,38.6160011291504,25.8340511322021,24.574951171875,18.2260513305664,10.4779500961304,-10.0751752853394,-7.88961267471313,-1.87041246891022,19.1974754333496,17.9001617431641,3.56207489967346,-13.4829750061035,-14.3292875289917,-2.15297508239746,6.06795024871826,4.38600015640259,-0.30195000767708,11.7610502243042,-2.91705012321472,-14.3149509429932,8.10494995117188,3.11400008201599,-1.26105010509491,-1.90313744544983,-3.57156252861023,-12.5313377380371,1.70554995536804,2.49163746833801,20.0501117706299,-0.3077250123024,0.75432497262955,-9.16891288757324,-13.0720510482788,-30.8050518035889,-27.0859508514404,-20.5060501098633,-18.2050514221191,-15.9220504760742,-4.40295028686523,-11.4640502929688,-13.9830007553101,-13.1496753692627,-12.0898246765137,-4.64021253585815,23.0844631195068,22.1388740539551,5.08392477035522,-11.399299621582,-11.1786127090454,0.83160001039505,5.86200046539307,16.4479503631592,46.3690528869629,-0.99705004692078,20.6580009460449,34.5180015563965,-5.59095048904419,2.84805011749268,18.2140502929688,-8.99524974822998,-11.1640377044678,-9.49863719940186,11.6561498641968,16.8170757293701,16.2309131622314,-5.05271244049072,-4.43973731994629,-6.58308744430542,47.3599510192871,9.38895034790039,7.06395053863525,38.0479507446289,14.7540006637573,1.59600007534027,22.7239513397217,9.22605037689209,3.16395020484924,SHAKE
-5.93766260147095,-4.90943765640259,-4.33839988708496,-2.97852492332459,-1.95525002479553,1.8738499879837,14.4711875915527,11.566912651062,2.78107500076294,-11.1400508880615,10.3360500335693,28.2769508361816,-16.5499515533447,11.5380001068115,33.951000213623,-5.40195035934448,-0.61395001411438,11.1559505462646,-9.96847534179688,-10.7284374237061,-10.094425201416,6.01081228256226,12.9042377471924,12.9615745544434,2.02784991264343,-2.01767492294312,-2.63546252250671,50.9500541687012,39.4900512695313,15.3409509658813,44.0140533447266,38.275951385498,22.6990509033203,17.2830009460449,7.66200017929077,2.04105019569397,-8.68793773651123,-1.11759996414185,-0.39118748903275,12.6924877166748,8.44607448577881,1.08762502670288,-4.4317626953125,-5.59267473220825,-0.8592374920845,5.54505014419556,3.42795014381409,-0.36405003070831,8.08905029296875,-3.54000020027161,-13.8240003585815,4.17900037765503,3.94905018806458,1.27395009994507,-1.10453748703003,-4.25040006637573,-4.8449501991272,0.23361249268055,-4.23197507858276,-3.83817505836487,0.46915000677109,15.9649877548218,16.1724758148193,-13.8169507980347,-26.2980003356934,-10.8379507064819,-19.0189514160156,-19.3300514221191,-16.9309501647949,-2.49495005607605,-14.8360509872437,-11.8519506454468,-4.75956249237061,-4.03218746185303,-3.5902624130249,-2.82480001449585,-2.41037487983704,2.46977496147156,14.8024253845215,12.9349002838135,1.51978754997253,2.76000022888184,10.4310007095337,37.0470008850098,-6.6820502281189,13.7410507202148,34.3219528198242,-5.30205011367798,0.86205005645752,15.0430507659912,-11.0269498825073,-12.4529628753662,-12.0533876419067,9.13096237182617,21.1624870300293,21.665599822998,-7.33397483825684,-13.6052122116089,-14.5329246520996,55.101001739502,32.5159530639648,12.5629501342773,43.0060539245605,36.5370025634766,20.650951385498,18.8340015411377,8.40900039672852,1.67895007133484,-10.6882877349854,-0.55330002307892,-0.54395002126694,21.3719005584717,1.62676250934601,-0.25863748788834,-16.3693752288818,-1.08707499504089,0.36121249198914,6.18000030517578,-0.63300001621246,-14.062050819397,6.87495040893555,-14.1430511474609,-19.4500503540039,1.31295001506805,-2.47500014305115,-6.43905019760132,0.13048750162125,4.25438737869263,5.0378623008728,-4.65877485275269,-13.6819372177124,-14.3687496185303,3.80187487602234,14.4039497375488,13.8502378463745,-29.4900016784668,-24.1210517883301,-8.43105030059814,-18.3130512237549,-17.97705078125,-15.3450002670288,-11.1840009689331,-9.31095027923584,-5.9239501953125,5.14799976348877,3.92562508583069,-1.05407500267029,-13.6126375198364,-9.51403713226318,-0.13296249508858,12.8884248733521,10.6288871765137,1.72631251811981,1.11495006084442,8.37405014038086,36.8580017089844,-4.73805046081543,14.1010503768921,30.1090507507324,-4.60500001907349,-0.91395002603531,11.5540504455566,-9.81186199188232,-10.9433498382568,-9.67449951171875,7.61392498016357,20.6655616760254,20.6188125610352,-6.31757497787476,-11.6161375045776,-13.8330497741699,54.5160026550293,13.1640005111694,7.04700040817261,41.4370536804199,20.7370510101318,7.96695041656494,15.7519512176514,2.04795002937317,2.0500500202179,SHAKE
6.48821258544922,6.74464988708496,0.39861249923706,-18.8097248077393,-18.3805866241455,-1.95910000801086,18.2910747528076,17.2209129333496,1.14111244678497,-11.202000617981,-0.53205001354218,41.8639526367188,-17.7430515289307,-8.28900051116943,27.4669513702393,-4.72005033493042,-3.13905024528503,16.6549510955811,-0.63318747282028,-2.847487449646,-1.86559998989105,5.56930017471313,13.877875328064,14.0211496353149,-7.06392478942871,-17.7186622619629,-19.2886371612549,60.552001953125,37.2390022277832,15.7909507751465,40.2949523925781,35.566951751709,21.211051940918,20.2399501800537,4.66095018386841,-0.03195000067353,-0.82183748483658,-0.61201250553131,1.17576253414154,14.1062622070313,8.47770023345947,0.44096249341965,-21.0450630187988,-13.275899887085,-1.77333748340607,7.81395053863525,3.97200012207031,-0.40800002217293,7.23405027389526,-4.18200016021729,-13.6540508270264,1.90605008602142,1.31700003147125,-1.63995003700256,0.40438750386238,0.39338749647141,5.42080020904541,-0.52593749761581,-5.43276262283325,-18.1599006652832,0.03533750027418,3.74769997596741,15.7493877410889,-13.9249505996704,-35.1430511474609,-7.7839503288269,-20.1589508056641,-17.6160011291504,-16.056001663208,-7.36605024337768,-16.6080017089844,-6.74595022201538,5.41021251678467,4.34775018692017,-0.64638751745224,-17.3328380584717,-12.402774810791,-0.6154500246048,14.8416128158569,12.2761373519897,0.88302499055862,0.6240000128746,9.29100036621094,43.0660514831543,-5.90595006942749,11.4109506607056,27.060001373291,-4.99500036239624,1.53000009059906,15.6630010604858,-6.61677503585815,-7.40382480621338,-6.72127485275269,8.73661231994629,19.9423122406006,20.6691379547119,-7.82196235656738,-15.7130870819092,-17.4432506561279,64.4560546875,35.112003326416,12.5490007400513,40.3240509033203,34.5760498046875,19.0080013275146,14.7169504165649,4.80900001525879,10.3200006484985,-5.88444995880127,-0.97487497329712,-1.18442499637604,21.1189002990723,13.5955877304077,0.39311251044273,-19.3289241790771,-10.4619626998901,0.98051249980927,7.79700040817261,6.62295007705688,-22.5060005187988,5.01195001602173,-8.27700042724609,-22.1209506988525,11.4340505599976,3.35295009613037,-19.6360511779785,-0.98312497138977,0.91423749923706,1.09697496891022,-6.48381233215332,-16.4033374786377,-16.1356258392334,10.1070747375488,20.7674503326416,19.5459003448486,-35.3560523986816,-16.5090007781982,-2.30895018577576,-19.1700000762939,-20.074951171875,-13.1659507751465,-24.9910507202148,-14.8720502853394,-5.42805004119873,0.94214999675751,0.37564998865128,-1.29786252975464,-15.1340751647949,-9.43181228637695,-0.31597501039505,18.5026874542236,10.9715375900269,1.17314994335175,4.0770001411438,16.5960006713867,46.9750518798828,0.55695003271103,18.2749500274658,30.693000793457,3.64500021934509,16.2769508361816,24.9370517730713,-1.53202497959137,-0.84479999542236,0.44728749990463,7.41661262512207,8.24230003356934,9.36966228485107,-7.6440372467041,-10.3134622573853,-13.8862628936768,48.3229522705078,24.576000213623,2.76000022888184,37.2010536193848,27.7519512176514,4.93005037307739,14.5260009765625,5.68305015563965,1.72905004024506,SHAKE
1.09697496891022,0.94214999675751,0.37564998865128,-16.1356258392334,-15.1340751647949,-9.43181228637695,19.5459003448486,18.5026874542236,10.9715375900269,-2.30895018577576,4.0770001411438,16.5960006713867,-13.1659507751465,0.55695003271103,18.2749500274658,-5.42805004119873,3.64500021934509,16.2769508361816,-1.29786252975464,-1.53202497959137,-0.84479999542236,-0.31597501039505,7.41661262512207,8.24230003356934,1.17314994335175,-7.6440372467041,-10.3134622573853,46.9750518798828,48.3229522705078,24.576000213623,30.693000793457,37.2010536193848,27.7519512176514,24.9370517730713,14.5260009765625,5.68305015563965,0.44728749990463,1.2115124464035,1.21371245384216,9.36966228485107,1.41968750953674,-0.30236250162125,-13.8862628936768,-4.65561246871948,-1.55567502975464,2.76000022888184,0.87795001268387,-2.26095008850098,4.93005037307739,-4.48605012893677,-12.7060508728027,1.72905004024506,-1.9410001039505,-5.04795026779175,1.38929998874664,2.10017490386963,11.0745248794556,-1.94562494754791,-15.370849609375,-22.8031368255615,-0.38472500443459,5.41653728485107,12.3110628128052,-17.3980503082275,-30.1110019683838,-22.1449508666992,-16.8919506072998,-16.3579502105713,-16.9500007629395,-11.742000579834,-14.9370002746582,-12.0319509506226,11.3218870162964,10.7376499176025,9.41778755187988,-22.3542003631592,-20.9101753234863,-7.64417505264282,11.183837890625,10.6525373458862,5.93463754653931,-6.90495014190674,0.72900003194809,11.1979503631592,-13.9129505157471,-3.03195023536682,13.945050239563,-6.9660005569458,-4.64505004882813,5.94195032119751,-2.234375,-2.76636242866516,-1.92403745651245,9.53342533111572,12.0421123504639,12.0187377929688,-9.72867488861084,-12.8545999526978,-14.4535875320435,56.7559509277344,26.5279521942139,11.6530504226685,39.8230514526367,32.0460014343262,16.242000579834,15.3619508743286,-1.44300007820129,-1.80195009708405,-1.22319996356964,0.2924624979496,0.62150001525879,11.9700622558594,3.2318000793457,0.07919999957085,-15.7728996276855,-5.38353729248047,-1.07772505283356,5.58105039596558,2.96400022506714,-5.49900007247925,3.67500019073486,-8.35395050048828,-16.8730506896973,1.14000010490417,-0.18600000441074,-3.84300017356873,0.64748752117157,2.01767492294312,9.46756267547607,-1.89364993572235,-13.652099609375,-20.7191867828369,0.25396248698235,9.74696254730225,12.4834871292114,-26.9370021820068,-35.048999786377,-17.4979515075684,-19.078950881958,-18.351001739502,-19.4119510650635,-10.9150505065918,-13.8490505218506,-8.25705051422119,9.5995626449585,7.69931268692017,-0.7236624956131,-19.1600742340088,-7.56896257400513,0.86033749580383,10.7196378707886,2.44777488708496,-0.59262502193451,6.88395023345947,29.1120014190674,53.9389533996582,3.07605004310608,22.6650009155273,35.2609519958496,0.95805007219315,8.69400024414063,7.50600051879883,-7.09733724594116,-6.88063764572144,-5.7074875831604,16.3158874511719,18.5068130493164,17.3194999694824,-15.8530626296997,-18.7248878479004,-19.0173492431641,47.0010032653809,8.49900054931641,1.44000005722046,37.2199516296387,9.54000091552734,-1.7610000371933,1.25295007228851,3.87000012397766,1.80105006694794,SHAKE
0.42693749070168,8.10424995422363,8.35078716278076,-1.48596251010895,-14.8770875930786,-15.5116500854492,-0.45814999938011,2.45753741264343,1.16875004768372,-37.675952911377,-25.6180515289307,-4.56795024871826,-21.9220504760742,-21.6630001068115,-15.2280006408691,-1.01400005817413,-6.04200029373169,-7.68000030517578,7.33892488479614,-1.15802502632141,-9.41641235351562,-12.8768749237061,1.20903754234314,16.5189743041992,0.68021249771118,-1.67089998722076,-18.1831378936768,31.1670017242432,53.4550514221191,40.0789527893066,26.5279521942139,40.7910003662109,41.623950958252,3.66000008583069,10.8810005187988,0.19200000166893,-9.01133728027344,-8.38516235351563,-0.49307498335838,17.3002490997314,17.4106616973877,2.54649996757507,-18.7357501983643,-19.6552124023438,-2.11557507514954,20.4090003967285,8.49405002593994,-9.6739501953125,25.5700511932373,9.21195030212402,-19.5169506072998,-4.51800012588501,0.89100003242493,4.33500003814697,-1.23131251335144,-3.16277503967285,-4.44675016403198,1.34969997406006,2.46180009841919,3.9426748752594,-0.41566249728203,-0.02172499895096,-1.97573745250702,-28.3690509796143,-33.8800506591797,-17.6779499053955,-23.3250007629395,-23.2699508666992,-21.6130504608154,2.06505012512207,-6.74595022201538,-12.2110509872437,-4.42708730697632,-4.28903770446777,-3.19604992866516,4.22441244125366,5.00403738021851,4.13668727874756,-3.20223736763,-4.13338756561279,-3.50803756713867,0.59700000286102,13.6309509277344,38.5849533081055,-11.5180501937866,10.0000505447388,33.3490524291992,-9.91395092010498,-3.19200015068054,11.9659509658813,-4.29013729095459,-8.06795024871826,-6.51433753967285,6.35277509689331,14.4966249465942,15.1133127212524,-3.7707998752594,-13.3028497695923,-14.8512372970581,49.3909530639649,32.2930526733398,4.875,44.7739524841309,38.2279510498047,5.77095031738281,14.7610502243042,2.98395013809204,0.22800001502037,-4.04002475738525,-0.02584999985993,-0.30126249790192,11.4210252761841,2.74092507362366,1.19473743438721,-12.507550239563,-1.6744749546051,-0.69451248645782,-1.36800003051758,-18.5950508117676,-35.6809501647949,-12.8020505905151,-24.3340511322021,-25.0930519104004,-1.49100005626678,-0.13305000960827,2.26800012588501,-2.0462749004364,-1.82091248035431,-1.67062497138977,3.26301240921021,3.4985499382019,3.90417504310608,-7.57446241378784,-9.26571273803711,-9.65277481079102,-7.73400020599365,8.37600040435791,27.5839519500732,-19.3620014190674,-2.01195001602173,23.7379512786865,-4.06095027923584,-2.83200001716614,8.79900074005127,1.2479499578476,5.59377479553223,9.16355037689209,-0.20116250216961,-5.58291244506836,-9.05066204071045,-4.89692497253418,-4.1810998916626,-5.27972507476807,48.4669532775879,44.569953918457,25.6230010986328,43.4640007019043,45.6330032348633,32.2429504394531,13.9200010299683,1.73400008678436,-10.6690502166748,10.3042497634888,9.55473709106445,5.22004985809326,-9.52489948272705,-8.04292488098145,-3.37782502174377,-5.58813762664795,-5.70913743972778,-3.3099000453949,14.0020503997803,9.38895034790039,-1.99095010757446,15.0589504241943,-3.96900010108948,-24.6589508056641,-9.16695022583008,-2.47095012664795,3.25200009346008,SHAKE
-12.8728876113892,-14.2452745437622,-14.1341753005981,13.2867622375488,23.4789505004883,25.8130130767822,-7.49938726425171,-13.7064123153687,-15.2565870285034,-32.5129508972168,-10.7610006332397,10.1389503479004,-26.1199512481689,-20.9230518341064,-6.12195014953613,-0.34395000338554,-6.52800035476685,-9.4549503326416,-12.6828622817993,-3.68004989624023,-10.4704875946045,25.5663375854492,17.0362491607666,15.7969627380371,-15.8127746582031,-8.27818775177002,-9.66487503051758,24.2910003662109,40.6590003967285,45.9540023803711,19.6039505004883,39.5719528198242,46.3260040283203,-8.09895038604736,1.15005004405975,6.4830002784729,-11.4918375015259,-9.09273719787598,-0.81427496671677,21.3395881652832,19.989200592041,11.1295251846313,-16.5752124786377,-17.7082118988037,-9.99913787841797,34.4029502868652,7.73895025253296,-1.82100009918213,34.675952911377,0.29805001616478,-19.6180515289307,-4.76700019836426,1.43505001068115,6.53595018386841,0.05417500063777,-2.9546000957489,-12.7340126037598,3.32296252250671,4.50243759155273,19.8910255432129,-0.88082498311996,1.51786243915558,-4.32011270523071,-29.6869506835938,-45.8149528503418,-26.7700519561768,-29.812952041626,-27.9649505615234,-27.2479515075684,12.9240007400513,14.0610008239746,3.09405016899109,-13.944974899292,-13.5324745178223,-11.4494876861572,21.3512744903564,21.5187492370605,20.1290378570557,-4.56527519226074,-6.43912506103516,-8.31435012817383,1.29405009746552,17.4970512390137,37.1449508666992,-18.2140502929688,3.99600028991699,30.9660015106201,-5.94300031661987,-10.2810001373291,-7.05000019073486,-2.01767492294312,-6.48972511291504,-5.46287488937378,5.31409978866577,12.1831874847412,11.9967374801636,-3.13417506217957,-23.4528255462646,-24.1917495727539,51.355052947998,23.7019519805908,12.7189502716064,45.178050994873,24.7939510345459,6.0130500793457,-2.53800010681152,-10.5990009307861,-1.31595003604889,-5.43510007858276,0.91272497177124,-1.42890000343323,11.3166627883911,2.6255624294281,3.69902491569519,-23.3289375305176,-3.48548746109009,-0.40204998850822,3.08100008964539,-25.3800010681152,-46.1880035400391,-14.7630004882813,-29.9500522613525,-27.3150005340576,7.64295053482056,17.6179504394531,22.4320507049561,-12.0063619613647,-13.4237127304077,-13.6467370986938,12.7518873214722,20.8318004608154,21.0660991668701,-5.54331254959106,-9.35302448272705,-10.7203245162964,-31.3920021057129,-1.96005010604858,11.6460008621216,-26.8009510040283,-19.2990016937256,-0.18900001049042,7.39305019378662,-5.8279504776001,-12.985050201416,-12.6104001998901,-4.35531234741211,-2.80651259422302,20.3112239837646,6.02923727035522,4.30649995803833,-11.6494121551514,-7.82622480392456,-11.9916496276855,28.5229511260986,41.5549507141113,28.2049522399902,21.4650001525879,42.5130004882813,30.6169509887695,-7.94100046157837,-7.25100040435791,-11.4379501342773,-1.54618752002716,-1.34667503833771,1.04266250133514,4.25535011291504,4.99317502975464,2.08505010604858,-13.1187372207642,-13.8744373321533,-6.95557498931885,17.3170509338379,9.41805076599121,-4.02195024490356,14.1150007247925,-2.61600017547607,-22.9489517211914,-2.73405003547669,7.59705018997192,13.2559509277344,SHAKE
-1.98027503490448,-12.6064128875732,-13.6673622131348,3.96742486953735,14.7288627624512,20.948263168335,-0.15468749403954,-5.7560248374939,-10.6683502197266,-50.6530532836914,-36.1459503173828,11.1979503631592,-27.7510509490967,-28.0480518341064,-4.13895034790039,20.0989513397217,13.8169507980347,-9.72300052642822,-12.5380744934082,-2.27906250953674,-3.64058756828308,20.5662879943848,9.84004974365234,9.30655002593994,-11.926474571228,-5.92308759689331,-10.0440998077393,32.9830513000488,46.9819526672363,43.1760025024414,17.3869514465332,38.8410034179688,43.7490005493164,-9.47100067138672,-6.10095024108887,-13.9500007629395,-3.46939992904663,-2.17744994163513,-1.83301246166229,5.05669975280762,4.31873750686646,4.65437507629395,-18.6693382263184,-19.7737369537354,-20.0131244659424,31.5049514770508,20.2750511169434,13.2810010910034,32.2019996643066,14.3980503082275,-2.31900000572205,-15.8539505004883,-4.09200000762939,9.98205089569092,0.49431249499321,0.15042500197887,-12.7547750473022,-0.68062502145767,3.16992497444153,23.1835994720459,-12.1725997924805,-1.50658750534058,-1.57478749752045,-1.84005010128021,-33.351001739502,-22.420051574707,-22.7220020294189,-31.6530017852783,-25.8810005187988,15.070050239563,15.5920505523682,0.99405002593994,-13.9690370559692,-14.138162612915,-12.2836999893188,24.3021621704102,24.8147621154785,22.5471115112305,-0.90406250953674,-1.74185001850128,-4.76093769073486,-1.8880500793457,14.1220502853394,39.0730514526367,-12.7390508651733,7.53795051574707,28.9549522399902,-10.6710004806519,-9.41400051116943,0.75000005960464,-2.85312509536743,1.58344995975494,2.38122487068176,4.1606125831604,-1.23364996910095,-1.21343743801117,0.37386250495911,-15.1756000518799,-16.4106254577637,48.5029525756836,18.1819515228271,12.4480504989624,43.1710510253906,25.594051361084,8.77200031280518,5.89395046234131,2.17500019073486,11.1420001983643,1.31972503662109,-0.98752498626709,-4.00496244430542,0.23828749358654,2.65650010108948,5.63282489776611,-15.6960372924805,-2.74779987335205,-1.09560000896454,1.97400009632111,-21.117000579834,-46.2430534362793,-10.5840005874634,-28.9660511016846,-25.8139514923096,13.6519508361816,10.7320508956909,16.5979499816895,-14.1366500854492,-16.7249507904053,-16.6794376373291,15.9629249572754,21.2251873016357,22.7015247344971,-7.29465007781982,-13.1223125457764,-15.338399887085,-32.5339508056641,-6.2440505027771,9.97395038604736,-25.359001159668,-20.4940509796143,-7.27395057678223,10.6410007476807,-2.30805015563965,-10.8360004425049,-15.1493377685547,-4.66413736343384,-10.8480625152588,22.4093379974365,16.9045257568359,19.2390003204346,-15.9143877029419,-10.9285001754761,-20.9577503204346,22.4140510559082,42.8790016174316,30.0559520721436,11.9860506057739,37.9050025939941,34.2160530090332,-10.5300006866455,-6.90105009078979,-14.8410005569458,-9.41627502441406,-8.42379951477051,-5.81817483901978,17.605224609375,16.511962890625,7.28172492980957,-22.4034252166748,-23.3587741851807,-16.1436004638672,19.4250011444092,12.9460506439209,3.83505010604858,20.4640502929688,5.5290002822876,-15.8070011138916,-12.4429502487183,-0.68595004081726,3.94695019721985,SHAKE
1.58344995975494,2.38122487068176,1.31972503662109,-1.23364996910095,-1.21343743801117,0.23828749358654,-15.1756000518799,-16.4106254577637,-15.6960372924805,18.1819515228271,12.4480504989624,1.97400009632111,25.594051361084,8.77200031280518,-10.5840005874634,2.17500019073486,11.1420001983643,13.6519508361816,-0.98752498626709,-4.00496244430542,-14.1366500854492,2.65650010108948,5.63282489776611,15.9629249572754,-2.74779987335205,-1.09560000896454,-7.29465007781982,-21.117000579834,-46.2430534362793,-32.5339508056641,-28.9660511016846,-25.8139514923096,-25.359001159668,10.7320508956909,16.5979499816895,10.6410007476807,-16.7249507904053,-16.6794376373291,-15.1493377685547,21.2251873016357,22.7015247344971,22.4093379974365,-13.1223125457764,-15.338399887085,-15.9143877029419,-6.2440505027771,9.97395038604736,22.4140510559082,-20.4940509796143,-7.27395057678223,11.9860506057739,-2.30805015563965,-10.8360004425049,-10.5300006866455,-4.66413736343384,-10.8480625152588,-9.41627502441406,16.9045257568359,19.2390003204346,17.605224609375,-10.9285001754761,-20.9577503204346,-22.4034252166748,42.8790016174316,30.0559520721436,19.4250011444092,37.9050025939941,34.2160530090332,20.4640502929688,-6.90105009078979,-14.8410005569458,-12.4429502487183,-8.42379951477051,-5.81817483901978,0.99563747644424,16.511962890625,7.28172492980957,2.51391243934631,-23.3587741851807,-16.1436004638672,-3.21860003471375,12.9460506439209,3.83505010604858,-27.5119514465332,5.5290002822876,-15.8070011138916,-33.0300025939941,-0.68595004081726,3.94695019721985,11.8150501251221,-0.54917502403259,-6.56438732147217,-7.58986234664917,1.97958743572235,11.9383001327515,11.3169374465942,0.65587496757507,3.56152486801147,3.50033736228943,-53.8450508117676,-31.0330505371094,-4.95105028152466,-27.6840019226074,-29.0110511779785,-21.2320518493652,28.2370510101318,19.0189514160156,1.62600004673004,-7.47092485427856,-1.80454993247986,-2.51047492027283,11.9314250946045,0.85002499818802,5.57713747024536,-0.06971249729395,-2.37283754348755,-9.00570011138916,34.1370010375977,45.0559539794922,37.7610015869141,15.6769504547119,33.8880004882813,40.396053314209,-10.9420509338379,-12.1390504837036,-16.195951461792,-3.07628750801086,-1.82008743286133,-0.46351251006126,0.11742500215769,1.11182498931885,-2.62899994850159,-19.3135242462158,-21.1622123718262,-14.3481245040894,29.730001449585,13.3890008926392,-1.58100008964539,31.7640018463135,1.78305006027222,-16.0830001831055,-15.1210508346558,12.7009506225586,19.8790512084961,-0.25877499580383,-4.60295009613037,-16.4533882141113,3.93222498893738,8.53297519683838,21.8975620269775,-3.13018751144409,-0.05678749829531,-6.94815015792847,-28.6300506591797,-42.847053527832,-30.7879505157471,-26.2660503387451,-26.0989513397217,-24.7170009613037,21.3880500793457,18.8610000610352,4.41405010223389,-17.2849864959717,-17.1611003875732,-14.2287750244141,27.07883644104,28.2276496887207,25.3409748077393,-9.73101234436035,-10.7936124801636,-12.2985496520996,-8.24895000457764,10.5370502471924,26.6719512939453,-18.8230514526367,-5.71005010604858,13.8109502792358,-7.8400502204895,-10.4890508651733,-7.2610502243042,SHAKE
