gyro_x_0,gyro_y_0,gyro_z_0,acc_x_0,acc_y_0,acc_z_0,gyro_x_1,gyro_y_1,gyro_z_1,acc_x_1,acc_y_1,acc_z_1,gyro_x_2,gyro_y_2,gyro_z_2,acc_x_2,acc_y_2,acc_z_2,gyro_x_3,gyro_y_3,gyro_z_3,acc_x_3,acc_y_3,acc_z_3,gyro_x_4,gyro_y_4,gyro_z_4,acc_x_4,acc_y_4,acc_z_4,gyro_x_5,gyro_y_5,gyro_z_5,acc_x_5,acc_y_5,acc_z_5,gyro_x_6,gyro_y_6,gyro_z_6,acc_x_6,acc_y_6,acc_z_6,gyro_x_7,gyro_y_7,gyro_z_7,acc_x_7,acc_y_7,acc_z_7,gyro_x_8,gyro_y_8,gyro_z_8,acc_x_8,acc_y_8,acc_z_8,gyro_x_9,gyro_y_9,gyro_z_9,acc_x_9,acc_y_9,acc_z_9,gyro_x_10,gyro_y_10,gyro_z_10,acc_x_10,acc_y_10,acc_z_10,gyro_x_11,gyro_y_11,gyro_z_11,acc_x_11,acc_y_11,acc_z_11,gyro_x_12,gyro_y_12,gyro_z_12,acc_x_12,acc_y_12,acc_z_12,gyro_x_13,gyro_y_13,gyro_z_13,acc_x_13,acc_y_13,acc_z_13,gyro_x_14,gyro_y_14,gyro_z_14,acc_x_14,acc_y_14,acc_z_14,gyro_x_15,gyro_y_15,gyro_z_15,acc_x_15,acc_y_15,acc_z_15,gyro_x_16,gyro_y_16,gyro_z_16,acc_x_16,acc_y_16,acc_z_16,gyro_x_17,gyro_y_17,gyro_z_17,acc_x_17,acc_y_17,acc_z_17,gyro_x_18,gyro_y_18,gyro_z_18,acc_x_18,acc_y_18,acc_z_18,gyro_x_19,gyro_y_19,gyro_z_19,acc_x_19,acc_y_19,acc_z_19,gyro_x_20,gyro_y_20,gyro_z_20,acc_x_20,acc_y_20,acc_z_20,gyro_x_21,gyro_y_21,gyro_z_21,acc_x_21,acc_y_21,acc_z_21,gyro_x_22,gyro_y_22,gyro_z_22,acc_x_22,acc_y_22,acc_z_22,gyro_x_23,gyro_y_23,gyro_z_23,acc_x_23,acc_y_23,acc_z_23,gyro_x_24,gyro_y_24,gyro_z_24,acc_x_24,acc_y_24,acc_z_24,gyro_x_25,gyro_y_25,gyro_z_25,acc_x_25,acc_y_25,acc_z_25,gyro_x_26,gyro_y_26,gyro_z_26,acc_x_26,acc_y_26,acc_z_26,gyro_x_27,gyro_y_27,gyro_z_27,acc_x_27,acc_y_27,acc_z_27,gyro_x_28,gyro_y_28,gyro_z_28,acc_x_28,acc_y_28,acc_z_28,gyro_x_29,gyro_y_29,gyro_z_29,acc_x_29,acc_y_29,acc_z_29,motion_type
0.11789698898792,0.86681777238846,0.57971113920212,2.47094988822937,2.00241637229919,2.22171688079834,-6.3627724647522,-5.71158981323242,-3.15817332267761,-5.96635055541992,-25.9986362457275,-39.281665802002,-13.1082544326782,-20.5422496795654,-19.0530567169189,7.98945093154907,0.02154781483114,-2.63362193107605,-0.10201449692249,-0.75625115633011,-0.60781091451645,2.09710049629211,-0.02565634064376,-2.76477599143982,1.18385684490204,5.43975496292114,7.02311754226685,-36.051887512207,-11.6525793075562,4.26407337188721,-19.4696483612061,-16.4146461486816,-7.5776481628418,-4.40533113479614,0.74699091911316,3.49792861938477,-0.42516219615936,-0.32986724376678,-0.01893682219088,-3.193603515625,-2.26386666297913,-1.54060220718384,6.88445138931274,5.86369562149048,3.29867243766785,14.1090307235718,28.2084846496582,33.40869140625,6.14591598510742,20.4680309295654,32.0224494934082,7.06528902053833,10.4602670669556,12.8496809005737,0.08368854224682,-0.46364670991898,-1.46180057525635,-1.00426244735718,0.15821409225464,1.21378922462463,-0.13927727937698,-3.36036968231201,-5.31025171279907,31.2802448272705,20.5829524993896,10.4961805343628,30.0592021942139,20.8175830841064,9.68694019317627,8.14028549194336,4.37420654296875,4.77403831481934,-2.0690004825592,-1.89856922626495,-1.30419731140137,2.11115026473999,2.33778119087219,2.50149321556091,-5.86980390548706,-5.87713432312012,-5.45197248458862,3.40694904327393,-7.11317348480225,-30.6888771057129,-1.79086291790009,-16.1273422241211,-19.6228771209717,6.9623384475708,6.4667387008667,1.40060794353485,-1.02075576782227,-0.69088858366013,0.15943582355976,1.84053695201874,-0.24068090319633,-2.86373615264893,-2.67192459106445,3.32371783256531,7.94857835769653,-52.0355796813965,-31.8285179138184,0.90979665517807,-26.9299812316895,-22.6706962585449,-16.8982753753662,-0.50757074356079,4.03422975540161,2.95444488525391,0.63407814502716,0.13011430203915,-1.05435335636139,-3.38419342041016,-2.37748742103577,-0.98837995529175,8.20819664001465,7.30411577224732,5.72808361053467,11.4227361679077,20.9971485137939,34.0982208251953,-4.65432786941528,11.4825916290283,23.0370082855225,3.09570288658142,2.72938990592957,14.2790193557739,-0.79901176691055,0.42271876335144,1.11543989181519,-0.63896507024765,-0.3158173263073,-0.21502456068993,2.53447985649109,-1.21501100063324,-4.21802473068237,35.8004989624023,29.3744602203369,16.9317951202393,28.0791969299316,23.8270950317383,14.3292970657349,20.0011615753174,15.8065195083618,7.4770917892456,0.72143185138702,-0.48991394042969,-0.96822142601013,0.49052479863167,1.38238799571991,2.03357028961182,-5.60713195800781,-5.55154323577881,-6.02313137054443,6.95276165008545,7.22091245651245,-2.70065951347351,7.64708042144775,-2.97838687896729,-16.069881439209,3.01429986953735,6.09563732147217,6.68939971923828,-0.71593403816223,-0.65179324150085,-0.25350907444954,2.378098487854,2.65420937538147,0.77091193199158,-6.46661949157715,-3.4648277759552,2.07633090019226,-36.4134140014649,-48.3078079223633,-24.9547634124756,-22.9723644256592,-20.9636306762695,-19.8814506530762,2.32237553596497,4.53461790084839,7.28555583953857,SHAKE
-1.67254900932312,-1.24494338035584,-0.29504790902138,0.80634212493896,1.36100780963898,1.29442346096039,-6.2625904083252,-5.57414531707764,-2.22293853759766,-12.540828704834,-34.5291786193848,-35.5299530029297,-17.2382526397705,-20.4273281097412,-19.1799507141113,9.76355457305908,12.6174430847168,12.0931129455566,0.87720251083374,1.58214104175568,1.70431399345398,-0.22235494852066,-1.45630276203156,-1.9779816865921,2.05372905731201,4.88631105422974,6.00480556488037,-20.0969295501709,-5.05894804000854,7.06768321990967,-17.1329078674316,-11.4682264328003,-1.95366859436035,7.89847135543823,5.71974802017212,4.8410758972168,1.15392446517944,0.55222219228745,0.61514127254486,-0.98776912689209,0.44287729263306,0.48319441080093,5.72014236450195,3.85822486877441,0.90469145774841,19.4097938537598,27.6578178405762,28.5795860290527,11.7746839523315,24.7608337402344,30.6074752807617,2.85628271102905,5.37737703323364,5.68144083023071,0.78190749883652,0.58643060922623,-0.31520646810532,-0.18509216606617,-0.45998153090477,-0.15393804013729,-2.0635027885437,-4.23573970794678,-5.41959667205811,23.5445804595947,16.2781772613525,8.55208873748779,26.6307048797607,17.8056774139404,8.40125370025635,3.71101260185242,1.20188927650452,-1.13245737552643,-1.68537724018097,-2.11542630195618,-1.59863436222076,0.74220126867294,1.61024081707001,2.04212260246277,-5.84292602539063,-6.08238506317139,-4.77146863937378,3.67270541191101,-11.1952867507935,-32.5180473327637,-3.57214903831482,-16.2853603363037,-22.6802730560303,4.57292509078979,9.87608242034912,12.6772975921631,-0.59986966848373,0.4025602042675,1.13987457752228,1.01098203659058,-0.37751471996307,-1.0677924156189,-1.09528136253357,3.333491563797,5.8826322555542,-40.8402938842773,-24.6363353729248,-5.58567237854004,-22.2277679443359,-20.9756011962891,-15.7682123184204,12.8113737106323,11.7483472824097,9.30626201629639,1.5167783498764,1.54243469238281,1.79350030422211,-1.39521622657776,-0.90713489055634,-0.59315013885498,6.49594116210938,6.55458402633667,5.25160837173462,3.004723072052,15.6437139511108,31.2898216247559,-4.74530792236328,10.5943422317505,24.3059349060059,6.39491271972656,5.68862342834473,3.66073441505432,2.09526777267456,1.45324838161469,-0.26755899190903,-1.05313169956207,-1.06534898281097,-0.63102382421494,2.06472444534302,-1.4245377779007,-3.80752301216125,34.1389236450195,26.2045383453369,18.0259437561035,31.8165454864502,29.4462871551514,20.1950912475586,-2.31998133659363,-8.36773490905762,-8.04212379455566,-2.27974915504456,-3.69451308250427,-4.09646224975586,0.08857546001673,1.1722503900528,2.09954380989075,-5.17647218704224,-5.85025644302368,-6.03779220581055,10.6063137054443,2.87304210662842,-13.3500690460205,8.22887134552002,-4.6112322807312,-17.0610809326172,-2.61207413673401,4.50828170776367,13.4290771484375,-3.10136294364929,-1.22173047065735,0.45998153090477,2.59434461593628,1.92727982997894,-0.32253685593605,-4.6523494720459,-0.72570788860321,3.41046071052551,-35.3695411682129,-37.263355255127,-21.4113464355469,-21.5310554504395,-21.1695308685303,-19.081787109375,18.1791744232178,16.4673194885254,13.2423295974731,SHAKE
-3.69451308250427,-4.09646224975586,-3.10136294364929,1.1722503900528,2.09954380989075,2.59434461593628,-5.85025644302368,-6.03779220581055,-4.6523494720459,2.87304210662842,-13.3500690460205,-35.3695411682129,-4.6112322807312,-17.0610809326172,-21.5310554504395,4.50828170776367,13.4290771484375,18.1791744232178,-1.22173047065735,0.45998153090477,1.63223195075989,1.92727982997894,-0.32253685593605,-1.89918005466461,-0.72570788860321,3.41046071052551,5.68898820877075,-37.263355255127,-21.4113464355469,-6.97909784317017,-21.1695308685303,-19.081787109375,-13.445837020874,16.4673194885254,13.2423295974731,8.44434928894043,1.92361462116241,1.71958565711975,0.89736104011536,-1.77273094654083,-1.3078625202179,-0.78007489442825,6.53137111663818,6.54358863830566,4.96938896179199,2.62643933296204,16.0818519592285,33.0016746520996,-2.36307716369629,12.7539129257202,24.1527061462402,5.83945798873901,-0.6703764796257,5.61440277099609,0.91202181577682,0.67928212881088,0.20402899384499,-0.62491512298584,0.59131753444672,1.40926611423492,1.37994456291199,-1.97859251499176,-4.17648553848267,31.380802154541,22.6659069061279,14.1210012435913,27.8685073852539,23.0274314880371,14.1162128448486,2.79163908958435,1.04626619815826,1.66636443138123,-0.22602014243603,-1.17286121845245,-2.34816598892212,0.95722585916519,0.4673119187355,1.36894905567169,-5.49351119995117,-6.18134546279907,-6.42202615737915,7.43399620056152,-0.29448682069778,-17.1831855773926,5.49948120117188,-6.54335308074951,-17.6285076141357,0.40940847992897,0.41659110784531,7.01979923248291,-2.3591616153717,-1.21623265743256,0.10384709388018,2.35060954093933,1.314581990242,-0.79351395368576,-4.9871039390564,-0.55344390869141,4.05003643035889,-40.9695777893066,-38.8578948974609,-15.6437139511108,-19.1727676391602,-18.0283393859863,-16.0028438568115,11.7914438247681,12.5743474960327,10.9295310974121,1.03419482707977,1.48134827613831,1.71958565711975,-1.36833810806274,-1.2889256477356,-0.93279123306274,6.17706918716431,6.13675212860107,5.57658863067627,1.3407529592514,8.4132251739502,19.249382019043,-8.0540943145752,4.15154552459717,16.5750579833984,8.74123001098633,8.40604209899902,8.64306831359863,2.24187541007996,2.09221339225769,0.94500851631165,-0.87170469760895,-0.71654492616653,-0.11972958594561,3.8991527557373,0.76235979795456,-2.53264737129211,29.2284145355225,28.6633834838867,19.6659736633301,25.3474140167236,26.0225791931152,20.3674736022949,2.68868851661682,-3.2585084438324,-7.13472127914429,-0.93401294946671,-2.77454996109009,-3.48620796203613,0.58520889282227,0.95356065034866,0.89736104011536,-4.74031448364258,-5.70670318603516,-6.09582424163818,9.64623832702637,3.94085597991943,-6.35421133041382,11.8105974197388,1.56580793857574,-9.4427318572998,-5.62158536911011,2.97120428085327,12.9717845916748,-2.72751331329346,-1.0012081861496,0.57665681838989,1.24127817153931,1.70370316505432,0.54977869987488,-5.82276773452759,-3.83073592185974,0.11178833991289,-23.688232421875,-37.7086753845215,-35.6879692077637,-16.620548248291,-17.7841300964355,-17.1281185150146,16.8384208679199,14.867992401123,11.2623243331909,SHAKE
-4.39761877059937,-3.64869809150696,-1.16614174842834,1.44652891159058,1.98836636543274,1.74768543243408,-6.07566595077515,-5.9339451789856,-3.43733882904053,-9.45709705352783,-30.0448379516602,-38.280891418457,-13.4027414321899,-17.4082412719727,-17.4848556518555,12.2822551727295,20.6811141967773,18.1193180084229,1.19301986694336,2.16918253898621,1.79960906505585,-0.06169738993049,-1.28709304332733,-1.06412720680237,1.00181901454926,4.46053791046143,5.83987188339233,-27.2388324737549,-9.65102672576904,1.83874690532684,-16.9293994903564,-12.7251815795898,-3.90494298934936,10.3716821670532,4.10605573654175,4.19464159011841,1.11299645900726,1.23883473873138,1.66033172607422,-0.62002819776535,-0.92912602424622,-1.14537239074707,5.78978061676025,4.90585899353027,3.37014365196228,10.4291429519653,17.4609127044678,24.8206882476807,7.64468622207642,18.8782806396484,25.598804473877,8.4132251739502,6.74925470352173,2.67432332038879,1.66705119609833,0.93584555387497,-0.71471232175827,-0.75075340270996,-0.17715092003345,0.41355577111244,1.06290555000305,-1.81365895271301,-4.23268508911133,26.5732440948486,19.9006042480469,9.93593692779541,25.8478012084961,20.6930847167969,12.1984577178955,-2.8658595085144,-7.46990919113159,-5.35343503952026,-3.21009683609009,-3.52591419219971,-1.92544722557068,1.11666166782379,1.37017071247101,1.62184727191925,-5.72014236450195,-6.06222677230835,-5.16303300857544,2.96881008148193,-9.0836009979248,-32.4964981079102,1.89141929149628,-11.2216234207153,-17.9493293762207,2.13562798500061,14.6094188690186,23.0920753479004,0.90530228614807,2.80081725120544,3.08364772796631,1.00792765617371,-0.71654492616653,-1.40071403980255,-1.33474051952362,3.47643399238586,5.81177186965942,-43.6774215698242,-27.5045890808105,-6.15549278259277,-19.3068428039551,-19.0530567169189,-14.125789642334,20.8223724365234,11.8872117996216,7.42202520370483,2.517986536026,1.90223431587219,2.12275671958923,-0.30787608027458,0.64629542827606,0.35857790708542,5.99625301361084,5.93455600738525,4.88997650146484,0.88585460186005,10.6278610229492,24.559720993042,-3.7038300037384,8.42519569396973,19.2350158691406,4.35744714736938,3.57933163642883,5.41807842254639,3.26324224472046,3.10502815246582,0.4673119187355,-0.9767735004425,-1.59924519062042,-1.33046448230743,2.24309706687927,-1.06168377399445,-3.64075684547424,30.279468536377,24.5764808654785,16.2590236663818,25.0074367523193,24.667459487915,19.2541694641113,-3.54102420806885,-18.3802871704102,-24.667459487915,-3.43306279182434,-6.15568923950195,-6.57779693603516,-0.30360001325607,0.93401294946671,1.95660138130188,-5.1703634262085,-6.31878995895386,-6.79282140731812,11.2910556793213,2.8969841003418,-15.7753953933716,8.2719669342041,-5.04218864440918,-15.5479459762573,-14.3245086669922,0.9911994934082,20.5805568695068,-3.83379030227661,0.49907690286636,3.09647583961487,1.88696277141571,0.31093040108681,-1.48134827613831,-5.08789682388306,-0.96822142601013,3.16367101669312,-36.0710411071777,-38.7908554077149,-24.4998664855957,-17.7242755889893,-18.6029472351074,-17.1568489074707,31.0695552825928,23.1040458679199,8.72447109222412,SHAKE
-3.07815003395081,-3.7103955745697,-2.63649439811707,0.65973448753357,1.16858518123627,1.14170718193054,-5.3328537940979,-5.76412439346313,-5.27665376663208,2.06619596481323,-9.12669658660889,-28.5173358917236,0.05506663769484,-11.5639944076538,-19.2278347015381,4.29040956497192,15.3276796340942,23.4488105773926,-0.15638150274754,1.88879537582397,2.22965812683105,0.24801129102707,-0.88636547327042,-0.88514375686646,-2.84663200378418,1.14476144313812,4.35913419723511,-37.3926429748535,-27.5644435882568,-11.0157222747803,-20.8511028289795,-19.0554504394531,-14.2574710845947,19.2374114990234,10.1131076812744,5.02542924880981,1.55831718444824,0.78679442405701,0.20525072515011,-0.37507125735283,-0.10323622822762,0.32620203495026,5.65600109100342,5.61201906204224,5.08300971984863,-0.67516487836838,6.93839645385742,16.452953338623,-5.83706378936768,4.79319190979004,15.878345489502,3.37582445144653,2.79642748832703,5.21457147598267,0.25045475363731,0.93156951665878,0.99021255970001,0.40011674165726,-0.25228735804558,-0.55588740110397,3.73849534988403,1.31397116184235,-1.44836151599884,23.9180755615234,23.8055477142334,17.0179862976074,24.0569381713867,26.3721313476563,22.3786029815674,4.69502973556519,-0.7972691655159,-6.5553240776062,-0.14233160018921,-2.14413690567017,-4.01460647583008,-0.48685958981514,-0.020158553496,0.94989544153214,-3.59188771247864,-4.88692188262939,-5.61690616607666,10.6518030166626,5.01345825195313,-2.31040453910828,14.5256214141846,4.96796846389771,-7.01979923248291,-7.44836139678955,-2.18590617179871,10.6781396865845,-2.18323230743408,1.00548422336578,2.54547548294067,1.23822391033173,-0.07269296050072,-1.17163956165314,-5.04513597488403,-1.49051117897034,2.74400663375854,-38.7046661376953,-36.4134140014649,-19.8527202606201,-23.0346145629883,-22.7066097259521,-18.5574569702148,25.0122261047363,14.6189956665039,6.45716190338135,2.15268921852112,1.07390105724335,1.18202424049377,-0.83199846744537,-0.06658431142569,-0.14110986888409,5.19601964950562,5.68776607513428,5.23633670806885,-4.66151094436646,3.06218385696411,13.1944456100464,-11.4203424453735,-0.1723825186491,11.310209274292,5.18584108352661,7.04852962493896,6.31829833984375,1.45874619483948,1.36284041404724,0.68416905403137,-0.03176499158144,0.21746802330017,0.20280726253986,3.80996656417847,1.34940135478973,-1.40743350982666,22.8023777008057,25.7975234985352,20.8750438690186,21.5190849304199,26.0896167755127,24.0306034088135,2.34871196746826,-2.51151752471924,-5.90888977050781,-0.54611355066299,-2.01219010353088,-3.11663436889648,0.06047565862536,0.22235494852066,0.64568454027176,-3.49720358848572,-4.70549488067627,-5.2125129699707,13.1896572113037,6.39491271972656,-0.55066639184952,17.3866920471191,8.76517200469971,0.28969839215279,-6.02381134033203,-2.35350036621094,5.1379566192627,-3.21864891052246,-1.65361225605011,1.0567969083786,0.92240649461746,0.48808133602142,-0.87964594364166,-5.21556758880615,-4.29377174377441,-1.32435584068298,-9.9981861114502,-28.718448638916,-36.0542831420898,-10.5943422317505,-17.2789535522461,-20.0634098052979,15.2414884567261,24.1958026885986,19.333179473877,SHAKE
-3.21864891052246,-1.65361225605011,1.0567969083786,0.92240649461746,0.48808133602142,-0.87964594364166,-5.21556758880615,-4.29377174377441,-1.32435584068298,-9.9981861114502,-28.718448638916,-36.0542831420898,-10.5943422317505,-17.2789535522461,-20.0634098052979,15.2414884567261,24.1958026885986,19.333179473877,2.46728467941284,1.93094503879547,0.98593652248383,-1.50700461864471,-0.90346968173981,-0.17409659922123,2.38176369667053,4.68472576141357,5.39882707595825,-25.7448501586914,-11.3437280654907,-3.4117374420166,-19.4050045013428,-15.0116443634033,-7.82185697555542,9.31344413757324,6.18661737442017,7.24964284896851,0.6450737118721,0.879035115242,1.67315995693207,0.22846360504627,0.16187928617001,-0.25289821624756,5.5784215927124,5.23816967010498,3.68779349327087,3.97437477111816,15.1888151168823,25.6083812713623,2.23857855796814,13.70201587677,23.2117862701416,7.92001914978027,8.86572933197021,6.71094751358032,2.36282682418823,1.84603476524353,-0.17287486791611,-0.47219884395599,-0.37262779474258,-0.11606439948082,0.87475901842117,-2.06044840812683,-4.07630395889282,26.9898357391357,19.1392478942871,12.3899936676025,26.2643928527832,23.0896816253662,15.3492269515991,-0.9911994934082,-10.2639427185059,-11.3078145980835,-2.58823609352112,-4.1025710105896,-3.82951426506042,0.47891834378242,1.32802104949951,1.74218773841858,-5.31758213043213,-6.09093713760376,-5.87102603912354,7.06768321990967,-3.86663579940796,-22.9484233856201,4.82192230224609,-7.5273699760437,-18.1648082733154,-4.18027639389038,7.3693528175354,20.7385749816895,-1.31336033344269,1.67377078533173,2.7458393573761,0.77702057361603,-0.89369583129883,-1.79594385623932,-3.48620796203613,0.90285885334015,4.78490734100342,-39.1954765319824,-37.0622406005859,-16.5535106658936,-22.7904052734375,-21.6938610076904,-17.3651447296143,23.9515933990479,14.3771810531616,5.21217727661133,1.99325335025787,0.91813045740128,0.75747293233871,-1.39765965938568,-0.41905355453491,-0.07635815441608,6.09154844284058,5.91012144088745,5.2057933807373,-1.97521638870239,6.58166027069092,17.2190990447998,-8.44434928894043,3.01908826828003,13.4027414321899,2.75093770027161,6.72770690917969,5.36780023574829,0.88636547327042,0.70738196372986,-0.01588249579072,0.11178833991289,0.19303341209888,0.15332718193531,3.44528007507324,0.97371917963028,-1.31946897506714,22.4145164489746,20.0083427429199,15.3037376403809,21.7225914001465,24.6171817779541,21.7968120574951,1.77170920372009,-2.37744235992432,-4.12999773025513,-1.18630027770996,-2.35427474975586,-2.81486701965332,0.1050688251853,0.55649822950363,1.06718158721924,-3.08486938476563,-4.33958673477173,-4.99932098388672,11.1545858383179,5.37019443511963,-2.58813214302063,14.9877023696899,7.30710363388062,-1.00795888900757,-2.44208574295044,3.23935484886169,11.2982378005981,-2.15635442733765,-0.56810468435287,0.83993971347809,0.85215699672699,0.26083946228027,-0.09040805697441,-4.97122144699097,-3.86372256278992,-1.14292883872986,-15.1959981918335,-28.610710144043,-32.4342498779297,-10.0029745101929,-15.9166526794434,-17.1400890350342,18.1695976257324,17.7913131713867,13.0699472427368,SHAKE
-2.15635442733765,-0.56810468435287,0.83993971347809,0.85215699672699,0.26083946228027,-0.09040805697441,-4.97122144699097,-3.86372256278992,-1.14292883872986,-15.1959981918335,-28.610710144043,-32.4342498779297,-10.0029745101929,-15.9166526794434,-17.1400890350342,18.1695976257324,17.7913131713867,13.0699472427368,1.35489916801453,1.1966849565506,0.86865037679672,-0.32803463935852,-0.32742378115654,-0.21807889640331,2.18323230743408,4.52406787872314,5.34629249572754,-22.8742027282715,-9.105149269104,0.60094463825226,-15.2007865905762,-10.1107139587402,-1.66157603263855,9.35893440246582,7.46033239364624,8.16662216186523,0.93767815828323,1.30419731140137,1.88146495819092,-0.18203784525394,-0.22235494852066,-0.42088615894318,5.24794340133667,4.32309341430664,2.49171924591064,10.5775833129883,19.0339031219482,24.6195755004883,8.44674396514893,17.9421482086182,23.0992584228516,7.93199014663696,7.1227502822876,1.18991827964783,1.84786736965179,0.73914694786072,-1.33107531070709,-0.52595496177673,-0.46792277693748,-0.05803219974041,-0.12828169763088,-2.65115523338318,-4.32614755630493,21.8830032348633,15.0714998245239,9.43315505981445,22.8646259307861,17.4537296295166,9.24640655517578,-5.84424638748169,-9.5624418258667,-5.18584108352661,-3.2113184928894,-4.13983392715454,-3.40984988212585,0.64568454027176,1.43064641952515,1.35062301158905,-5.32369041442871,-5.92905807495117,-5.58758449554443,3.42849683761597,-8.79150867462158,-28.0313129425049,-0.59376204013824,-11.9494609832764,-16.9102458953857,2.4205379486084,13.5032978057861,23.6068286895752,-0.90285885334015,1.56442594528198,2.55463838577271,0.27733281254768,-0.73609262704849,-1.04824471473694,-3.00240278244019,0.73303830623627,3.53629899024963,-33.9569625854492,-26.1135578155518,-13.4913263320923,-18.1863555908203,-17.1376953125,-13.0555820465088,22.1679134368896,13.8289089202881,6.74446630477905,2.23698854446411,1.54060220718384,0.91935217380524,-0.77152281999588,-0.34697145223618,-0.04153883829713,4.83438777923584,5.09095096588135,4.79101610183716,-4.18985319137573,3.94564437866211,13.0100917816162,-6.36857652664185,2.4588451385498,11.9159421920776,3.62003302574158,2.91853189468384,1.47482824325562,0.37568211555481,0.13805554807186,0.10018189996481,0.35857790708542,0.43737950921059,0.13255776464939,3.62487435340881,1.80938291549683,-0.23579397797585,17.9062347412109,18.7465991973877,17.688362121582,20.2357921600342,24.5980281829834,23.0561618804932,1.84592950344086,1.20667767524719,-1.26174426078796,-0.31031954288483,-1.50028502941132,-2.78982162475586,-0.2767219543457,0.10201449692249,1.00487327575684,-2.39886784553528,-4.06652975082397,-4.91868686676025,12.6222314834595,4.98951625823975,-3.25372004508972,16.587028503418,8.00621032714844,-2.2553379535675,-3.41892004013062,-0.39504328370094,7.22091245651245,-3.24125099182129,-2.00363802909851,0.33536502718925,1.28770399093628,0.88453286886215,0.03420845419168,-5.08423137664795,-4.20030927658081,-1.47218525409698,-16.7378635406494,-30.8852024078369,-32.3336944580078,-14.1210012435913,-19.0219326019287,-19.5366859436035,18.614917755127,22.0793285369873,15.2414884567261,SHAKE
-2.78982162475586,-3.24125099182129,-2.00363802909851,1.00487327575684,1.28770399093628,0.88453286886215,-4.91868686676025,-5.08423137664795,-4.20030927658081,-3.25372004508972,-16.7378635406494,-30.8852024078369,-2.2553379535675,-14.1210012435913,-19.0219326019287,7.22091245651245,18.614917755127,22.0793285369873,0.33536502718925,1.80999374389648,1.84053695201874,0.03420845419168,-0.83932882547379,-0.88819807767868,-1.47218525409698,1.90651047229767,4.33653259277344,-32.3336944580078,-21.5980930328369,-8.64546203613281,-19.5366859436035,-16.9485530853271,-10.6877164840698,15.2414884567261,8.16422748565674,4.50588750839233,1.09467053413391,0.30360001325607,0.3378084897995,-0.51618111133575,-0.15699236094952,0.02382374368608,5.30353212356567,5.24977588653564,4.31759548187256,2.13323378562927,11.3413333892822,18.9620780944824,-1.20188927650452,9.97424411773682,19.9317283630371,4.54419469833374,7.70454120635986,9.45949077606201,1.08978354930878,1.90223431587219,0.86193084716797,-0.14233160018921,-0.6023131608963,-0.56016343832016,2.69513750076294,-1.23089349269867,-3.6358699798584,24.6267585754395,22.4552173614502,14.8919343948364,24.9715232849121,23.8199119567871,18.7250518798828,5.53778839111328,-2.22660756111145,-8.99740982055664,-1.43492245674133,-3.75437784194946,-4.64624118804932,-0.01588249579072,1.31274938583374,2.57724046707153,-5.1324896812439,-6.44096326828003,-6.92049217224121,11.374852180481,3.60087943077087,-19.3834571838379,8.92079544067383,-6.98867464065552,-19.6516075134277,-7.64708042144775,-0.05985504388809,15.9286241531372,-2.57479691505432,0.75808376073837,2.71835041046143,1.54609990119934,-0.54916787147522,-1.62490153312683,-4.62058448791504,-0.3378084897995,3.27973556518555,-37.7685317993164,-36.1931457519531,-22.9412403106689,-22.3379020690918,-21.9524345397949,-18.564640045166,25.6610546112061,20.8702564239502,9.5815954208374,2.55708193778992,1.70492494106293,1.43614423274994,-1.41720736026764,-0.74586647748947,-0.40744712948799,5.08972930908203,5.48923492431641,5.13126802444458,-9.25119495391846,0.87627780437469,10.9319248199463,-10.857705116272,-1.07260239124298,9.43794345855713,3.76607918739319,5.34864664077759,5.8131217956543,1.51372408866882,1.05862951278687,0.39889499545097,-0.36957347393036,0.07941248267889,0.20036379992962,3.71833682060242,1.50700461864471,-0.79595738649368,19.4193706512451,20.9827842712402,18.6580142974854,19.1009407043457,24.6459121704102,23.3578319549561,0.63446342945099,-1.73819041252136,-2.8467059135437,-0.38728857040405,-1.44103109836578,-2.50454759597778,0.03054326213896,0.16554448008537,0.57604593038559,-2.78065848350525,-4.11356639862061,-4.71954488754272,12.7706718444824,5.82509279251099,-0.78050976991653,17.7601890563965,9.92875480651856,0.52193599939346,-3.50750541687012,-1.81480491161346,3.67509961128235,-2.9669725894928,-2.13436317443848,-0.27794370055199,0.65118235349655,0.29932397603989,-0.17165313661098,-4.75741863250732,-3.86494445800781,-1.34390354156494,-10.8074264526367,-25.51979637146,-32.9825210571289,-9.3828763961792,-18.2486057281494,-21.1312236785889,12.6509618759155,20.065803527832,18.2222690582275,SHAKE
-2.50454759597778,-2.9669725894928,-2.13436317443848,0.57604593038559,0.65118235349655,0.29932397603989,-4.71954488754272,-4.75741863250732,-3.86494445800781,-0.78050976991653,-10.8074264526367,-25.51979637146,0.52193599939346,-9.3828763961792,-18.2486057281494,3.67509961128235,12.6509618759155,20.065803527832,-0.27794370055199,1.15331363677979,1.48867857456207,-0.17165313661098,-0.93767815828323,-1.03602743148804,-1.34390354156494,2.082439661026,4.64563035964966,-32.9825210571289,-26.2404499053955,-12.0643825531006,-21.1312236785889,-19.6133003234863,-14.7339172363281,18.2222690582275,11.9015769958496,6.47870969772339,1.09039449691772,0.41722095012665,0.41355577111244,-0.72143185138702,-0.49968776106834,-0.6267477273941,5.58941698074341,5.65416860580444,4.72443199157715,-1.95127439498901,9.47385597229004,20.9684181213379,-4.64235687255859,7.81467437744141,20.1184768676758,2.83234071731567,4.92726707458496,5.94719696044922,0.87720251083374,0.92607170343399,-0.14599679410458,-0.71104717254639,-0.58032196760178,-0.17654006183147,2.47950196266174,-0.78374010324478,-3.50270128250122,28.5125484466553,23.6451358795166,14.1305780410767,26.503812789917,25.6035938262939,17.6141414642334,3.30639243125916,-2.51630592346191,-5.20738887786865,-2.03479218482971,-3.74643659591675,-4.02865648269653,0.66462141275406,1.61390602588654,2.138028383255,-5.02619934082031,-5.73663568496704,-5.84292602539063,6.58644866943359,-0.76853877305984,-13.8408803939819,7.50103378295898,-3.96000957489014,-14.8081378936768,-1.9249382019043,7.46751499176025,19.8551139831543,-2.10870671272278,0.879035115242,2.58823609352112,1.83748269081116,0.30543261766434,-1.33046448230743,-4.69633197784424,-1.54243469238281,2.17101502418518,-30.6074752807617,-34.1413154602051,-22.7568874359131,-20.4680309295654,-21.5837287902832,-19.3092365264893,24.6147880554199,17.2957134246826,7.65186882019043,2.5057692527771,1.84603476524353,1.3756685256958,-1.26693451404572,-0.90774577856064,-0.82650065422058,4.42632961273193,5.05124473571777,5.03536224365234,-9.49540424346924,-2.52348852157593,3.33751726150513,-13.7690544128418,-6.43800830841064,3.67270541191101,3.97198057174683,3.10767388343811,2.39180755615234,1.01220369338989,0.79107052087784,0.27733281254768,-0.75136423110962,-0.59376102685928,-0.15210545063019,4.80628776550293,3.4825427532196,-1.01464712619781,13.5607585906982,20.3315601348877,15.1959981918335,13.4578075408936,21.3179721832275,22.4576110839844,2.20505976676941,2.19308876991272,-1.1372457742691,-0.675616979599,-1.94132971763611,-2.84357762336731,0.03787364438176,0.62369340658188,1.41842913627625,-2.77516078948975,-4.06225395202637,-4.72870779037476,10.8624935150146,4.67108774185181,-2.58094954490662,16.1177654266357,8.07564258575439,-0.08140286058187,-0.03830722719431,4.503493309021,11.9614315032959,-2.60778379440308,-0.96699970960617,0.9639453291893,1.73180294036865,1.28831481933594,0.463035851717,-4.60531330108643,-3.9901716709137,-2.38848304748535,-8.80587387084961,-19.9748249053955,-30.854076385498,-9.4235782623291,-18.1073474884033,-20.3243789672852,19.3595142364502,18.8830680847168,10.7475709915161,SHAKE
-1.81854581832886,-1.62612330913544,0.4844161272049,0.65179324150085,1.11482906341553,0.56016343832016,-5.20945882797241,-5.47457408905029,-3.61815476417542,5.20020627975464,-17.25022315979,-38.640022277832,6.41885471343994,-20.5709800720215,-25.5389499664307,4.1347861289978,20.6284427642822,17.5830173492432,1.97248387336731,1.97859251499176,1.2345587015152,-0.54672437906265,-1.01953411102295,-0.66462141275406,0.69516462087631,4.57354831695557,6.16851711273193,-37.0167541503906,-18.7992725372314,-2.89458990097046,-24.9284286499023,-20.4871845245361,-11.32457447052,9.0644474029541,4.04380655288696,3.4117374420166,0.62124997377396,0.61758476495743,1.15025925636292,-0.59681534767151,-0.51679199934006,-0.44226643443108,6.15385627746582,5.65539026260376,4.13983392715454,5.67904663085938,15.9310178756714,30.5380420684814,2.57376670837402,17.0754470825195,27.1813716888428,6.00705194473267,7.3693528175354,6.40688371658325,1.70614659786224,1.3335188627243,0.22724187374115,-0.29077184200287,0.02932153269649,0.04581489413977,0.84849184751511,-2.25775790214539,-4.08302307128906,29.4654407501221,19.6899147033691,12.7371530532837,29.6138801574707,24.8901214599609,16.2302932739258,0.13886369764805,-3.54341840744019,-4.29998636245728,-1.22295224666595,-2.25775790214539,-2.35183119773865,0.32986724376678,0.6139195561409,0.98654735088348,-5.14776134490967,-5.7170877456665,-5.77145481109619,7.07965421676636,0.01675941236317,-16.3571853637695,6.31590414047241,-6.41167211532593,-19.7593460083008,0.44292730093002,7.40766000747681,16.7426528930664,-0.9083566069603,1.15942227840424,2.11603713035584,0.66401052474976,-0.24068090319633,-0.62308257818222,-4.06958436965942,0.37323865294456,4.57538080215454,-39.5330581665039,-36.6504402160645,-17.3579616546631,-24.6818256378174,-23.9204692840576,-20.065803527832,20.3938102722168,13.771448135376,6.90008926391602,1.88879537582397,1.19912850856781,0.45631635189056,-0.3897320330143,-0.13988813757896,0.49541172385216,6.33650541305542,6.52892780303955,6.13736295700073,-3.62242722511292,5.48272180557251,17.9445419311523,-10.8744640350342,1.19710087776184,15.0595283508301,3.84508800506592,2.38223075866699,5.56891298294067,0.62186080217361,1.84542393684387,2.16551733016968,0.46486845612526,-0.33231070637703,-0.74953162670135,4.55888748168945,1.60596477985382,-1.25654983520508,28.6681709289551,26.6522541046143,18.9908084869385,25.3545951843262,28.9123802185059,26.149471282959,8.32703304290771,1.70706582069397,-5.51863479614258,0.93156951665878,-1.10627698898315,-2.38970494270325,-1.00792765617371,-0.40133845806122,0.5589417219162,-3.21498370170593,-4.43243837356567,-5.11782884597778,12.7084226608276,6.75164890289307,-2.63362193107605,17.851167678833,7.52018737792969,-4.14675712585449,-6.33505773544312,1.61129772663116,11.5352640151978,-2.22049522399902,-0.70554935932159,0.69455379247665,0.74159038066864,0.39217549562454,0.27366763353348,-5.09400510787964,-3.49109482765198,-0.0372627787292,-18.3539505004883,-32.7095832824707,-31.9434394836426,-15.468936920166,-20.4321174621582,-19.0698165893555,19.5366859436035,17.4010581970215,9.91199493408203,SHAKE
-1.71836388111115,-0.03970624133945,1.51616752147675,0.74953162670135,0.08918632566929,-0.04703662544489,-5.54360198974609,-5.12332677841187,-3.52102732658386,-5.655104637146,-19.7138576507568,-34.308910369873,-7.63271522521973,-18.1336841583252,-21.4041633605957,20.2573413848877,18.6771678924561,11.0588178634644,1.83565008640289,1.24555420875549,0.7000515460968,0.07941248267889,0.07635815441608,-0.01649336144328,-0.04276056587696,3.51064252853394,5.20884799957275,-31.4406566619873,-15.6580791473389,-3.43567943572998,-19.2996597290039,-15.0762882232666,-6.40688371658325,5.31991624832153,4.32392835617065,3.44286203384399,0.32375857234001,0.09896016865969,0.77457714080811,-0.22113321721554,-0.29199358820915,-0.51740288734436,5.45808076858521,5.13798761367798,3.72444534301758,6.14352178573608,17.9852428436279,27.3920612335205,5.27203226089478,17.8607444763184,26.5301494598389,3.99113416671753,7.14669227600098,5.25766706466675,1.61085164546967,1.58091926574707,0.35552358627319,-0.64751714468002,-0.76663589477539,-0.57421332597733,1.203404545784,-1.53815865516663,-3.49964690208435,26.2715759277344,19.3427562713623,12.8664398193359,28.2443981170654,24.2436866760254,16.2638130187988,-1.33117616176605,-5.49229860305786,-5.07810163497925,-1.41842913627625,-2.57418608665466,-2.02501821517944,-0.13927727937698,0.17165313661098,0.12889257073402,-4.77513360977173,-5.51244783401489,-5.24794340133667,4.85544109344482,-7.89128875732422,-28.6490173339844,4.04141235351563,-9.70848751068115,-18.7202625274658,4.12042093276978,17.0922050476074,21.2629051208496,-0.39095374941826,1.23578035831451,2.30112934112549,0.37507125735283,-0.40317106246948,-1.06534898281097,-3.00851130485535,1.20584797859192,4.38967752456665,-39.3127937316895,-26.9084320068359,-9.09317779541016,-19.6133003234863,-18.2845191955566,-13.3907699584961,19.4169750213623,14.0539636611938,7.65426301956177,2.48255634307861,1.80938291549683,0.75930547714233,-0.80084431171417,-0.13988813757896,0.6023131608963,5.38111209869385,5.35484457015991,4.39456462860107,-0.24420857429504,8.93276691436768,19.1248836517334,-4.23294878005981,6.34463453292847,17.1281185150146,1.68551802635193,-0.4716577231884,-1.7980455160141,0.43554693460464,0.13377949595451,-0.43371433019638,0.34636059403419,-0.11362093687057,-0.66950833797455,2.59312295913696,0.25411993265152,-1.83503913879395,24.7656230926514,23.6475296020508,19.244592666626,25.4096622467041,27.8565368652344,24.155101776123,-2.96402168273926,-4.41011953353882,-4.23534297943115,-1.39827048778534,-2.41352868080139,-2.51432132720947,-0.62308257818222,0.03420845419168,0.27183502912521,-3.44039297103882,-4.544837474823,-4.95411729812622,14.1784620285034,5.8825535774231,-2.72699570655823,16.6636428833008,8.15225696563721,-2.70544791221619,-1.4676456451416,5.98310995101929,16.620548248291,-1.19729590415955,0.68233644962311,1.44469630718231,-0.26328292489052,-0.62308257818222,-0.16554448008537,-4.6627345085144,-2.88939261436462,0.11972958594561,-16.5152034759521,-28.7998523712158,-29.4798049926758,-13.0148801803589,-18.2486057281494,-18.480842590332,23.4176864624023,18.531120300293,11.6286373138428,SHAKE
-1.19729590415955,0.68233644962311,1.44469630718231,-0.26328292489052,-0.62308257818222,-0.16554448008537,-4.6627345085144,-2.88939261436462,0.11972958594561,-16.5152034759521,-28.7998523712158,-29.4798049926758,-13.0148801803589,-18.2486057281494,-18.480842590332,23.4176864624023,18.531120300293,11.6286373138428,1.24494338035584,0.66278880834579,-0.32681289315224,0.32803463935852,0.70860368013382,1.16858518123627,3.02378296852112,4.64013242721558,5.05429887771606,-18.8926448822021,-5.90888977050781,1.84114110469818,-15.6532907485962,-10.2998561859131,-0.96007490158081,7.33343982696533,2.32716393470764,3.56017804145813,-0.63102382421494,0.26083946228027,1.68598806858063,1.08856189250946,0.40378192067146,-0.56260687112808,5.03841638565063,4.32614755630493,2.5802948474884,10.8816471099854,20.5733757019043,30.3369293212891,11.0396642684937,23.3410720825195,30.224401473999,7.64229202270508,8.40125370025635,2.97120428085327,2.23637771606445,1.04335784912109,-1.03908181190491,-1.45141577720642,-1.39277279376984,-0.48808133602142,-0.35124751925468,-2.99568319320679,-4.41899919509888,28.5340957641602,18.53590965271,9.96706199645996,29.5755729675293,22.6754837036133,13.254301071167,-5.7628436088562,-8.84896945953369,-1.78128612041473,-2.43857407569885,-2.65848565101624,-1.76478970050812,0.25778514146805,0.42516219615936,0.28344148397446,-5.07873344421387,-5.30719709396362,-5.14348554611206,3.35667085647583,-3.36145925521851,-19.8144130706787,3.38061285018921,-8.09958457946777,-18.4138050079346,6.90966606140137,14.9254531860352,21.5526027679443,0.01343903504312,1.35001218318939,1.38666415214539,0.03115412779152,-0.19120082259178,0.00916297826916,-3.20154476165771,0.43737950921059,3.5546247959137,-34.234691619873,-29.8317527770996,-15.0212211608887,-21.1264362335205,-18.6987152099609,-14.0946655273438,19.3451499938965,10.8265800476074,4.88895988464355,0.62796944379807,-0.27427849173546,-0.76663589477539,0.56627207994461,0.85826569795609,1.14903748035431,4.94006729125977,4.89608478546143,4.46359252929688,-1.30005156993866,5.73411321640015,14.6525144577026,-5.97592735290527,5.46356821060181,17.8032836914063,2.18590617179871,2.31279873847961,5.45877981185913,-0.33231070637703,0.54672437906265,0.71226888895035,0.90408056974411,0.24556782841682,-0.38728857040405,3.34693074226379,1.07145762443542,-1.67621421813965,23.44162940979,26.3003063201904,17.5830173492432,27.5500793457031,29.7240142822266,25.5796508789063,5.79396820068359,1.15161097049713,-2.03746557235718,-0.06658431142569,-1.14109623432159,-1.49356555938721,-0.5583308339119,-0.19792033731937,-0.03359758853912,-3.31516575813293,-4.22535467147827,-4.68167114257813,11.6382141113281,6.39491271972656,1.67833542823792,17.4465484619141,8.68855762481689,-0.78050976991653,-0.69910687208176,5.88494777679443,13.5631523132324,-0.80634212493896,0.09162978827953,0.43737950921059,-0.24190263450146,-0.34697145223618,0.09285151958466,-4.80262279510498,-4.41899919509888,-1.90895390510559,-6.0788779258728,-25.795129776001,-36.303279876709,-12.8496809005737,-20.1903038024902,-20.508731842041,16.1081886291504,13.9462251663208,9.55047035217285,SHAKE
1.01037108898163,1.27609753608704,1.11666166782379,0.05925392732024,-0.08307767659426,-0.07696902006865,1.85275423526764,4.33531045913696,5.17586135864258,-21.6986503601074,-7.79073238372803,2.04225397109985,-15.6772327423096,-9.43076038360596,0.88106620311737,9.85214042663574,5.37019443511963,3.17471146583557,0.86376345157623,0.69944071769714,0.96577793359756,-0.05253441259265,0.01954768784344,-0.23457226157188,5.07445764541626,4.2339072227478,2.24370813369751,11.9207305908203,22.6659069061279,25.6682357788086,12.7970085144043,23.9372291564941,28.3545303344727,2.02549457550049,2.68868851661682,0.6224924325943,1.2156218290329,0.68600165843964,-0.56443947553635,-0.78129667043686,-1.06718158721924,-0.81550508737564,-0.4331034719944,-2.56441235542297,-3.77881240844727,19.6540012359619,12.6892690658569,7.09401941299438,26.070463180542,19.5007724761963,10.9223480224609,-2.65516972541809,-2.88501310348511,3.44765043258667,-1.45813536643982,-1.35978603363037,-0.46120324730873,-0.37446039915085,-0.49296826124191,-0.60536748170853,-4.3346996307373,-4.48985958099365,-4.08546686172485,1.71903681755066,-7.37414121627808,-24.2436866760254,1.28329205513,-9.49061584472656,-16.9413719177246,10.9917802810669,16.816873550415,20.4321174621582,2.09587860107422,1.6456710100174,0.90285885334015,-0.44837507605553,0.00977384392172,-0.24862214922905,1.51555669307709,4.26567220687866,5.2503867149353,-22.6970329284668,-6.15549278259277,4.95360326766968,-14.3939409255981,-6.84502267837524,5.81551599502563,3.18189406394959,1.79565131664276,1.56580793857574,0.68966686725616,-0.39828413724899,-0.98776912689209,-0.1814269721508,-0.38117989897728,-0.24984388053417,3.60777020454407,-1.71469879150391,-3.44283652305603,27.7248554229736,17.0778408050537,9.15303325653076,27.7057018280029,23.7456932067871,15.2845840454102,-0.61291563510895,3.76129078865051,8.08282470703125,-0.47830748558044,-0.40500366687775,0.36163222789764,-0.63896507024765,-0.03420845419168,-0.26083946228027,-4.66395616531372,-3.69878911972046,-1.20645880699158,-7.19697046279907,-23.6116180419922,-26.5756397247314,-7.19697046279907,-12.8688344955444,-15.660472869873,9.76834297180176,13.9127063751221,11.8321447372437,0.83138757944107,0.97860610485077,1.4379768371582,-0.37140607833862,-0.44654250144958,-0.84177231788635,1.40987694263458,3.76170825958252,4.94984102249146,-23.4775409698486,-14.2622594833374,14.1329727172852,-14.1473379135132,-9.33978080749512,11.417947769165,7.74284839630127,5.39174222946167,1.24737906455994,1.38605320453644,0.55649822950363,-1.34817957878113,-1.31519281864166,-0.83383107185364,0.28710666298866,3.34387636184692,1.13254415988922,-2.2724187374115,22.2756519317627,20.3100128173828,11.9734029769897,21.2293872833252,26.2763633728027,19.1727676391602,-2.3247697353363,-3.23456645011902,0.95768070220947,-1.99630761146545,-1.71714222431183,-0.78007489442825,0.93706727027893,0.54611355066299,0.02199114859104,-3.23880743980408,-3.53752064704895,-3.25285744667053,5.26484966278076,-0.78529816865921,-3.71819519996643,11.7938375473022,4.99430465698242,-2.50433492660522,6.68939971923828,11.9063653945923,10.1777515411377,SHAKE
-0.70799279212952,-1.00976026058197,-0.59131753444672,0.49296826124191,-0.0598647929728,-0.72815138101578,5.95593595504761,6.34688997268677,4.60103702545166,4.37899494171143,20.0681991577148,26.1518650054932,0.45968672633171,16.8192672729492,29.9969539642334,4.24252557754517,9.93833160400391,9.77791976928711,-0.39095374941826,-0.29749137163162,0.1991420686245,0.29382619261742,1.48684597015381,1.46852004528046,2.39642429351807,-0.15515977144241,-2.51737570762634,28.0791969299316,21.8830032348633,12.6940574645996,33.724723815918,29.3433361053467,20.3698673248291,11.2479591369629,11.9087591171265,10.2854900360107,0.83138757944107,1.15148103237152,-0.07269296050072,0.74464476108551,0.17165313661098,0.77824234962463,-3.77636885643005,-4.2339072227478,-4.53384208679199,7.10599040985107,4.39096593856812,-16.3404273986816,10.9486846923828,1.90099620819092,-18.1193180084229,7.11556768417358,3.88100099563599,5.32470464706421,-0.46120324730873,0.52656584978104,0.7489207983017,0.44348818063736,-0.25595253705978,0.43066000938416,-3.64869809150696,1.49539816379547,4.80934190750122,-31.8811893463135,-28.5963459014893,-13.3716163635254,-18.8974342346191,-16.816873550415,-13.8073616027832,8.97586250305176,7.45075559616089,-2.71023631095886,-0.36468654870987,-0.94073247909546,-0.5705481171608,0.83627450466156,0.38606682419777,-0.463035851717,6.15019130706787,5.85453271865845,4.93212604522705,2.0326771736145,9.60793113708496,23.8390655517578,-2.94247388839722,12.6054716110229,24.7775936126709,-0.78769236803055,6.05014753341675,9.45230865478516,-0.2315179258585,0.31093040108681,0.38362336158752,0.16371189057827,0.59681534767151,0.62613689899445,2.35305285453796,-3.053715467453,-3.98467397689819,32.3241157531738,13.2471179962158,8.02297019958496,30.4279098510742,21.4855651855469,12.7826433181763,10.9199542999268,7.78115558624268,6.66306352615356,0.49968776106834,0.13377949595451,-0.54244834184647,0.38301250338554,0.17348572611809,0.51740288734436,-4.42144250869751,-4.55461120605469,-2.90588593482971,4.12999773025513,-15.799337387085,-31.2563037872314,3.49553442001343,-16.8240547180176,-18.4784488677979,6.59363126754761,2.24576115608215,4.3143515586853,-0.59864795207977,-0.4324925839901,-0.41966441273689,0.65790188312531,0.43004912137985,-0.34880405664444,0.62247169017792,4.06775188446045,5.6547794342041,-31.3065814971924,-15.660472869873,-2.22660756111145,-17.9158115386963,-15.0260095596313,-6.49546909332275,4.32632255554199,1.96803379058838,3.60806202888489,-0.07269296050072,0.13194689154625,-0.18875735998154,-1.46363317966461,-1.38177716732025,-0.23090706765652,6.00480556488037,5.50145244598389,3.49231672286987,8.70531749725342,23.1806602478027,31.6800765991211,7.29513263702393,21.6435832977295,32.0344200134277,5.15950489044189,5.3366756439209,7.52976417541504,-0.71410149335861,-0.30298915505409,0.33353242278099,0.84360492229462,0.91568702459335,0.32803463935852,-2.58334922790527,-4.17282056808472,-4.96144771575928,17.9804553985596,10.6541976928711,4.94402647018433,25.1175708770752,15.3827457427979,6.41885471343994,10.8505220413208,10.3716821670532,9.27753162384033,SHAKE
-0.41966441273689,-0.07269296050072,0.13194689154625,-0.34880405664444,-1.46363317966461,-1.38177716732025,5.6547794342041,6.00480556488037,5.50145244598389,-2.22660756111145,8.70531749725342,23.1806602478027,-6.49546909332275,7.29513263702393,21.6435832977295,3.60806202888489,5.15950489044189,5.3366756439209,-0.18875735998154,-0.71410149335861,-0.30298915505409,-0.23090706765652,0.84360492229462,0.91568702459335,3.49231672286987,-2.58334922790527,-4.17282056808472,31.6800765991211,17.9804553985596,10.6541976928711,32.0344200134277,25.1175708770752,15.3827457427979,7.52976417541504,10.8505220413208,10.3716821670532,0.33353242278099,0.89247411489487,1.03358399868011,0.32803463935852,-0.40989059209824,-0.61086523532867,-4.96144771575928,-5.25771713256836,-5.2436671257019,4.94402647018433,-0.02873042039573,-10.1705684661865,6.41885471343994,-3.23935484886169,-13.0412168502808,9.27753162384033,7.34541082382202,3.92649078369141,0.57910025119781,0.21502456068993,0.24740041792393,0.01588249579072,0.60536748170853,0.3286454975605,-4.20763969421387,-0.97921699285507,2.85151886940002,-29.1685600280762,-34.0982208251953,-20.7673053741455,-16.512809753418,-17.029956817627,-16.0531215667725,3.61763882637024,3.90254878997803,1.85071790218353,0.1667662113905,-0.11423180252314,-0.20586158335209,-0.15515977144241,-1.04763388633728,-1.22722828388214,5.21129131317139,5.69815111160278,5.31452751159668,-5.05415964126587,1.59693253040314,27.492618560791,-10.5177278518677,-0.26815059781075,23.6140117645264,0.1723825186491,2.22421336174011,8.80108547210693,-0.00549778714776,0.13744467496872,0.27000242471695,-0.99326688051224,-0.49907690286636,0.58032196760178,2.7391197681427,-0.731205701828,-4.15266180038452,33.300952911377,23.2429103851318,9.35893440246582,29.6186695098877,27.739221572876,12.4809732437134,10.527304649353,10.1250791549683,6.41406631469727,0.66339963674545,0.38240164518356,-0.43432518839836,-0.34269541501999,-0.39217549562454,0.42577308416367,-5.12088346481323,-5.18624591827393,-3.76048636436462,-1.21625447273254,-16.7642002105713,-36.0087928771973,-6.35181713104248,-15.7035694122314,-17.7769470214844,3.48595762252808,1.63284552097321,5.30076265335083,-0.5400048494339,-0.14966198801994,0.15638150274754,0.78068578243256,0.36102136969566,-0.35796701908112,0.14416420459747,4.13677930831909,6.03657054901123,-33.7127532958984,-14.2502889633179,0.33997663855553,-17.9062347412109,-15.3157081604004,-5.52342319488525,5.73650741577148,4.08690214157104,5.25048446655273,0.59498274326324,0.69638639688492,-0.43860125541687,-1.52960658073425,-1.65177965164185,0.43066000938416,6.32856416702271,5.94005346298218,-0.03420845419168,11.0157222747803,29.0656089782715,26.8820972442627,8.59997272491455,23.3314952850342,31.0001239776611,5.02064085006714,4.41730213165283,4.61841487884521,-0.97494095563889,-0.89491760730743,-0.31031954288483,1.42881381511688,1.42270517349243,0.66034531593323,-2.92299008369446,-4.46603584289551,-5.14776134490967,16.1081886291504,8.65982723236084,4.37420654296875,22.0841159820557,12.5049152374268,3.85945320129395,6.34463453292847,7.67102241516113,6.90966606140137,SHAKE
0.72326445579529,-0.05314527451992,-0.84604835510254,-1.44164192676544,-1.39582705497742,-0.27733281254768,6.12636756896973,5.80749607086182,4.60958909988403,8.51378154754639,20.5063381195068,34.3232765197754,6.84023427963257,19.8431434631348,28.639440536499,0.41898530721664,4.46758031845093,12.880805015564,-0.74281215667725,0.52962017059326,0.93889987468719,0.48258355259895,0.50518554449081,0.62552601099014,1.38238799571991,-1.90040183067322,-3.49720358848572,27.9427280426025,15.9741134643555,10.704475402832,30.0232887268066,24.6818256378174,16.3907051086426,15.7897605895996,6.30393314361572,-1.59932672977448,-0.03115412779152,-0.99387776851654,-1.60229957103729,0.80145519971848,0.80145519971848,0.91018921136856,-4.31270885467529,-4.86126565933228,-5.08972930908203,6.62954473495483,2.20266556739807,-27.0305366516113,8.05170059204102,-1.28808057308197,-19.5318965911865,-0.96246910095215,1.4484920501709,6.97909784317017,-1.19607412815094,0.13988813757896,1.32924282550812,1.02381014823914,0.17470745742321,-0.99204516410828,-3.03416776657104,1.39277279376984,5.20701551437378,-39.2002639770508,-26.3457946777344,-6.17225217819214,-18.3778915405273,-17.7290630340576,-12.4354839324951,9.71088218688965,6.40927791595459,2.29125094413757,1.55220854282379,1.38360977172852,1.50028502941132,-1.66521871089935,-2.1789562702179,-2.11542630195618,6.6327748298645,6.68103313446045,4.71771240234375,4.73812532424927,17.9373588562012,34.3400344848633,0.61770403385162,16.2183227539063,29.1039161682129,2.31758713722229,5.30315685272217,2.54743051528931,0.89308500289917,-0.60658919811249,-1.61818206310272,-1.43980944156647,0.09834930300713,1.39704883098602,1.20645880699158,-2.32861828804016,-4.78124237060547,35.2474365234375,27.1406707763672,13.6062479019165,33.0998382568359,26.9730758666992,16.2853603363037,-4.17788219451904,-2.20027136802673,2.02788877487183,-1.77883958816528,-1.45202672481537,-1.40315747261047,1.14415061473846,0.14782938361168,-0.04092797264457,-5.66272068023682,-5.75129652023315,-5.81788063049316,4.69024133682251,1.40539634227753,-8.59997272491455,7.10599040985107,-3.21541285514832,-15.4785137176514,5.95198535919189,7.25682544708252,7.00303983688354,-1.57664322853088,-0.81978118419647,0.37384954094887,0.8778133392334,1.37627935409546,0.2638937830925,-4.62058448791504,-0.67073005437851,3.49231672286987,-31.3185520172119,-37.9911918640137,-17.9445419311523,-19.8694801330566,-18.9094047546387,-17.1089649200439,11.0971250534058,11.4849853515625,6.44279670715332,0.8600982427597,0.32559117674828,-1.02442097663879,-0.70860368013382,-0.85643309354782,0.62369340658188,5.11294221878052,5.59186029434204,6.02618551254272,-3.52426481246948,1.28568625450134,16.2231101989746,-11.2934494018555,-0.84994161128998,12.0500173568726,3.18668246269226,0.79966336488724,1.29047477245331,-2.09343528747559,-1.60779738426209,-0.15515977144241,1.7989981174469,1.37505769729614,0.43127086758614,4.700608253479,1.61757111549377,-1.1966849565506,28.5628261566162,26.4702930450439,19.6276664733887,25.8047065734863,32.7502861022949,29.8245697021484,8.74123001098633,14.0419931411743,11.8584814071655,SHAKE
-0.33047810196877,-0.39522981643677,0.2229658216238,0.05742133408785,0.72509706020355,0.65973448753357,-5.27787590026855,-3.04149794578552,1.33962750434875,-21.1743202209473,-37.8499336242676,-29.6617641448975,-18.3898639678955,-19.8263835906982,-19.1775550842285,9.0452938079834,10.5057573318481,9.80665016174316,1.1734721660614,1.32191240787506,0.56871557235718,-0.01710422709584,-0.57971113920212,-0.55405479669571,4.82400274276733,5.86736059188843,6.13308715820313,-7.94635534286499,-0.00957680679858,7.15866327285767,-15.6676559448242,-6.71813011169434,5.48032760620117,3.77565598487854,-0.72304892539978,0.33279404044151,-0.24740041792393,-0.34086281061172,0.14538592100143,-0.06841690838337,-0.18448130786419,-0.5589417219162,6.08971548080444,4.44160127639771,1.01525807380676,20.6212596893311,32.2211647033691,29.3505191802979,19.4792251586914,30.6362056732178,32.6186027526855,5.21935987472534,7.93199014663696,7.49624538421631,0.58276546001434,0.50090950727463,-0.44959682226181,-0.49357911944389,-0.36529740691185,-0.16187928617001,-2.26814270019531,-4.31393051147461,-5.40676832199097,19.8958168029785,12.6701154708862,7.06768321990967,26.1303176879883,16.8767280578613,7.9846625328064,4.77643251419067,0.46686932444572,1.99676418304443,-1.32924282550812,-1.65544486045837,-1.84175872802734,0.15760323405266,0.1490511149168,0.42638394236565,-5.8447585105896,-6.14408254623413,-5.83742809295654,3.69904160499573,-5.85861158370972,-29.5875453948975,-2.48757553100586,-15.5934352874756,-23.7792110443115,5.88973617553711,8.4132251739502,11.5903301239014,-1.36406207084656,0.31398472189903,1.64750361442566,1.07023596763611,0.24862214922905,-0.30848693847656,-2.84907555580139,2.35488557815552,5.72502899169922,-42.2720260620117,-23.058557510376,-1.97042798995972,-21.7776584625244,-20.5278854370117,-14.6261777877808,16.069881439209,10.4315366744995,4.09887313842773,1.8545868396759,1.40499007701874,0.98349303007126,-0.78923791646957,-0.89919364452362,-0.5711590051651,6.30351829528809,6.29679918289185,5.94371891021729,3.47159242630005,11.0181159973145,25.8118877410889,-3.18189406394959,10.405200958252,24.2652339935303,0.79966336488724,1.59214413166046,0.4525041282177,0.54305922985077,-0.65240406990051,-0.97860610485077,-0.32253685593605,0.04825835302472,-0.23457226157188,3.68657183647156,-2.90283155441284,-4.35974502563477,33.0040702819824,14.1569147109985,9.07641887664795,33.6121978759766,22.8694152832031,13.3883762359619,-1.01274728775024,2.34871196746826,4.72854852676392,-1.20218276977539,-1.59435832500458,-2.07755279541016,-0.36285394430161,-0.03787364438176,0.6139195561409,-5.03108596801758,-5.55704116821289,-5.75068521499634,6.68221712112427,-1.08696758747101,-19.2757186889648,3.12443327903748,-10.1825399398804,-20.2549457550049,5.74129581451416,6.83544588088989,11.049241065979,-2.02868342399597,-0.90713489055634,0.81367248296738,1.0567969083786,0.69516462087631,-0.34880405664444,-4.11967515945435,-0.22663100063801,3.69878911972046,-35.8148651123047,-29.5492382049561,-9.60314273834228,-22.9556064605713,-21.6507663726807,-16.867151260376,16.5343570709229,16.2877540588379,8.31506252288818,SHAKE
1.64750361442566,1.8545868396759,1.40499007701874,-0.30848693847656,-0.78923791646957,-0.89919364452362,5.72502899169922,6.30351829528809,6.29679918289185,-1.97042798995972,3.47159242630005,11.0181159973145,-14.6261777877808,-3.18189406394959,10.405200958252,4.09887313842773,0.79966336488724,1.59214413166046,0.98349303007126,0.54305922985077,-0.65240406990051,-0.5711590051651,-0.32253685593605,0.04825835302472,5.94371891021729,3.68657183647156,-2.90283155441284,25.8118877410889,33.0040702819824,14.1569147109985,24.2652339935303,33.6121978759766,22.8694152832031,0.4525041282177,-1.01274728775024,2.34871196746826,-0.97860610485077,-1.20218276977539,-1.59435832500458,-0.23457226157188,-0.36285394430161,-0.03787364438176,-4.35974502563477,-5.03108596801758,-5.55704116821289,9.07641887664795,6.68221712112427,-1.08696758747101,13.3883762359619,3.12443327903748,-10.1825399398804,4.72854852676392,5.74129581451416,6.83544588088989,-2.07755279541016,-2.02868342399597,-0.90713489055634,0.6139195561409,1.0567969083786,0.69516462087631,-5.75068521499634,-4.11967515945435,-0.22663100063801,-19.2757186889648,-35.8148651123047,-29.5492382049561,-20.2549457550049,-22.9556064605713,-21.6507663726807,11.049241065979,16.5343570709229,16.2877540588379,0.81367248296738,1.314581990242,1.01647973060608,-0.34880405664444,-0.78129667043686,-0.47158795595169,3.69878911972046,5.37622499465942,5.08789682388306,-9.60314273834228,7.09162521362305,19.5271091461182,-16.867151260376,9.36611747741699,25.9459629058838,8.31506252288818,2.14520478248596,4.07014274597168,1.53327178955078,1.67926859855652,0.08307767659426,-0.79962259531021,-1.79838728904724,-1.27731919288635,3.87960505485535,0.01466076634824,-3.69390225410461,36.2889137268066,26.9539222717285,14.4921026229858,34.9290084838867,34.0192108154297,24.6339416503906,-3.56017804145813,-10.512939453125,-5.58088397979736,-1.87474548816681,-3.00728964805603,-2.5369234085083,-0.3371976017952,-0.29993483424187,0.14049901068211,-5.33407545089722,-5.84720230102539,-5.6859335899353,7.17063426971436,2.49715232849121,-1.51074123382568,12.9191122055054,0.84275901317596,-14.1377611160278,3.65834021568298,12.2439470291138,16.5846347808838,-1.63284277915955,-0.35369098186493,1.16308736801147,0.81183993816376,1.09100532531738,0.26572638750076,-5.18013715744019,-2.64749002456665,1.95171451568604,-17.226282119751,-36.3104629516602,-28.7974586486816,-25.598804473877,-26.3936786651611,-23.3291015625,17.7314586639404,18.1049537658691,11.8872117996216,1.74890720844269,1.13254415988922,0.72692966461182,0.19792033731937,0.41599923372269,-0.07696902006865,5.30903005599976,6.17218255996704,5.72197484970093,-8.5496940612793,3.8690299987793,9.9000244140625,-17.6907558441162,-7.63510942459106,6.96712684631348,3.50511121749878,1.17794728279114,5.28879165649414,1.49723076820374,2.05433988571167,1.17408299446106,-0.4972442984581,-0.45937067270279,-0.55466562509537,4.75986194610596,3.02011775970459,0.1050688251853,15.0451631546021,22.9603939056396,24.6818256378174,23.3314952850342,32.2115898132324,34.1532859802246,4.72615432739258,-4.16351652145386,-7.18499946594238,SHAKE
-1.74218773841858,-1.63223195075989,-0.89980453252792,0.03604105114937,0.51495939493179,0.57299160957336,-5.25160837173462,-4.27483510971069,-0.97066485881805,-9.15303325653076,-27.5572624206543,-33.48291015625,-18.7418117523193,-24.9236392974854,-23.9803237915039,11.3485164642334,15.5192155838013,18.6412544250488,0.58215457201004,1.08550751209259,0.83016586303711,0.40011674165726,0.73609262704849,0.39584067463875,3.37075448036194,6.12025880813599,6.82703018188477,-19.5965404510498,-2.92332029342651,8.38688850402832,-20.5063381195068,-12.6916627883911,1.03190088272095,9.84974575042725,3.77086758613586,3.64158082008362,0.82161372900009,1.20768058300018,1.0567969083786,-0.14172074198723,-0.15515977144241,0.0226020142436,6.33039665222168,4.79223775863647,1.80205249786377,17.6668148040771,26.9204044342041,26.2476329803467,19.8455371856689,32.1469459533691,35.4389724731445,4.63278007507324,0.07422025501728,-2.50433492660522,0.39522981643677,-0.37507125735283,-0.97433006763458,0.2138028293848,0.28038713335991,0.10751228034496,-1.42637038230896,-3.86372256278992,-5.22534132003784,19.8718738555908,12.2152166366577,5.03261184692383,29.2762985229492,18.8806743621826,9.41639518737793,-2.00155258178711,1.08936178684235,5.74847841262817,-1.12460291385651,-1.03724920749664,-1.51311326026917,-0.36774086952209,-0.79656827449799,-0.39706242084503,-5.54787826538086,-5.8380389213562,-5.78978061676025,4.54658889770508,-1.41018486022949,-24.200590133667,-0.9911994934082,-15.7873659133911,-26.3529777526855,8.89445972442627,8.83221054077148,8.49702167510986,-2.29624247550964,-1.694540143013,-0.00488692196086,1.44836151599884,1.44103109836578,-0.07269296050072,-3.07448482513428,2.48805403709412,6.87040138244629,-45.2264709472656,-28.965051651001,1.26653265953064,-26.4990253448486,-24.4831066131592,-17.6069583892822,15.4378128051758,16.1081886291504,9.41878986358643,0.94317591190338,0.7611380815506,0.17043140530586,-0.80695301294327,-0.46975538134575,-0.10323622822762,7.3792519569397,6.40980911254883,5.40432500839233,9.86171722412109,12.4498491287231,25.7185153961182,-2.23857855796814,15.3659868240356,29.4462871551514,2.62643933296204,0.90740245580673,1.70467162132263,-0.09957103431225,-0.37995818257332,-0.80695301294327,-0.31215214729309,-0.48197266459465,-0.2858849465847,2.58518171310425,-1.08611845970154,-3.75315618515015,28.1606006622314,20.0993232727051,12.9334774017334,34.7135314941406,29.3624897003174,18.974048614502,1.90339040756226,2.47321033477783,6.36139392852783,-0.93767815828323,-1.06473815441132,-1.19424152374268,-0.23273965716362,-0.42149701714516,-0.47158795595169,-5.24488878250122,-5.89423894882202,-6.28946876525879,7.31428623199463,3.10767388343811,-13.7786312103271,7.6375036239624,-6.08127212524414,-20.9803886413574,7.77397298812866,10.6877164840698,13.4195003509521,-1.15575706958771,-0.43676865100861,1.04030346870422,0.05925392732024,0.67134088277817,0.23701570928097,-5.26993465423584,-1.05801856517792,3.9193115234375,-35.5538940429688,-36.2027244567871,-14.4514017105103,-24.7153434753418,-22.620418548584,-19.5725994110107,16.7785663604736,18.6987152099609,11.7866554260254,SHAKE
-1.19424152374268,-1.15575706958771,-0.43676865100861,-0.47158795595169,0.05925392732024,0.67134088277817,-6.28946876525879,-5.26993465423584,-1.05801856517792,-13.7786312103271,-35.5538940429688,-36.2027244567871,-20.9803886413574,-24.7153434753418,-22.620418548584,13.4195003509521,16.7785663604736,18.6987152099609,1.04030346870422,2.00547051429749,2.13863921165466,0.23701570928097,-0.0598647929728,-0.44287729263306,3.9193115234375,6.47822570800781,6.29496622085571,-14.4514017105103,3.72298359870911,4.76206731796265,-19.5725994110107,-11.2192287445068,3.04063606262207,11.7866554260254,6.35421133041382,4.81713390350342,2.0690004825592,2.14963483810425,1.8179349899292,-0.05436700582504,0.31093040108681,0.02809980139136,5.96571016311646,5.05552053451538,1.92911243438721,13.9893207550049,29.1685600280762,24.7847766876221,17.0227737426758,28.0456790924072,31.8261222839355,2.36786556243896,-3.28245043754578,-6.85220527648926,0.99204516410828,-0.29016098380089,-1.70187056064606,-0.42516219615936,-0.4673119187355,-0.37751471996307,-1.49661982059479,-3.66152620315552,-5.0634617805481,17.2430400848389,12.4618196487427,7.99423933029175,26.7288684844971,17.6332950592041,7.17302846908569,-7.60637903213501,-4.4723687171936,0.65840548276901,-2.91810321807861,-3.58822250366211,-3.3835825920105,-0.44043383002281,-0.16554448008537,0.4459316432476,-5.81116104125977,-6.29679918289185,-5.93089056015015,5.08049583435059,-8.52575206756592,-36.3846817016602,-6.715735912323,-23.3027648925781,-27.7703456878662,7.66862821578979,15.5742816925049,22.9795475006104,-1.7757853269577,1.8857409954071,2.50882363319397,1.02808618545532,-0.33047810196877,-0.41905355453491,-2.24431896209717,5.57414531707764,7.07809543609619,-42.0469703674316,-16.7019519805908,3.19865345954895,-25.1127815246582,-22.2708644866943,-13.5535755157471,24.368185043335,12.923900604248,3.52665901184082,1.67377078533173,0.88147854804993,1.25960409641266,-0.09651670604944,0.76663589477539,0.73303830623627,6.63521814346313,6.45073699951172,4.99871015548706,5.2863974571228,13.5535755157471,31.6297988891602,0.48123455047607,15.1265659332275,26.7719631195068,0.46686932444572,4.97515106201172,2.11886858940125,1.5968017578125,0.68600165843964,-0.86681777238846,-0.1050688251853,-0.1276708394289,-0.05436700582504,1.02319931983948,-2.19850397109985,-3.93030691146851,28.0289192199707,17.2286758422852,11.6358203887939,32.2091941833496,28.3880500793457,19.2398052215576,-5.56651878356934,-7.25682544708252,-1.57777893543243,-1.89062798023224,-2.45506739616394,-2.65665292739868,-0.22907446324825,-0.02138028293848,0.50090950727463,-4.97549724578857,-5.46602201461792,-5.88202142715454,7.12753868103027,4.73573112487793,-3.02627086639404,9.35654067993164,-1.76213240623474,-16.812084197998,4.18506479263306,8.69574069976807,13.5009031295776,-2.25042748451233,-1.13559854030609,0.47647488117218,1.05252087116241,1.36833810806274,0.00427605677396,-5.39943790435791,-1.91628432273865,2.91382718086243,-26.5947933197021,-40.1747055053711,-24.7009792327881,-27.2220726013184,-25.7424564361572,-22.8981456756592,16.812084197998,18.3539505004883,14.5663232803345,SHAKE
-3.95474147796631,-3.38113903999329,-1.83442831039429,0.4886921942234,0.64018678665161,1.16369831562042,-6.19478464126587,-6.04451179504395,-3.61326789855957,-0.12928688526154,-17.5973815917969,-39.5378456115723,-11.8824234008789,-26.4511394500732,-26.2524223327637,14.1210012435913,20.0322856903076,24.2460803985596,0.6750060915947,2.7012460231781,2.9669725894928,0.4459316432476,-0.73609262704849,-0.92057394981384,1.47951567173004,5.22350883483887,6.08971548080444,-30.1908836364746,-6.92403125762939,2.20266556739807,-24.2436866760254,-18.3371906280518,-8.73165321350098,19.5223197937012,7.94874954223633,-1.35751235485077,1.70614659786224,0.54733526706696,0.29016098380089,-0.27244588732719,0.29932397603989,0.40683624148369,5.96265554428101,5.77573108673096,4.39334297180176,5.11880302429199,14.0539636611938,26.2476329803467,3.26329684257507,16.5104141235352,27.9786415100098,-2.12365698814392,-0.60812723636627,3.42131423950195,1.12460291385651,1.85580861568451,0.47219884395599,-0.67622780799866,-2.08549404144287,-2.18934106826782,1.26815629005432,-1.786780834198,-4.09646224975586,23.9635639190674,19.4816188812256,13.7403240203857,32.7502861022949,28.2443981170654,19.2278347015381,1.67594122886658,-8.06845951080322,-9.09078407287598,-2.11053943634033,-3.98345232009888,-4.61203241348267,-1.42270517349243,-0.47525316476822,0.72143185138702,-5.45013952255249,-6.38537454605103,-6.82397556304932,10.4267482757568,2.68868851661682,-23.6379528045654,6.46913290023804,-13.1992340087891,-28.2084846496582,0.48602294921875,10.4889974594116,21.464017868042,-3.31455492973328,-0.19792033731937,2.56074714660645,1.8924605846405,0.79778999090195,-0.51801371574402,-4.32614755630493,1.3390166759491,5.43975496292114,-46.1745758056641,-30.4925537109375,-7.10838460922241,-27.5788097381592,-24.4974708557129,-17.7625827789307,29.1015224456787,23.3099479675293,10.9391078948975,3.4012975692749,2.67864418029785,2.27119708061218,-0.54489177465439,-0.00366519158706,0.59253931045532,6.50327157974243,6.59367942810059,6.07383298873901,1.73340201377869,10.2950668334961,20.8965930938721,-5.91367816925049,8.14507389068604,21.9787712097168,1.1755530834198,1.28808057308197,4.2066125869751,3.10441708564758,3.06104564666748,1.2712105512619,0.12156218290329,-0.69211030006409,-1.05618596076965,4.14227724075317,0.50640726089478,-2.76538705825806,31.902738571167,25.6083812713623,15.3109197616577,28.12229347229,28.1486301422119,20.8894100189209,-5.79636240005493,-13.5894889831543,-14.1329727172852,-1.47462868690491,-3.51247525215149,-4.46359252929688,-0.5283984541893,-0.08796459436417,0.23884831368923,-4.47214460372925,-5.45502662658691,-6.24609708786011,9.96227359771728,5.76044940948486,-5.14035081863403,11.0205106735229,-1.00556468963623,-16.3164844512939,-5.39174222946167,4.39814853668213,13.8121500015259,-4.19664430618286,-2.46606302261353,-0.30482175946236,0.82772243022919,1.24860858917236,0.35857790708542,-6.27847290039063,-3.43794965744019,1.57419979572296,-30.2052478790283,-42.2839965820313,-26.1949615478516,-24.9308223724365,-24.1143989562988,-22.285228729248,20.9875717163086,21.9093399047852,15.1433258056641,SHAKE
-2.25836873054504,-1.17835903167725,0.72754049301147,0.65912359952927,0.62796944379807,0.29932397603989,-6.38231992721558,-5.58452987670898,-2.26386666297913,-14.7171583175659,-34.4214363098145,-38.8171920776367,-20.125659942627,-25.6083812713623,-25.3761444091797,19.0147495269775,21.3658561706543,16.5223865509033,2.10504174232483,2.1911735534668,1.60291039943695,-0.2730567753315,-0.15027284622192,0.1600466966629,2.4990496635437,5.72930526733398,6.44035243988037,-21.7848415374756,-1.92254400253296,3.56736063957214,-22.6706962585449,-16.5894241333008,-5.72453641891479,9.0859956741333,6.13394498825073,5.15950489044189,1.27487576007843,1.3878858089447,2.69452667236328,0.26206117868423,0.36713001132011,-0.23823744058609,6.23937749862671,6.16301965713501,2.10443067550659,8.67898082733154,27.2364387512207,36.6408615112305,7.84340476989746,22.0865116119385,30.3752365112305,5.7628436088562,5.86579418182373,1.90099620819092,3.14595603942871,1.51922190189362,-1.60352122783661,-0.71471232175827,-0.91568702459335,-0.68477994203568,-2.08671569824219,-4.2302417755127,-5.34568166732788,22.0003185272217,12.8712282180786,11.3820352554321,28.2132720947266,20.946870803833,10.2543659210205,-9.33738708496094,-16.5104141235352,-9.27513694763184,-3.9901716709137,-4.93945646286011,-3.94069170951843,0.20708331465721,1.31946897506714,1.65055787563324,-6.32306623458862,-6.9437050819397,-5.67188358306885,6.31350994110107,-9.23922443389893,-36.8276100158691,-3.93127918243408,-18.9261646270752,-26.2452392578125,1.33357036113739,14.0395984649658,23.9970836639404,-1.29992127418518,1.67743599414825,3.01339817047119,0.77213364839554,-0.98349303007126,-1.26449108123779,-0.89430671930313,4.26567220687866,6.2418212890625,-44.6470718383789,-21.6387958526611,-1.2449848651886,-25.1582717895508,-22.6180229187012,-13.9055233001709,26.8366069793701,17.8822917938232,4.71897172927856,2.14902400970459,0.57971113920212,0.53389620780945,-0.31215214729309,0.57360243797302,0.16310101747513,6.1660737991333,5.88018894195557,4.63524532318115,3.7349545955658,12.1697273254395,25.0601100921631,-1.40300214290619,11.0827598571777,23.2022094726563,-2.05901336669922,3.51947641372681,3.62721562385559,1.0622946023941,0.96577793359756,-0.35185837745667,-0.48808133602142,-0.8784242272377,-0.66401052474976,1.56381499767303,-1.73424637317657,-3.8502836227417,27.7751331329346,19.6276664733887,13.1896572113037,29.2164440155029,26.5277557373047,18.6939277648926,-0.53151279687881,-6.41885471343994,-6.27999114990234,-2.03784656524658,-3.29073119163513,-3.46910381317139,-0.22846360504627,-0.0824668109417,0.40500366687775,-5.11416387557983,-5.77878522872925,-6.06833553314209,7.40766000747681,2.58094954490662,-8.94234371185303,9.31583881378174,-1.88423669338226,-15.8951053619385,-1.17076468467712,8.16183376312256,17.3795108795166,-2.40925264358521,-0.42332962155342,1.85825204849243,0.82466810941696,0.33841934800148,-0.88453286886215,-5.31391668319702,-1.78128302097321,3.11724543571472,-31.2491207122803,-41.6615028381348,-25.5557098388672,-24.1024284362793,-23.9635639190674,-21.7752647399902,22.4073333740234,23.7887878417969,16.7570171356201,SHAKE
-3.87777256965637,-3.53019022941589,-1.46363317966461,0.04703662544489,1.42942464351654,1.69087505340576,-6.43790864944458,-6.0206880569458,-1.72997033596039,-5.832275390625,-36.1716003417969,-41.3550453186035,-21.4041633605957,-26.0225791931152,-23.9922943115234,15.0499515533447,22.9005393981934,23.8199119567871,1.16614174842834,2.81853222846985,2.96086382865906,-0.21868975460529,-0.99815380573273,-0.73426002264023,3.4202344417572,5.68898820877075,5.9650993347168,-18.5502738952637,-2.30801033973694,3.76607918739319,-20.8487091064453,-11.8512983322144,-0.47405192255974,16.0818519592285,6.61517906188965,-0.15801730751991,1.95354700088501,1.3878858089447,1.62306892871857,0.08124507963657,0.47158795595169,0.1777617931366,5.76290273666382,4.59920454025269,1.98592293262482,13.4123182296753,23.9899005889893,22.0601749420166,11.3509101867676,22.5677452087402,28.4359340667725,0.89782565832138,2.90895509719849,1.87944829463959,2.12153506278992,1.84786736965179,0.41722095012665,-0.58276546001434,-1.13682019710541,-1.20768058300018,-0.66278880834579,-2.64015960693359,-4.17648553848267,17.2119159698486,13.184868812561,9.03332328796387,27.020959854126,21.380220413208,13.8648223876953,-3.42610263824463,-7.72130060195923,-7.33583402633667,-1.64872527122498,-3.73605179786682,-5.31147336959839,-1.00487327575684,-0.57848936319351,0.67317348718643,-5.2436671257019,-5.96265554428101,-6.16240882873535,5.21217727661133,-3.24893164634705,-29.6857070922852,3.07894349098206,-14.0826940536499,-23.8773727416992,-3.41652584075928,3.15076947212219,16.1393127441406,-4.71649074554443,-1.45752441883087,1.99875104427338,1.57664322853088,0.28283059597015,-1.18630027770996,-3.43550610542297,1.33290791511536,5.02681016921997,-40.500316619873,-29.515718460083,-9.71327590942383,-24.2963581085205,-22.6563301086426,-17.5686511993408,27.4183979034424,24.9882831573486,12.3588695526123,3.11968874931335,1.76723313331604,0.07086037099361,-1.30053210258484,-0.28466320037842,0.98654735088348,6.10010051727295,6.07749843597412,5.62118196487427,-1.27132105827332,6.45716190338135,19.7521648406982,-6.50744009017944,6.33505773544312,18.1791744232178,0.43335050344467,-0.61530983448029,5.8514289855957,0.12583823502064,0.41233405470848,-0.11789698898792,0.69821900129318,0.30054569244385,0.2119702398777,3.56195521354675,0.31398472189903,-2.31701183319092,26.9994125366211,20.942081451416,15.1409311294556,26.6594352722168,27.576416015625,21.9763774871826,2.09492659568787,-2.58094954490662,-1.92733240127563,-0.94439768791199,-1.68598806858063,-2.48499989509583,0.16982053220272,-0.17409659922123,-0.00671951752156,-4.01888227462769,-5.11416387557983,-5.94921684265137,9.74440097808838,5.65031623840332,-5.832275390625,13.9318599700928,1.37906014919281,-15.7490587234497,1.20907187461853,3.9073371887207,9.21288776397705,-2.95719861984253,-1.76845490932465,1.07512283325195,0.65790188312531,0.68966686725616,-0.47769662737846,-6.02374219894409,-2.79531931877136,2.58823609352112,-33.6098022460938,-41.9464149475098,-25.3067111968994,-23.3841686248779,-23.1974201202393,-21.8782157897949,19.8934211730957,25.6682357788086,16.9892559051514,SHAKE
-2.48499989509583,-2.95719861984253,-1.76845490932465,-0.00671951752156,0.65790188312531,0.68966686725616,-5.94921684265137,-6.02374219894409,-2.79531931877136,-5.832275390625,-33.6098022460938,-41.9464149475098,-15.7490587234497,-23.3841686248779,-23.1974201202393,9.21288776397705,19.8934211730957,25.6682357788086,1.07512283325195,3.04455232620239,3.27607035636902,-0.47769662737846,-0.90346968173981,-0.73303830623627,2.58823609352112,6.20883417129517,6.82458639144897,-25.3067111968994,-2.58573794364929,3.56975483894348,-21.8782157897949,-15.6221656799316,-3.06457805633545,16.9892559051514,7.58483076095581,1.0989385843277,2.36954617500305,1.14598321914673,0.97249746322632,-0.09529497474432,0.61941736936569,0.43799036741257,6.36521577835083,5.33041000366211,3.00301361083984,13.4530191421509,22.4216995239258,24.6866130828857,10.0771951675415,21.1695308685303,25.8789253234863,-0.76614451408386,2.37265396118164,2.34631776809692,1.56503677368164,1.38483154773712,-0.11667526513338,-0.5583308339119,-1.44225287437439,-1.19424152374268,0.01343903504312,-2.44651532173157,-4.21619176864624,19.278112411499,15.5216093063354,10.8050327301025,24.8757553100586,19.6540012359619,12.3205623626709,-4.32153415679932,-8.7292594909668,-7.38611221313477,-2.37321138381958,-4.66212368011475,-4.04637145996094,-0.44898596405983,0.47036623954773,0.9211847782135,-5.39455080032349,-6.48311281204224,-6.23571252822876,6.29196214675903,-2.41814374923706,-26.5397262573242,1.93451499938965,-12.7347583770752,-23.5421848297119,0.05985504388809,13.2231760025024,24.4687404632568,-1.42820298671722,1.5845844745636,3.20948600769043,0.91446524858475,-0.12278391420841,-0.57299160957336,-2.65909647941589,2.5491406917572,5.90340185165405,-42.3223037719727,-31.6465587615967,-10.321403503418,-22.6587257385254,-21.571756362915,-17.3268375396729,27.1526412963867,19.1847381591797,10.0436763763428,3.38113903999329,2.54852986335754,1.87657809257507,-0.60048055648804,-0.12278391420841,0.22357667982578,6.45928907394409,5.98037052154541,5.64561653137207,1.29765737056732,3.41652584075928,12.033257484436,-9.3637228012085,0.55306059122086,9.95269680023193,2.64080452919006,0.70150107145309,2.2553379535675,1.80144155025482,1.31152772903442,0.47647488117218,0.07696902006865,0.05070181563497,-0.11728613078594,4.23512887954712,1.74157679080963,-0.69516462087631,21.0450325012207,21.8016014099121,17.9205989837646,19.8287792205811,25.543737411499,25.1415119171143,-2.87064790725708,-6.34463453292847,-7.46033239364624,-0.66401052474976,-1.82587623596191,-2.9969048500061,-0.39400807023048,-0.56749379634857,-0.36957347393036,-2.573575258255,-3.81179904937744,-4.5204029083252,12.8281326293945,8.31266784667969,4.85304689407349,20.0610160827637,13.0220632553101,5.77481460571289,-5.36301183700562,-2.53306531906128,2.62165093421936,-3.76170825958252,-3.70795202255249,-2.61205983161926,0.020158553496,0.29260444641113,0.53633970022202,-4.99199056625366,-5.65172529220581,-4.96205854415894,3.63918662071228,-7.4770917892456,-31.2371501922607,-4.72376012802124,-17.3531742095947,-22.7401275634766,9.543288230896,17.4321823120117,21.0498218536377,SHAKE
-3.70795202255249,-2.61205983161926,-0.74953162670135,0.29260444641113,0.53633970022202,0.42882740497589,-5.65172529220581,-4.96205854415894,-1.03847086429596,-7.4770917892456,-31.2371501922607,-41.5633430480957,-17.3531742095947,-22.7401275634766,-21.3562793731689,17.4321823120117,21.0498218536377,21.3155784606934,1.16247653961182,2.00485968589783,2.04945278167725,-0.08491026610136,-0.31764993071556,-0.42943826317787,4.02193689346313,6.37682247161865,6.11598300933838,-20.9253234863281,-0.16759411990643,3.88339519500732,-19.9389114379883,-12.6820859909058,-0.83078801631927,14.0994539260864,8.73165321350098,3.36145925521851,1.33779489994049,1.02319931983948,1.85886299610138,0.2138028293848,0.6010913848877,-0.20036379992962,5.69387483596802,4.6248607635498,2.2534818649292,11.4682264328003,21.1982612609863,24.6890087127686,11.1761331558228,21.6076698303223,27.492618560791,2.55221891403198,4.90811347961426,1.76452660560608,2.51554298400879,1.3078625202179,-1.50333940982819,-1.4611896276474,-1.80816113948822,-0.76907932758331,-0.64812803268433,-3.14168000221252,-4.68716907501221,22.1463661193848,15.8663749694824,9.59596061706543,27.0161724090576,21.7728710174561,13.3596458435059,-7.80270338058472,-13.8672161102295,-7.508216381073,-3.87655091285706,-4.55766582489014,-3.38419342041016,0.05375614017248,0.33903020620346,0.29199358820915,-5.45563745498657,-5.80077648162842,-5.96998596191406,4.31913995742798,-0.1723825186491,-17.4321823120117,2.58813214302063,-11.142614364624,-24.3226947784424,6.04296493530273,19.1320667266846,27.576416015625,-0.87048298120499,1.52838480472565,2.95047903060913,0.5155702829361,0.42699480056763,0.00610865233466,-4.14472055435181,0.77091193199158,4.81422901153564,-39.8826103210449,-32.1708869934082,-10.0867719650269,-25.4431819915771,-23.3578319549561,-18.1600208282471,25.6059875488281,18.5766105651855,9.38766479492188,3.09281063079834,2.3933699131012,1.58275187015533,-0.17226399481297,0.0745255574584,0.56688296794891,5.90523433685303,5.73968982696533,5.34507083892822,0.58418524265289,5.93522596359253,16.9365825653076,-7.6877818107605,4.69502973556519,16.5535106658936,2.42532634735107,-0.50996494293213,-1.56580793857574,1.1911872625351,0.92057394981384,0.23884831368923,0.54489177465439,-0.03176499158144,-0.68661254644394,3.60166144371033,0.66462141275406,-1.7678439617157,24.751256942749,19.7521648406982,14.3316917419434,25.1750316619873,27.3872737884521,23.1974201202393,-4.07493114471436,-7.07486581802368,-7.81228017807007,-0.9957103729248,-2.2968533039093,-3.43733882904053,-0.64629542827606,-0.59681534767151,-0.30604347586632,-3.36403489112854,-4.3304238319397,-4.95839309692383,9.23682975769043,5.87297677993774,2.70784211158752,16.429012298584,7.73087739944458,-4.75488471984863,-4.10126733779907,1.24259066581726,9.73003578186035,-3.78492116928101,-2.53509068489075,-0.3805690407753,0.34574973583221,0.68600165843964,0.50396382808685,-5.58025407791138,-4.71587991714478,-1.02930796146393,-12.8544692993164,-33.5451583862305,-36.1979370117188,-18.1743850708008,-23.4990901947021,-22.9340572357178,20.7960357666016,24.3418483734131,21.710620880127,SHAKE
-4.77085733413696,-4.69388866424561,-2.62610960006714,0.40072759985924,0.88697636127472,1.10872042179108,-5.83254146575928,-6.09582424163818,-3.59188771247864,-5.5832781791687,-29.1972904205322,-39.207447052002,-15.3324680328369,-22.0625686645508,-21.7872352600098,14.3843641281128,25.1798191070557,27.6123275756836,1.89429306983948,3.10991501808167,2.80631494522095,-0.47891834378242,-0.89003068208694,-0.36163222789764,3.31577658653259,5.45869159698486,5.86491727828979,-22.448034286499,-6.30153894424438,0.63925182819366,-20.2501583099365,-13.2040224075317,-2.78445649147034,18.2438163757324,8.98065090179443,1.64721071720123,1.62490153312683,0.99021255970001,1.45935702323914,0.4239404797554,0.52534413337708,-0.18753562867641,5.70792484283447,4.43549251556396,2.01524448394775,10.5177278518677,19.7737121582031,23.166296005249,8.9471321105957,19.3858509063721,25.110387802124,0.97683429718018,3.99113416671753,3.57454323768616,2.01952052116394,1.32924282550812,-0.73548173904419,-1.09405970573425,-1.28037357330322,-0.79717916250229,-0.66645395755768,-2.72934579849243,-4.10134935379028,19.0171432495117,14.1856451034546,9.01177501678467,24.4615592956543,19.8335666656494,12.9981212615967,-3.54341840744019,-9.37329959869385,-8.92079544067383,-3.0659327507019,-4.46786832809448,-4.18198347091675,-0.30115658044815,0.43066000938416,0.76297068595886,-4.92357397079468,-5.6614990234375,-5.56070613861084,5.33906984329224,-2.89937829971313,-26.2835464477539,3.11006808280945,-12.0236806869507,-20.6404132843018,-0.90979665517807,11.2742958068848,23.4224758148193,-1.934610247612,0.93706727027893,2.76538705825806,0.81183993816376,0.00977384392172,-0.74097955226898,-2.36710286140442,2.45934343338013,5.47335243225098,-39.9113426208496,-28.2827053070068,-8.59757804870605,-21.823148727417,-20.7696990966797,-15.842432975769,26.6618309020996,20.8846206665039,11.5783596038818,3.01706337928772,2.3591616153717,2.05922675132751,-0.78679442405701,0.00977384392172,0.19547687470913,6.07016801834106,6.1037654876709,5.37866830825806,-0.40701428055763,7.78115558624268,18.2246627807617,-6.31590414047241,4.2951979637146,15.1457195281982,4.67587614059448,3.6152446269989,1.60411512851715,2.05739402770996,1.58763873577118,0.1246165111661,-0.32314771413803,-0.81855940818787,-0.59559363126755,3.36525654792786,0.63468897342682,-1.76845490932465,24.6459121704102,22.1296062469482,17.1664257049561,23.7552700042725,25.9890594482422,21.2700881958008,-3.58412003517151,-10.0508584976196,-12.0141038894653,-1.91933858394623,-3.46238422393799,-4.19297885894775,0.03604105114937,0.28955012559891,0.37873646616936,-3.56378793716431,-4.76780319213867,-5.39882707595825,11.5352640151978,5.48990440368652,-1.20907187461853,13.3668279647827,4.11802673339844,-7.60398483276367,-6.09324312210083,2.27688574790955,11.7627124786377,-3.84784007072449,-2.05189633369446,0.07819075137377,0.79717916250229,1.37017071247101,0.74647730588913,-5.4538049697876,-3.3402111530304,1.50883710384369,-18.0546741485596,-39.3103981018066,-31.8093643188477,-19.4433116912842,-21.1240425109863,-20.2956485748291,21.6986503601074,23.6211948394775,16.4745025634766,SHAKE
-1.96881866455078,-1.04824471473694,0.90774577856064,0.45998153090477,0.68905597925186,0.35979962348938,-5.9315013885498,-5.16242218017578,-1.84053695201874,-9.00938129425049,-29.6402168273926,-37.4429206848145,-14.3269033432007,-20.8151893615723,-20.7960357666016,16.2686004638672,21.7034378051758,17.7410354614258,2.40619826316834,2.89672303199768,2.62549877166748,-0.53328537940979,-0.90346968173981,-0.62735861539841,2.66642689704895,5.18930006027222,5.4336462020874,-21.3251552581787,-4.97036266326904,-1.09415018558502,-18.0211563110352,-10.6661682128906,-0.71347212791443,11.0468463897705,5.57370138168335,2.06140756607056,1.94377315044403,1.78372657299042,1.70920097827911,-0.07635815441608,-0.02076941914856,-0.22602014243603,5.52161073684692,4.88203525543213,2.60717296600342,8.44913768768311,21.4592304229736,26.1758079528809,9.99339771270752,20.475212097168,26.5421199798584,2.49475812911987,-0.63925182819366,-4.40772533416748,1.258993268013,0.12889257073402,-1.62429070472717,-0.45631635189056,-0.70799279212952,-0.49602258205414,-0.44837507605553,-2.88084053993225,-4.48924875259399,20.779275894165,14.3532390594482,10.8720703125,25.6826019287109,19.32839012146,10.0939540863037,-8.23844814300537,-8.44434928894043,-3.71580100059509,-3.42756485939026,-4.2723913192749,-3.61326789855957,-0.0598647929728,0.45020768046379,0.49907690286636,-5.59857988357544,-6.27175331115723,-5.8447585105896,5.20499467849731,-7.13950967788696,-29.3768539428711,-1.48440504074097,-15.6892032623291,-23.1854496002197,6.2201361656189,17.0323505401611,26.8150596618652,-1.1233811378479,1.91200816631317,3.30661368370056,0.26328292489052,-0.22785273194313,-0.55710911750793,-2.69391584396362,2.18262147903442,5.40127038955688,-38.872257232666,-23.5948581695557,-4.77403831481934,-22.7904052734375,-20.4273281097412,-13.4075298309326,26.9682884216309,14.9134826660156,3.52905321121216,2.78615641593933,1.20584797859192,-0.07269296050072,-0.51068335771561,0.31398472189903,1.21745443344116,5.95227098464966,5.88690853118896,5.39271831512451,1.74537301063538,9.51695156097412,21.7632942199707,-2.04464817047119,9.2631664276123,20.5829524993896,-2.13802218437195,-1.83395850658417,3.28245043754578,0.02443460933864,0.88270026445389,0.94439768791199,0.84238314628601,-0.28710666298866,-0.57482421398163,3.28523325920105,0.20402899384499,-2.08854818344116,25.3617782592773,18.9548950195313,14.0228395462036,26.9227981567383,26.2859401702881,20.34592628479,4.10605573654175,-0.46208092570305,-4.19224739074707,-0.24923302233219,-1.82037842273712,-2.72873497009277,-0.02382374368608,0.24556782841682,0.91935217380524,-3.63037204742432,-4.71893405914307,-5.48618078231812,9.83777523040772,5.22893667221069,-5.32949304580688,12.4929447174072,3.03824186325073,-9.23922443389893,-1.09415018558502,5.96395635604858,14.7387056350708,-2.43796324729919,-0.80145519971848,2.37870931625366,1.60413217544556,1.46729826927185,-0.48319441080093,-5.59552574157715,-3.433673620224,4.05309104919434,-29.9299163818359,-37.9121856689453,-10.2591543197632,-18.210298538208,-18.8184261322021,-11.55202293396,21.4400768280029,19.6228771209717,6.32548093795776,SHAKE
-0.24923302233219,-1.82037842273712,-2.72873497009277,-0.02382374368608,0.24556782841682,0.91935217380524,-3.63037204742432,-4.71893405914307,-5.48618078231812,9.83777523040772,5.22893667221069,-5.32949304580688,12.4929447174072,3.03824186325073,-9.23922443389893,-1.09415018558502,5.96395635604858,14.7387056350708,-2.43796324729919,-0.80145519971848,2.37870931625366,1.60413217544556,1.46729826927185,-0.48319441080093,-5.59552574157715,-3.433673620224,4.05309104919434,-29.9299163818359,-37.9121856689453,-10.2591543197632,-18.210298538208,-18.8184261322021,-11.55202293396,21.4400768280029,19.6228771209717,6.32548093795776,2.57846212387085,1.82465445995331,1.2901474237442,-0.60658919811249,-0.24190263450146,-0.14538592100143,5.31635999679565,5.56742572784424,5.10622262954712,-1.53947174549103,8.0924015045166,18.0570697784424,-3.40455484390259,6.61517906188965,17.226282119751,0.55784898996353,1.32399356365204,1.46046304702759,1.7256942987442,0.09651670604944,-2.02135300636292,-0.7177666425705,-1.14720487594604,-0.46975538134575,1.1233811378479,-2.54181027412415,-4.18198347091675,21.818359375,16.541540145874,11.5185041427612,25.8334369659424,20.7122383117676,12.619836807251,-8.54490566253662,-10.6350440979004,-4.88895988464355,-3.51552939414978,-3.5668420791626,-2.38359618186951,0.27488934993744,0.40744712948799,0.79962259531021,-5.29742336273193,-5.99686431884766,-5.73663568496704,5.91607236862183,-3.22498965263367,-23.874979019165,3.36145925521851,-8.07085418701172,-19.2110748291016,6.51701688766479,17.2837429046631,22.6754837036133,-0.43371433019638,1.95232534408569,3.44711256027222,1.43370068073273,0.06414084881544,-0.57971113920212,-2.76844120025635,2.35610723495483,5.92661476135254,-43.2344932556152,-35.3216590881348,-11.1689510345459,-22.064962387085,-21.2198104858398,-16.5606937408447,25.0505332946777,20.0059490203857,10.5560350418091,3.34082198143005,2.04028987884521,1.0812314748764,-0.0500909499824,0.88819807767868,1.28159523010254,6.55336236953735,6.21127796173096,5.06101846694946,1.50834703445435,11.8967885971069,21.3610668182373,-6.2584433555603,6.76122570037842,18.5933704376221,1.6448165178299,-2.39420175552368,0.49081134796143,1.61268424987793,2.09038090705872,0.92362827062607,0.41233405470848,-0.7617489695549,-1.38849675655365,2.92115759849548,0.1814269721508,-2.23637771606445,26.5229663848877,23.4392337799072,18.3252201080322,25.1486949920654,26.2356624603271,21.710620880127,-2.76769709587097,-11.374852180481,-16.8695449829102,-1.59741258621216,-3.5857789516449,-4.14533138275146,-0.83322018384933,-0.10812314599752,0.45570546388626,-3.99200439453125,-5.16669845581055,-5.89118432998657,12.634202003479,6.95755004882813,-2.77009129524231,14.238317489624,4.88656568527222,-6.37336492538452,-9.78749656677246,2.52588272094727,14.6046304702759,-3.31577658653259,-1.29931032657623,0.86987209320068,0.68416905403137,0.67928212881088,-0.01160643994808,-5.74091148376465,-2.7769935131073,2.39092659950256,-25.2253093719482,-44.089225769043,-35.6329040527344,-16.8886985778809,-21.1862907409668,-21.2006568908691,22.9508171081543,23.3267078399658,14.578293800354,SHAKE
-2.45445656776428,-2.62549877166748,-1.88513016700745,0.097127571702,0.09224065393209,0.34086281061172,-5.41532039642334,-6.18134546279907,-5.23816967010498,4.39096593856812,-13.6565265655518,-40.4260940551758,-1.24977326393127,-15.8448266983032,-19.8455371856689,8.4132251739502,15.4354181289673,20.0562267303467,-0.03115412779152,1.85641944408417,2.55402755737305,0.50701814889908,-0.10079276561737,-0.59925878047943,-0.7489207983017,3.97856545448303,6.19173002243042,-38.8339500427246,-17.300500869751,-1.20907187461853,-19.6779441833496,-16.6756153106689,-8.22647666931152,17.6979389190674,8.20732307434082,0.97444009780884,2.20583438873291,1.37139248847961,1.29564523696899,-0.75747293233871,-0.02138028293848,-0.05803219974041,6.17218255996704,5.9760947227478,4.63096952438354,5.38934803009033,17.9804553985596,28.5939502716064,3.45243883132935,15.227123260498,26.8342132568359,-1.37427175045013,0.41898530721664,-2.74136090278625,1.18996548652649,0.07391469180584,-1.3756685256958,-0.89797192811966,-1.0445796251297,-0.11911872029305,1.76478970050812,-1.31397116184235,-3.67435455322266,28.531702041626,23.1303825378418,15.5623111724854,31.1940536499023,26.3864974975586,16.9772834777832,-7.22091245651245,-5.2672438621521,1.1180921792984,-2.19361710548401,-2.13986086845398,-1.40926611423492,0.02809980139136,-0.40011674165726,-0.4459316432476,-5.2705454826355,-6.0658917427063,-6.31390333175659,8.03733539581299,-0.63925182819366,-21.9476470947266,6.20337677001953,-7.7069354057312,-19.0386924743652,9.5600471496582,15.44020652771,16.9102458953857,-0.35613444447517,1.55220854282379,3.37747383117676,0.53450709581375,0.92240649461746,-0.24556782841682,-4.60836744308472,0.17348572611809,4.79773569107056,-42.2073822021484,-35.9226036071777,-12.7610950469971,-19.8192024230957,-19.0554504394531,-15.5958299636841,17.0155906677246,8.391676902771,-4.51785850524902,3.24735975265503,1.31336033344269,-1.08734011650085,-1.12765729427338,-1.26815629005432,-0.38851028680801,6.6217794418335,6.28458166122437,5.34079504013062,3.44525623321533,12.9765729904175,23.2429103851318,-3.95043277740479,9.81143856048584,21.8566665649414,-11.6693391799927,-6.99825143814087,7.6877818107605,-1.64506006240845,-0.04031710699201,1.43614423274994,0.23029619455338,-0.06963863968849,-0.7061602473259,3.36586761474609,0.43799036741257,-2.37870931625366,29.3505191802979,24.1742553710938,15.7825775146484,29.4127674102783,28.117504119873,21.5238723754883,19.0458736419678,13.3835878372192,3.33033466339111,1.16369831562042,0.46547931432724,0.20463985204697,-0.33964106440544,-0.26328292489052,-0.71410149335861,-3.96512627601624,-4.99015808105469,-5.65966653823853,11.0372695922852,5.32949304580688,-6.09563732147217,12.5097036361694,2.00394678115845,-10.8409452438354,2.99993467330933,5.57130718231201,3.7541081905365,-0.36590829491615,-0.68477994203568,0.46120324730873,-0.36713001132011,0.93279123306274,1.09467053413391,-5.60896444320679,-2.92115759849548,1.92666900157928,-30.0639915466309,-39.0087280273438,-23.0896816253662,-16.0938243865967,-14.8320798873901,-13.8791875839233,6.28477954864502,10.0484647750854,6.14591598510742,SHAKE
2.08977007865906,2.6645941734314,1.09222710132599,-0.67011916637421,-1.58214104175568,-1.70309233665466,5.66333150863647,6.43057823181152,5.97365140914917,-9.96227359771728,4.10605573654175,14.3197202682495,-12.6389904022217,0.35913026332855,18.5430927276611,0.77332717180252,-8.10916137695313,-8.97825622558594,-1.37322509288788,-2.17284774780273,-1.07512283325195,-0.64324110746384,0.81794857978821,1.55770635604858,4.71649074554443,1.20096111297607,-2.29074478149414,32.7670440673828,32.1900405883789,17.8368034362793,30.8014049530029,33.9138679504395,26.3984680175781,4.69024133682251,14.30774974823,20.0562267303467,1.39643800258636,2.16796064376831,0.91141092777252,0.18997909128666,-0.83138757944107,-0.77763146162033,-3.98284149169922,-4.69266700744629,-5.28459501266479,9.70848751068115,6.41885471343994,-3.76129078865051,14.7626476287842,3.09330868721008,-8.67898082733154,7.25682544708252,-3.3423056602478,-6.90966606140137,-0.98593652248383,-1.32313406467438,0.36346483230591,0.64568454027176,1.62734496593475,0.27733281254768,-4.82705736160278,-1.80938291549683,2.45995426177979,-25.2540397644043,-35.7119140625,-22.857442855835,-14.3101434707642,-13.7259578704834,-13.3117618560791,-1.70946002006531,6.32548093795776,2.96881008148193,1.81426978111267,1.98592293262482,0.32009339332581,-0.92790430784225,-1.5112806558609,-1.55648469924927,5.02742099761963,5.46602201461792,5.52466535568237,-5.41089582443237,2.50672912597656,16.3164844512939,-6.55292987823486,6.76122570037842,22.2445278167725,-2.85628271102905,-9.105149269104,-3.16752886772156,-1.54304563999176,-1.46363317966461,-0.7177666425705,-1.28709304332733,0.52534413337708,2.573575258255,4.29316091537476,0.09407325088978,-3.14656686782837,40.3423004150391,28.2898864746094,12.540828704834,32.4557991027832,31.6393756866455,22.3977565765381,14.7818012237549,14.8153200149536,13.4530191421509,0.89369583129883,2.24492979049683,1.96026659011841,1.56014978885651,-0.87170469760895,-1.53632605075836,-4.33347797393799,-4.70244073867798,-4.9492301940918,6.02141714096069,3.24893164634705,-5.44920301437378,11.5999069213867,0.29688102006912,-8.91840171813965,8.19774627685547,-1.07499659061432,-7.74045419692993,0.23701570928097,-1.09833574295044,-0.34330627322197,-0.5589417219162,0.65362578630447,0.43799036741257,-4.44954252243042,-2.18139982223511,1.38483154773712,-21.3371257781982,-31.3831958770752,-25.4048748016357,-13.6708917617798,-13.962984085083,-12.7850370407104,-5.99986934661865,2.71741890907288,3.38779544830322,1.03969264030457,1.53999125957489,0.80267691612244,-0.69760811328888,-1.4056009054184,-1.79044604301453,4.37013006210327,5.65661239624023,5.72563982009888,-10.0245227813721,2.59531474113464,17.6237182617188,-7.35498762130737,4.03662395477295,21.576545715332,-1.13485157489777,-4.2760443687439,-4.86980628967285,-1.06473815441132,-2.00363802909851,-0.97433006763458,-0.94684112071991,0.82039201259613,1.842369556427,4.49169206619263,0.90102624893188,-2.43613052368164,35.6472702026367,27.9858245849609,14.140154838562,32.3935508728027,32.8795738220215,24.7680168151855,7.05810642242432,16.0459403991699,15.631742477417,SHAKE
1.99264240264893,1.41659653186798,-0.13744467496872,-0.82711154222488,-0.77335542440414,-0.62247169017792,4.74214696884155,5.33041000366211,5.24855422973633,-2.92571449279785,6.72531270980835,29.1757411956787,0.86670100688934,16.1417083740234,30.2866516113281,-5.5832781791687,-5.15232229232788,4.1347861289978,-0.84177231788635,-0.601702272892,0.35735616087914,-0.54672437906265,0.96577793359756,1.5668693780899,2.7458393573761,-1.33657312393188,-3.78675365447998,35.4964332580566,20.0346794128418,8.99740982055664,36.0830154418945,29.1015224456787,17.0275630950928,8.91840171813965,8.08282470703125,4.2449197769165,1.61329507827759,2.1600193977356,0.76480329036713,0.07635815441608,-1.68049025535584,-1.91445171833038,-4.65967988967896,-4.79162693023682,-4.88631105422974,3.87621259689331,0.51954174041748,-11.3652753829956,6.77798509597778,-3.93367338180542,-13.4673843383789,-1.37666594982147,-8.9088249206543,-9.66299819946289,-1.8112154006958,-2.47705864906311,-0.77702057361603,-0.10384709388018,1.9223929643631,0.8906415104866,-4.18992471694946,-1.17102873325348,3.02866983413696,-31.2946109771729,-35.4964332580566,-19.6803379058838,-15.8687686920166,-15.10023021698,-12.7371530532837,1.24019646644592,8.85136413574219,5.58088397979736,0.95722585916519,1.65605568885803,0.8228355050087,-0.37812557816505,-0.84849184751511,-0.75564032793045,5.79894399642944,6.37804412841797,5.98586845397949,-2.59052634239197,8.36773490905762,25.7544269561768,-5.18344688415527,10.6972932815552,29.0919456481934,0.78290396928787,-5.20738887786865,-3.43567943572998,-1.04885566234589,-1.72874867916107,-0.41599923372269,-0.39400807023048,0.7061602473259,1.29136908054352,4.24307012557983,0.35979962348938,-2.92604446411133,36.2099075317383,24.6866130828857,12.9382658004761,36.3798942565918,31.1270160675049,20.4225406646729,5.65031623840332,12.7706718444824,6.38533592224121,0.98532563447952,1.75257241725922,1.32741022109985,0.54733526706696,-0.93462383747101,-1.69698369503021,-4.52590036392212,-5.06285095214844,-5.04452514648438,5.54497098922729,0.19871874153614,-7.80270338058472,9.60314273834228,-0.37349545955658,-8.20492935180664,1.27132105827332,-4.26886177062988,-6.21295356750488,-0.00855211354792,-1.1301007270813,-0.0274889357388,-1.18996548652649,0.55161130428314,0.03420845419168,-4.37318420410156,-1.27426493167877,1.87535631656647,-19.1033344268799,-27.9738521575928,-25.356990814209,-12.8568630218506,-13.3069734573364,-11.2168350219727,-3.8690299987793,3.2968156337738,4.2760443687439,1.30480813980103,1.74768543243408,0.87353730201721,-0.8356636762619,-1.2156218290329,-1.48806774616241,4.52406787872314,5.78306150436401,6.01030302047729,-13.3572511672974,-0.78529816865921,15.6413192749023,-6.30153894424438,4.17309379577637,21.7824478149414,0.59136784076691,-4.46997451782227,-1.0223240852356,-0.22052235901356,-1.12215948104858,-1.03297317028046,-1.5045610666275,0.15699236094952,1.56503677368164,4.42632961273193,0.50213122367859,-2.89489030838013,35.8962669372559,31.2730617523193,14.9877023696899,33.1501159667969,32.6473350524902,22.620418548584,1.90578460693359,4.25689077377319,7.27358484268188,SHAKE
1.43064641952515,1.67315995693207,0.38851028680801,-0.55955255031586,-0.69699722528458,-0.51862460374832,3.59555292129517,4.96328020095825,5.32246875762939,-13.6158246994019,-0.59855043888092,17.1975517272949,-4.06774854660034,6.31590414047241,22.1918563842773,0.05985504388809,-7.35977602005005,-5.86339998245239,-0.93523466587067,-1.09467053413391,-1.07329022884369,-0.59803706407547,-0.03604105114937,1.34817957878113,3.93885898590088,0.05436700582504,-3.23453140258789,37.2920875549316,29.1398296356201,11.1881046295166,32.1086387634277,29.9754047393799,18.7753295898438,3.35427665710449,3.33751726150513,2.34392356872559,-0.75258600711823,-0.15393804013729,0.29504790902138,1.07817721366882,-0.35369098186493,-0.7739662528038,-4.41655588150024,-4.29193925857544,-3.72994327545166,-0.37110126018524,-5.79636240005493,-11.939884185791,8.36773490905762,-0.40701428055763,-6.67742872238159,2.34152936935425,0.77572137117386,-0.98401689529419,0.48380526900291,0.40317106246948,0.50823986530304,-0.50029861927032,-0.30482175946236,-0.06352998316288,-2.70552206039429,-0.79473567008972,1.97553825378418,-20.5183086395264,-27.2244682312012,-23.8103351593018,-10.1705684661865,-10.433931350708,-8.34139919281006,-2.51870012283325,-1.49158763885498,0.82121115922928,0.96089100837708,1.03358399868011,0.24495697021484,0.10629054903984,-0.1795943826437,-0.69944071769714,4.4550404548645,5.46785497665405,5.48373746871948,-9.86650562286377,5.04697704315186,27.7583751678467,-2.65995812416077,12.7682781219482,29.5085353851318,-1.10133278369904,-4.44363832473755,-0.05985504388809,-0.31276300549507,-0.54183745384216,-0.60720002651215,-0.84116142988205,0.46364670991898,1.41598558425903,3.41351509094238,-1.314581990242,-4.46725749969482,44.6662254333496,26.7073192596436,8.15225696563721,35.7885284423828,27.7894992828369,14.8081378936768,2.1475989818573,0.91458505392075,0.86191260814667,-0.14966198801994,0.57543504238129,1.00731682777405,0.76297068595886,-0.74036866426468,-1.48256993293762,-5.29620170593262,-4.81422901153564,-3.96390461921692,-3.50750541687012,-9.20091724395752,-17.0275630950928,4.37420654296875,-3.97916316986084,-9.33978080749512,0.40222588181496,-1.81959331035614,-4.71418333053589,1.02869701385498,1.11543989181519,1.30541908740997,-1.51005887985229,-1.42820298671722,-1.18813288211823,-2.44468259811401,-0.0421497002244,2.65115523338318,-24.475923538208,-25.6371116638184,-18.1432609558105,-10.9965686798096,-10.1035308837891,-6.13873338699341,-4.22337198257446,-3.42131423950195,-4.00071096420288,1.22600650787354,0.5283984541893,-0.1069014146924,-1.16736352443695,-1.24494338035584,-1.97492730617523,4.67861700057983,5.66699695587158,5.37744665145874,-5.37737703323364,11.7387704849243,36.4229888916016,2.67671751976013,17.6763916015625,29.6138801574707,-6.56729507446289,-2.46123933792114,3.41413164138794,-0.13072516024113,-0.53511798381805,-0.97616267204285,-2.14047193527222,-0.2461786866188,1.30419731140137,2.33411622047424,-1.90101265907288,-4.40189504623413,38.6256561279297,20.5781631469727,5.67904663085938,31.2323608398438,21.272481918335,9.2631664276123,1.17076468467712,0.59615623950958,1.65439331531525,SHAKE
0.58459806442261,1.28098440170288,1.35734260082245,0.13561208546162,-0.23396138846874,-0.66462141275406,2.15818691253662,4.40128421783447,5.57719945907593,-21.7776584625244,-9.39005947113037,5.7628436088562,-7.86974096298218,-2.16435837745667,12.3732347488403,0.17477671802044,-2.33434677124023,-3.98634576797485,0.65545839071274,-0.18753562867641,-0.85643309354782,-1.16736352443695,-1.1001683473587,0.71959924697876,5.89912557601929,4.0512580871582,-1.32313406467438,33.0998382568359,51.5016746520996,26.6498584747314,27.1023635864258,32.1277923583984,23.2788238525391,-0.11252748221159,0.14125789701939,-0.59136784076691,-1.51066970825195,-1.23150432109833,-0.2138028293848,2.7947084903717,2.79898452758789,1.23272609710693,-4.83805274963379,-5.73419189453125,-5.2772650718689,5.26006126403809,-7.07007741928101,-16.4122524261475,10.3956241607666,0.96486330032349,-5.96874475479126,1.45567464828491,1.98479318618774,-0.0454898327589,1.03541660308838,1.71958565711975,1.37872290611267,0.03665191307664,-0.43982297182083,-0.58215457201004,-4.00055646896362,-1.86863672733307,1.09711396694183,-25.8501949310303,-30.8492889404297,-25.3019237518311,-10.1609916687012,-11.2431707382202,-9.7013053894043,-5.90649557113647,-10.7164468765259,-10.5991306304932,0.55649822950363,-0.40072759985924,-1.55587375164032,-0.70738196372986,-0.80573123693466,-0.84543752670288,3.924809217453,5.58575201034546,6.74273061752319,-12.2487354278564,-2.59770894050598,24.229320526123,-5.00388145446777,6.12197351455688,20.1184768676758,-9.65581512451172,-6.07169532775879,8.48744487762451,-1.48684597015381,0.01160643994808,0.6444628238678,-1.34268176555634,-0.60353487730026,1.54426729679108,6.32062292098999,1.15758967399597,-3.69756722450256,57.204662322998,33.3871421813965,8.69095230102539,30.0208950042725,26.2524223327637,14.9589719772339,17.5638637542725,8.27914905548096,1.25456166267395,0.48930305242538,0.27794370055199,0.29321530461311,2.53753423690796,1.87046933174133,0.86132001876831,-5.06651639938354,-4.86187648773193,-3.8814377784729,-5.06134223937988,-14.3029613494873,-19.3762741088867,4.9990930557251,-2.55461311340332,-7.8266453742981,-2.99514627456665,-4.65193367004395,-5.75087261199951,0.81367248296738,1.17469382286072,0.96028017997742,0.43676865100861,-0.27366763353348,-1.01098203659058,-2.60228586196899,-0.52717667818069,2.3402247428894,-26.7671756744385,-27.6314811706543,-18.2318458557129,-9.53610515594482,-8.06845951080322,-4.06056594848633,-8.80347919464111,-9.84495735168457,-10.4602670669556,-0.60292398929596,-2.12642192840576,-2.38542866706848,-1.03236222267151,-1.23089349269867,-1.638951420784,5.47762870788574,6.09338092803955,3.97612190246582,-0.86430680751801,24.5716915130615,52.5287857055664,5.65749883651733,20.7122383117676,28.3593196868896,-9.13627338409424,2.67911171913147,13.1130428314209,-1.63772976398468,-1.0134254693985,-0.14049901068211,0.92973691225052,3.22109246253967,3.10075187683105,-1.33840572834015,-4.53200912475586,-5.32796669006348,33.2003936767578,10.0197343826294,-2.08774399757385,25.1870021820068,14.6118125915527,4.79558610916138,10.6925048828125,7.68299341201782,3.74453139305115,SHAKE
2.05861592292786,1.78128302097321,0.77579885721207,-0.04948008432984,-0.55161130428314,-0.57360243797302,-1.68782067298889,1.3567316532135,4.08668851852417,-30.3680534362793,-27.6458473205566,-13.3692226409912,-9.90960121154785,-9.65342140197754,-6.23210716247559,-10.0700120925903,-12.7587013244629,-12.0979013442993,-0.59498274326324,-1.94438409805298,-1.88085412979126,-0.85521131753922,-1.09772479534149,-1.67621421813965,5.28459501266479,5.75129652023315,5.04757928848267,-0.39504328370094,15.7275114059448,47.9965629577637,3.11485648155212,19.4026107788086,28.6705646514893,-9.31823348999023,4.50109910964966,15.1768445968628,-0.71226888895035,0.07635815441608,0.71532320976257,0.12278391420841,2.39886784553528,2.63771605491638,0.19303341209888,-4.06042146682739,-5.25344133377075,39.841911315918,13.239935874939,-1.61848032474518,27.4207916259766,16.9317951202393,6.87135887145996,11.7962322235107,6.99106884002686,1.02950668334961,1.03969264030457,1.04091441631317,0.86132001876831,1.6578882932663,0.98349303007126,0.63835418224335,-4.95961475372314,-3.83989882469177,-2.07633090019226,-13.2662715911865,-19.9963722229004,-27.1765842437744,-0.68474167585373,-6.8234748840332,-9.61990261077881,-4.71897172927856,-8.43716716766357,-11.9829797744751,0.2638937830925,-1.01770150661469,-1.34634697437286,0.0177150927484,-0.4239404797554,-0.43432518839836,0.64934974908829,6.06100511550903,7.47027111053467,-27.0161724090576,-5.18823528289795,23.1567192077637,-9.25837802886963,3.95043277740479,17.3675384521484,-9.74918937683106,-1.23540806770325,8.84178733825684,-0.66706484556198,0.52656584978104,0.11667526513338,-1.1178834438324,0.34574973583221,2.70063519477844,5.61751699447632,-0.59009581804276,-4.4794750213623,55.861515045166,33.7965507507324,7.77876138687134,27.0089893341064,25.4455757141113,15.7275114059448,14.0419931411743,2.09253239631653,-2.32955837249756,-0.37018433213234,-0.40500366687775,-0.06230825558305,3.40496277809143,2.66825938224792,1.72997033596039,-5.48679161071777,-5.60407781600952,-4.91990852355957,-2.36068296432495,-10.7020816802979,-24.8182945251465,5.30076265335083,-4.04380655288696,-8.68855762481689,-3.71340680122375,-4.503493309021,-6.92163705825806,0.10140363126993,-0.41599923372269,-1.03663837909698,0.89797192811966,0.10934487730265,0.45387288928032,-2.47766947746277,1.33962750434875,4.71587991714478,-34.5100250244141,-28.5532493591309,-13.5128746032715,-9.69172859191894,-9.38048267364502,-6.89051246643066,-9.58877754211426,-6.44519090652466,-1.97521638870239,-1.29198002815247,-0.80695301294327,0.21868975460529,0.66339963674545,-0.31154128909111,-1.13682019710541,6.50204944610596,6.36338329315186,3.80813384056091,5.78917980194092,29.3720664978027,43.6558723449707,3.99592256546021,22.1990375518799,32.5132598876953,3.35667085647583,11.0181159973145,3.63918662071228,-0.01160643994808,-1.58336269855499,-2.52287340164185,0.71287971735001,3.02011775970459,3.51308608055115,-0.71165800094604,-3.91075921058655,-5.35789918899536,27.9163913726807,11.5352640151978,0.96486330032349,28.3138294219971,16.7785663604736,6.04296493530273,-5.34385824203491,-5.31033945083618,-2.53785371780396,SHAKE
-2.12153506278992,-1.70553576946259,-0.98166042566299,1.44164192676544,0.92057394981384,0.81550508737564,-4.55461120605469,-2.80631494522095,-0.13011430203915,-16.536750793457,-24.9547634124756,-29.2379913330078,-8.98065090179443,-11.8943939208984,-11.8345394134521,-2.16914677619934,0.12210428714752,2.55700731277466,-0.00061086524511,0.76297068595886,1.46607661247253,0.24862214922905,-0.77457714080811,-1.31702542304993,3.30722451210022,5.89790391921997,6.66637229919434,-20.0346794128418,-1.14921677112579,18.1432609558105,-9.59835433959961,-1.4484920501709,17.058687210083,2.35589456558228,3.76847338676453,6.86417627334595,2.18995189666748,1.87413454055786,0.66278880834579,-2.04884195327759,-1.26754534244537,0.32803463935852,5.28581714630127,1.65910995006561,-2.21805167198181,35.8435935974121,33.3272857666016,20.3052253723145,31.735143661499,33.9042892456055,23.9827175140381,-0.68234747648239,-6.86657047271729,-7.34301662445068,-0.69027775526047,-1.82770884037018,-4.00361061096191,0.00610865233466,-0.58887410163879,0.2944370508194,-5.62851238250732,-5.57597780227661,-4.61508703231812,-0.70389527082443,-11.1090955734253,-28.0456790924072,0.68953007459641,-9.7013053894043,-16.2781772613525,-7.53934097290039,-8.50181007385254,5.20260047912598,-4.2412371635437,1.47768306732178,1.67621421813965,1.98347949981689,-0.39400807023048,-0.93645644187927,-1.89918005466461,6.36216163635254,6.45501327514648,-39.1356201171875,-3.74931979179382,29.7048606872559,-14.7099752426147,-6.97670364379883,27.5045890808105,18.1911449432373,2.26730895042419,-5.82748699188232,-0.01404990069568,-1.52960658073425,-2.49294114112854,-0.3897320330143,1.27487576007843,0.82161372900009,3.84112071990967,-3.68107390403748,-5.97914886474609,38.7884635925293,12.7132110595703,-2.21224236488342,34.5243873596191,18.2773361206055,-6.66306352615356,-1.47482824325562,-4.22337198257446,0.39504328370094,-2.96941590309143,-0.15882496535778,2.5436429977417,1.48073732852936,1.10505521297455,-0.38179078698158,-6.19173002243042,-0.38728857040405,4.44343376159668,-21.0785522460938,-35.2761688232422,-13.2040224075317,-14.8799638748169,-15.6245603561401,-13.2854251861572,6.71334171295166,11.0013570785522,0.88824880123138,3.48437547683716,2.83502554893494,1.62429070472717,-1.24494338035584,-1.07939887046814,-0.67011916637421,6.73234605789185,6.59367942810059,5.26688003540039,3.72058939933777,15.5814647674561,29.1996841430664,-2.41574954986572,13.7738428115845,28.4838180541992,-4.86501789093018,-3.7541081905365,-3.95522117614746,0.37507125735283,-1.09589219093323,-1.13865280151367,-0.28160887956619,1.18813288211823,0.94867372512817,2.47339344024658,-2.81486701965332,-4.99932098388672,31.8380947113037,21.4305000305176,11.8991823196411,33.650505065918,26.4942359924316,14.7650423049927,-2.63601613044739,-0.48602294921875,-2.2170307636261,-1.42575943470001,-2.80570411682129,-3.97306752204895,0.4978551864624,0.47464230656624,1.6090190410614,-5.97120761871338,-6.19783878326416,-5.17647218704224,4.29040956497192,-6.83784008026123,-27.6314811706543,2.10450339317322,-11.0420579910278,-17.3771152496338,-6.14112758636475,-5.03261184692383,6.05014753341675,SHAKE
-0.15882496535778,2.5436429977417,3.48437547683716,1.10505521297455,-0.38179078698158,-1.24494338035584,-0.38728857040405,4.44343376159668,6.73234605789185,-35.2761688232422,-13.2040224075317,3.72058939933777,-15.6245603561401,-13.2854251861572,-2.41574954986572,11.0013570785522,0.88824880123138,-4.86501789093018,2.83502554893494,1.62429070472717,0.37507125735283,-1.07939887046814,-0.67011916637421,-0.28160887956619,6.59367942810059,5.26688003540039,2.47339344024658,15.5814647674561,29.1996841430664,31.8380947113037,13.7738428115845,28.4838180541992,33.650505065918,-3.7541081905365,-3.95522117614746,-2.63601613044739,-1.09589219093323,-1.13865280151367,-1.42575943470001,1.18813288211823,0.94867372512817,0.4978551864624,-2.81486701965332,-4.99932098388672,-5.97120761871338,21.4305000305176,11.8991823196411,4.29040956497192,26.4942359924316,14.7650423049927,2.10450339317322,-0.48602294921875,-2.2170307636261,-6.14112758636475,-2.80570411682129,-3.97306752204895,-2.58518171310425,0.47464230656624,1.6090190410614,2.06838965415955,-6.19783878326416,-5.17647218704224,-1.52533054351807,-6.83784008026123,-27.6314811706543,-41.534610748291,-11.0420579910278,-17.3771152496338,-14.7889842987061,-5.03261184692383,6.05014753341675,15.5599164962769,0.65851271152496,2.89550137519836,1.41965079307556,0.18203784525394,-2.27425122261047,-1.46424400806427,3.65908288955688,7.13307332992554,5.89057350158691,-28.7040843963623,9.20809936523438,26.2931232452393,-14.4801321029663,4.93205547332764,24.1527061462402,9.720458984375,-4.69502973556519,-4.55137729644775,-0.41233405470848,-0.83932882547379,0.07819075137377,-0.13561208546162,0.69638639688492,-0.80389869213104,2.83563637733459,-1.29747772216797,-5.28276252746582,36.5307312011719,27.2364387512207,2.37504816055298,34.3783416748047,30.9666042327881,7.4770917892456,3.41413164138794,5.70298862457275,-11.4897737503052,-2.08854818344116,-4.15877056121826,-3.13312792778015,-1.30419731140137,-0.46120324730873,0.35674530267715,-5.32735586166382,-4.76719236373901,-1.75135064125061,-4.3454761505127,-24.1335525512695,-37.5841789245605,-7.25682544708252,-15.3228912353516,-14.3269033432007,-9.46427917480469,7.16584587097168,20.6188659667969,0.36774086952209,2.71163082122803,3.26935076713562,-0.49602258205414,-1.64261662960052,-2.0702223777771,2.91260552406311,5.87713432312012,5.9693751335144,-27.3896675109863,-3.97916316986084,9.83777523040772,-14.2287406921387,-6.67742872238159,8.45392608642578,13.9318599700928,5.88494777679443,-0.69192427396774,2.22538208961487,1.06657075881958,-0.54550266265869,-1.30297553539276,-0.69272118806839,0.40133845806122,4.74397945404053,2.21560835838318,-1.24311077594757,22.9101161956787,30.1094799041748,24.284387588501,22.7401275634766,30.8397121429443,26.9443454742432,-0.41898530721664,-4.33350515365601,-3.98873996734619,-1.83687174320221,-1.63589715957642,-1.03419482707977,1.62062549591064,1.96087741851807,0.93279123306274,-4.09340810775757,-5.46968746185303,-5.8447585105896,12.3828115463257,3.72537779808044,-11.4897737503052,16.4361953735352,5.76523780822754,-4.56095409393311,2.0326771736145,4.43645572662354,1.5945383310318,SHAKE
-1.63589715957642,-1.03419482707977,-0.76052725315094,1.96087741851807,0.93279123306274,0.40011674165726,-5.46968746185303,-5.8447585105896,-1.55953896045685,3.72537779808044,-11.4897737503052,-35.6137504577637,5.76523780822754,-4.56095409393311,-12.2247934341431,4.43645572662354,1.5945383310318,12.3995704650879,1.07634460926056,2.79776287078857,3.30539178848267,0.88514375686646,-0.05253441259265,-1.39949226379395,2.83441472053528,6.16546297073364,7.14651250839233,-26.7121086120605,-8.79629707336426,7.01022243499756,-13.0843124389648,-9.09317779541016,3.3925838470459,9.49540424346924,2.73896670341492,-0.09097966551781,2.01585531234741,0.51373767852783,-1.41598558425903,-1.22906088829041,0.17715092003345,1.88635182380676,3.83501195907593,-0.87170469760895,-4.29743719100952,40.9312705993652,28.8309764862061,12.4761848449707,28.0768032073975,24.12158203125,13.1872625350952,-4.05338335037231,-9.7013053894043,-11.6717329025269,-3.04088711738586,-4.98343849182129,-1.81549155712128,2.23821020126343,-0.52534413337708,-0.40500366687775,-5.68471193313599,-3.01278734207153,0.78496181964874,-6.36618232727051,-30.20046043396,-25.6299285888672,0.90740245580673,-10.5392761230469,-10.8481283187866,-12.6772975921631,19.278112411499,21.5741519927979,2.34633350372314,4.16976594924927,3.60654830932617,-0.92423909902573,-2.36099410057068,-3.06776523590088,4.15571641921997,5.93577766418457,5.47457408905029,-13.283031463623,6.63193893432617,32.700008392334,-7.56088876724243,5.13316822052002,22.2660751342773,8.87530612945557,-0.84754741191864,-1.50834703445435,2.07205486297607,-0.0250454749912,-1.55526292324066,-1.81610238552094,1.17835903167725,2.89061427116394,2.24859499931335,-2.4501805305481,-5.22473049163818,42.2816009521484,24.6794319152832,10.1992988586426,31.4167156219482,27.4136085510254,16.7594127655029,-5.09486103057861,-5.22893667221069,-1.5753847360611,-1.6578882932663,-1.82770884037018,-0.93584555387497,3.0689868927002,1.22845005989075,0.92240649461746,-6.62422275543213,-5.2259521484375,-1.28464961051941,-2.09492659568787,-34.0407600402832,-33.9832992553711,4.58968448638916,-11.5352640151978,-13.5751237869263,-1.38145434856415,6.60081386566162,13.2902135848999,1.49967420101166,3.90770506858826,4.64807367324829,-0.08613199740648,-1.00242984294891,-1.7678439617157,3.13984727859497,5.7305269241333,6.76288890838623,-19.4385242462158,-7.86016416549683,8.22887134552002,-14.9924907684326,-8.85615253448486,5.52821159362793,10.2471828460693,0.78050976991653,-4.60644388198853,3.86372256278992,2.06594634056091,-0.58459806442261,-2.05861592292786,-1.60168862342834,0.57360243797302,6.08910465240479,3.26446390151978,-1.554652094841,27.655424118042,40.023868560791,22.4552173614502,22.9340572357178,29.9969539642334,22.069751739502,-6.55292987823486,-9.88805294036865,-10.0795888900757,-2.61755752563477,-3.91503524780273,-4.31759548187256,2.49782800674438,2.97124862670898,1.73974418640137,-4.99015808105469,-6.20516920089722,-6.12086963653564,5.90649557113647,-6.48828649520874,-22.8167419433594,9.63426780700684,-2.54503631591797,-10.2950668334961,-9.97185039520264,-3.68946480751038,5.07570743560791,SHAKE
