gyro_x_0,gyro_y_0,gyro_z_0,acc_x_0,acc_y_0,acc_z_0,gyro_x_1,gyro_y_1,gyro_z_1,acc_x_1,acc_y_1,acc_z_1,gyro_x_2,gyro_y_2,gyro_z_2,acc_x_2,acc_y_2,acc_z_2,gyro_x_3,gyro_y_3,gyro_z_3,acc_x_3,acc_y_3,acc_z_3,gyro_x_4,gyro_y_4,gyro_z_4,acc_x_4,acc_y_4,acc_z_4,gyro_x_5,gyro_y_5,gyro_z_5,acc_x_5,acc_y_5,acc_z_5,gyro_x_6,gyro_y_6,gyro_z_6,acc_x_6,acc_y_6,acc_z_6,gyro_x_7,gyro_y_7,gyro_z_7,acc_x_7,acc_y_7,acc_z_7,gyro_x_8,gyro_y_8,gyro_z_8,acc_x_8,acc_y_8,acc_z_8,gyro_x_9,gyro_y_9,gyro_z_9,acc_x_9,acc_y_9,acc_z_9,gyro_x_10,gyro_y_10,gyro_z_10,acc_x_10,acc_y_10,acc_z_10,gyro_x_11,gyro_y_11,gyro_z_11,acc_x_11,acc_y_11,acc_z_11,gyro_x_12,gyro_y_12,gyro_z_12,acc_x_12,acc_y_12,acc_z_12,gyro_x_13,gyro_y_13,gyro_z_13,acc_x_13,acc_y_13,acc_z_13,gyro_x_14,gyro_y_14,gyro_z_14,acc_x_14,acc_y_14,acc_z_14,gyro_x_15,gyro_y_15,gyro_z_15,acc_x_15,acc_y_15,acc_z_15,gyro_x_16,gyro_y_16,gyro_z_16,acc_x_16,acc_y_16,acc_z_16,gyro_x_17,gyro_y_17,gyro_z_17,acc_x_17,acc_y_17,acc_z_17,gyro_x_18,gyro_y_18,gyro_z_18,acc_x_18,acc_y_18,acc_z_18,gyro_x_19,gyro_y_19,gyro_z_19,acc_x_19,acc_y_19,acc_z_19,gyro_x_20,gyro_y_20,gyro_z_20,acc_x_20,acc_y_20,acc_z_20,gyro_x_21,gyro_y_21,gyro_z_21,acc_x_21,acc_y_21,acc_z_21,gyro_x_22,gyro_y_22,gyro_z_22,acc_x_22,acc_y_22,acc_z_22,gyro_x_23,gyro_y_23,gyro_z_23,acc_x_23,acc_y_23,acc_z_23,gyro_x_24,gyro_y_24,gyro_z_24,acc_x_24,acc_y_24,acc_z_24,gyro_x_25,gyro_y_25,gyro_z_25,acc_x_25,acc_y_25,acc_z_25,gyro_x_26,gyro_y_26,gyro_z_26,acc_x_26,acc_y_26,acc_z_26,gyro_x_27,gyro_y_27,gyro_z_27,acc_x_27,acc_y_27,acc_z_27,gyro_x_28,gyro_y_28,gyro_z_28,acc_x_28,acc_y_28,acc_z_28,gyro_x_29,gyro_y_29,gyro_z_29,acc_x_29,acc_y_29,acc_z_29,motion_type
-0.17898350954056,-0.13927727937698,-0.08491026610136,0.08933904021978,0.118049710989,0.03191770985723,-0.52923840284348,-0.33925929665565,-0.24029912054539,-3.08133769035339,-2.84910011291504,-2.80600428581238,-0.12210428714752,0.08379705995321,0.12928688526154,9.89074611663818,9.78540134429932,9.7087869644165,-0.03543018549681,-0.01404990069568,-0.00794124789536,-0.10125091671944,-0.07987063378096,0.02397646009922,-0.14989106357098,-0.06681338697672,-0.04848742857575,-2.70544791221619,-2.46842193603516,-2.41574954986572,0.16519992053509,0.29448682069778,0.38786068558693,9.86441040039062,9.89314079284668,9.59386539459228,-0.00794124789536,-0.00305432616733,-0.01160643994808,0.04169155284762,0.03130684420466,0.07162395119667,-0.05703954398632,-0.07414376735687,-0.15477798879147,-2.67192912101746,-2.80600428581238,-3.12203907966614,0.40222588181496,0.428562104702,0.217872351408,9.3544454574585,9.12220764160156,8.82053852081299,0.02321287989616,0.08979719132185,0.19853121042252,0.03985895588994,-0.08842274546623,-0.39935314655304,-0.28489229083061,-0.45898887515068,-0.33559408783913,-3.68707060813904,-3.68707060813904,-9.50767421722412,-0.39264908432961,-0.39264908432961,-4.05338335037231,8.5811185836792,8.5811185836792,9.21079349517822,0.32803463935852,0.48319441080093,0.1069014146924,-0.53191089630127,-0.34804046154022,0.52671855688095,0.61979913711548,4.0290379524231,9.59707450866699,-19.3122291564941,-30.4886627197266,-25.8726406097412,-9.34726238250732,-17.3250427246094,-27.9532032012939,11.2099514007568,12.4190235137939,14.2841062545776,-1.56625843048096,-3.82279467582703,-3.24858140945435,3.89014267921448,6.22486972808838,2.38374900817871,14.5408067703247,17.0838394165039,17.2542705535889,-9.5914716720581,3.59369683265686,11.9904613494873,-37.5734062194824,-37.7721214294434,-31.6522445678711,15.6514949798584,15.6371297836304,9.78300762176514,-1.40071403980255,-1.3756685256958,-2.48255634307861,-2.67849135398865,-2.1934642791748,0.45769077539444,15.9567928314209,13.3984889984131,9.78094482421875,20.7295970916748,25.1519870758057,25.2309951782227,-20.7272033691406,-11.5595054626465,-6.37605857849121,8.2028341293335,10.0703115463257,11.9880676269531,-1.87413454055786,-0.94684112071991,-0.41966441273689,-0.55390208959579,-1.52151262760162,-0.7994698882103,6.44806432723999,4.14449167251587,1.60329222679138,23.0423965454102,19.4822177886963,14.2481937408447,-2.72938990592957,-0.11013327538967,0.13407529890537,12.7039337158203,12.9170169830322,11.4661312103271,-0.18264870345592,0.03787364438176,0.13683381676674,-0.04871650412679,0.19868391752243,0.22556199133396,-0.07292203605175,-1.24150729179382,-1.93361759185791,9.85483360290527,5.80384397506714,2.39420175552368,0.30406361818314,0.35194763541222,0.01915361359715,10.4773254394531,9.79018974304199,9.27304267883301,-0.11789698898792,-0.18814650177956,-0.1795943826437,0.43936482071877,0.49739703536034,0.48151454329491,-1.99836933612823,-1.65445220470428,-1.27938091754913,-1.48919343948364,-2.17872357368469,-2.34152936935425,-0.07422025501728,0.17477671802044,0.50996494293213,9.29458999633789,9.61301898956299,9.72315216064453,SWING_LEFT
0.01343903504312,-0.05192354694009,-0.12217304855585,-0.24480424821377,-0.25885415077209,0.08689557760954,-2.6067910194397,-2.12848353385925,-2.0368537902832,-2.80839848518372,-1.59214413166046,-1.28568625450134,-2.11647439002991,-1.77170920372009,-0.62488663196564,9.68005657196045,10.3240966796875,10.0822830200195,-0.14355333149433,-0.05925392732024,0.05681046843529,0.37644571065903,0.51389038562775,0.53588151931763,-2.05395793914795,-2.10221648216248,-2.09916210174561,-1.66397023200989,-2.20027136802673,-3.15555787086487,-0.03830722719431,-0.6224924325943,-1.33835875988007,10.065523147583,10.2474822998047,9.94102478027344,0.19669860601425,0.23396138846874,0.29932397603989,0.48884490132332,0.35323283076286,0.30986139178276,-1.96049559116364,-1.61291337013245,-1.16575992107391,-4.30477476119995,-5.35852289199829,-6.50295114517212,-2.08774399757385,-2.31519293785095,-2.84431171417236,9.37599277496338,9.41429996490478,9.60823059082031,0.41172316670418,0.47403141856194,0.45326200127602,0.30619621276855,0.10522153973579,-0.31688633561134,-0.60926175117493,0.24961480498314,1.88917708396912,-8.16931533813477,-11.6744270324707,-19.8413486480713,-4.25689077377319,-7.13502025604248,-12.7326641082764,9.04559326171875,8.99052619934082,10.3169145584106,0.52900928258896,0.67317348718643,0.26572638750076,-0.72799867391586,-0.52396965026855,1.08077335357666,5.2770357131958,10.2800216674805,14.5090417861938,-26.7082176208496,-20.5715789794922,-6.63702630996704,-21.0456314086914,-28.9204597473145,-36.3284187316895,12.2945251464844,12.4573307037354,10.8125143051147,-1.33535146713257,-2.88878178596497,-2.24370813369751,3.4081699848175,3.15099573135376,0.84253591299057,17.0361919403076,17.2310581207275,15.3129405975342,9.48373222351074,16.6115703582764,21.553201675415,-38.9141578674316,-27.426477432251,-17.5596733093262,11.1453084945679,10.9346179962158,10.0583410263062,-2.13741755485535,-1.85641944408417,-1.20096111297607,-0.46043968200684,-0.93508195877075,-1.74325668811798,12.3563528060913,9.0381326675415,6.09987115859985,23.4206790924072,22.1182346343994,19.5971393585205,-10.8173027038574,-7.10150146484375,-3.57933163642883,11.3129024505615,11.7462530136108,12.8882865905762,-0.68172562122345,-0.41599923372269,-0.21502456068993,-1.30587720870972,-0.85689121484756,-0.73655074834824,3.56600213050842,1.65155053138733,0.35468363761902,16.2308921813965,12.186785697937,8.98573780059814,-1.81001651287079,-1.09654438495636,-0.84275901317596,12.3663511276245,11.3009309768677,10.7670240402222,-0.08613199740648,-0.00061086524511,0.04825835302472,-0.45433104038239,-0.15378531813622,0.2133446931839,-0.52923840284348,-1.11933422088623,-1.38872575759888,6.32817459106445,3.94564437866211,1.77649760246277,-0.30885201692581,-0.23463176190853,-0.43574470281601,10.4940853118896,10.228328704834,9.89553451538086,0.12278391420841,0.11789698898792,0.0421497002244,0.33124166727066,0.32879820466042,0.40698897838593,-1.34535431861877,-1.24700498580933,-1.01854145526886,0.43813890218735,-0.5434837937355,-1.04387199878693,-0.53390699625015,-0.55784898996353,-0.40701428055763,9.30656147003174,9.12939071655273,8.98813247680664,SWING_LEFT
0.51740288734436,0.28221973776817,0.26083946228027,1.01968681812286,1.46134233474731,0.64644813537598,-4.14739322662354,-4.07470035552979,-4.18160152435303,-1.41976165771484,-0.6224924325943,-1.83395850658417,-2.18590617179871,-2.05422496795654,-1.95845699310303,9.57950019836426,7.9059534072876,6.46224975585938,0.08796459436417,-0.19181168079376,-0.35369098186493,-0.20509800314903,-0.6094908118248,-0.45799621939659,-3.94336414337158,-3.36059880256653,-2.61656498908997,-3.11485648155212,-4.3143515586853,-5.39443588256836,-2.58813214302063,-2.66953492164612,-2.74614930152893,7.66892719268799,8.8756046295166,10.1469259262085,-0.26816985011101,-0.14110986888409,-0.11423180252314,-0.18982636928558,-0.21120665967464,-0.28878653049469,-1.74302756786346,-0.87376636266708,-0.25007295608521,-5.82539224624634,-5.27472543716431,-4.86262369155884,-2.67911171913147,-2.33913516998291,-2.46842193603516,10.0918598175049,9.67287445068359,9.92905330657959,-0.10384709388018,-0.15332718193531,-0.27916541695595,-0.24846944212914,-0.20998492836952,-0.12018773704767,0.17020232975483,0.66072714328766,1.55564475059509,-4.99460411071777,-6.67533349990845,-11.0136270523071,-3.74453139305115,-5.68413400650024,-8.46140766143799,10.036792755127,10.391134262085,11.9425773620605,-0.14233160018921,0.22968533635139,0.3500257730484,-0.21670444309711,-0.1745547503233,1.52426147460938,3.47070717811584,6.70340633392334,10.7980356216431,-16.4176387786865,-17.6506538391113,-12.5578870773315,-12.0215864181519,-19.1997013092041,-27.7616672515869,13.6209125518799,15.1008291244507,15.4695358276367,-0.14660765230656,-0.4416555762291,-0.59681534767151,3.8437168598175,4.47351884841919,2.98606204986572,14.5518026351929,16.0496444702148,16.0759124755859,-1.60411512851715,8.11185455322266,13.338397026062,-32.3561401367188,-27.8909530639648,-26.5669593811035,15.2971534729004,13.7238636016846,7.20445203781128,-0.71959924697876,-0.97982788085938,-1.41293132305145,-0.33460143208504,-1.34680509567261,-0.78786343336105,14.9946804046631,12.5115127563477,8.95139026641846,18.019359588623,22.4582099914551,22.4270858764648,-15.5868520736694,-7.82933902740479,-4.45560932159424,6.23240613937378,10.000880241394,10.2714242935181,-1.20157194137573,-1.0256427526474,-1.16919612884521,-1.72004377841949,-1.60092508792877,-1.01082921028137,5.86652088165283,3.15305733680725,1.22699916362762,20.3896198272705,16.5995998382568,12.8068838119507,-1.31681096553802,-0.83557641506195,-0.91697925329208,11.2147397994995,10.4102878570557,10.1948099136353,-1.11421823501587,-0.97860610485077,-0.66584312915802,-0.67240989208221,-0.45799621939659,-0.12263119965792,-0.10713049024343,-0.89148145914078,-1.62207627296448,10.1086187362671,7.23797082901001,4.31195735931396,-0.5147533416748,-0.25139117240906,-0.46208092570305,10.6305551528931,11.3416328430176,11.5044384002686,-0.28405234217644,0.03054326213896,0.17165313661098,0.15836681425571,0.37644571065903,0.53221637010574,-1.91712427139282,-1.8645898103714,-1.59764170646667,1.86268889904022,0.07182604819536,-0.82360535860062,-0.59855043888092,-0.63685762882233,-0.5434837937355,11.0974245071411,10.25705909729,9.40951156616211,SWING_LEFT
-0.38484510779381,-0.28710666298866,-0.30237829685211,-0.11468994617462,0.30375275015831,0.25977045297623,-2.43086194992065,-1.07901704311371,-0.73571085929871,-4.46279191970825,-3.30639243125916,-2.90177249908447,-2.41096115112305,-1.81241071224213,-1.39581954479218,10.9872913360596,9.91947650909424,9.94820690155029,-0.3072652220726,-0.30237829685211,-0.22113321721554,0.26771169900894,0.20601430535316,0.10644327104092,-0.58665972948074,-0.55122953653336,-0.48220175504684,-2.25294375419617,-2.74614930152893,-3.23935484886169,-1.39821374416351,-0.88824880123138,-0.91219085454941,9.68245124816894,10.0032739639282,10.312126159668,-0.01527163106948,0.17592918872833,0.33169981837273,-0.0169515106827,-0.16294831037521,-0.39324450492859,-0.32582023739815,-0.14439326524734,-0.01916589774191,-3.52187061309814,-3.73734879493713,-4.18985319137573,-1.15879356861115,-1.29047477245331,-1.76452660560608,10.1062250137329,9.72794055938721,9.33768558502197,0.45387288928032,0.51373767852783,0.60842180252075,-0.62964934110641,-0.7683157324791,-0.85261517763138,0.14698944985867,0.51106512546539,1.27586841583252,-5.09037208557129,-7.1302318572998,-11.3009309768677,-2.84191751480103,-4.5418004989624,-7.72159957885742,9.30177307128906,9.63935565948486,11.6600618362427,1.12826812267303,1.68720984458923,1.8735237121582,-1.04748117923737,-1.58870780467987,-0.62048637866974,3.09074902534485,6.58673095703125,10.9904584884644,-17.4016571044922,-19.6857242584229,-13.1995334625244,-13.2498111724854,-21.9051494598389,-29.3131084442139,12.3615627288818,13.7118921279907,14.5905647277832,1.01159286499023,0.46425759792328,0.22785273194313,2.49553728103638,4.63234376907349,3.03615307807922,14.61838722229,16.317813873291,16.7839050292969,-2.32955837249756,8.97376728057861,18.5029888153076,-33.7136535644531,-30.9627151489258,-28.5685119628906,15.8502140045166,13.3647327423096,5.98819780349731,-0.22785273194313,-0.88819807767868,-0.9523389339447,0.29214629530907,-0.21731531620026,-0.78847432136536,14.8578462600708,11.8389501571655,8.34296798706055,23.0423965454102,25.5877323150635,23.7582626342773,-16.0369606018066,-10.1708679199219,-5.56921243667603,6.17973375320435,8.84448051452637,10.3073377609253,-0.36468654870987,-0.17470745742321,-0.05131268128753,-1.66384422779083,-1.1745411157608,-0.39324450492859,5.2324423789978,2.68757796287537,0.74624824523926,20.8014221191406,17.2436389923096,13.5371160507202,-3.03584766387939,-1.53707754611969,-0.06464344263077,10.9944734573364,11.2291049957275,11.2075576782227,0.22540926933289,0.39950588345528,0.4324925839901,-0.08964447677135,0.24083362519741,0.47846019268036,-0.70028066635132,-1.62635231018066,-2.15108561515808,9.63696098327637,6.19409894943237,3.23935484886169,0.56742578744888,0.71586632728577,0.66319388151169,10.8795518875122,10.0679178237915,9.10784244537354,0.40133845806122,0.26572638750076,0.07024950534105,0.50106221437454,0.51755559444427,0.46318855881691,-2.25554347038269,-2.09794044494629,-1.77418172359467,0.73980832099915,-0.67516487836838,-1.12527477741241,0.47405192255974,0.63206923007965,1.07020819187164,8.46619606018066,8.1022777557373,8.40394687652588,SWING_LEFT
0.129503428936,0.08002334833145,0.12034045159817,0.04780020564795,-0.15928311645985,-0.65041875839233,-3.75888299942017,-3.19383263587952,-2.40887069702148,-4.24970817565918,-5.08079528808594,-4.97305631637573,-3.56736063957214,-3.26808524131775,-2.95444488525391,9.16530323028564,9.1964282989502,9.62977886199951,0.06719517707825,-0.17287486791611,-0.32192599773407,-0.75182241201401,-0.1745547503233,0.24022275209427,-1.7289776802063,-1.46325135231018,-1.23478770256042,-3.86663579940796,-3.27526783943176,-3.56017804145813,-2.26970314979553,-1.72382521629334,-1.58256733417511,10.1110134124756,9.90989971160889,9.48852062225342,-0.28221973776817,-0.13866640627384,-0.02932153269649,0.08139779418707,-0.05054909735918,0.06429356336594,-0.91347259283066,-0.54695343971252,-0.20242546498775,-3.92170238494873,-4.07732534408569,-3.87860679626465,-1.4676456451416,-1.44370365142822,-1.8171991109848,9.73272895812988,10.0272159576416,9.73991203308106,0.02626720629632,0.00305432616733,0.06047565862536,0.05268712714314,-0.01817324012518,-0.11591167747974,0.06513350456953,0.27160596847534,0.68882691860199,-3.9767689704895,-4.96587371826172,-8.43986034393311,-2.23857855796814,-3.04063606262207,-5.75595998764038,9.30656147003174,9.45979022979736,9.52203941345215,0.15393804013729,0.28283059597015,0.43188172578812,-0.7383833527565,-1.04137253761292,-0.79641556739807,1.98813724517822,3.76453351974487,7.38085556030273,-13.3407907485962,-19.4319400787354,-19.42236328125,-9.3927526473999,-14.5474691390991,-23.1549224853516,10.5323925018311,11.9066638946533,12.78773021698,0.46425759792328,-0.00244346098043,0.55466562509537,0.0044287731871,1.60367393493652,2.0789270401001,11.59521484375,14.6116676330566,15.6360883712769,-11.7127342224121,0.63446342945099,7.79342603683472,-29.2197360992432,-30.2181167602539,-28.494291305542,13.175591468811,15.4886894226074,11.8061075210571,0.81245076656342,-0.32925635576248,-0.96577793359756,1.28602409362793,0.57986384630203,-0.72005742788315,15.8040761947632,14.3569364547729,11.6031560897827,16.0824508666992,21.440673828125,25.1041030883789,-24.098237991333,-15.1415300369263,-7.47020864486694,5.92834281921387,5.59554862976074,8.34888076782227,-1.0867292881012,-1.00548422336578,-0.89491760730743,-1.26800358295441,-1.3645201921463,-1.44698703289032,7.81456995010376,4.46641778945923,1.9001727104187,23.0184535980225,19.1542129516602,15.08167552948,-2.89458990097046,-1.26892685890198,-1.10372698307037,10.1277723312378,10.0224275588989,10.7335052490234,-0.731205701828,-0.50762903690338,-0.26206117868423,-0.87704980373383,-0.32543846964836,-0.06765332818031,0.17020232975483,-0.93851810693741,-1.57198536396027,10.9226474761963,7.41993045806885,4.1659107208252,-1.15400516986847,-1.13245737552643,-1.24019646644592,11.1548852920532,10.6401319503784,10.1900215148926,-0.11667526513338,-0.02565634064376,0.02321287989616,0.18768835067749,0.37766742706299,0.37522396445274,-1.75402319431305,-1.62940669059753,-1.40644085407257,1.75255560874939,0.28251579403877,-0.56742578744888,-1.17076468467712,-0.78769236803055,-0.36631286144257,9.8668041229248,9.56752967834473,9.41429996490478,SWING_LEFT
-0.02321287989616,-0.11545353382826,-0.21624629199505,-0.07376197725534,0.21212296187878,0.46318855881691,-2.16513562202454,-2.07778167724609,-1.92140030860901,-2.50194072723389,-2.67432332038879,-2.95444488525391,-0.83318221569061,-1.18273568153381,-1.54904854297638,9.48133754730225,9.3544454574585,9.00489139556885,-0.33658674359322,-0.44837507605553,-0.49907690286636,0.4772384762764,0.32391130924225,0.37888917326927,-1.66666948795319,-1.33069360256195,-1.0600802898407,-3.26808524131775,-3.38779544830322,-3.28245043754578,-2.03746557235718,-1.97521638870239,-1.72621941566467,8.84926891326904,9.43345355987549,9.93863010406494,-0.41050145030022,-0.23090706765652,-0.06414084881544,0.50472742319107,0.27626380324364,-0.03833179548383,-0.89025974273682,-0.69966977834702,-0.54206657409668,-3.68228220939636,-3.96240377426147,-4.40054273605347,-1.78368031978607,-1.98000478744507,-2.1978771686554,9.81652641296387,9.59386539459228,9.61062526702881,0.1490511149168,0.35185837745667,0.583376288414,-0.23564127087593,-0.43295073509216,-1.01571619510651,-0.31604641675949,0.08345946669579,0.92339915037155,-5.24120664596558,-6.94827270507813,-11.5762643814087,-3.05978965759277,-4.79798030853271,-9.18206310272217,9.65372085571289,9.37599277496338,9.68245124816894,0.8533787727356,1.14109623432159,1.52044355869293,-2.1067214012146,-2.41948461532593,-1.16965425014496,2.84273767471313,5.88057041168213,8.75346946716309,-16.8509902954102,-19.1230869293213,-15.500659942627,-13.3790979385376,-17.6482601165771,-23.7223491668701,11.4134588241577,14.0542631149292,13.4581069946289,1.12887895107269,0.04581489413977,-1.34573614597321,1.03129327297211,3.8314995765686,4.85103368759155,12.5909252166748,14.8328008651733,15.0856990814209,-5.0784010887146,5.38485908508301,11.818078994751,-28.9491901397705,-25.1256504058838,-22.4486331939697,11.8204727172852,10.858003616333,8.15255641937256,-2.25042748451233,-2.47033905982971,-2.09282422065735,2.85655856132507,0.49373182654381,-1.297935962677,14.0368432998657,12.0704679489136,9.9361047744751,15.3187007904053,16.9395751953125,17.8900737762451,-16.7576160430908,-13.0319395065308,-8.62660789489746,8.10946083068848,9.48373222351074,11.4541597366333,-1.79288947582245,-1.38971841335297,-1.11299645900726,-1.61497497558594,-1.74814367294312,-1.8868100643158,7.58121967315674,5.14692163467407,2.88305497169495,17.4639053344727,16.0034427642822,13.8723039627075,-4.93235492706299,-2.69108271598816,-1.21625447273254,12.1987571716309,11.7654066085815,12.4932441711426,-0.8533787727356,-0.43737950921059,0.03420845419168,-1.4567608833313,-0.86666506528854,-0.41340306401253,0.98143136501312,-0.44616070389748,-1.40583002567291,11.1093950271606,8.39676475524902,5.11431407928467,-0.30885201692581,-0.02394201606512,-0.30406361818314,13.2067155838013,12.7566061019897,12.0886240005493,0.42149701714516,0.61514127254486,0.6450737118721,0.0093156946823,0.34468072652817,0.49678614735603,-1.83404648303986,-1.85970282554626,-1.68927145004272,2.26252055168152,0.30645781755447,-0.98162269592285,-0.62488663196564,-0.55784898996353,-0.35434186458588,10.8915224075317,9.68245124816894,8.81575012207031,SWING_LEFT
-0.96638882160187,-0.80267691612244,-0.66889744997025,-0.17333301901817,0.21762074530125,0.44852781295776,-3.1358003616333,-2.84747195243835,-2.3978750705719,-3.3231520652771,-3.6152446269989,-3.50271701812744,-2.45645093917847,-1.60650932788849,-1.98958158493042,10.3600101470947,10.3480386734009,10.0224275588989,-0.51434850692749,-0.24740041792393,-0.23457226157188,0.31597003340721,-0.10613783448935,0.15531249344349,-2.10771417617798,-1.43942761421204,-1.20668792724609,-3.33272886276245,-3.46440982818604,-3.96000957489014,-2.49236392974854,-1.92254400253296,-2.06619596481323,9.81413173675537,10.2857894897461,10.587459564209,-0.13988813757896,0.00733038317412,0.08002334833145,0.37766742706299,0.33857205510139,0.16386459767818,-0.95928752422333,-0.53351444005966,0.04069889709353,-4.84586429595947,-5.57878923416138,-6.16776275634766,-2.65516972541809,-3.44046783447266,-3.88339519500732,10.2546653747559,9.77582454681396,9.44542503356934,0.1148426681757,0.16493362188339,0.35185837745667,-0.02794708497822,-0.26618453860283,-0.92714071273804,0.62651866674423,1.28442049026489,2.29784607887268,-6.83335113525391,-8.44704246520996,-12.0359516143799,-4.58729028701782,-6.23240613937378,-9.22515869140625,9.38556957244873,9.38556957244873,10.5515460968018,1.04824471473694,2.04639863967896,2.65359854698181,-2.18430137634277,-2.69498467445374,-2.01570248603821,4.12066793441772,6.87872457504272,11.0869750976563,-15.366584777832,-19.2380084991455,-14.7680349349976,-13.0295448303223,-19.1781539916992,-27.9101066589355,11.7414646148682,11.5954179763794,8.57633018493652,1.54976511001587,-0.17654006183147,-1.3011429309845,1.3434454202652,4.0281982421875,3.35563540458679,14.7686595916748,16.3343067169189,16.1272239685059,-1.09654438495636,10.1660795211792,17.5764331817627,-33.3856468200684,-29.6195678710938,-23.114221572876,9.1940336227417,9.69921016693115,8.49492645263672,-1.49356555938721,-1.45447015762329,-1.07634460926056,0.90789848566055,0.11255192011595,-0.49831333756447,14.3434972763062,10.822470664978,6.99967575073242,21.5412311553955,24.5124359130859,22.0847148895264,-12.378321647644,-6.5268931388855,-3.50511121749878,10.0535526275635,12.5722522735596,13.4533185958862,-0.53267449140549,-0.35246923565865,-0.23640485107899,-1.0877982378006,-0.74937891960144,-0.48976120352745,3.88304138183594,1.48111915588379,-0.16149750351906,18.512565612793,14.1811561584473,9.96975517272949,-2.65995812416077,-2.5091233253479,-2.37983655929565,13.0343332290649,12.0335569381714,11.5523223876953,-0.07086037099361,0.07880161702633,0.34758231043816,-0.40240746736526,-0.12385293096304,0.19929479062557,-1.08573663234711,-1.40521919727325,-1.58542442321777,5.83496904373169,3.07415509223938,1.00556468963623,-2.44687414169312,-1.52510643005371,-1.11569797992706,11.5642938613892,11.3176908493042,9.82131481170654,0.48197266459465,0.41172316670418,0.27488934993744,0.13515393435955,0.22006420791149,0.39660426974297,-1.56770932674408,-1.31664371490479,-1.01609802246094,-0.6703764796257,-1.49398183822632,-1.61129772663116,-1.06781399250031,-0.76135611534119,0.1268926858902,8.96419048309326,8.73434734344482,8.33690929412842,SWING_LEFT
0.03665191307664,0.00305432616733,-0.2767219543457,0.07834346592426,0.0233655963093,0.33307427167892,-1.89330041408539,-1.55915713310242,-1.43637323379517,-4.45082092285156,-3.56017804145813,-3.06218385696411,-2.03028297424316,-1.85311210155487,-1.93212080001831,9.00967979431152,8.82293224334717,8.70322227478027,-0.5412266254425,-0.53817230463028,-0.31093040108681,0.58475077152252,0.42042800784111,-0.09025534242392,-1.36856722831726,-1.27632653713226,-1.12910807132721,-3.2968156337738,-3.7349545955658,-3.7349545955658,-1.93930339813232,-1.92972660064697,-1.92972660064697,9.02643966674805,9.18206310272217,9.18206310272217,0.12156218290329,0.08735372871161,0.04459316283464,-0.37247508764267,-0.22953261435032,-0.29917123913765,-0.65813094377518,-0.37163513898849,0.00832303892821,-4.73812532424927,-5.3058500289917,-6.32338619232178,-2.59052634239197,-3.23935484886169,-4.31195735931396,9.30895519256592,8.77504825592041,8.54520511627197,-0.0274889357388,0.00977384392172,0.2315179258585,-0.50075680017471,-1.00960755348206,-1.49585628509521,0.49457177519798,1.41820001602173,3.23002624511719,-8.51647472381592,-11.925817489624,-15.6443128585815,-6.21085834503174,-8.83250904083252,-13.4221935272217,8.59308910369873,9.3712043762207,10.4701433181763,0.35308012366295,-0.51068335771561,-2.47217154502869,-1.08718740940094,0.80038619041443,3.29638147354126,6.22815275192261,10.3588237762451,13.5353231430054,-20.0376720428467,-14.5809879302979,-14.5809879302979,-17.9379577636719,-26.3897895812988,-26.3897895812988,9.53640460968018,9.01446914672852,9.01446914672852,-3.28034639358521,-1.59619092941284,-0.17837265133858,2.90726041793823,0.16386459767818,-1.30404460430145,14.8841133117676,14.9177112579346,14.4247426986694,5.24360084533691,10.1541090011597,13.5227508544922,-28.8127212524414,-21.6226348876953,-18.8142356872559,14.8159189224243,13.3336086273193,10.3504333496094,-0.48319441080093,-1.12948977947235,-0.73792523145676,-0.67057734727859,-0.62109726667404,-2.00837230682373,12.8187780380249,10.4736661911011,7.63986253738403,16.4583415985107,18.9674644470215,19.7503681182861,-12.7494230270386,-6.71124649047852,-1.25456166267395,10.1229839324951,11.1500968933105,12.433388710022,-0.33108896017075,-0.48319441080093,-0.49235737323761,-2.27898550033569,-1.71149170398712,-1.50074315071106,4.50368022918701,1.84091877937317,0.35162931680679,17.3561668395996,12.4740905761719,8.73434734344482,1.24019646644592,1.41736745834351,0.77572137117386,11.4972562789917,10.3743753433228,10.2067813873291,-0.44898596405983,-0.29016098380089,-0.12705996632576,-0.97112303972244,-0.46043968200684,-0.09880745410919,-0.52068626880646,-0.90125530958176,-1.03686738014221,5.44471406936646,3.19147086143494,1.62566292285919,0.59615623950958,0.52672439813614,0.60812723636627,10.3193082809448,9.96496677398682,9.30656147003174,-0.03115412779152,-0.06352998316288,-0.21930062770844,0.11133018881083,0.13026700913906,0.05207626149058,-0.99471771717072,-0.92080301046371,-0.82550799846649,0.6703764796257,0.08619125932455,-0.31124621629715,0.62488663196564,0.8451532125473,0.94092124700546,8.64815616607666,8.15255641937256,8.46380233764648,SWING_LEFT
0.96516710519791,0.59986966848373,0.17287486791611,1.26769804954529,1.08810377120972,0.65805459022522,-3.48888039588928,-3.04050540924072,-2.78394198417664,-3.51468801498413,-3.25611424446106,-3.11725068092346,-2.56897830963135,-2.04225397109985,-1.96563959121704,7.55400562286377,6.6849102973938,6.98179149627686,-0.08124507963657,-0.16982053220272,-0.06780604273081,0.3300199508667,0.15836681425571,0.39660426974297,-2.71796846389771,-2.4546856880188,-1.91529166698456,-3.97437477111816,-5.94031381607056,-5.94031381607056,-1.84353530406952,-1.79325711727142,-1.79325711727142,7.85328102111816,9.45500183105469,9.45500183105469,-0.12705996632576,-0.26511552929878,-0.3897320330143,0.74785178899765,0.7722864151001,0.52183163166046,-1.37956285476685,-0.85971647500992,-0.47487136721611,-6.18452215194702,-6.26831912994385,-6.65139150619507,-2.06140756607056,-2.18111777305603,-2.33434677124023,8.40394687652588,7.81257963180542,8.07833576202393,-0.22418753802776,0.12095131725073,0.27916541695595,0.09239336848259,-0.47571131587029,-1.24723410606384,-0.19998200237751,0.39011383056641,1.83969700336456,-8.3800048828125,-12.7589998245239,-17.7607860565186,-3.77565598487854,-6.52928733825684,-10.228328704834,8.67209815979004,8.54281139373779,8.46380233764648,0.25656339526176,-0.17348572611809,-1.25532805919647,-1.47997379302979,-0.5050328373909,0.53465980291367,4.32042074203491,8.16887187957764,11.0405492782593,-23.9665584564209,-23.7199554443359,-16.2284984588623,-16.2045555114746,-22.316951751709,-28.1279792785645,9.70399856567383,7.57315921783447,5.4351372718811,-2.87351012229919,-3.95657420158386,-4.03293228149414,1.22127234935761,1.80587041378021,2.40268564224243,13.8651905059814,15.4143447875977,15.0954732894897,-3.95282697677612,9.44542503356934,16.9635181427002,-33.7447776794434,-30.5724601745605,-21.2395610809326,8.29141998291016,13.8387851715088,17.473482131958,-2.77943682670593,-2.11298298835754,-1.64383840560913,0.97998058795929,-0.36575555801392,-0.89415401220322,12.935453414917,10.0704956054688,7.24157857894897,20.1741428375244,19.6546001434326,17.0975933074951,-15.0840692520142,-9.46457862854004,-6.26831912994385,14.6192951202393,14.4732484817505,13.2857246398926,-1.08978354930878,-0.96211278438568,-0.9950994849205,-1.50990617275238,-1.71943295001984,-1.73592627048492,4.95938587188721,3.10235548019409,1.60512483119965,14.6240835189819,11.8348379135132,8.3800048828125,-4.75009632110596,-3.49792861938477,-2.62883353233337,11.6816091537476,11.0112333297729,11.3607864379883,-0.84543752670288,-0.46853363513947,-0.09224065393209,-1.66934204101563,-1.09879386425018,-0.27107146382332,0.65217500925064,0.26183211803436,0.00893390458077,5.08797788619995,3.19625926017761,2.44447994232178,-1.71664261817932,-0.87388360500336,-0.00718260509893,12.4740905761719,12.6752033233643,11.6241483688354,0.12034045159817,0.16065755486488,0.13683381676674,0.19624045491219,0.3208569586277,0.26954430341721,-0.27450758218765,-0.59215748310089,-0.84566658735275,2.09013819694519,1.40539634227753,0.7972691655159,0.24181437492371,0.42616790533066,0.49799394607544,10.0966482162476,9.36162757873535,9.01446914672852,SWING_LEFT
0.03298672288656,0.0842994004488,0.03909537568688,-0.13240504264832,0.01970040425658,-0.03772092983127,-1.05946946144104,-0.8817076086998,-0.73326736688614,-4.73333692550659,-4.56334829330444,-4.64953947067261,-0.9720458984375,-0.89064306020737,-0.66558808088303,9.87638092041016,9.15572643280029,8.91151809692383,-0.0226020142436,-0.01588249579072,0.06414084881544,-0.12935072183609,-0.22892175614834,-0.31016683578491,-0.62392246723175,-0.56833374500275,-0.47731482982635,-4.76685571670532,-5.20050525665283,-6.00256299972534,-0.4955997467041,-0.5746083855629,-0.94810384511948,9.095871925354,9.31613826751709,9.31374359130859,0.07513642311096,-0.08918632566929,-0.29871311783791,-0.16783522069454,0.06185010448098,-0.04382958263159,-0.2806162238121,0.02115120925009,0.5238932967186,-6.84292793273926,-8.28902530670166,-9.90032291412354,-1.81241071224213,-2.71981310844421,-3.93367338180542,8.68167495727539,7.98496198654175,7.98735618591309,-0.54550266265869,-0.83138757944107,-1.12948977947235,-0.1782199293375,-0.39874228835106,-0.85200428962708,1.29908132553101,2.6845235824585,5.2080078125,-12.3041019439697,-16.051326751709,-19.7743110656738,-5.89482402801514,-9.91708278656006,-15.0673093795776,7.42232465744019,7.67850399017334,6.73518848419189,-1.58947134017944,-2.19544959068298,-3.0659327507019,-0.93935805559158,-0.60704731941223,0.56581395864487,8.63984870910645,12.0808525085449,14.0490608215332,-19.7168502807617,-11.9306058883667,-2.6240451335907,-20.7631149291992,-25.2645149230957,-28.2788143157959,6.74955368041992,7.37444067001343,10.4485950469971,-3.33960032463074,-2.49782800674438,-1.18141341209412,1.37704300880432,1.23715484142303,0.1394299864769,14.673975944519,14.8700637817383,13.3819961547852,5.61709642410278,13.7214689254761,19.4750347137451,-27.3690166473389,-21.9410629272461,-14.849437713623,15.1175880432129,16.2452564239502,15.0146369934082,-0.83871799707413,-0.70371675491333,-0.27183502912521,0.04291328415275,-0.53252178430557,-1.5801557302475,10.659369468689,7.35703182220459,4.37417697906494,21.4430694580078,19.8197994232178,17.2220916748047,-9.13657283782959,-4.95390272140503,-2.01831197738647,14.3990278244019,13.5706348419189,13.2809362411499,-0.15332718193531,-0.10262536257505,0.0274889357388,-1.39200913906097,-1.07863533496857,-0.91919946670532,1.88245761394501,0.14271339774132,-0.87071204185486,13.1085538864136,8.74392414093018,4.85544109344482,-0.66319388151169,-0.69671267271042,-0.73980832099915,12.4429655075073,11.3966989517212,10.927435874939,0.13194689154625,0.21746802330017,0.28405234217644,-0.44211372733116,0.0404698215425,0.30680707097054,-1.30809152126312,-1.40460824966431,-1.40949523448944,2.20266556739807,0.78290396928787,0.05985504388809,-0.59136784076691,0.07661445438862,0.82839381694794,10.1445322036743,9.4119062423706,8.43746566772461,0.20463985204697,-0.01527163106948,-0.30787608027458,0.3428481221199,0.25121831893921,0.07651086896658,-1.44920146465302,-1.47607946395874,-1.44736886024475,-0.55545479059219,-1.29047477245331,-1.8866308927536,1.07739078998566,1.1180921792984,1.03190088272095,7.62583160400391,7.30022048950195,7.53006362915039,SWING_LEFT
0.21074850857258,0.02382374368608,-0.15027284622192,0.80038619041443,0.61162883043289,0.47846019268036,-2.99285793304443,-2.75400948524475,-2.55486750602722,-3.51947641372681,-3.87142419815064,-3.96240377426147,-1.23061966896057,-1.28329205513,-1.48201084136963,8.12861442565918,7.94186639785767,8.32015037536621,-0.3897320330143,-0.5155702829361,-0.57360243797302,0.47051894664764,0.62201350927353,0.81260347366333,-2.2891411781311,-2.06861877441406,-1.8768070936203,-3.94803857803345,-4.05098915100098,-4.21618938446045,-1.62805712223053,-1.93212080001831,-2.07577276229858,8.95940208435059,9.06235313415527,8.97137260437012,-0.44043383002281,-0.38667771220207,-0.28405234217644,0.65500026941299,0.22006420791149,-0.17211128771305,-1.74852538108826,-1.69049322605133,-1.28304612636566,-4.60644388198853,-5.93791961669922,-8.00411510467529,-2.58334374427795,-3.8690299987793,-5.26993703842163,8.27705478668213,8.27226638793945,8.18846893310547,-0.30665436387062,-0.30237829685211,-0.05925392732024,-0.3798054754734,-0.92286467552185,-1.83855164051056,-0.4669301211834,0.80794566869736,2.51653575897217,-10.3647985458374,-13.1708030700684,-14.3415670394897,-6.8141975402832,-8.76307773590088,-11.8061075210571,8.15734481811523,8.53802299499512,9.61301898956299,0.16065755486488,-0.01343903504312,-0.92301738262177,-2.32907652854919,-0.96562522649765,1.49310731887817,8.00577068328857,11.9458513259888,15.4100685119629,-18.1414642333984,-13.1731967926025,-1.93451499938965,-22.3121643066406,-30.0241870880127,-36.2829284667969,10.4031057357788,9.66569137573242,11.8228673934937,-1.90162348747253,-2.40864157676697,-1.77028751373291,3.5547776222229,3.26339483261108,1.41491663455963,17.2243385314941,17.1681385040283,15.0392732620239,10.0822830200195,16.5014362335205,20.4470806121826,-35.3946800231934,-27.2277603149414,-16.3745441436768,12.3184671401978,13.3264255523682,12.7542114257813,-1.203404545784,-0.87231558561325,-0.88819807767868,-0.52152621746063,-1.82816696166992,-2.07984352111816,11.7118902206421,8.14382648468018,4.99542713165283,21.7926216125488,20.3153991699219,17.8757076263428,-9.08629512786865,-4.71657752990723,-2.42532634735107,12.0838356018066,11.54274559021,11.4900732040405,-1.06962502002716,-1.09833574295044,-0.93767815828323,-1.76891303062439,-1.6155858039856,-1.4811954498291,2.36626291275024,0.60636013746262,-0.40828704833984,13.9896202087402,10.0942535400391,6.54844093322754,-1.77410340309143,-1.92733240127563,-1.62805712223053,11.2338933944702,11.0639057159424,11.7749834060669,-0.72631877660751,-0.35308012366295,-0.10629054903984,-1.15865862369537,-0.63087105751038,-0.14278975129128,-0.82734060287476,-1.07535195350647,-1.09489953517914,3.96479797363281,2.18830037117004,1.18991827964783,-1.15161097049713,-0.71107792854309,-0.3687070608139,12.0958061218262,11.2650184631348,10.051157951355,-0.01954768784344,-0.07635815441608,-0.16554448008537,0.08506298810244,0.09422596544027,0.03436116874218,-1.05580425262451,-1.04358696937561,-1.01731967926025,0.71107792854309,0.19393034279346,-0.42616790533066,-0.17717093229294,0.23223756253719,0.29448682069778,8.9163064956665,8.6984338760376,8.61463737487793,SWING_LEFT
-0.16432274878025,-0.51923543214798,-0.84604835510254,-0.91981035470963,-0.85933470726013,-0.36025777459145,-3.33677506446838,-3.52736496925354,-3.62021660804749,-0.24420857429504,-0.6703764796257,-1.02471828460693,-0.60094463825226,-0.88824880123138,-0.90261405706406,8.92588329315186,9.43345355987549,10.5228157043457,-0.88758718967438,-0.9089674949646,-0.88941979408264,0.25366178154945,1.15468800067902,1.90910661220551,-3.63426637649536,-3.50781726837158,-3.19383263587952,-1.62805712223053,-2.26970314979553,-2.70784211158752,-1.27850365638733,-2.06380176544189,-2.54982471466064,10.7550535202026,10.5467576980591,9.83568000793457,-0.75686204433441,-0.56749379634857,-0.5839871764183,2.06548810005188,1.87734162807465,1.607950091362,-2.91833233833313,-2.62633872032166,-2.13398146629334,-3.5769374370575,-5.12389087677002,-7.01052188873291,-3.18668246269226,-4.02465295791626,-5.5740008354187,9.54358768463135,8.93785381317139,8.42549514770508,-0.60353487730026,-0.37018433213234,0.07941248267889,0.91278541088104,-0.3755294084549,-1.86420798301697,-1.40399742126465,0.07673994451761,2.75110793113709,-10.2474822998047,-16.4008808135986,-19.2787113189697,-7.71920537948608,-11.2386817932129,-14.5714111328125,8.51647472381592,9.5531644821167,11.5475339889526,0.41722095012665,0.47403141856194,0.09162978827953,-1.91674244403839,-0.77381354570389,0.53404891490936,5.78283214569092,9.18412971496582,11.8774347305298,-21.0552082061768,-18.6514301300049,-12.6129541397095,-15.9435873031616,-22.3552589416504,-28.8677883148193,11.585841178894,10.5850648880005,9.06953525543213,-0.96577793359756,-2.23271250724792,-2.66520500183105,2.44788980484009,2.55051517486572,1.04473233222961,14.8211946487427,16.1339435577393,15.9164752960205,-1.18034148216248,9.53879928588867,16.0441436767578,-34.6213531494141,-32.5907707214355,-24.527099609375,6.84771633148193,8.21001720428467,11.6792154312134,-1.80205249786377,-1.29320168495178,-0.7617489695549,-0.71700310707092,-1.02854430675507,-1.32725751399994,14.1186990737915,11.0668163299561,7.46271181106567,20.6194629669189,22.7335433959961,20.4686279296875,-14.6695728302002,-8.382399559021,-5.37767648696899,13.1301012039185,14.6192951202393,12.5914058685303,-0.45692721009254,-0.46242499351501,-0.52167892456055,-1.83305382728577,-1.6656768321991,-1.15865862369537,4.45175695419312,2.01501536369324,0.00893390458077,17.6722011566162,14.8135242462158,10.8867340087891,-3.21541285514832,-1.5179238319397,-0.73262572288513,11.571475982666,11.3823337554932,11.2769889831543,-0.48014008998871,-0.29626965522766,-0.20280726253986,-0.70661836862564,-0.55634552240372,-0.3058907687664,-1.36306941509247,-2.08205771446228,-2.27203702926636,6.85968732833862,3.16513466835022,0.67277067899704,-0.7493851184845,-1.10133278369904,-1.08696758747101,10.9082822799683,10.2211465835571,9.89074611663818,-0.1777617931366,-0.1814269721508,-0.15332718193531,0.04963280260563,0.22372940182686,0.27992901206017,-2.15780520439148,-1.88841354846954,-1.53105735778809,-0.82121115922928,-1.75494980812073,-2.09971499443054,-0.76614451408386,-0.40222588181496,-0.13886369764805,9.3927526473999,9.30656147003174,9.14614963531494,SWING_LEFT
0.09101892262697,-0.30848693847656,-0.70310592651367,-0.88315844535828,-0.42928555607796,0.43936482071877,-4.62692260742188,-4.44183015823364,-4.14678239822388,-2.9664158821106,-3.49314022064209,-3.91691398620605,-2.96162748336792,-3.21301865577698,-3.84748220443726,7.97059679031372,8.32733249664307,8.72716426849365,-0.80939644575119,-0.8045095205307,-0.72754049301147,1.02335202693939,1.04534316062927,0.75945824384689,-3.78392839431763,-3.16634368896484,-2.38810133934021,-5.07121849060059,-6.62026691436768,-7.81976222991943,-4.52982950210571,-4.92277812957764,-4.95390272140503,8.73195266723633,8.87321090698242,9.43824195861816,-0.42516219615936,-0.07513642311096,0.18448130786419,0.27015516161919,-0.28084528446198,-0.65591657161713,-1.54144203662872,-0.73143476247787,0.20257818698883,-7.81976222991943,-9.24670600891113,-9.73512363433838,-4.95390272140503,-5.83257484436035,-6.34014558792114,9.43824195861816,9.97933197021484,9.79497814178467,0.24801129102707,0.18081611394882,0.13500121235847,-0.76526141166687,-1.13666749000549,-1.80434322357178,1.19156897068024,2.14818406105042,3.36075139045715,-9.8691987991333,-9.8691987991333,-12.8188552856445,-6.93869590759277,-6.93869590759277,-11.7366762161255,9.0360164642334,9.0360164642334,9.59626007080078,0.22357667982578,0.31703907251358,0.0177150927484,-2.15192556381226,-1.19164538383484,0.84986627101898,5.50061225891113,8.90496444702148,13.1284866333008,-17.753604888916,-18.0433025360107,-10.5371809005737,-15.3067302703857,-22.1182346343994,-31.8389911651611,10.8053312301636,10.9825029373169,8.62660789489746,-1.23272609710693,-3.19971203804016,-3.40068674087524,2.01478624343872,1.47539234161377,0.70936727523804,16.2188549041748,16.6977729797363,15.8871545791626,4.3454761505127,11.8683567047119,11.8683567047119,-36.9341506958008,-30.6586513519287,-30.6586513519287,3.24893164634705,7.42711305618286,7.42711305618286,-2.10076546669006,-1.14720487594604,-1.04885566234589,-0.49953505396843,-0.88804537057877,-0.99800109863281,13.6672697067261,10.826135635376,8.00088405609131,17.5764331817627,18.2013206481934,17.3465900421143,-9.32571506500244,-8.62181949615479,-5.75595998764038,14.0734167098999,11.6002063751221,11.310507774353,-0.91324353218079,-0.78068578243256,-0.78190749883652,-1.28632950782776,-0.86177814006805,-0.58749967813492,5.40043067932129,3.13106608390808,1.45668458938599,15.6395244598389,12.6273193359375,9.41908836364746,-3.28245043754578,-1.96085119247437,-2.03746557235718,12.2610063552856,11.6720323562622,10.3240966796875,-0.75808376073837,-0.76907932758331,-0.58643060922623,-0.96318179368973,-1.02426826953888,-0.58383446931839,0.35101842880249,-0.42478042840958,-0.94035071134567,7.0727710723877,5.23162984848022,3.45483303070068,-1.8674772977829,-0.98401689529419,-0.37828385829926,10.1900215148926,11.4517660140991,11.9330005645752,-0.28099802136421,0.07757988572121,0.22418753802776,-0.09636399149895,0.27870726585388,0.47418415546417,-1.22195959091187,-1.26472008228302,-1.17309033870697,1.64721071720123,0.25857377052307,-0.68474167585373,-0.29448682069778,-0.35434186458588,-0.45968672633171,11.6456966400146,10.6521024703979,9.37599277496338,SWING_LEFT
-0.06230825558305,-0.06597344577312,-0.11789698898792,0.72097373008728,0.79122322797775,0.79061233997345,-3.05089020729065,-2.51271772384644,-2.09122085571289,-3.91212558746338,-3.8379054069519,-3.59369683265686,-2.04464817047119,-1.56580793857574,-1.58496153354645,9.38796424865723,8.89954662322998,8.65054988861084,-0.24495697021484,-0.40683624148369,-0.47219884395599,0.86635965108871,0.98059141635895,0.97570449113846,-1.78762078285217,-1.54327464103699,-1.32519578933716,-3.52665901184082,-3.84269380569458,-4.1659107208252,-1.76692080497742,-1.79325711727142,-2.00155258178711,8.47577285766602,8.43746566772461,8.43507194519043,-0.4850270152092,-0.50946164131165,-0.58459806442261,0.97142845392227,0.93783086538315,0.80038619041443,-1.13827097415924,-0.84688830375671,-0.41195225715637,-4.96587371826172,-6.06002378463745,-7.90834760665894,-2.69108271598816,-3.36624765396118,-4.66869354248047,8.45422554016113,8.09748935699463,8.15973854064941,-0.53450709581375,-0.50029861927032,-0.59925878047943,0.31902438402176,-0.80252420902252,-1.99982011318207,0.35834881663322,2.02051305770874,4.96793794631958,-11.8659629821777,-17.5884037017822,-21.0097179412842,-7.38401746749878,-11.5403518676758,-16.3362369537354,7.78384876251221,7.36725807189941,9.70639324188232,-0.39522981643677,-0.46181413531303,-1.46363317966461,-1.53556251525879,-0.40607267618179,0.27137687802315,8.63435077667236,12.1541566848755,14.8193616867065,-19.3457489013672,-13.8603324890137,-5.03051710128784,-21.5819320678711,-27.4288730621338,-32.3705062866211,10.3336734771729,6.83574533462524,3.65355181694031,-3.17955350875854,-4.25223302841187,-3.46299505233765,1.11376011371613,1.36421477794647,-0.0792597681284,15.9164752960205,15.6739625930786,14.5279788970947,4.27843856811523,11.5738706588745,14.9212636947632,-36.1273078918457,-29.5357704162598,-19.7455806732178,5.25317764282227,11.6863975524902,14.6791496276855,-1.75990271568298,-1.08489668369293,-1.13132238388062,-1.64918339252472,-1.42988276481628,-1.65651381015778,12.5768756866455,9.46757125854492,6.27824401855469,19.3864498138428,19.8844432830811,18.019359588623,-12.7350578308105,-8.99292087554932,-6.40000057220459,15.7305040359497,13.4054346084595,10.8795518875122,-1.20584797859192,-1.24860858917236,-0.93279123306274,-2.61557221412659,-2.22339677810669,-1.82938873767853,2.01745891571045,0.51656293869019,-0.39973494410515,12.4214172363281,9.11263084411621,6.2587423324585,-2.827552318573,-2.27449154853821,-1.68312382698059,11.1405200958252,12.0718641281128,13.161226272583,-0.42577308416367,0.00244346098043,0.22418753802776,-1.08352220058441,-0.29061913490295,0.1846340149641,-0.89331406354904,-1.10772776603699,-1.18347501754761,4.02944135665894,2.50194072723389,1.27371525764465,-1.17794728279114,-0.90979665517807,-0.78529816865921,12.8643445968628,11.2195281982422,9.90032291412354,0.28955012559891,0.19608774781227,0.04642575979233,0.37400224804878,0.30192014575005,0.20601430535316,-1.1523209810257,-1.06741070747375,-0.86093819141388,0.29448682069778,-0.59855043888092,-0.89782565832138,-0.63685762882233,-0.50757074356079,-0.31124621629715,8.56675338745117,8.13100814819336,7.79103183746338,SWING_LEFT
0.21563543379307,0.22113321721554,0.36468654870987,0.89079421758652,0.9011789560318,0.23716843128204,-2.71185994148254,-2.74179220199585,-2.6935338973999,-3.6846764087677,-3.58651423454285,-4.06296014785767,-1.80043971538544,-2.1284453868866,-2.68150591850281,9.00010299682617,7.78384876251221,7.90116500854492,0.45326200127602,0.31520646810532,0.14599679410458,-0.28634309768677,-0.52885657548904,-0.37797287106514,-2.53715252876282,-2.25310015678406,-1.87741792201996,-4.61362648010254,-5.25078344345093,-5.85412263870239,-3.48356342315674,-3.76129078865051,-4.42687892913818,7.86046361923218,8.37282276153564,8.13100814819336,-0.04948008432984,-0.25473082065582,-0.4147774875164,-0.33582317829132,-0.42562034726143,-0.4225660264492,-1.36306941509247,-0.64224845170975,0.25694519281387,-6.85011053085327,-7.91553020477295,-9.02883434295654,-5.21008205413818,-5.90440082550049,-6.68730449676514,7.89637660980225,8.19804573059082,8.71519374847412,-0.39522981643677,-0.32314771413803,-0.1472185254097,-0.53252178430557,-0.93752545118332,-1.62291622161865,1.3479505777359,2.67597150802612,4.30759286880493,-10.1158018112183,-11.3152961730957,-14.037504196167,-7.94186639785767,-9.79737281799316,-13.0750350952148,8.62421417236328,8.53323459625244,8.37282276153564,0.16554448008537,-0.08307767659426,-0.74953162670135,-2.31991338729858,-1.90635776519775,-1.06153106689453,6.7284517288208,10.1034822463989,14.0111865997314,-15.8286657333374,-15.1056175231934,-5.69849920272827,-18.5939693450928,-25.7672958374023,-37.7170562744141,7.00812768936157,5.32021522521973,1.86987149715424,-2.25164937973022,-2.91443800926209,-0.85032439231873,-0.54046303033829,0.46074512600899,-0.36209037899971,17.1846313476563,17.8529186248779,12.240288734436,7.99214458465576,16.8629608154297,19.5468616485596,-41.7991714477539,-27.8215217590332,-10.9801082611084,6.16058015823364,15.2612400054932,13.762170791626,-0.40927970409393,-0.4202753007412,-0.67989301681519,-1.29243814945221,-1.67239630222321,-1.66078984737396,9.2855339050293,6.4896035194397,4.07668542861938,18.6418533325195,16.2955360412598,12.9529304504395,-7.63540840148926,-5.54287624359131,-3.95282697677612,12.3471975326538,11.0710878372192,10.1205902099609,-0.95539325475693,-0.91385442018509,-0.65423667430878,-1.76769125461578,-1.89414036273956,-1.67361807823181,2.33510875701904,1.15858232975006,0.4072180390358,9.74470043182373,7.04882907867432,5.14065027236938,-2.9352912902832,-1.79086291790009,-1.10372698307037,10.0272159576416,10.9346179962158,11.2123460769653,-0.45937067270279,-0.21807889640331,-0.0226020142436,-1.3413074016571,-0.76159626245499,-0.31749722361565,0.04436408728361,-0.3019964993,-0.54328829050064,3.76607918739319,2.60249733924866,1.59693253040314,-0.58418524265289,-0.25139117240906,-0.38067805767059,11.1979808807373,10.6736507415771,9.71357536315918,0.02076941914856,-0.07086037099361,-0.17837265133858,-0.05971207842231,0.07101308554411,0.06734789162874,-0.6734025478363,-0.67401343584061,-0.60193133354187,0.61530983448029,-0.07422025501728,-0.41898530721664,-0.57221418619156,-0.6033388376236,-0.54108959436417,8.88757610321045,8.62181949615479,8.56435871124268,SWING_LEFT
0.26633724570274,0.09590584039688,-0.03848451003432,0.8272642493248,1.28968930244446,0.98853266239166,-3.26469302177429,-2.97086668014526,-2.96170377731323,-2.75333189964294,-2.43490314483643,-4.0462007522583,-2.0135235786438,-1.47961664199829,-2.05661916732788,9.47654914855957,8.99292087554932,8.70322227478027,0.06719517707825,0.1472185254097,0.15332718193531,0.77350813150406,0.62384611368179,0.44058656692505,-2.76072907447815,-2.50416564941406,-1.86825501918793,-3.60087943077087,-4.64475107192993,-5.30106163024902,-2.99754047393799,-3.88578939437866,-4.02225875854492,9.36641597747803,9.21079349517822,9.07192993164062,0.08185594528913,-0.00488692196086,0.05619960278273,0.25488352775574,0.11071932315826,-0.0169515106827,-1.15048837661743,-0.59765529632568,-0.23602305352688,-5.38725328445435,-5.35612869262695,-5.61470222473145,-3.58412003517151,-3.41413164138794,-3.39737224578857,9.06953525543213,9.44303035736084,9.50288581848144,0.20891591906548,0.17348572611809,-0.26450464129448,-0.12935072183609,-0.05787948146462,-0.63697975873947,0.05474879592657,0.39561161398888,2.17750549316406,-6.1390323638916,-7.24754762649536,-15.0529441833496,-4.04141235351563,-5.25796604156494,-11.6193599700928,8.94024848937988,7.9945387840271,6.79504346847534,-0.55405479669571,-0.22235494852066,0.04825835302472,-1.53250813484192,-2.28142905235291,-1.3956743478775,4.8103346824646,8.85243034362793,13.0900020599365,-20.3656787872314,-20.2627277374268,-13.2306575775146,-17.9858417510986,-24.8886241912842,-33.8189964294434,8.50689792633057,9.95060157775879,12.4070520401001,-0.51068335771561,-1.66399693489075,-1.98347949981689,1.72767961025238,3.37945914268494,1.68308651447296,16.2884922027588,17.3458995819092,16.9292907714844,-1.38145434856415,9.16769790649414,14.7895822525024,-37.9468994140625,-35.8783111572266,-28.4440135955811,12.0311632156372,10.0056686401367,8.77983665466309,-1.53205001354218,-0.55466562509537,-0.32986724376678,-1.17759549617767,-2.71819758415222,-2.51661205291748,16.1162281036377,13.6122922897339,10.5646848678589,22.0942916870117,23.9521923065186,22.7335433959961,-23.7223491668701,-17.0951995849609,-13.3216371536255,10.1852331161499,11.7606182098389,10.3384618759155,-0.66706484556198,-0.76785761117935,-0.7305948138237,-2.25455093383789,-2.27532029151917,-1.70843732357025,7.56594800949097,4.72114849090576,2.14146447181702,21.1557655334473,19.2715282440186,16.2356796264648,-8.37282276153564,-3.83311700820923,-0.90740245580673,9.95299530029297,11.0136270523071,11.7510414123535,-0.51618111133575,-0.21685716509819,0.11911872029305,-1.01144015789032,-0.38957929611206,0.35384368896484,0.1011745557189,-1.18958365917206,-1.89146792888641,12.0622873306274,8.31536197662354,3.22259545326233,0.11013327538967,-0.18435353040695,-0.08379705995321,11.9497594833374,11.0232038497925,9.45500183105469,0.18692477047443,0.12095131725073,-0.05681046843529,0.71425420045853,0.81382524967194,0.59941154718399,-1.91834592819214,-1.83954429626465,-1.68988239765167,1.73340201377869,0.58657944202423,-0.14365209639072,0.23702596127987,0.43574470281601,0.38786068558693,8.53802299499512,7.73117637634277,7.4678144454956,SWING_LEFT
0.81489425897598,0.27366763353348,-0.48930305242538,1.67209088802338,1.80220520496368,2.32082986831665,-3.65564680099487,-3.26469302177429,-3.05455541610718,-3.004723072052,-3.00711727142334,-4.03662395477295,-3.13401007652283,-3.54820680618286,-2.56897830963135,7.11586666107178,6.7040638923645,7.18290424346924,-0.9211847782135,-0.68233644962311,-0.26206117868423,2.68612718582153,2.35259485244751,1.68980598449707,-2.7625617980957,-2.56464147567749,-2.37954926490784,-4.46518611907959,-5.37049388885498,-5.80623817443848,-2.48278713226318,-2.559401512146,-2.827552318573,8.72955894470215,9.06474685668945,9.17966842651367,0.09957103431225,0.29382619261742,0.32314771413803,1.2634220123291,1.06611251831055,0.79122322797775,-2.25187826156616,-2.02585816383362,-1.66972374916077,-6.49576854705811,-7.40795946121216,-8.07354736328125,-3.33512306213379,-3.98634576797485,-4.9012303352356,8.8372974395752,7.98735618591309,6.84053373336792,0.14294247329235,-0.23701570928097,-0.463035851717,0.41798454523087,-0.36209037899971,-0.8733845949173,-1.23600947856903,0.62529695034027,2.98262596130371,-9.31853199005127,-17.5141830444336,-22.1038684844971,-6.06002378463745,-10.9298295974731,-13.9417362213135,6.40000057220459,6.3377513885498,5.86848783493042,-0.75686204433441,-1.11971604824066,-2.45445656776428,-1.46775650978088,-2.22706198692322,-1.59848165512085,6.21471405029297,9.97581100463867,13.3813848495483,-23.9186744689941,-18.6466407775879,-8.22917079925537,-18.8142356872559,-26.942850112915,-35.464111328125,4.09408473968506,1.49398183822632,2.17154097557068,-4.02560186386108,-4.53506374359131,-3.52469253540039,-0.13851369917393,-0.0517708286643,-0.74632459878922,15.4754314422607,15.8309545516968,14.7258996963501,4.67108774185181,13.1995334625244,17.5165786743164,-38.9309158325195,-29.8326511383057,-20.9809875488281,5.98580360412598,13.2115039825439,15.529390335083,-2.02196407318115,-1.47157442569733,-1.52105450630188,-1.60520112514496,-1.95644867420197,-2.3412938117981,12.6165819168091,9.77361488342285,6.87444829940796,19.6306591033936,19.1853370666504,17.3753204345703,-13.4413480758667,-10.1086187362671,-7.7072343826294,13.5706348419189,11.2458648681641,11.1261548995972,-1.29992127418518,-1.12704634666443,-1.02686452865601,-2.68460011482239,-2.25943779945374,-1.61925101280212,4.5714864730835,2.61366319656372,1.09199798107147,15.0385789871216,12.2083339691162,9.11981391906738,-4.40054273605347,-2.50194072723389,-1.78128612041473,11.7941370010376,11.5930242538452,11.640908241272,-0.71532320976257,-0.37812557816505,-0.14966198801994,-1.33397698402405,-0.97967511415482,-0.51297408342361,0.02664899639785,-0.61964643001556,-0.88964885473251,6.20367574691772,3.83551120758057,2.05183076858521,-1.32638776302338,-1.18512988090515,-1.35511815547943,11.6337251663208,11.1572790145874,10.2666358947754,-0.0842994004488,-0.13500121235847,-0.17715092003345,-0.09086620807648,0.14126259088516,0.20906862616539,-0.87254464626312,-0.83161669969559,-0.8517752289772,1.30723416805267,1.01992988586426,1.00077629089355,-1.11090958118439,-0.64404028654099,-0.11252748221159,9.38556957244873,9.26107120513916,9.20361042022705,SWING_LEFT
-0.12400564551353,-0.36346483230591,-0.51862460374832,0.82420992851257,1.88283944129944,2.6390905380249,-3.25797343254089,-2.71185994148254,-2.20728516578674,-4.92277812957764,-5.59076023101807,-6.44309616088867,-3.79002118110657,-4.26646757125854,-4.42448472976685,9.97693729400635,9.6896333694458,8.72477054595947,-0.57971113920212,-0.53572881221771,-0.34269541501999,2.79547214508057,2.39535522460938,1.49616169929504,-1.76562964916229,-1.22745740413666,-0.46448665857315,-7.61864900588989,-8.9953145980835,-10.134955406189,-4.80037450790405,-5.16219806671143,-5.67216300964355,7.92750120162964,7.32655668258667,6.90038871765137,-0.04764748737216,0.2138028293848,0.23762658238411,0.28359419107437,-0.7994698882103,-1.21424734592438,0.44081562757492,1.37666118144989,2.25325274467468,-10.9633483886719,-11.1788272857666,-11.4613428115845,-6.00256299972534,-6.12706136703491,-6.58914232254028,7.02728128433228,7.24036502838135,7.75751256942749,0.22907446324825,0.0250454749912,-0.26022860407829,-1.2789990901947,-1.770134806633,-2.42070627212524,3.21536564826965,4.35218572616577,6.17500782012939,-11.6863975524902,-13.7525939941406,-15.8238773345947,-7.80060863494873,-11.3727569580078,-16.0944232940674,7.27148962020874,6.2587423324585,6.99376249313354,-0.49907690286636,-0.21441370248795,-0.50701814889908,-2.464688539505,-1.62658143043518,0.0258090570569,8.80172824859619,11.8578872680664,14.6886367797852,-16.7336750030518,-13.161226272583,-2.93768548965454,-21.8357181549072,-29.0258045196533,-38.6148834228516,9.15812110900879,9.33050346374512,5.6434326171875,-2.37321138381958,-3.50514483451843,-3.12213230133057,1.33916938304901,2.11374640464783,1.35932791233063,16.4656429290771,16.3709602355957,14.857234954834,8.23874759674072,13.7789297103882,18.4479217529297,-37.8990173339844,-25.5781555175781,-19.2140674591064,7.55400562286377,14.3032598495483,14.1404542922974,-1.57725405693054,-1.18385684490204,-0.99082344770432,-1.24906671047211,-1.99310052394867,-2.23866844177246,12.2897691726685,9.6459436416626,7.58732795715332,19.0081653594971,18.7591686248779,18.457498550415,-16.130334854126,-13.9824371337891,-9.24910068511963,12.0191917419434,11.1405200958252,11.4541597366333,-0.66156703233719,-0.57971113920212,-0.44776421785355,-2.22767281532288,-1.89169692993164,-1.51173877716064,5.4737343788147,3.2581262588501,1.22211229801178,17.2484283447266,14.8470430374146,11.8683567047119,-5.06882429122925,-1.9632453918457,-0.30645781755447,11.20276927948,11.5738706588745,11.7079458236694,-0.15638150274754,0.10323622822762,0.18997909128666,-1.12261760234833,-0.38408151268959,0.14981469511986,-0.25129470229149,-1.2201269865036,-1.78823161125183,8.84208583831787,6.09593677520752,3.58412003517151,0.66558808088303,0.91219085454941,0.90500825643539,11.8899049758911,10.8651866912842,9.45979022979736,0.20036379992962,0.02871066704392,-0.24678955972195,0.18646661937237,0.00870482996106,0.04474587738514,-2.07717084884644,-2.11932063102722,-1.83710086345673,1.55144274234772,-0.21547815203667,-0.89064306020737,0.71347212791443,0.25857377052307,-0.0454898327589,8.07115364074707,7.75511837005615,7.90834760665894,SWING_LEFT
0.05131268128753,0.04031710699201,0.00916297826916,0.69714993238449,0.67454797029495,0.66966104507446,-0.23846651613712,-0.06681338697672,0.00710130855441,-4.72854852676392,-4.05577754974365,-3.60806202888489,-3.12922167778015,-2.46123933792114,-1.85071790218353,9.39993476867676,9.11741924285889,8.86602783203125,-0.00488692196086,0.07147123664618,0.1246165111661,0.57986384630203,0.46685376763344,0.41981714963913,-0.03749185428023,-0.1511127948761,-0.2677880525589,-3.37821865081787,-3.34948825836182,-3.32794046401978,-1.36230075359344,-0.97444009780884,-0.96725749969482,8.87081623077393,8.66012668609619,8.13100814819336,0.00549778714776,-0.16982053220272,-0.1490511149168,0.57803124189377,0.80282962322235,0.71791934967041,-0.37652206420898,-0.47548222541809,-0.61598122119904,-3.53623580932617,-4.10126733779907,-6.09833097457886,-1.21386027336121,-1.72621941566467,-2.80361008644104,7.64259099960327,7.70962858200073,7.99214458465576,0.01832595653832,0.13316862285137,0.14782938361168,0.60979622602463,0.22006420791149,-1.2912163734436,-0.61598122119904,-0.05032002553344,2.04250431060791,-8.12621974945068,-15.436017036438,-23.7702331542969,-5.94749641418457,-10.8101196289063,-15.6826200485229,8.0448169708252,7.19726943969727,6.38563537597656,0.32436943054199,0.1472185254097,-1.03847086429596,-2.88007688522339,-1.98821365833282,0.75945824384689,6.29595899581909,10.9806842803955,14.6464872360229,-26.7034301757813,-18.625093460083,-7.64259099960327,-21.2635040283203,-28.8031444549561,-34.4130592346191,8.93067169189453,8.46619606018066,7.47020864486694,-2.66092896461487,-3.64197850227356,-3.10869312286377,2.34282088279724,0.77961677312851,-1.20997130870819,16.1999168395996,15.9366340637207,15.0973052978516,4.76924991607666,11.9856729507446,15.8669729232788,-38.1432228088379,-28.6834335327148,-21.0169010162354,5.88045883178711,8.34409236907959,12.1197481155396,-1.86863672733307,-1.50028502941132,-1.51922190189362,-2.2069034576416,-2.11038661003113,-2.44269728660584,13.1132154464722,10.2965154647827,7.66307544708252,19.5755920410156,19.4127864837646,17.9618988037109,-14.2912893295288,-11.0998182296753,-8.76307773590088,11.458948135376,10.000880241394,8.86363410949707,-1.29503428936005,-1.27487576007843,-1.25960409641266,-3.00408244132996,-2.38771963119507,-1.79518020153046,5.56353139877319,3.78469204902649,2.40719079971313,16.0728740692139,14.5211324691772,12.7542114257813,-5.94749641418457,-3.19386506080627,-0.61291563510895,9.69681644439697,10.5323925018311,10.9489831924438,-1.0867292881012,-0.76969021558762,-0.54489177465439,-1.37246143817902,-0.98578381538391,-0.63575798273087,0.62407523393631,-0.60254222154617,-1.25189197063446,9.62499046325684,6.71842908859253,4.28562116622925,0.08140286058187,-0.35673606395721,-0.48841714859009,11.4828910827637,10.9968681335449,10.6928043365479,-0.48624873161316,-0.4972442984581,-0.42699480056763,-0.04382958263159,0.48456886410713,0.47540587186813,-1.44309282302856,-1.44248187541962,-1.43087542057037,2.76530289649963,1.90339040756226,1.11569797992706,-0.56742578744888,-0.35913026332855,-0.07661445438862,10.2067813873291,9.85962200164795,9.67766284942627,SWING_LEFT
-0.11301007121801,-0.13316862285137,-0.1148426681757,0.00259617739357,-0.05360342562199,-0.11774427443743,0.15981762111187,0.09995282441378,0.03336851298809,-3.07654929161072,-2.94247388839722,-3.09330868721008,-1.76452660560608,-1.52989482879639,-1.49877023696899,9.3735990524292,9.534010887146,9.58428859710693,-0.09407325088978,-0.09407325088978,-0.064751714468,-0.13973543047905,-0.04016438871622,0.08811730891466,0.04008803144097,0.06269004940987,0.02542726509273,-3.00951147079468,-2.88980150222778,-2.95444488525391,-1.66397023200989,-1.58974993228912,-1.3718775510788,9.67526817321777,9.711181640625,9.59386539459228,-0.02687807008624,-0.02076941914856,-0.06780604273081,0.13393220305443,0.15164729952812,0.13454307615757,-0.05154175683856,-0.11812606453896,-0.21219931542873,-3.17231726646423,-3.57454323768616,-3.9384617805481,-1.28089785575867,-1.52989482879639,-1.84832370281219,9.23952388763428,8.65294456481934,7.89398241043091,-0.16187928617001,-0.11362093687057,0.00733038317412,-0.0468839071691,-0.46777006983757,-0.87949323654175,-0.31299206614494,-0.19081902503967,0.32841643691063,-5.72483539581299,-8.21241092681885,-12.2035455703735,-2.45405673980713,-4.2449197769165,-7.36246967315674,7.98975038528442,8.33212089538574,8.50689792633057,0.11667526513338,0.2852740585804,0.60720002651215,-1.52151262760162,-2.1635320186615,-2.54165768623352,1.66071355342865,4.18603038787842,7.86343908309937,-17.3513774871826,-22.9945125579834,-21.5867214202881,-11.4038820266724,-16.5421371459961,-23.2339324951172,8.75350093841553,9.27783107757568,8.9953145980835,0.1814269721508,-0.76480329036713,-1.47890472412109,-1.08107876777649,1.81808769702911,2.71361613273621,11.7008943557739,14.3825931549072,15.7387142181396,-13.2306575775146,-3.42610263824463,7.50612163543701,-28.9084892272949,-31.0536937713623,-29.758430480957,10.5563344955444,10.4940853118896,7.12544345855713,-2.07205486297607,-1.61207342147827,-1.17286121845245,1.21088767051697,-0.91797775030136,-2.12626910209656,15.724663734436,13.94215965271,11.0723142623901,15.1463184356689,19.8628959655762,20.9211330413818,-24.1173915863037,-16.922815322876,-10.9657430648804,8.37282276153564,9.25867748260498,9.95060157775879,-1.28464961051941,-1.15697872638702,-1.13926362991333,-1.99493312835693,-2.28631591796875,-2.07190227508545,7.94773864746094,5.20067739486694,2.73583626747131,19.7216377258301,17.7703628540039,14.9236574172974,-7.10628986358643,-3.99592256546021,-1.93212080001831,9.77103614807129,9.888352394104,9.89314079284668,-1.17896997928619,-0.88331115245819,-0.56871557235718,-1.63391184806824,-1.33825302124023,-0.71761393547058,0.80183696746826,-0.41195225715637,-1.1278862953186,10.9944734573364,7.50372743606567,4.87698888778687,-1.00795888900757,-0.25617957115173,-0.07422025501728,10.7861776351929,11.4996500015259,11.231499671936,-0.31276300549507,-0.13133603334427,-0.13133603334427,-0.04382958263159,0.37216964364052,0.39904773235321,-1.49074029922485,-1.65628480911255,-1.68010854721069,2.83473491668701,1.1755530834198,-0.22744916379452,0.25139117240906,0.26815059781075,0.36391866207123,10.8484268188477,9.90989971160889,9.3328971862793,SWING_LEFT
0.28710666298866,0.34025195240974,0.22907446324825,0.1375973969698,0.11866057664156,0.64095038175583,-2.20850682258606,-1.79067516326904,-1.37467586994171,-3.64397501945496,-3.83551120758057,-3.89297199249268,-2.9855694770813,-2.66714072227478,-2.64559292793274,10.2235403060913,10.5826711654663,10.3193082809448,0.13377949595451,0.14966198801994,0.18692477047443,1.07038867473602,1.01968681812286,0.80282962322235,-0.98372209072113,-0.73021304607391,-0.60193133354187,-3.70622420310974,-3.45004463195801,-3.41652584075928,-2.42532634735107,-2.13323378562927,-1.80043971538544,10.0487642288208,9.8500452041626,9.89074611663818,0.24312436580658,0.27000242471695,0.29077184200287,0.65255677700043,0.73074752092361,0.85047715902328,-0.49136471748352,-0.39545887708664,-0.37774381041527,-3.3231520652771,-3.32554626464844,-3.47638082504272,-1.65439331531525,-1.51313543319702,-1.37666594982147,10.0559463500977,9.80216121673584,9.76145935058594,0.4331034719944,0.56077426671982,0.59864795207977,0.99647390842438,0.97387194633484,0.4039346575737,-0.45898887515068,-0.49869510531425,-0.21281017363071,-4.50109910964966,-6.91235971450806,-10.695198059082,-1.48440504074097,-2.39180755615234,-5.10713148117065,9.35683917999268,7.71202278137207,6.09833097457886,0.26633724570274,-0.66706484556198,-1.50822627544403,-0.38896843791008,-1.23990368843079,-1.77807605266571,0.74441564083099,2.97285199165344,7.03082990646362,-17.2412452697754,-25.0322761535645,-25.8223628997803,-9.534010887146,-16.7815589904785,-23.4589862823486,4.5226469039917,4.69981813430786,7.89637660980225,-1.99630761146545,-2.26508831977844,-2.07083320617676,-0.63942319154739,1.35688447952271,1.18095529079437,11.3862991333008,14.418023109436,15.7100028991699,-18.6179103851318,-7.50851583480835,4.21379518508911,-30.7783603668213,-32.7655487060547,-29.6028079986572,12.1029891967773,11.5499286651611,10.036792755127,-1.73363554477692,-1.48623514175415,-1.52044355869293,0.13637566566467,-0.86666506528854,-1.23929286003113,15.8052978515625,14.1883382797241,10.8285789489746,14.4421243667603,22.2092132568359,23.6026382446289,-26.0641784667969,-17.8182468414307,-12.2107276916504,9.20839881896973,10.4964799880981,10.6233720779419,-1.29869949817657,-0.99021255970001,-0.74586647748947,-2.31380486488342,-2.50928163528442,-1.60703372955322,7.31488227844238,4.23856496810913,1.76761496067047,22.0559844970703,18.7591686248779,14.1404542922974,-7.07755947113037,-4.24013137817383,-2.7629086971283,11.6145715713501,12.7589998245239,12.1412963867188,-0.4025602042675,-0.06841690838337,0.24556782841682,-1.22402119636536,-0.7872526049614,-0.31749722361565,0.08651378750801,-0.90430963039398,-1.33435881137848,9.36402225494385,5.66976881027222,2.90177249908447,-2.11886858940125,-1.63523972034454,-1.17315888404846,11.8803281784058,11.5188035964966,10.7095632553101,0.43615779280663,0.50152039527893,0.38117989897728,0.13271047174931,0.34956762194633,0.35934147238731,-1.45469927787781,-1.45469927787781,-1.422323346138,1.2449848651886,0.03112462162971,-0.89782565832138,-0.45968672633171,0.04070143029094,0.45489832758904,9.62499046325684,8.78223133087158,7.9059534072876,SWING_LEFT
-0.04153883829713,-0.08735372871161,-0.27244588732719,1.92437827587128,2.43383979797363,2.67940759658813,-2.45896172523499,-1.93972623348236,-1.49318373203278,-1.09654438495636,-1.29286897182465,-1.21146607398987,-1.85550630092621,-2.0326771736145,-2.18111777305603,9.96017837524414,9.01207447052002,8.84448051452637,-0.43371433019638,-0.48258355259895,-0.51373767852783,2.96223831176758,3.15832614898682,2.91581249237061,-1.26533102989197,-1.11505818367004,-0.81512331962585,-1.65678763389587,-2.96162748336792,-4.26886177062988,-2.24097275733948,-2.08056116104126,-2.47799873352051,9.19163990020752,8.61463737487793,8.28423690795898,-0.60536748170853,-0.84299403429031,-1.07756626605988,2.5780041217804,2.69223594665527,2.37336421012878,-0.34048101305962,0.08223773539066,0.34063372015953,-5.09037208557129,-5.47344446182251,-6.45267295837402,-2.88501310348511,-3.49792861938477,-4.3143515586853,7.93468379974365,8.03524017333984,7.54203462600708,-0.91446524858475,-0.76358157396317,-0.81000733375549,1.30312824249268,0.28725937008858,-0.63331454992294,0.5800929069519,0.96982491016388,2.05716514587402,-8.28663158416748,-11.5595054626465,-17.8445835113525,-4.90601873397827,-6.93630170822144,-11.6049947738647,7.7455415725708,8.04002857208252,7.2499418258667,-0.64385199546814,-0.17165313661098,0.05131268128753,-2.57892036437988,-3.60334134101868,-2.4591908454895,4.61607980728149,7.46454429626465,12.0277080535889,-23.1597118377686,-25.9779853820801,-16.5876274108887,-18.7663516998291,-26.3850002288818,-33.572395324707,8.47098445892334,9.78061294555664,10.666467666626,0.12339477986097,-0.15515977144241,-0.99143427610397,-0.45982882380486,0.6061310172081,1.10398626327515,15.5340738296509,17.3330726623535,16.7215957641602,-0.63925182819366,12.8643445968628,22.5659503936768,-38.9213409423828,-31.9898262023926,-22.6617183685303,8.54759979248047,7.51569843292236,8.97855567932129,-1.14537239074707,-1.31030595302582,-1.32985365390778,-1.48302805423737,-2.54471182823181,-2.19896221160889,9.96542644500732,6.57390260696411,3.79813098907471,23.9545860290527,21.5939044952393,19.506160736084,-9.36641597747803,-5.63864421844482,-2.08774399757385,7.96820259094238,9.91229438781738,11.1285486221313,-1.3445143699646,-0.99632120132446,-0.68355822563171,-1.33458781242371,-0.89781922101974,-0.50625455379486,1.19767761230469,-0.6361398100853,-1.62879586219788,15.2564516067505,9.82370853424072,5.45189666748047,-0.46447512507439,-0.82121115922928,-1.24259066581726,11.8061075210571,11.6959743499756,11.1907978057861,-0.45265114307404,-0.28405234217644,-0.26939156651497,-0.08597928285599,0.0062613687478,0.12843441963196,-2.01974964141846,-1.96843683719635,-1.64834356307983,2.0973207950592,-0.20829555392265,-1.38384854793549,-1.36230075359344,-1.61608612537384,-1.38384854793549,10.2786073684692,9.69921016693115,9.38317584991455,-0.32803463935852,-0.27061331272125,-0.17837265133858,0.11682797968388,0.01420261710882,-0.0419969856739,-1.23906373977661,-0.88109678030014,-0.60315304994583,-1.7980455160141,-1.76692080497742,-1.46285724639893,-0.95528650283813,-0.2537853717804,-0.05027823522687,9.65372085571289,10.1804447174072,10.4174709320068,SWING_LEFT
0.08918632566929,0.23212879896164,0.26206117868423,0.07284568250179,-0.07559457421303,-0.17699819803238,0.17203491926193,0.12438743561506,0.05047274008393,-3.09091448783875,-2.65756392478943,-2.46842193603516,-1.26174426078796,-1.0223240852356,-0.8930372595787,9.60104846954346,9.18924522399902,8.7582893371582,0.16920967400074,-0.00366519158706,-0.2425135076046,-0.25396722555161,-0.15806138515472,-0.02367102913558,-0.00328340078704,-0.03382666409016,0.1042288839817,-2.34871196746826,-2.77966809272766,-3.17949986457825,-0.88346040248871,-1.03429508209229,-1.52750062942505,8.58830070495605,8.31536197662354,8.2435359954834,-0.42271876335144,-0.49907690286636,-0.39706242084503,0.05085453018546,0.36728271842003,0.99525219202042,0.35895967483521,0.59536451101303,0.66805750131607,-3.43567943572998,-3.51468801498413,-3.80438661575317,-1.53228902816772,-1.31920516490936,-1.29526317119598,8.85884571075439,9.89553451538086,10.1756563186646,-0.18814650177956,-0.02687807008624,-0.12644910812378,1.53708970546722,1.64765632152557,1.38559508323669,0.567875623703,0.36262488365173,0.48846313357353,-4.87459468841553,-6.89320611953735,-11.8013191223145,-1.56580793857574,-3.1890766620636,-6.32338619232178,9.21797561645508,8.05200004577637,6.36648178100586,-0.39767327904701,-0.53145277500153,-0.49357911944389,0.30986139178276,-1.67728328704834,-3.10548615455627,1.75295412540436,4.84393215179443,9.78583240509033,-20.8277587890625,-29.2197360992432,-28.6020317077637,-11.2698068618774,-18.4694709777832,-28.6331558227539,4.99939250946045,4.68545293807983,5.31782102584839,-1.36833810806274,-2.76721954345703,-2.93154239654541,-0.85078257322311,1.95553231239319,1.75577938556671,14.7307863235474,17.2683200836182,17.1992931365967,-12.4405708312988,5.74398899078369,15.5389671325684,-39.6922721862793,-34.6692390441895,-24.0120468139648,7.45105504989624,11.0136270523071,11.99524974823,-1.49723076820374,-1.84359133243561,-1.9156733751297,-1.30648803710938,-1.95889210700989,-2.79272317886353,14.7674379348755,11.3667516708374,8.33747100830078,19.4367275238037,19.860502243042,19.7838878631592,-16.9252109527588,-12.5746469497681,-8.28902530670166,8.26508331298828,9.52682781219482,10.6999864578247,-1.44469630718231,-1.55526292324066,-1.38544237613678,-3.39137101173401,-2.43109107017517,-1.93384659290314,5.5671968460083,3.18421149253845,1.47256708145142,17.6722011566162,14.3104429244995,10.9585599899292,-5.35373449325562,-3.44046783447266,-1.86508309841156,10.7742071151733,10.970531463623,11.3536033630371,-1.00304079055786,-0.77824234962463,-0.601702272892,-1.58870780467987,-1.02549004554749,-0.49586987495422,0.21174116432667,-0.69111764431,-1.26594185829163,8.31536197662354,5.6937108039856,3.16513466835022,-0.87867200374603,-0.40940847992897,-0.75896191596985,11.3176908493042,11.2482585906982,10.8963108062744,-0.44409903883934,-0.43188172578812,-0.41905355453491,-0.02244929783046,0.35262197256088,0.39782598614693,-1.39055836200714,-1.24822676181793,-1.12299942970276,1.54186594486237,0.85473001003265,-0.01436521019787,-1.05105459690094,-0.9241618514061,-0.67277067899704,10.1708679199219,9.52922248840332,8.99770927429199,SWING_LEFT
0.43004912137985,0.48930305242538,0.49174651503563,2.4124596118927,2.57189536094666,2.24569344520569,-2.58235645294189,-2.41497945785522,-2.38321447372437,-1.59214413166046,-1.71424841880798,-2.03746557235718,-2.61207413673401,-2.5091233253479,-2.40617275238037,10.5706996917725,9.20361042022705,8.34888076782227,0.47891834378242,0.48136180639267,0.42455133795738,1.57923936843872,1.08810377120972,1.01052379608154,-2.4290292263031,-2.37466239929199,-2.04112982749939,-2.95444488525391,-4.40054273605347,-5.37288808822632,-2.88022470474243,-3.13161587715149,-3.46680402755737,8.40394687652588,8.84926891326904,9.24910068511963,0.37384954094887,0.31520646810532,0.18753562867641,1.30862605571747,1.53647875785828,1.33489322662354,-1.59153306484222,-1.03320217132568,-0.42905646562576,-6.38084697723389,-7.4678144454956,-9.2347354888916,-3.99352836608887,-4.71657752990723,-6.2970495223999,9.12699604034424,8.19086360931396,7.30022048950195,0.00122173049022,-0.16493362188339,-0.19853121042252,0.49984049797058,-0.8556694984436,-2.44086480140686,0.43531784415245,1.96981132030487,4.5336127281189,-13.5778169631958,-18.9985885620117,-22.1014747619629,-8.48534965515137,-12.1269311904907,-17.7296619415283,6.9722146987915,6.99136829376221,8.23874759674072,-0.18631389737129,-0.95783668756485,-2.18445420265198,-2.20201659202576,-0.19288070499897,1.28174805641174,8.1804780960083,12.2916011810303,15.1919898986816,-22.6186218261719,-15.4695358276367,-5.12149667739868,-25.1663513183594,-33.5149345397949,-39.6611480712891,8.31775569915771,7.89877080917358,8.16213321685791,-2.65848565101624,-2.517986536026,-1.76417887210846,0.87185740470886,0.62873303890228,-0.56550848484039,16.9457836151123,17.8419227600098,16.5597171783447,6.06481218338013,15.9771060943604,26.6794872283936,-40.6786842346191,-33.5364799499512,-25.5350589752197,10.2235403060913,11.8108959197998,10.4629602432251,-0.99143427610397,-0.78190749883652,-0.94500851631165,-2.33151984214783,-2.27043342590332,-2.43903231620789,13.0344133377075,9.10532855987549,5.85186004638672,27.5294284820557,24.8742599487305,21.9266967773438,-15.2492694854736,-11.0303869247437,-5.90918922424316,11.4733142852783,9.34486865997314,10.228328704834,-0.95539325475693,-1.01403629779816,-0.84971356391907,-1.88803172111511,-1.23684942722321,-0.99494677782059,2.95391535758972,0.42432227730751,-1.35207390785217,18.7160739898682,14.2027034759521,9.6920280456543,-2.26012635231018,-0.27533319592476,-0.58179098367691,10.616189956665,10.9106760025024,10.6497087478638,-0.7434229850769,-0.64996063709259,-0.47708576917648,-0.77992218732834,-0.31016683578491,0.26771169900894,-2.13886833190918,-2.53287649154663,-2.56525230407715,5.89721822738647,3.02866506576538,0.75896191596985,-1.08696758747101,-1.08936178684235,-0.73980832099915,10.419864654541,10.6544971466064,10.3169145584106,-0.32131510972977,-0.25106561183929,-0.22968533635139,0.58047467470169,0.48823404312134,0.25915959477425,-2.41192507743835,-2.12848353385925,-1.74241673946381,-0.98401689529419,-2.09253239631653,-2.54264211654663,-0.6224924325943,-0.56503158807755,-0.53151279687881,9.58907699584961,9.29219627380371,9.10544872283936,SWING_LEFT
0.18631389737129,0.29382619261742,0.35308012366295,0.84620106220245,0.93538743257523,1.0300714969635,-1.81755316257477,-1.72103643417358,-1.59336566925049,-1.55383694171906,-2.01112937927246,-2.47081613540649,-2.47560453414917,-2.27688574790955,-2.05901336669922,10.1732625961304,10.1110134124756,9.48133754730225,0.2981022298336,0.18753562867641,0.13316862285137,0.97875881195068,0.80466222763062,0.71975195407867,-1.43026459217072,-1.24578332901001,-1.12605369091034,-2.83234071731567,-2.91853189468384,-3.10527968406677,-1.81480491161346,-1.70946002006531,-1.36948335170746,8.75350093841553,8.75589466094971,9.07911205291748,0.17898350954056,0.46670106053352,0.72143185138702,0.72158455848694,0.74846261739731,0.87430089712143,-1.12849712371826,-1.34657609462738,-1.67094552516937,-3.10527968406677,-3.75650238990784,-5.38725328445435,-1.36948335170746,-1.18273568153381,-2.89458990097046,9.07911205291748,9.61301898956299,8.47098445892334,0.72143185138702,0.35979962348938,-0.24740041792393,1.02579545974731,0.59635716676712,-0.27779096364975,-1.79372942447662,-1.17125773429871,1.03091144561768,-9.56034660339356,-16.9060573577881,-25.7888450622559,-6.37845277786255,-10.8556098937988,-15.3881330490112,6.70166969299316,6.00495719909668,6.31620359420776,-0.29077184200287,-0.25778514146805,-1.22417390346527,-1.37673759460449,-1.93323576450348,-0.33582317829132,5.08400249481201,10.1572380065918,14.575626373291,-31.431978225708,-25.6332206726074,-13.2737531661987,-20.7176265716553,-30.8334274291992,-39.076961517334,6.95784950256348,6.18452215194702,5.43034887313843,-3.01889610290527,-4.41961002349854,-3.54607272148132,2.00195813179016,2.54684996604919,-0.21731531620026,17.1632518768311,17.6207904815674,16.1015682220459,2.48757553100586,13.5921821594238,21.2706871032715,-42.6634788513184,-32.2460060119629,-24.4023017883301,6.76631307601929,11.4278240203857,12.5674638748169,-2.13497400283813,-2.0457878112793,-1.51983273029327,-2.74385404586792,-3.36021709442139,-3.28630232810974,12.9250688552856,9.83409023284912,6.64781761169434,23.3225173950195,23.6912250518799,21.9386692047119,-20.3824367523193,-13.7382287979126,-7.99214458465576,10.5323925018311,12.5650701522827,12.545916557312,-1.19485247135162,-0.9639453291893,-0.70188415050507,-2.59541368484497,-2.08045434951782,-1.9124664068222,3.64236044883728,1.41392397880554,0.00771217374131,17.4112339019775,12.6967506408691,8.52605152130127,-4.76446151733398,-3.05260705947876,-1.64002811908722,11.8611745834351,11.1931924819946,11.281777381897,-0.49846604466438,-0.28160887956619,-0.09896016865969,-1.29610335826874,-0.50075680017471,-0.0242818929255,-0.820621073246,-1.2011901140213,-1.33924567699432,5.19332265853882,2.81797528266907,1.31681096553802,-0.93613284826279,-0.6033388376236,-0.03112462162971,11.6624555587769,10.9944734573364,10.2953662872314,0.02871066704392,-0.01404990069568,-0.10934487730265,0.19685132801533,0.19501872360706,0.11499538272619,-1.366734623909,-1.3178653717041,-1.19874668121338,0.33518823981285,-0.61770403385162,-1.25456166267395,0.17717093229294,0.16998831927776,-0.17477671802044,9.31134986877441,8.54759979248047,8.35606288909912,SWING_LEFT
1.07695543766022,0.7739662528038,0.40011674165726,1.86756777763367,2.57250618934631,2.47904396057129,-3.85295605659485,-3.06860518455505,-2.60251498222351,-3.97198057174683,-3.5314474105835,-3.46680402755737,-5.2364182472229,-4.41490793228149,-2.97599267959595,9.30895519256592,7.58273601531982,7.1302318572998,0.23762658238411,0.3805690407753,0.51373767852783,1.90483057498932,1.275639295578,0.73502361774445,-2.38993382453919,-2.35022759437561,-2.27631306648254,-3.66073441505432,-4.42209053039551,-5.63864421844482,-2.06380176544189,-2.35350036621094,-2.63122773170471,7.79582023620605,7.96820259094238,7.83412742614746,0.44226643443108,0.28283059597015,0.07513642311096,0.74724090099335,1.42835569381714,1.89872193336487,-2.03807544708252,-1.69660186767578,-1.16759252548218,-6.73518848419189,-8.30339050292969,-11.133337020874,-3.22498965263367,-3.88339519500732,-6.17494535446167,8.33212089538574,7.82933902740479,6.48140335083008,-0.33231070637703,-0.90285885334015,-0.85154616832733,1.47905743122101,0.3819434940815,-1.09635043144226,-0.15538884699345,1.59657263755798,4.74741554260254,-15.352219581604,-22.9681758880615,-22.9681758880615,-9.46936702728272,-13.1564378738403,-13.1564378738403,4.60404968261719,5.63146162033081,5.63146162033081,-0.36468654870987,-0.9957103729248,-2.26081228256226,-1.90513598918915,-1.15499341487885,0.18524488806725,9.06562232971191,13.5579252243042,16.3801231384277,-29.5573177337646,-22.0368309020996,-7.98496198654175,-24.7545490264893,-35.6245231628418,-47.1744537353516,6.5460467338562,2.7629086971283,1.20907187461853,-3.67374348640442,-4.37807130813599,-3.96023941040039,0.5199990272522,-0.50014591217041,-2.53493809700012,18.5431957244873,18.699577331543,16.8419361114502,9.5507698059082,20.1645660400391,25.9755916595459,-50.2103004455566,-38.2796936035156,-26.4376735687256,4.06774854660034,8.30339050292969,12.5794353485107,-2.91504883766174,-2.43918490409851,-1.12277030944824,-3.09265804290771,-2.68948698043823,-3.55080699920654,13.4552993774414,9.7284107208252,7.20309400558472,26.7106113433838,24.5055522918701,22.6425647735596,-20.0496444702148,-17.6554412841797,-10.941801071167,14.3200197219849,13.5873937606812,16.9683055877686,-0.03970624133945,0.31276300549507,0.63774329423904,-1.63146829605103,-0.6956228017807,-0.58200186491013,4.60630559921265,1.76333892345428,-0.56039249897003,20.6553764343262,16.43918800354,10.7694187164307,-5.75356578826904,-1.721431016922,-1.29286897182465,13.9752550125122,12.5123977661133,10.7837839126587,0.61086523532867,0.42271876335144,0.34147366881371,-0.35170567035675,0.30192014575005,0.82359904050827,-1.77662515640259,-2.23171973228455,-2.48278546333313,6.24916553497314,3.43807363510132,0.76853877305984,-1.62087452411652,-1.01035308837891,0.00478840339929,9.7087869644165,9.40951156616211,8.17889213562012,0.18325957655907,-0.1148426681757,-0.4416555762291,0.70570206642151,0.22800545394421,-0.04932736977935,-2.38810133934021,-1.95255434513092,-1.47730123996735,-1.38384854793549,-2.3702597618103,-2.49475812911987,0.02873042039573,0.26815059781075,0.56503158807755,6.84292793273926,6.88841772079468,7.87243461608887,SWING_LEFT
0.53511798381805,0.4978551864624,0.38789942860603,1.75883376598358,1.97508001327515,2.06793165206909,-4.02766370773315,-3.98062705993652,-4.15044736862183,-1.50595283508301,-1.30483996868134,-1.60650932788849,-1.89141929149628,-1.62326872348785,-1.60411512851715,9.11981391906738,8.2818431854248,7.80300283432007,-0.03054326213896,-0.37507125735283,-0.64140850305557,1.3556627035141,1.25609171390533,1.65743017196655,-4.20786905288696,-3.90304708480835,-3.597003698349,-3.42849683761597,-4.5226469039917,-6.67772769927979,-3.71580100059509,-4.18027639389038,-3.42131423950195,7.13980865478516,7.676109790802,9.32332038879394,-0.59376102685928,-0.26939156651497,-0.09957103431225,2.27990174293518,1.94698023796082,1.01541078090668,-2.94276690483093,-2.12298583984375,-1.39361274242401,-8.16452693939209,-8.64097309112549,-9.12460231781006,-3.69904160499573,-4.70939493179321,-5.86848783493042,9.04080486297607,7.7072343826294,7.6569561958313,0.08491026610136,0.31215214729309,0.48624873161316,0.20173825323582,-0.80069160461426,-2.44758439064026,-0.84444487094879,-0.08147415518761,1.40476095676422,-10.9896850585938,-14.0734167098999,-20.1573829650879,-7.1805100440979,-9.83568000793457,-13.7956895828247,7.34810447692871,6.50534534454346,6.51731634140015,0.63713246583939,0.88453286886215,0.88758718967438,-4.05110549926758,-3.94725847244263,-0.66752296686172,4.35890531539917,8.93489646911621,13.9128379821777,-26.3682403564453,-25.0394592285156,-15.5102367401123,-20.7559337615967,-29.0042572021484,-40.7337493896484,8.84926891326904,12.8523740768433,10.2618474960327,-0.96272361278534,-3.74643659591675,-4.45381832122803,3.30432271957397,4.38860845565796,1.61161518096924,18.3043479919434,19.7801990509033,18.1803417205811,2.65995812416077,17.4806652069092,22.9753589630127,-54.6183242797851,-47.5335845947266,-35.1073760986328,6.66815090179443,9.12460231781006,9.83568000793457,-3.83501195907593,-3.06226754188538,-2.58090567588806,-1.60275769233704,-2.15803408622742,-2.80310797691345,15.5035305023193,12.1993608474731,9.09433269500732,24.9197483062744,23.8444538116455,22.1685123443604,-23.4374389648438,-17.5453090667725,-14.8518314361572,13.2091102600098,13.3360023498535,12.9888439178467,-1.50944805145264,-0.8045095205307,-0.25595253705978,-3.80065083503723,-2.86236190795898,-1.96438992023468,6.80053377151489,4.49146318435669,2.43956661224365,20.7750873565674,17.6434707641602,13.7094984054565,-9.36162757873535,-5.08797788619995,-2.05422496795654,14.4947967529297,13.8244199752808,12.6321077346802,0.22907446324825,0.26145032048225,0.17043140530586,-1.6290248632431,-1.15193915367126,-0.4622722864151,0.90934926271439,-0.09124799817801,-0.783358335495,10.1517143249512,7.58034181594849,5.61230802536011,-1.1755530834198,-0.13168109953403,0.62728083133698,10.6904096603394,10.1421375274658,9.56513500213623,0.16615535318851,0.03420845419168,-0.24495697021484,-0.23197607696056,-0.02611448988318,0.0093156946823,-1.14315795898438,-1.3789519071579,-1.24272894859314,3.74213719367981,0.66798228025436,0.13407529890537,0.84994161128998,0.60094463825226,0.35673606395721,8.93785381317139,7.74314737319946,7.53485202789307,SWING_LEFT
-0.0177150927484,-0.03298672288656,0.17409659922123,1.19805943965912,0.83642721176147,0.87735521793365,-5.10461902618408,-5.1748685836792,-5.38134098052979,-0.17477671802044,0.33758243918419,0.69431847333908,-3.60806202888489,-3.14837527275085,-2.95444488525391,8.25071811676025,9.84046840667725,10.489296913147,0.48136180639267,1.02381014823914,1.65544486045837,1.40331017971039,2.08075976371765,3.17176508903503,-5.61591339111328,-5.62629795074463,-5.5169529914856,0.1723825186491,-0.3687070608139,-1.34793555736542,-3.03105926513672,-3.12922167778015,-4.02225875854492,11.1812210083008,10.6209783554077,6.87644672393799,1.48928952217102,1.30175387859344,0.82833325862885,3.22491025924683,2.58716702461243,0.96898502111435,-5.6617283821106,-5.68310832977295,-4.85844039916992,-2.81558108329773,-6.33296298980713,-12.4142351150513,-5.39922428131104,-7.06798267364502,-9.49330902099609,5.06403589248657,3.71580100059509,3.33272886276245,-0.52106803655624,-0.76785761117935,-0.47280970215797,-1.3089314699173,-1.37429404258728,-1.87214922904968,-0.20181460678577,3.05837321281433,6.29473733901978,-22.2283668518066,-24.3568115234375,-24.3568115234375,-12.3424091339111,-13.9920139312744,-13.9920139312744,8.14297962188721,9.51964569091797,9.51964569091797,-0.46792277693748,-1.08184230327606,-2.21744084358215,-2.30097675323486,-2.04930019378662,-0.63636887073517,9.56836414337158,12.9061317443848,15.7936916351318,-19.8365592956543,-13.7166805267334,-3.92888498306274,-25.8151798248291,-33.9913787841797,-45.8289108276367,4.95390272140503,3.87142419815064,4.55137729644775,-3.74277138710022,-4.29682636260986,-3.40374112129211,0.78328198194504,1.40514278411865,-0.41340306401253,18.1785106658936,18.8058681488037,17.7515144348145,8.90433502197266,16.6307239532471,26.7991981506348,-49.7290649414063,-38.7010726928711,-27.1726932525635,10.1277723312378,14.9691476821899,16.4080619812012,-0.9523389339447,-0.64385199546814,-0.47891834378242,-3.45306849479675,-3.41397309303284,-3.43290996551514,14.0637216567993,10.0173501968384,6.95019578933716,26.8590526580811,24.3352642059326,21.8165645599365,-18.6586132049561,-14.1739730834961,-8.87321090698242,12.694356918335,10.8316679000854,11.4469776153564,-0.22663100063801,-0.18081611394882,0.05681046843529,-2.80677318572998,-2.14642786979675,-1.75730657577515,4.26422119140625,1.76517152786255,0.03520110994577,18.9291572570801,14.3128366470337,9.56992340087891,-4.74770212173462,-2.43011474609375,-1.90817880630493,10.6712560653687,10.503662109375,9.67766284942627,0.21746802330017,0.24007004499435,0.11850785464048,-1.34252905845642,-0.61315596103668,-0.12202033400536,-0.85971647500992,-1.20485532283783,-1.31420016288757,5.93073701858521,3.76847338676453,2.4899697303772,-0.95049810409546,-0.13886369764805,0.60812723636627,9.43105983734131,8.76786613464355,8.63618469238281,0.11239920556545,0.11667526513338,-0.03848451003432,0.03863722831011,0.14492778480053,0.23350323736668,-1.37956285476685,-1.32763922214508,-1.1578186750412,1.28329205513,0.17956513166428,-0.30645781755447,1.36948335170746,1.4484920501709,1.23301386833191,8.90672969818115,8.59069538116455,7.99932718276978,SWING_LEFT
0.62491512298584,1.13804197311401,1.52288711071014,1.02518463134766,0.89629203081131,1.22432661056519,-6.33245801925659,-6.2426609992981,-6.02885818481445,-1.47961664199829,-1.96803379058838,-2.17632937431335,-3.2082302570343,-2.85867691040039,-3.02627086639404,10.2857894897461,10.6904096603394,10.1804447174072,1.69515109062195,1.66827297210693,1.84786736965179,1.92376732826233,1.77471625804901,0.51572299003601,-5.88286161422729,-5.93417406082153,-6.02274942398071,-2.17154097557068,-2.84431171417236,-6.80462074279785,-3.40216064453125,-4.44603252410889,-6.00735139846802,7.66892719268799,6.67533349990845,6.83335113525391,1.9712620973587,1.41965079307556,0.75441855192184,-0.90698218345642,-0.88743448257446,-0.52091532945633,-5.14982318878174,-3.6092209815979,-1.68804979324341,-10.6066131591797,-13.9273710250854,-16.5517158508301,-7.63062000274658,-7.58034181594849,-7.12544345855713,7.1302318572998,7.3792290687561,7.91553020477295,0.54733526706696,0.28955012559891,0.16065755486488,-1.11406552791595,-2.15314722061157,-2.88740730285645,0.42065706849098,2.52997469902039,4.92029047012329,-17.8445835113525,-19.2236442565918,-22.0823211669922,-8.39676475524902,-11.0232038497925,-16.7217025756836,7.54203462600708,7.75032997131348,9.60823059082031,0.31337386369705,-0.02871066704392,-1.36589467525482,-2.80310797691345,-1.11345458030701,1.42774474620819,8.39794635772705,12.3722352981567,16.5377254486084,-22.434268951416,-18.9866180419922,-4.81952810287476,-23.2291431427002,-33.6154899597168,-49.4848556518555,10.2977609634399,8.11185455322266,7.70962858200073,-3.54729437828064,-4.80995273590088,-3.76781678199768,4.09783697128296,4.49978590011597,0.80771654844284,19.4515533447266,19.1907138824463,16.8162803649902,12.4501485824585,18.9770412445068,24.294563293457,-52.3770523071289,-38.7920532226563,-30.0720710754395,12.33522605896,16.4631290435791,16.4487648010254,-1.63467538356781,-1.10872042179108,-0.83871799707413,-2.73591279983521,-3.26492190361023,-3.10182094573975,13.4785127639771,9.98558521270752,7.06503820419312,25.132833480835,23.8372707366943,22.0775318145752,-22.3408946990967,-17.3418006896973,-11.7175226211548,13.8794860839844,12.2083339691162,11.9713077545166,-0.7177666425705,-0.50762903690338,0.13133603334427,-2.46407771110535,-2.10611057281494,-1.75547397136688,4.35340738296509,2.44139933586121,0.38095083832741,19.7575511932373,15.8190889358521,10.8388500213623,-7.2690954208374,-3.51468801498413,-1.87465989589691,12.1676321029663,12.8763160705566,12.773365020752,0.71349060535431,0.85215699672699,0.81000733375549,-0.83428919315338,0.15470162034035,0.43753224611282,-0.71066534519196,-1.24150729179382,-1.570152759552,6.87644672393799,4.23055458068848,2.10450339317322,-1.07978498935699,-0.22505496442318,0.09097966551781,10.7885723114014,8.76547145843506,7.4678144454956,0.58215457201004,0.15393804013729,-0.26572638750076,0.36545014381409,0.20357084274292,-0.00717766676098,-1.65628480911255,-1.56037890911102,-1.36062598228455,0.50757074356079,-0.65601128339767,-1.04626619815826,0.03830722719431,0.20111294090748,0.31364041566849,6.53407573699951,6.53886413574219,7.0919246673584,SWING_LEFT
0.94623029232025,0.98166042566299,1.02442097663879,0.71364331245422,1.17240309715271,1.59206759929657,-6.19134855270386,-5.47541427612305,-4.63364219665527,-3.34709405899048,-4.6303858757019,-5.70328760147095,-4.03422975540161,-3.02866506576538,-2.23139595985413,9.51006889343262,9.095871925354,8.66491508483887,0.98471474647522,0.70799279212952,0.50823986530304,1.97385835647583,1.91277182102203,1.38315165042877,-3.7857608795166,-3.06677269935608,-2.69475555419922,-6.01213979721069,-5.93313121795654,-6.72800588607788,-2.53067111968994,-2.18830037117004,-1.86268889904022,7.13502025604248,6.32099199295044,6.7543420791626,0.56810468435287,0.74097955226898,0.4972442984581,0.71364331245422,0.07528914511204,-0.44700065255165,-2.45774006843567,-2.01608443260193,-1.24211812019348,-8.63139629364014,-10.7430820465088,-12.7709712982178,-2.81318688392639,-4.42687892913818,-6.32338619232178,7.29303741455078,6.59153652191162,5.57639503479004,0.08796459436417,-0.22540926933289,-0.50029861927032,-0.88926708698273,-0.88254755735397,-0.75487673282623,-0.01977676153183,1.67598521709442,3.16527462005615,-14.6911211013794,-16.7671928405762,-17.9475345611572,-7.99214458465576,-9.74230575561523,-12.3280439376831,6.66815090179443,6.91235971450806,6.12706136703491,-0.93584555387497,-1.53693699836731,-3.26079869270325,-0.82085019350052,-0.28084528446198,1.71240794658661,5.41631317138672,8.50851249694824,12.3447465896606,-20.3201885223389,-21.883602142334,-15.0337905883789,-17.0999870300293,-24.7042713165283,-35.6077651977539,5.80384397506714,4.85304689407349,5.11191987991333,-5.51550245285034,-6.82764101028442,-6.21983003616333,3.28172087669373,3.04409432411194,1.18217694759369,15.5114717483521,16.9066886901855,16.0258197784424,-1.06541979312897,10.3671922683716,17.8757076263428,-45.5056953430176,-39.8143768310547,-26.0713596343994,8.33212089538574,14.9739360809326,19.4870052337646,-4.02010440826416,-3.01400923728943,-2.60778379440308,-1.3413074016571,-1.47997379302979,-2.33090901374817,12.9293451309204,9.29714012145996,6.47555351257324,20.322582244873,18.6514301300049,17.5285491943359,-15.7328977584839,-13.5466928482056,-10.1301670074463,18.7041015625,14.9308404922485,13.7813243865967,-1.89429306983948,-1.72630512714386,-1.35856425762177,-3.45367932319641,-2.78722548484802,-2.34984588623047,4.13105249404907,2.14818406105042,0.95699673891068,15.5676975250244,11.4469776153564,7.91792440414429,-7.01291608810425,-5.27233123779297,-3.5003228187561,13.7478055953979,13.5083856582642,13.2186870574951,-0.88514375686646,-0.59070670604706,-0.4324925839901,-1.99982011318207,-1.38284623622894,-0.8556694984436,0.18364135921001,-0.27634015679359,-0.4058435857296,4.87220048904419,2.70065951347351,1.58974993228912,-2.12605118751526,-1.93690919876099,-1.68312382698059,12.44775390625,11.2674121856689,10.2211465835571,-0.42821654677391,-0.38423424959183,-0.28466320037842,-0.53863042593002,-0.20631973445415,-0.22342395782471,-0.43944117426872,-0.51824277639389,-0.7045567035675,1.21146607398987,0.95528650283813,0.63685762882233,-0.91937345266342,-0.14604631066322,-0.09097966551781,10.1445322036743,10.1708679199219,9.711181640625,SWING_LEFT
0.13439035415649,0.83810710906982,1.24188899993896,0.53527069091797,1.23654401302338,2.35137295722961,-5.98426485061646,-4.5737771987915,-3.55057787895203,-5.31063842773438,-5.17416906356812,-3.65355181694031,-5.90440082550049,-4.46758031845093,-4.20421838760376,13.309666633606,13.132495880127,9.96496677398682,1.11543989181519,0.69821900129318,0.32009339332581,2.69529008865356,1.92376732826233,1.01174557209015,-3.00446438789368,-2.77783346176147,-2.53593063354492,-2.95444488525391,-4.06296014785767,-5.87567043304443,-4.24731397628784,-4.27125597000122,-4.60644388198853,6.88602352142334,6.13424396514893,7.22360563278198,0.12400564551353,-0.07208210229874,-0.17715092003345,0.72952580451965,0.95493507385254,0.87979865074158,-2.10404896736145,-1.41316044330597,-0.49441906809807,-7.90116500854492,-9.73512363433838,-11.2674121856689,-4.78361511230469,-5.59794282913208,-7.11347246170044,8.3608512878418,8.16931533813477,7.66174459457397,-0.24007004499435,-0.68905597925186,-1.21317839622498,0.36972618103027,-0.61498856544495,-2.11160850524902,0.69065952301025,2.39191913604736,5.19151449203491,-13.6568260192871,-18.028938293457,-22.3624420166016,-10.326491355896,-15.1151943206787,-19.3289890289307,6.42394256591797,5.11431407928467,7.65216779708862,-0.73975783586502,0.6750060915947,0.20158553123474,-2.74446487426758,-2.15864515304565,-0.12324206531048,7.88909578323364,11.8493347167969,15.3214931488037,-23.9809226989746,-18.9028205871582,-6.73758268356323,-24.2299194335938,-32.6602020263672,-43.2787857055664,12.5219745635986,7.89158821105957,1.24259066581726,-2.2589795589447,-5.3780574798584,-5.94249725341797,2.05693602561951,2.87366271018982,1.32023251056671,17.6592750549316,18.7398948669434,17.4741821289063,9.10784244537354,18.0552730560303,25.0298824310303,-51.3427581787109,-41.0258445739746,-32.6673851013184,1.39342534542084,9.84046840667725,12.7182989120483,-3.89609861373901,-2.11298298835754,-1.68354463577271,-3.2924108505249,-5.04925918579102,-4.02606010437012,14.5047664642334,11.1254596710205,7.88115453720093,27.4169006347656,26.5071048736572,23.6792526245117,-23.3560352325439,-17.3705310821533,-12.1053829193115,13.8268136978149,12.9888439178467,12.7063274383545,-1.42942464351654,-0.96699970960617,-0.45509460568428,-3.01385641098022,-2.27165508270264,-1.68400275707245,4.84698677062988,2.22393131256104,0.13171781599522,20.2244205474854,16.3051128387451,11.0926361083984,-8.04002857208252,-4.28322696685791,-2.92092609405518,13.2665710449219,13.5562696456909,13.0558815002441,0.01527163106948,0.32131510972977,0.50152039527893,-1.11345458030701,-0.2930625975132,0.33490687608719,-0.99716114997864,-1.40155398845673,-1.41499292850494,6.64181470870972,3.6846764087677,1.81001651287079,-2.75572609901428,-2.47560453414917,-2.34152936935425,12.2370643615723,11.0160217285156,9.39514636993408,0.54305922985077,0.52962017059326,0.43066000938416,0.50289481878281,0.52122074365616,0.33551773428917,-1.26105499267578,-1.0179306268692,-0.78763437271118,0.49320554733276,-0.15322890877724,-0.15322890877724,-1.92014980316162,-1.35032975673676,-0.92176765203476,8.78223133087158,8.34888076782227,8.09988403320313,SWING_LEFT
2.19056272506714,1.56503677368164,1.09528136253357,-0.80313509702682,-0.99311417341232,-1.4078916311264,-6.62261915206909,-5.92745447158813,-4.97694826126099,-4.2951979637146,-5.54527044296265,-6.33535718917847,-3.3231520652771,-3.10288548469543,-1.63284552097321,6.40239477157593,5.93791961669922,6.72800588607788,0.94745200872421,0.56749379634857,-0.23090706765652,-1.79151499271393,-2.34190464019775,-2.57892036437988,-4.0582070350647,-3.25186467170715,-2.4791202545166,-6.40000057220459,-5.09276628494263,-4.67108774185181,-0.64882868528366,-0.51714754104614,-0.52911859750748,5.97383260726929,5.58118343353271,6.11030197143555,-0.79045963287354,-0.94378679990768,-0.66645395755768,-2.61679410934448,-2.92833518981934,-2.78111672401428,-2.13275957107544,-1.72225821018219,-1.23662030696869,-3.36624765396118,-4.90601873397827,-5.86848783493042,-2.92810869216919,-2.93768548965454,-4.88417148590088,7.91792440414429,9.63456726074219,12.023980140686,-0.30054569244385,-0.2443460971117,-0.54244834184647,-2.23561406135559,-1.71149170398712,-1.0633636713028,-0.57749670743942,1.12131953239441,2.89160704612732,-8.86123943328857,-12.0000381469727,-16.405668258667,-8.61942577362061,-12.0742588043213,-15.6179761886597,13.0941886901855,12.1173543930054,13.7286520004272,-0.70799279212952,0.28893926739693,1.13987457752228,0.27687466144562,0.83703809976578,0.82115560770035,6.18172740936279,10.7589406967163,14.7375059127808,-21.170129776001,-17.2196979522705,-5.89961242675781,-21.9219093322754,-30.3090972900391,-38.1887130737305,16.9826717376709,14.3750858306885,10.1062250137329,1.19729590415955,-0.15027284622192,-0.12889257073402,1.53403532505035,1.56702208518982,0.61223971843719,16.9775485992432,18.4081954956055,18.4008655548096,3.58412003517151,3.58412003517151,21.1797065734863,-43.4727172851563,-43.4727172851563,-31.8533573150635,5.43753147125244,5.43753147125244,9.12460231781006,0.32803463935852,0.17715092003345,-0.28649580478668,-1.02732264995575,-1.74997615814209,-2.68704342842102,16.009937286377,12.3685703277588,9.19268226623535,24.210765838623,23.3512477874756,22.4989128112793,-22.0847148895264,-16.8749313354492,-13.1708030700684,7.81976222991943,6.48140335083008,7.69765758514404,-0.34697145223618,-0.66278880834579,-1.0256427526474,-2.82509899139404,-1.79640197753906,-1.37062895298004,6.6838583946228,3.97772550582886,1.09932839870453,21.5460205078125,20.0161247253418,16.0369606018066,-9.31853199005127,-5.95707321166992,-2.20505976676941,9.98172569274902,9.23712921142578,12.0718641281128,-0.64018678665161,-0.12034045159817,0.3720169365406,-1.07497012615204,-0.34926220774651,0.73502361774445,-1.12544286251068,-2.17857456207275,-2.24638056755066,10.7694187164307,5.52132844924927,2.63841032981873,-1.81241071224213,-2.27688574790955,-2.19548296928406,13.0079975128174,13.0606698989868,11.0974245071411,0.65484756231308,0.7916813492775,0.69516462087631,1.0856602191925,0.91461801528931,0.60735279321671,-2.00203442573547,-1.68255198001862,-1.26105499267578,0.75417351722717,-0.54587799310684,-0.96486330032349,-1.49398183822632,-1.16118776798248,-0.65601128339767,9.52443408966064,8.25550651550293,8.06636524200439,SWING_LEFT
0.15699236094952,-0.0226020142436,-0.40439277887344,-1.41155683994293,-1.5422819852829,-1.33642041683197,-6.36116886138916,-6.02213859558105,-5.61896753311157,-2.6623523235321,-2.60249733924866,-2.93289709091187,-1.5442601442337,-2.34631776809692,-2.58094954490662,7.10628986358643,7.05361747741699,7.59949541091919,-0.7367035150528,-0.7000515460968,-0.56688296794891,-0.72738778591156,-0.16355916857719,0.04902193695307,-5.16387319564819,-4.77597379684448,-4.28605985641479,-3.36624765396118,-4.96587371826172,-5.83496904373169,-2.51391172409058,-1.96085119247437,-3.56017804145813,8.97376728057861,8.88278770446777,8.64576148986816,-0.37751471996307,-0.5283984541893,-0.48563787341118,-0.17699819803238,-0.27046057581902,-0.45372015237808,-3.57684516906738,-2.60618019104004,-1.64284574985504,-7.35768127441406,-8.2411413192749,-9.46218395233154,-4.78600931167603,-5.01136350631714,-4.99939250946045,8.06157684326172,8.5811185836792,9.56034660339356,-0.14416420459747,0.04642575979233,-0.15454891324043,-0.83551090955734,-1.38406789302826,-2.12382578849792,-0.64469188451767,0.68882691860199,2.7590491771698,-11.1812210083008,-13.7382287979126,-18.1701946258545,-6.12227296829224,-9.09826564788818,-14.5019788742065,9.50288581848144,7.91553020477295,7.7263879776001,0.20830504596233,-0.34819319844246,-2.1068742275238,-2.94238519668579,1.80587041378021,5.80642700195313,11.402792930603,16.3691272735596,19.6415328979492,-22.8843784332275,-15.500659942627,0.07900865375996,-31.6977348327637,-42.4432106018066,-53.7058334350586,15.4695358276367,16.1686420440674,11.3631801605225,-3.29806137084961,-1.85519778728485,-1.95354700088501,5.03551483154297,-2.24172282218933,-2.54471182823181,20.0166034698486,17.1620292663574,13.3600044250488,12.6057710647583,24.5725898742676,26.0881195068359,-56.2822952270508,-28.8701820373535,-24.0407772064209,10.9346179962158,12.1293249130249,10.2786073684692,-1.84725654125214,-0.98410391807556,-0.53206360340118,-4.05049467086792,-4.14090299606323,-2.21606636047363,9.93671607971191,6.80786418914795,3.95939946174622,25.2142353057861,22.0440139770508,17.9762649536133,-15.3857383728027,-9.84046840667725,-6.28507852554321,13.0008144378662,14.1643962860107,12.6488666534424,-0.01343903504312,0.20280726253986,0.2443460971117,-1.34680509567261,-1.31076407432556,-0.88804537057877,1.65216135978699,0.17508925497532,-0.7100545167923,13.161226272583,9.48612594604492,6.78546667098999,-5.38964748382568,-4.24970817565918,-2.43011474609375,9.72075843811035,9.10784244537354,9.20361042022705,0.3072652220726,0.33964106440544,0.27794370055199,-0.41401392221451,-0.2393064647913,0.03802636265755,-1.29709601402283,-1.57687222957611,-1.65933907032013,4.58729028701782,2.70305371284485,1.43652105331421,-1.28329205513,-0.56024318933487,0.08619125932455,8.51647472381592,8.34888076782227,7.95383739471436,0.07208210229874,-0.12095131725073,-0.43188172578812,0.14248432219028,0.06673702597618,-0.16294831037521,-1.65506303310394,-1.42293417453766,-1.05519330501556,-0.01197100803256,-1.09415018558502,-0.80924016237259,0.22505496442318,-0.15562310814857,-0.43095630407333,7.89158821105957,7.75032997131348,8.14058494567871,SWING_LEFT
0.17531833052635,0.13377949595451,-0.24312436580658,-0.85017168521881,-0.31932979822159,0.36300668120384,-5.73564291000366,-5.09912109375,-4.58294010162354,-3.1196448802948,-3.13401007652283,-3.50750541687012,-1.90817880630493,-1.70706582069397,-1.65439331531525,9.31613826751709,8.28663158416748,7.28824901580811,-0.68172562122345,-0.91996306180954,-0.89369583129883,0.63911777734756,0.53160548210144,0.24388794600964,-4.09058284759521,-3.52492165565491,-2.83158946037292,-4.18985319137573,-5.48062705993652,-6.34253978729248,-2.13323378562927,-2.04704236984253,-1.95366859436035,7.3097972869873,7.97777938842773,9.00728607177734,-0.6872233748436,-0.63102382421494,-0.97249746322632,0.10216721147299,0.05146539583802,-0.03344487398863,-2.16757893562317,-1.53472256660461,-0.68623071908951,-7.20924043655396,-8.14776802062988,-9.54598140716553,-1.88184249401093,-3.18428826332092,-4.60404968261719,9.05038166046143,7.8365216255188,7.18769264221191,-1.4379768371582,-1.64383840560913,-1.50761544704437,-0.15989397466183,-0.1782199293375,0.02031126990914,0.48968484997749,1.8134298324585,2.99789762496948,-10.7119579315186,-10.9346179962158,-13.6089420318604,-5.22444725036621,-6.36169338226318,-9.49809741973877,8.02087497711182,9.75906562805176,10.4557781219482,-1.36833810806274,-1.29503428936005,-2.62855315208435,0.14920383691788,-0.3669773042202,-1.65834641456604,4.55316066741943,6.96913242340088,14.5744047164917,-18.3856735229492,-23.5978507995605,-15.2229328155518,-12.8404026031494,-20.1430168151855,-47.5000648498535,10.2666358947754,6.49816274642944,1.9943699836731,-4.51124000549316,-4.93762397766113,-2.657874584198,0.03924809023738,0.23961189389229,-2.23011636734009,18.6592597961426,20.0166034698486,18.2090530395508,4.03183555603027,19.1590003967285,26.0953025817871,-57.0173149108887,-45.1369857788086,-30.1582622528076,8.66970348358154,16.0537204742432,16.3099002838135,-0.88331115245819,-1.15087008476257,-0.97127574682236,-3.2746958732605,-2.30769610404968,-3.91732621192932,14.3514385223389,10.3948650360107,7.23180437088013,26.1360034942627,23.4565925598145,20.7056541442871,-22.8987426757813,-17.669807434082,-13.4796552658081,13.35276222229,10.000880241394,10.8508214950562,-0.52595496177673,-0.48014008998871,0.03176499158144,-3.89716744422913,-2.25210738182068,-1.90941202640533,4.90196466445923,2.87083768844604,1.31985068321228,17.6626243591309,14.835072517395,10.7454767227173,-10.1517143249512,-6.2276177406311,-3.88339519500732,11.5092267990112,12.0814409255981,10.5778827667236,0.33841934800148,0.5412266254425,0.56077426671982,-1.35657894611359,-0.62292981147766,-0.11102475970984,0.29237538576126,-0.39545887708664,-0.93179857730865,7.90834760665894,5.93313121795654,4.10366153717041,-1.87465989589691,-0.46926352381706,0.04070143029094,10.3983173370361,9.42148303985596,8.36563968658447,0.39034289121628,0.11667526513338,-0.30176743865013,0.16203200817108,0.07040221989155,-0.0340557359159,-1.274493932724,-1.34230005741119,-1.1889728307724,2.17632937431335,0.71586632728577,0.25857377052307,0.07900865375996,-0.29209262132645,-0.36152446269989,7.3097972869873,6.792649269104,7.05361747741699,SWING_LEFT
-0.89186328649521,-0.88270026445389,-0.731205701828,1.07038867473602,1.03740191459656,0.3727805018425,0.12255483865738,0.76151990890503,0.73219835758209,-5.94270801544189,-4.12281513214111,-2.827552318573,-3.09809708595276,-1.71185421943665,-1.14682257175446,10.2498769760132,10.0631294250488,10.1373491287231,-0.53756141662598,-0.38117989897728,-0.22113321721554,-0.33154711127281,-0.50930887460709,-0.16783522069454,0.47930014133453,0.28809931874275,0.21601721644402,-2.27209734916687,-2.33674097061157,-3.13401007652283,-1.33357036113739,-1.3407529592514,-1.08936178684235,10.6066131591797,11.2889604568481,11.6073894500732,-0.05192354694009,0.09773843735456,0.15882496535778,0.34834590554237,0.62262439727783,0.82420992851257,0.27893635630608,0.31925344467163,0.23923009634018,-3.64158082008362,-4.01747035980225,-5.91397762298584,-1.14682257175446,-1.54904854297638,-2.57376670837402,11.1668558120728,10.3312797546387,9.80694961547852,0.14172074198723,0.16982053220272,0.81794857978821,0.87430089712143,0.30192014575005,-1.07741355895996,0.18119789659977,0.8751408457756,6.86772871017456,-9.45260715484619,-15.9220399856567,-26.2772617340088,-4.74770212173462,-8.49492645263672,-18.2635688781738,9.03122806549072,8.96658420562744,7.1110782623291,0.24373523890972,-0.88758718967438,-1.91261911392212,-0.66324692964554,0.60735279321671,0.68859785795212,11.8664388656616,15.3269910812378,17.0148105621338,-18.4431343078613,-8.76068305969238,0.79966336488724,-28.5733013153076,-35.3922882080078,-40.6188278198242,5.15740966796875,2.91134929656982,0.15562310814857,-3.27607035636902,-4.36585378646851,-2.88694906234741,0.20662516355515,-0.95096445083618,-4.08836841583252,17.4589099884033,17.4967842102051,16.6788349151611,8.32493877410889,15.4024982452393,25.9612274169922,-40.779239654541,-36.9892196655273,-28.1040382385254,0.51235914230347,5.7128643989563,11.8994817733765,-1.78006136417389,-1.44042026996613,-0.0745255574584,-3.7468945980072,-2.04013729095459,-2.34373712539673,14.0154628753662,9.69847869873047,4.86958885192871,29.0689010620117,30.9866561889648,34.7195167541504,-18.6322765350342,-13.4006462097168,-9.14854431152344,14.229040145874,16.7456455230713,20.3058223724365,0.52351152896881,0.2138028293848,0.01221730466932,-0.98395121097565,-0.02061670273542,-0.90026265382767,0.08040513843298,-1.48218810558319,-2.74912261962891,15.5485439300537,9.50288581848144,5.17177486419678,-11.0854530334473,-5.75595998764038,-3.14598107337952,11.5810527801514,8.19804573059082,9.20600509643555,-0.14660765230656,-0.02199114859104,0.06780604273081,-0.57344973087311,0.17669276893139,0.66843926906586,-3.26408219337463,-2.97819709777832,-2.53043293952942,1.22343707084656,-0.78290396928787,-1.9632453918457,-2.18351197242737,-1.10372698307037,-0.42377370595932,10.6712560653687,10.4749317169189,9.79018974304199,0.16982053220272,0.19669860601425,0.09040805697441,0.70386946201324,0.53832501173019,0.32879820466042,-2.0625102519989,-1.40705168247223,-0.68439817428589,-3.29920983314514,-3.44525623321533,-2.32716393470764,-0.44532153010368,-0.84754741191864,-0.7182605266571,8.97137260437012,8.21241092681885,8.22677612304688,SWING_LEFT
-0.09162978827953,0.31948253512383,0.69149947166443,-0.98517292737961,-1.10429167747498,-1.56305146217346,-0.93851810693741,-0.15844316780567,0.68271827697754,-5.45189666748047,-5.3968300819397,-4.36223554611206,-0.44771572947502,-0.2537853717804,0.1268926858902,11.0160217285156,10.5515460968018,11.1213665008545,0.84482663869858,0.50152039527893,-0.22174409031868,-0.98700553178787,0.15347988903522,1.30740439891815,1.06267642974854,1.01197469234467,0.96127283573151,-2.35589456558228,-2.14041638374329,-2.77727389335632,-0.02873042039573,-0.15322890877724,-1.12048637866974,10.2810010910034,9.24191761016846,7.35049867630005,-0.90713489055634,-1.13498759269714,-0.87598073482513,1.30496084690094,0.06307183951139,-0.7994698882103,1.05106997489929,1.10910224914551,1.80976462364197,-3.65355181694031,-6.61308431625366,-8.41352367401123,-0.77093297243118,-0.84275901317596,-3.4117374420166,6.40478897094727,8.09988403320313,9.88116931915283,-0.66767573356628,-1.06168377399445,-1.70187056064606,-0.73410731554031,0.66171979904175,2.01784062385559,2.79753375053406,4.02170753479004,6.15545988082886,-9.62259578704834,-13.6472492218018,-19.2571620941162,-6.44549036026001,-10.3576154708862,-17.3753204345703,10.213963508606,10.405499458313,11.1213665008545,-1.07267940044403,-0.24740041792393,0.42149701714516,0.65744370222092,-0.45372015237808,-0.66752296686172,9.54087543487549,13.4052085876465,16.6763916015625,-19.1206932067871,-9.09347724914551,7.48457384109497,-26.9955215454102,-35.715503692627,-36.723461151123,10.4174709320068,14.5331039428711,15.4958715438843,2.36893534660339,3.11296939849854,1.49417638778687,-0.7383833527565,-0.40790528059006,-0.39019018411636,18.0636672973633,16.6391296386719,13.080228805542,20.1621704101563,29.2700138092041,30.0241870880127,-33.7854766845703,-23.4302558898926,-13.7142868041992,13.0941886901855,4.87698888778687,4.74051952362061,0.27366763353348,-0.38362336158752,-0.46425759792328,-0.90881478786469,-1.32053792476654,-1.70293962955475,9.0509614944458,6.25136566162109,2.48965764045715,28.3458518981934,27.2181835174561,22.9777526855469,-7.79103183746338,-1.18991827964783,0.64643448591232,5.52851104736328,8.78701972961426,9.82610321044922,-0.58704149723053,-0.53511798381805,-0.33964106440544,-1.05053555965424,-0.10919216275215,0.31108313798904,-0.41561743617058,-2.26959347724915,-3.20299553871155,16.4942531585693,10.3600101470947,5.20050525665283,0.40940847992897,-0.07900865375996,-1.0414776802063,10.9130706787109,10.1804447174072,9.78540134429932,-0.22663100063801,-0.2229658216238,-0.25839599967003,0.7539604306221,0.94210690259933,0.6806566119194,-3.30989694595337,-2.75645303726196,-1.78945338726044,0.79966336488724,-2.08534979820251,-2.92571449279785,-2.12126278877258,-1.85790050029755,-1.0989385843277,8.68885707855225,7.78145456314087,7.61386060714722,-0.26328292489052,-0.36957347393036,-0.34452798962593,-0.01145372353494,-0.17516560852528,-0.07498370856047,-0.86826860904694,-0.28550314903259,-0.00755945732817,-1.92972660064697,-0.35434186458588,1.01274728775024,0.18914192914963,1.28808057308197,1.85790050029755,8.53323459625244,9.80455493927002,10.518027305603,SWING_LEFT
-0.37384954094887,-0.01832595653832,-0.07696902006865,1.08627116680145,0.70509123802185,-0.41279217600822,-0.9250790476799,-0.84383398294449,-1.13032972812653,-3.1699230670929,-2.47081613540649,-1.80762231349945,0.01675941236317,1.69270062446594,1.23061966896057,10.7119579315186,7.82455062866211,7.9753851890564,0.15454891324043,0.40622538328171,0.38789942860603,-0.91370171308517,-0.7389942407608,-0.2105957865715,-1.59336566925049,-1.84870731830597,-1.26288747787476,-2.03985977172852,-4.25210237503052,-5.48302125930786,1.48201084136963,-0.79008656740189,-1.22104287147522,10.2690305709839,9.76385402679443,9.66329765319824,0.45020768046379,0.55771994590759,0.89186328649521,-0.16233743727207,-0.40912699699402,-0.83917611837387,-0.63980495929718,-0.19265162944794,0.24472789466381,-5.4159836769104,-5.81581497192383,-6.95545530319214,-0.50517654418945,-1.11330378055573,-1.74297881126404,9.39993476867676,9.38078117370606,9.79497814178467,1.30969512462616,1.64750361442566,1.15209186077118,-1.34497261047363,-2.18613409996033,-0.21303924918175,0.76274162530899,1.39437627792358,4.56904315948486,-7.84609842300415,-9.49809741973877,-18.821418762207,-2.88501310348511,-4.63278007507324,-16.6762142181396,8.90672969818115,9.0360164642334,13.0582752227783,0.38423424959183,-1.66644036769867,-2.96452903747559,1.951256275177,4.26215934753418,3.42955017089844,7.29044771194458,13.1205453872681,17.5010604858398,-24.7856731414795,-17.478271484375,2.33913516998291,-26.5118923187256,-35.9740791320801,-38.9333114624023,12.9098348617554,12.2442464828491,15.287576675415,-1.53938043117523,0.71226888895035,0.84910267591476,0.33490687608719,-0.64247751235962,-0.10002918541431,18.3006820678711,16.7808494567871,14.2811899185181,17.6195297241211,24.5678005218506,27.6443500518799,-34.405876159668,-22.3241348266602,-17.1071701049805,17.3082828521729,11.8731451034546,7.94665479660034,0.14660765230656,-0.12400564551353,-0.19303341209888,-0.24969117343426,-2.03891539573669,-1.67606151103973,10.7809314727783,8.22018432617188,6.37109565734863,24.7258186340332,22.1756954193115,21.1821002960205,-13.4820489883423,-10.9346179962158,-6.88602352142334,5.71525859832764,7.61864900588989,8.92109489440918,-0.44715335965157,-0.19303341209888,0.23457226157188,-0.5661193728447,-0.37797287106514,-0.45372015237808,4.15121126174927,1.98996984958649,0.23251058161259,18.3425769805908,14.7345161437988,10.7263231277466,-2.65516972541809,-0.28490999341011,0.99838209152222,9.77343082427978,10.3049430847168,10.312126159668,0.45753806829453,0.31215214729309,0.24129177629948,-0.20570887625217,0.26832255721092,0.5328271985054,-0.9250790476799,-1.50906622409821,-1.7411949634552,7.41274785995483,4.79558610916138,0.95528650283813,0.3687070608139,0.58418524265289,0.84036481380463,9.62977886199951,9.39035797119141,8.9163064956665,0.13011430203915,0.0226020142436,-0.0824668109417,0.39721512794495,0.46074512600899,0.55970525741577,-1.53166818618774,-1.33374786376953,-1.17553377151489,0.56981998682022,0.75177931785583,0.76614451408386,1.05105459690094,1.21625447273254,1.01274728775024,9.08390045166016,9.53640460968018,8.99770927429199,SWING_LEFT
