gyro_x_0,gyro_y_0,gyro_z_0,acc_x_0,acc_y_0,acc_z_0,gyro_x_1,gyro_y_1,gyro_z_1,acc_x_1,acc_y_1,acc_z_1,gyro_x_2,gyro_y_2,gyro_z_2,acc_x_2,acc_y_2,acc_z_2,gyro_x_3,gyro_y_3,gyro_z_3,acc_x_3,acc_y_3,acc_z_3,gyro_x_4,gyro_y_4,gyro_z_4,acc_x_4,acc_y_4,acc_z_4,gyro_x_5,gyro_y_5,gyro_z_5,acc_x_5,acc_y_5,acc_z_5,gyro_x_6,gyro_y_6,gyro_z_6,acc_x_6,acc_y_6,acc_z_6,gyro_x_7,gyro_y_7,gyro_z_7,acc_x_7,acc_y_7,acc_z_7,gyro_x_8,gyro_y_8,gyro_z_8,acc_x_8,acc_y_8,acc_z_8,gyro_x_9,gyro_y_9,gyro_z_9,acc_x_9,acc_y_9,acc_z_9,gyro_x_10,gyro_y_10,gyro_z_10,acc_x_10,acc_y_10,acc_z_10,gyro_x_11,gyro_y_11,gyro_z_11,acc_x_11,acc_y_11,acc_z_11,gyro_x_12,gyro_y_12,gyro_z_12,acc_x_12,acc_y_12,acc_z_12,gyro_x_13,gyro_y_13,gyro_z_13,acc_x_13,acc_y_13,acc_z_13,gyro_x_14,gyro_y_14,gyro_z_14,acc_x_14,acc_y_14,acc_z_14,gyro_x_15,gyro_y_15,gyro_z_15,acc_x_15,acc_y_15,acc_z_15,gyro_x_16,gyro_y_16,gyro_z_16,acc_x_16,acc_y_16,acc_z_16,gyro_x_17,gyro_y_17,gyro_z_17,acc_x_17,acc_y_17,acc_z_17,gyro_x_18,gyro_y_18,gyro_z_18,acc_x_18,acc_y_18,acc_z_18,gyro_x_19,gyro_y_19,gyro_z_19,acc_x_19,acc_y_19,acc_z_19,gyro_x_20,gyro_y_20,gyro_z_20,acc_x_20,acc_y_20,acc_z_20,gyro_x_21,gyro_y_21,gyro_z_21,acc_x_21,acc_y_21,acc_z_21,gyro_x_22,gyro_y_22,gyro_z_22,acc_x_22,acc_y_22,acc_z_22,gyro_x_23,gyro_y_23,gyro_z_23,acc_x_23,acc_y_23,acc_z_23,gyro_x_24,gyro_y_24,gyro_z_24,acc_x_24,acc_y_24,acc_z_24,gyro_x_25,gyro_y_25,gyro_z_25,acc_x_25,acc_y_25,acc_z_25,gyro_x_26,gyro_y_26,gyro_z_26,acc_x_26,acc_y_26,acc_z_26,gyro_x_27,gyro_y_27,gyro_z_27,acc_x_27,acc_y_27,acc_z_27,gyro_x_28,gyro_y_28,gyro_z_28,acc_x_28,acc_y_28,acc_z_28,gyro_x_29,gyro_y_29,gyro_z_29,acc_x_29,acc_y_29,acc_z_29,motion_type
0.25672873854637,0.6679208278656,1.54303550720215,1.08443915843964,0.16671389341354,-1.16486668586731,0.47297742962837,-0.1352885812521,-1.25488150119781,3.86424160003662,9.74918937683106,13.2495126724243,7.97029733657837,10.5560350418091,12.9334774017334,10.1490211486816,13.1298017501831,16.6325187683105,2.93000984191895,4.52737379074097,4.96359968185425,-2.19018363952637,-2.63439893722534,-2.44424939155579,-2.0634171962738,-3.14998698234558,-4.85760593414307,12.7682781219482,14.9972791671753,17.9541187286377,14.0874824523926,12.7251815795898,10.6541976928711,21.8039951324463,21.8399085998535,15.0236158370972,4.32763671875,3.64640021324158,2.99126267433167,-2.00429511070251,-1.59736406803131,-0.69561767578125,-6.88160848617554,-8.10506439208984,-7.99161386489868,17.1017818450928,9.10275459289551,1.0989385843277,5.82030439376831,-1.52510643005371,-8.06127738952637,10.6589860916138,9.32781028747559,7.87213516235352,2.48899030685425,1.84290754795074,0.9544769525528,-0.7472830414772,-1.10467922687531,0.92624741792679,-6.29038667678833,-5.00407981872559,0.59175437688828,-11.7722902297974,-26.1758079528809,-50.8025665283203,-20.8247661590576,-29.240385055542,-31.6633167266846,2.65995812416077,2.51151752471924,1.78128612041473,-2.33878803253174,-3.04452586174011,-2.13425731658936,1.00880539417267,-0.64182186126709,-0.91506218910217,13.2854452133179,11.555456161499,6.7218189239502,-11.9997386932373,28.3665008544922,46.6270790100098,-36.1596298217773,-22.5174674987793,34.0479431152344,-6.97191524505615,-2.79163908958435,12.2463417053223,-1.17551934719086,-1.07538449764252,-1.04662227630615,-0.47564056515694,0.9353021979332,1.53824186325073,1.40774703025818,-8.10932540893555,-9.63052368164062,65.3210067749023,35.3767242431641,21.7968120574951,51.1233901977539,25.1846084594727,0.70389527082443,12.9143238067627,10.5751886367798,12.7299699783325,0.48576059937477,2.23971843719482,0.99815279245377,1.8796591758728,1.15314877033234,2.06128668785095,-10.3724803924561,-4.48369789123535,4.99715566635132,9.45949077606201,-59.0266494750977,-63.194953918457,-21.906946182251,-45.3653335571289,-41.6878395080566,16.4745025634766,2.91134929656982,-6.41167211532593,-1.68098735809326,-3.16277027130127,-1.44982492923737,1.64370310306549,0.19068233668804,-2.01761078834534,10.3490438461304,10.0166816711426,7.63048934936523,-20.3243789672852,13.4386539459229,22.3905735015869,-36.4517211914063,-21.4113464355469,2.40617275238037,-11.2168350219727,-6.43561410903931,3.64636921882629,0.74142408370972,-0.2434129267931,1.33211314678192,-1.36939740180969,-0.88523477315903,-1.51161026954651,-4.11511659622192,-7.30824661254883,-9.53837776184082,48.3317489624023,33.0735015869141,8.46350288391113,47.8888206481934,27.8756904602051,-17.3244438171387,8.37012958526611,7.20654726028442,26.0321559906006,2.81442880630493,0.90707266330719,-0.53263223171234,-0.42077946662903,1.94144451618195,1.5201324224472,-5.09356212615967,2.67860746383667,10.2414522171021,-44.6590461730957,-44.6590461730957,8.19295787811279,-41.2999801635742,-41.2999801635742,-22.7760410308838,5.38934803009033,5.38934803009033,-3.68228220939636,SHAKE
1.33211314678192,2.81442880630493,0.90707266330719,-1.51161026954651,-0.42077946662903,1.94144451618195,-9.53837776184082,-5.09356212615967,2.67860746383667,8.46350288391113,-44.6590461730957,-44.6590461730957,-17.3244438171387,-41.2999801635742,-41.2999801635742,26.0321559906006,5.38934803009033,5.38934803009033,-0.53263223171234,-0.37976679205894,0.78190410137177,1.5201324224472,-0.20186761021614,-0.29561087489128,10.2414522171021,9.30082416534424,7.79826831817627,8.19295787811279,22.6563301086426,42.1020355224609,-22.7760410308838,3.49792861938477,28.9363212585449,-3.68228220939636,1.48440504074097,5.43244361877441,1.37312591075897,1.10201609134674,-2.02879619598389,-0.40000680088997,-1.29536151885986,1.08497190475464,2.81549406051636,-2.92628145217896,-8.51519107818604,56.8072242736816,49.2894287109375,21.0905227661133,47.52490234375,47.7332000732422,9.96466732025146,2.53785371780396,0.66558808088303,4.82910490036011,-1.64956200122833,0.6934871673584,1.69377052783966,1.83012437820435,1.27192580699921,1.30814480781555,-8.82305240631104,-8.10985851287842,-5.08823585510254,9.12430286407471,9.12430286407471,-38.5059471130371,-9.56723022460938,-9.56723022460938,-39.3295516967773,13.2638778686523,13.2638778686523,4.90571928024292,-1.89404022693634,-3.36037683486938,-3.84560465812683,0.92518216371536,-0.54701328277588,-0.84635263681412,8.4395580291748,10.1828632354736,9.73705005645752,-35.259407043457,0.79008656740189,19.3810634613037,-35.3048973083496,-26.7623863220215,-8.35336971282959,-10.223240852356,-6.3973069190979,2.34871196746826,-0.5438175201416,0.84635263681412,0.25300031900406,-1.39230060577393,-1.12012553215027,-0.47883638739586,3.03919959068298,-2.07726573944092,-5.55535411834717,59.5868911743164,48.8129844665527,36.5690383911133,43.4356079101563,48.6741218566895,35.427001953125,19.361909866333,14.1018476486206,6.84502267837524,-1.07698237895966,1.44556391239166,2.77075290679932,0.75900089740753,1.55581879615784,1.21333622932434,-8.01558208465576,-8.06724739074707,-5.33644247055054,24.5956344604492,9.77073669433594,-35.5515022277832,13.2782430648804,-8.89445972442627,-36.2434234619141,6.92642545700073,13.2231760025024,4.64235687255859,1.20800983905792,-3.11430072784424,-2.85970234870911,0.75900089740753,-0.64821344614029,-1.83704853057861,0.97152119874954,9.84996795654297,8.10027122497559,-55.2486000061035,0.26336219906807,23.8294887542725,-35.903450012207,-25.543737411499,-4.00789356231689,-8.65982723236084,-4.97993946075439,4.09169054031372,-0.45912897586823,0.10386328399181,-0.33129724860191,-0.95128113031387,0.20666129887104,0.74675035476685,3.74387192726135,-2.37713766098022,-5.9159460067749,53.2254981994629,53.0267791748047,33.0567436218262,42.494686126709,46.9359283447266,34.4477729797363,14.5519580841064,13.1633205413818,9.12909126281738,0.85807049274445,3.15744376182556,3.49300217628479,1.23517417907715,0.80906838178635,0.96939063072205,-8.40280628204346,-7.93515491485596,-5.42113065719604,11.3413333892822,-5.87776517868042,-34.792537689209,-8.02775859832764,-26.3194599151611,-36.4301719665527,19.1296710968018,16.5343570709229,2.39899015426636,SHAKE
3.15744376182556,3.49300217628479,-1.65382301807404,0.80906838178635,0.96939063072205,2.35103869438171,-7.93515491485596,-5.42113065719604,7.11277055740356,-5.87776517868042,-34.792537689209,-38.3718719482422,-26.3194599151611,-36.4301719665527,-32.3672142028809,16.5343570709229,2.39899015426636,-10.4028062820435,-2.48632717132568,-2.07939624786377,-1.39869225025177,-1.40135538578033,-1.27725207805634,-0.03515372797847,8.45606899261475,7.21503639221191,3.90312886238098,20.5278854370117,31.651346206665,50.7091903686523,-6.91445446014404,19.0674228668213,40.476375579834,3.35906505584717,10.5727949142456,17.4728832244873,1.41999757289886,1.45887970924377,1.34596168994904,-0.09693906456232,0.15819177031517,0.54062169790268,-5.3598780632019,-7.26190757751465,-7.97723293304443,32.7215538024902,22.2086143493652,10.5081510543823,34.6249465942383,15.291766166687,-2.92092609405518,14.578293800354,10.8385515213013,10.0173397064209,1.42532384395599,-0.02343581803143,-1.29323101043701,0.79468727111816,2.18858575820923,1.27139317989349,-7.38707637786865,-1.91694343090057,5.27838516235352,-2.71981310844421,-50.5008964538574,-49.7586936950684,-17.4441528320313,-34.6704330444336,-34.3903121948242,7.97747993469238,-4.96796846389771,-7.60398483276367,-1.96221709251404,-3.0141658782959,-2.65304112434387,-0.64608287811279,-1.12811505794525,0.11345066130161,9.17938423156738,8.0885534286499,6.48746061325073,-15.1265659332275,21.9931373596191,39.556999206543,-29.4271335601807,0.18914192914963,22.6252059936523,-4.65672206878662,8.19295787811279,19.2278347015381,-1.0956244468689,0.77178412675858,1.08177602291107,0.83143889904022,0.09374327212572,-0.1336906850338,2.71429371833801,-1.33211314678192,-6.96256828308105,48.7459449768066,42.9328231811523,23.4847240447998,41.141960144043,43.6558723449707,14.8727807998657,21.9955310821533,17.8056774139404,8.30787944793701,0.70733559131622,1.33051526546478,1.0876350402832,0.19387812912464,0.13901701569557,1.39230060577393,-7.44779634475708,-7.2597770690918,-3.33907151222229,10.4937858581543,2.94007968902588,-47.3788566589355,-0.66319388151169,-14.4609785079956,-35.4030609130859,10.7212352752686,13.0148801803589,-3.03105926513672,-0.62584286928177,-2.11188673973084,-2.81655931472778,0.70573770999908,0.15073491632938,-0.97738015651703,3.85572481155396,8.28456211090088,8.82038974761963,-53.273380279541,-21.9715881347656,4.69263553619385,-32.1924362182617,-30.2938346862793,-20.0897464752197,-6.22492456436157,-5.67904663085938,-2.01591777801514,-3.11430072784424,-2.78779697418213,0.69029134511948,-1.2458268404007,-0.46605318784714,-0.45540055632591,8.36605453491211,7.07016038894653,-0.95660746097565,17.9325714111328,17.9325714111328,45.2599906921387,-5.52102899551392,-5.52102899551392,44.2209053039551,5.03500604629517,5.03500604629517,20.3650798797607,1.5883092880249,1.00454437732697,1.53877449035645,-0.93476957082748,-0.20772656798363,-0.90227901935577,-4.15772724151611,-7.80146408081055,-7.86538028717041,38.5059471130371,15.0044622421265,5.48990440368652,36.2338485717773,2.89937829971313,-10.7068700790405,13.4697790145874,12.0787477493286,15.0068559646606,SHAKE
-2.11188673973084,-2.81655931472778,-3.11430072784424,0.15073491632938,-0.97738015651703,-1.2458268404007,8.28456211090088,8.82038974761963,8.36605453491211,-21.9715881347656,4.69263553619385,17.9325714111328,-30.2938346862793,-20.0897464752197,-5.52102899551392,-5.67904663085938,-2.01591777801514,5.03500604629517,-2.78779697418213,0.69029134511948,1.5883092880249,-0.46605318784714,-0.45540055632591,-0.93476957082748,7.07016038894653,-0.95660746097565,-4.15772724151611,17.9325714111328,45.2599906921387,38.5059471130371,-5.52102899551392,44.2209053039551,36.2338485717773,5.03500604629517,20.3650798797607,13.4697790145874,1.00454437732697,1.53877449035645,2.34997344017029,-0.20772656798363,-0.90227901935577,-0.2498045116663,-7.80146408081055,-7.86538028717041,-7.62409782409668,15.0044622421265,5.48990440368652,-4.98712205886841,2.89937829971313,-10.7068700790405,-25.3785381317139,12.0787477493286,15.0068559646606,11.4634380340576,1.92333495616913,0.09427590668201,-1.53611135482788,0.93210637569427,1.78272008895874,0.77338200807571,-6.06455039978027,0.14913702011108,6.37347745895386,-31.735143661499,-56.3068351745605,-38.0247116088867,-35.1947631835938,-35.2019462585449,-31.1078624725342,3.59369683265686,-5.30315685272217,-4.42687892913818,-2.44105339050293,-2.45969557762146,-1.02531707286835,-0.94595485925674,-2.11614775657654,-1.19682466983795,7.97350454330444,7.44193744659424,5.67200040817261,13.6493434906006,22.1367893218994,43.2225227355957,-11.4083709716797,8.96628570556641,30.942663192749,0.1723825186491,8.52575206756592,17.2909240722656,0.17949706315994,0.69934612512589,0.60347229242325,0.07137271761894,-0.12942963838577,0.05805691331625,1.22239100933075,-6.20782852172852,-7.90319681167603,54.6692008972168,31.5795211791992,19.0243263244629,47.175350189209,28.280309677124,7.88889455795288,14.6860332489014,9.2416181564331,12.1864862442017,1.18883514404297,1.35022270679474,-0.54008907079697,-0.17630127072334,1.82213485240936,2.58273363113403,-8.04327964782715,-7.07974767684937,-2.26635003089905,8.59518432617188,-19.8670864105225,-50.5607528686523,-8.06127738952637,-35.0487174987793,-35.6712112426758,15.5263977050781,0.97922849655151,-3.45004463195801,-1.42372596263886,-2.10602784156799,-2.54172110557556,1.51853454113007,-0.09534116834402,-1.00933802127838,4.99449253082275,9.41427421569824,9.21666812896728,-48.4754028320313,-17.1281185150146,11.0061454772949,-35.9130249023438,-31.2515144348145,-19.9891891479492,-3.12203907966614,-4.14675712585449,-0.71586632728577,-4.34521389007568,-3.12974691390991,2.13638782501221,0.06498113274574,1.08390653133392,-0.72491246461868,7.09466123580933,5.41420650482178,-2.91136765480042,25.3929023742676,42.3749771118164,40.0573883056641,10.7810897827148,33.1022338867188,40.1435813903809,15.5072441101074,26.5133895874023,23.3721961975098,3.5191011428833,3.51803588867188,3.06316804885864,-1.24050045013428,-1.19096565246582,-1.33903741836548,-6.01874399185181,-7.62995672225952,-7.6107816696167,31.431079864502,31.431079864502,7.42202520370483,24.284387588501,24.284387588501,-6.11479091644287,16.9006690979004,16.9006690979004,11.3030261993408,SHAKE
-1.42372596263886,-2.10602784156799,-2.54172110557556,1.51853454113007,-0.09534116834402,-1.00933802127838,4.99449253082275,9.41427421569824,9.21666812896728,-48.4754028320313,-17.1281185150146,11.0061454772949,-35.9130249023438,-31.2515144348145,-19.9891891479492,-3.12203907966614,-4.14675712585449,-0.71586632728577,-4.34521389007568,-3.12974691390991,2.13638782501221,0.06498113274574,1.08390653133392,-0.72491246461868,7.09466123580933,5.41420650482178,-2.91136765480042,25.3929023742676,42.3749771118164,40.0573883056641,10.7810897827148,33.1022338867188,40.1435813903809,15.5072441101074,26.5133895874023,23.3721961975098,3.5191011428833,3.51803588867188,3.06316804885864,-1.24050045013428,-1.19096565246582,-1.33903741836548,-6.01874399185181,-7.62995672225952,-7.6107816696167,31.431079864502,31.431079864502,7.42202520370483,24.284387588501,24.284387588501,-6.11479091644287,16.9006690979004,16.9006690979004,11.3030261993408,1.66873681545258,0.43462789058685,-0.2577939927578,0.39095205068588,1.54143762588501,1.36087536811829,-7.20598125457764,-2.73027276992798,5.28744029998779,-16.704345703125,-53.4481582641602,-53.524772644043,-35.1684303283691,-40.7708625793457,-40.4189147949219,5.03500604629517,3.36864185333252,-1.14682257175446,-1.76407790184021,-3.52868843078613,-2.91136765480042,0.95128113031387,-0.8713863492012,0.30093720555305,9.83505439758301,7.92929601669312,6.36175918579102,-15.4785137176514,16.261417388916,41.3933525085449,-35.9561195373535,-19.9197578430176,30.2914390563965,-6.55292987823486,-1.10612118244171,18.7657527923584,-1.63997459411621,0.59601545333862,2.55769991874695,1.25541412830353,0.71159666776657,-0.81972098350525,2.13319206237793,-2.5475800037384,-7.59107446670532,52.6652565002441,45.9974021911621,19.4911956787109,46.8473434448242,46.5456733703613,11.0707883834839,21.4999313354492,21.9189167022705,9.0644474029541,1.80935168266296,1.17764985561371,0.10865697264671,-0.45966160297394,0.56991648674011,1.77526319026947,-7.5942702293396,-7.38388061523438,-7.18201303482056,9.75876617431641,4.2760443687439,-11.3197860717773,-2.24336695671082,-13.8815813064575,-29.2475681304932,7.22809505462646,6.94797325134277,2.37504816055298,-0.46552056074142,-0.64182186126709,-1.52279555797577,0.96033591032028,0.05113269388676,-0.82185155153275,3.53508019447327,8.56472587585449,9.29549789428711,-54.0802268981934,-25.3282604217529,3.7038300037384,-36.1692047119141,-33.0998382568359,-22.0912990570068,2.64080452919006,-3.01669406890869,-2.97120428085327,-2.31428694725037,-1.84024429321289,0.01278317347169,-2.07673311233521,1.35182058811188,0.44741106033325,7.95060110092163,4.77025413513184,-0.20612867176533,20.424934387207,44.4579315185547,50.8336906433105,-6.78995609283447,36.9856262207031,45.9758567810059,2.782062292099,18.8232135772705,19.4002170562744,1.98245716094971,2.22267436981201,0.32224249839783,-0.82504731416702,-1.27458894252777,0.15126755833626,-4.16784715652466,-6.90131568908691,-8.13276195526123,38.7357902526855,29.4917774200439,7.15866327285767,39.6360092163086,22.6252059936523,-8.7077112197876,14.238317489624,6.67264032363892,7.99184513092041,SHAKE
-0.46552056074142,-0.64182186126709,-1.52279555797577,0.96033591032028,0.05113269388676,-0.82185155153275,3.53508019447327,8.56472587585449,9.29549789428711,-54.0802268981934,-25.3282604217529,3.7038300037384,-36.1692047119141,-33.0998382568359,-22.0912990570068,2.64080452919006,-3.01669406890869,-2.97120428085327,-2.31428694725037,-1.84024429321289,0.01278317347169,-2.07673311233521,1.35182058811188,0.44741106033325,7.95060110092163,4.77025413513184,-0.20612867176533,20.424934387207,44.4579315185547,50.8336906433105,-6.78995609283447,36.9856262207031,45.9758567810059,2.782062292099,18.8232135772705,19.4002170562744,1.98245716094971,2.22267436981201,0.32224249839783,-0.82504731416702,-1.27458894252777,0.15126755833626,-4.16784715652466,-6.90131568908691,-8.13276195526123,38.7357902526855,29.4917774200439,7.15866327285767,39.6360092163086,22.6252059936523,-8.7077112197876,14.238317489624,6.67264032363892,7.99184513092041,0.78403460979462,1.40188801288605,0.98590224981308,0.36858150362968,0.20879183709621,-0.31105720996857,-7.56976938247681,-6.60730266571045,-1.09083080291748,-2.69108271598816,-24.12158203125,-55.4712600708008,-22.2517108917236,-38.5466461181641,-41.8889541625977,12.4139356613159,8.30548572540283,3.64397501945496,-1.24476146697998,-2.32014608383179,-2.49431681632996,-0.1432780623436,-1.56966722011566,-2.58592939376831,10.0763368606567,9.14369773864746,7.96285200119019,-11.757924079895,20.4081745147705,25.2971343994141,-34.1939888000488,-17.9110221862793,6.10281991958618,-6.20577096939087,-2.17154097557068,8.69095230102539,-2.31268906593323,-1.57392823696136,0.17683389782906,0.74248933792114,1.03650236129761,0.3914846777916,1.19842255115509,-4.02883005142212,-6.95511150360107,61.4735221862793,43.4284248352051,29.8844261169434,50.5056838989258,47.1322555541992,28.5676155090332,10.1945104598999,15.4880905151367,16.9198226928711,1.18350875377655,1.3784521818161,1.2756541967392,-0.1432780623436,0.02396845072508,1.60748410224915,-8.66059970855713,-8.60786914825439,-6.91622924804688,20.5757694244385,8.94234371185303,-13.6948337554932,7.10359621047974,-7.42681360244751,-35.8914794921875,13.086706161499,12.4594259262085,7.63032102584839,0.93690007925034,2.02293729782104,-0.19813919067383,1.20428144931793,0.49907639622688,0.8431568145752,-3.27568817138672,4.36864948272705,11.7733030319214,-13.6948337554932,-51.2814064025879,11.3149976730347,-35.8914794921875,-41.4196891784668,-24.7775936126709,7.63032102584839,9.85692882537842,-7.53455257415771,-1.92013919353485,-2.2562301158905,-1.86421275138855,0.63756078481674,0.59974390268326,1.10414659976959,9.6726016998291,6.62008619308472,2.01068663597107,29.6881008148193,43.6654510498047,50.5535697937012,-2.51151752471924,26.7935104370117,44.6973533630371,-2.28167414665222,9.79946708679199,11.0875482559204,-1.33903741836548,-0.17044231295586,0.71745562553406,1.55102503299713,1.29429626464844,0.5118595957756,-2.09537529945374,-5.52126550674438,-7.87656545639038,41.735725402832,34.7542304992676,23.3721961975098,47.8026313781738,35.2953224182129,16.5032329559326,13.3740110397339,13.0675525665283,10.0269165039063,SHAKE
-2.08525514602661,-2.34304928779602,-1.6394419670105,0.34514567255974,-0.29561087489128,0.1336906850338,9.68165588378906,8.51252841949463,7.87230443954468,12.6701154708862,19.6300601959229,31.4023494720459,-23.2836112976074,-3.16034626960754,21.8806095123291,-0.52193599939346,6.67503452301025,12.2128229141235,-0.1384843736887,1.3358416557312,1.53877449035645,0.34727621078491,-0.52837115526199,-1.19735729694366,4.19554424285889,-1.25328361988068,-5.15055370330811,31.4023494720459,49.0643768310547,49.0643768310547,21.8806095123291,52.8759460449219,52.8759460449219,12.2128229141235,9.31105041503906,9.31105041503906,-0.16511599719524,-2.00163197517395,-1.57179772853851,-0.91293162107468,-0.00106526445597,0.68869346380234,-7.72636318206787,-8.74901676177979,-8.38043594360352,27.5524730682373,16.6516723632813,5.92564916610718,22.5198612213135,2.13562798500061,-14.1593084335327,-1.86508309841156,4.76924991607666,17.5782279968262,3.16756391525269,1.77473056316376,-0.93743270635605,0.40213733911514,-0.04420847445726,1.27405631542206,-5.00940608978271,1.7811222076416,8.3964147567749,-35.3096885681152,-53.8048934936523,-36.6264991760254,-43.8402290344238,-44.6662254333496,-41.4795455932617,12.816162109375,-1.83395850658417,-5.29118585586548,-2.90604138374329,-2.19764065742493,-0.71319454908371,-0.76326197385788,-0.91666007041931,-0.67644292116165,9.3258581161499,8.7474193572998,6.57747554779053,20.1735439300537,26.4128322601318,49.3014030456543,-16.4002819061279,8.33900451660156,38.9345092773438,4.76206731796265,12.1505737304688,17.3938751220703,0.50759851932526,0.67537766695023,0.34780883789063,-0.07882957160473,-0.00852211564779,0.07510114461184,0.31585091352463,-4.00859022140503,-6.98600435256958,57.0418548583984,39.123649597168,30.7367610931396,52.3779487609863,46.8856506347656,27.2795333862305,11.6741275787354,7.15866327285767,7.28795003890991,-0.108124345541,0.39095205068588,2.03785085678101,0.40053942799568,0.29188245534897,0.0,-8.44275379180908,-8.2366247177124,-8.00865840911865,16.5678749084473,7.61595582962036,1.02711248397827,6.10760831832886,-9.29189682006836,-25.8932914733887,9.62708473205566,16.3763389587402,17.2310695648193,2.43040084838867,1.25221836566925,-1.82746112346649,0.8777779340744,2.03092670440674,0.48576059937477,-6.57960605621338,0.23169502615929,10.1439809799194,-26.6594352722168,-56.4816131591797,-3.21780705451965,-42.5066566467285,-43.0501403808594,-31.627405166626,8.81545066833496,1.59693253040314,0.57221418619156,-1.95049917697906,-2.28499221801758,-0.08681905269623,-0.90600740909576,-0.6870955824852,1.33424377441406,9.38498020172119,8.51572418212891,1.74170744419098,15.7586355209351,29.3960075378418,46.7779121398926,-15.0978355407715,6.80671548843384,47.4339256286621,3.78762698173523,8.69334602355957,19.2996597290039,1.98512029647827,2.20563006401062,-0.47457531094551,0.01651159860194,-1.08017814159393,-0.18429075181484,-2.21202158927917,-5.16919565200806,-7.17828464508057,38.7094535827637,27.8493537902832,9.98860931396484,45.3749122619629,30.5859260559082,-1.48919343948364,13.4003467559814,3.96958637237549,10.9391078948975,SHAKE
0.85913580656052,-1.02798020839691,-1.96594560146332,0.10120012611151,0.50972902774811,-0.20240025222301,-3.07435321807861,8.11678218841553,8.85501098632813,-40.9695777893066,-24.2724170684814,8.80587387084961,-37.8235969543457,-30.3369293212891,-18.1312885284424,2.26252055168152,-0.51954174041748,2.34631776809692,-2.77075290679932,-2.79099297523499,-0.79255676269531,-0.68762820959091,0.93956327438354,1.41839957237244,6.87788009643555,6.06668090820313,3.69167399406433,23.2907943725586,26.9970188140869,26.9970188140869,1.00317049026489,20.592529296875,20.592529296875,8.1139497756958,15.7730007171631,15.7730007171631,4.31751680374146,2.45543456077576,-0.2274339646101,-1.41626906394959,-1.2628710269928,-0.1065264493227,-3.45305466651917,-5.06746292114258,-6.09384536743164,29.0105419158936,19.4792251586914,12.816162109375,35.8651428222656,23.1136226654053,9.03811168670654,8.47786808013916,-4.29040956497192,0.04070143029094,-0.4772384762764,1.63464832305908,0.50440269708633,0.16085493564606,-0.4516721367836,0.56672066450119,-6.51888561248779,-6.67974090576172,-1.40082275867462,5.91607236862183,-1.48440504074097,-44.5321502685547,-4.065354347229,-16.6540660858154,-34.1508941650391,13.0292453765869,19.8910274505615,-5.94959115982056,-2.40856289863586,-3.18727135658264,-2.44265151023865,1.34755957126617,-1.03596973419189,0.15925703942776,4.40220546722412,8.09920597076416,7.18148040771484,-41.4053230285645,5.02542924880981,32.9825210571289,-33.0687141418457,-17.8846874237061,19.907787322998,-5.82748699188232,5.82509279251099,21.380220413208,0.04793690145016,2.84159302711487,3.37209463119507,0.74621772766113,0.04900216311216,-0.75101143121719,3.48607802391052,-0.83836311101913,-3.46477270126343,48.0252914428711,41.4891204833984,29.2236251831055,38.6567802429199,43.3087158203125,34.2203254699707,29.1015224456787,21.626823425293,7.70454120635986,1.74809896945953,0.11345066130161,0.55553543567657,-0.80853569507599,-0.45060685276985,-0.73236930370331,-5.49889516830444,-6.6051721572876,-6.78786516189575,21.4376811981201,12.5480108261108,4.32871675491333,19.7569522857666,5.46835660934448,-7.52497577667236,-0.46926352381706,4.92726707458496,15.89271068573,2.59232115745544,0.77018618583679,-1.71294522285461,-1.47326076030731,-0.26631611585617,1.86261487007141,-5.67626142501831,-1.68578100204468,4.07410383224487,-21.3083953857422,-40.9360618591309,-39.2385711669922,-30.1669406890869,-32.0846977233887,-29.4223442077637,5.64073944091797,-2.33434677124023,-3.12203907966614,-3.25225234031677,-3.56597280502319,-3.56544017791748,2.09857106208801,0.08522115647793,-1.35874485969543,7.78655052185059,7.33967208862305,6.48799324035645,-15.6628675460815,10.9055891036987,15.2343053817749,-25.431209564209,-14.2694425582886,1.78368031978607,-0.17477671802044,5.37258863449097,10.6518030166626,-0.42983421683311,1.30761206150055,0.80054622888565,0.79149150848389,0.42823630571365,0.3595267534256,2.49431681632996,-2.10176682472229,-6.31701803207397,49.5456085205078,37.0335121154785,19.6516075134277,39.6671333312988,43.5050392150879,16.8264503479004,23.21657371521,16.9365825653076,7.12514448165894,SHAKE
-3.56597280502319,-3.56544017791748,-0.42983421683311,0.08522115647793,-1.35874485969543,0.79149150848389,7.33967208862305,6.48799324035645,2.49431681632996,10.9055891036987,15.2343053817749,49.5456085205078,-14.2694425582886,1.78368031978607,39.6671333312988,5.37258863449097,10.6518030166626,23.21657371521,1.30761206150055,0.80054622888565,0.33129724860191,0.42823630571365,0.3595267534256,0.72065138816833,-2.10176682472229,-6.31701803207397,-7.11809730529785,37.0335121154785,19.6516075134277,7.79073238372803,43.5050392150879,16.8264503479004,2.07577276229858,16.9365825653076,7.12514448165894,11.8848171234131,1.4599449634552,3.25491547584534,3.86957311630249,0.46711847186089,-0.12357068061829,-0.41225734353065,-6.71968841552734,-6.08212757110596,-3.95852279663086,0.8451532125473,-7.64229202270508,-27.5405025482178,-10.2256355285645,-23.654712677002,-33.6289558410645,17.5207672119141,15.617377281189,5.72693061828613,1.91481280326843,-1.46580386161804,-3.70712041854858,0.3339604139328,1.70016205310822,1.60375559329987,0.63969129323959,6.04590845108032,8.89762115478516,-41.218578338623,-35.1923713684082,-7.04613542556763,-34.1963844299316,-31.2251777648926,-25.902868270874,-8.15225696563721,-11.2144403457642,-3.69904160499573,-3.77369928359985,-2.42241144180298,-0.62903863191605,-0.66312712430954,-2.41708493232727,-1.12172341346741,8.08216190338135,7.37961959838867,5.41314125061035,14.923059463501,23.0944690704346,43.011833190918,-10.9199542999268,11.841721534729,34.452564239502,4.79319190979004,16.7570171356201,19.8527202606201,0.33822146058083,1.30814480781555,1.94890129566193,0.71479243040085,1.00827276706696,0.65194183588028,0.81599259376526,-3.38541054725647,-5.96335029602051,50.2303504943848,38.9057769775391,25.9651165008545,47.9486770629883,44.163444519043,27.0688438415527,18.6915321350098,15.7131462097168,10.1059255599976,1.58937454223633,2.18272686004639,1.47485864162445,-0.54488277435303,-0.47457531094551,-0.11877698451281,-7.3418025970459,-7.48508071899414,-5.58092069625854,6.84262847900391,-1.721431016922,-29.6210632324219,-6.03099393844604,-23.4775409698486,-37.4979858398438,11.0324811935425,10.9271364212036,3.77805018424988,-1.70655369758606,-2.5598304271698,-1.94250977039337,1.41786694526672,-1.20161831378937,-1.65488839149475,7.01050519943237,8.68829727172852,8.10453224182129,-50.8480567932129,17.1041774749756,26.1351051330566,-40.2178001403809,-10.979808807373,14.2718362808228,0.03112462162971,5.78917980194092,13.7834196090698,-0.5502091050148,1.5025554895401,1.33371114730835,-0.66951870918274,0.90707266330719,0.6615292429924,5.29063606262207,-4.19820737838745,-6.83580207824707,51.0467758178711,38.7717018127441,27.133487701416,39.707836151123,42.0565452575684,22.1918563842773,18.7178688049316,11.8800287246704,6.01184034347534,0.49055427312851,2.05010151863098,2.15183424949646,0.41225734353065,-0.15126755833626,-0.2514024078846,-7.75033140182495,-7.02275609970093,-4.54015731811523,27.133487701416,-5.98550415039063,-33.2506713867188,22.1918563842773,-28.4455108642578,-41.268856048584,6.01184034347534,13.4769611358643,2.99993467330933,SHAKE
2.18272686004639,1.47485864162445,-1.70655369758606,-0.47457531094551,-0.11877698451281,1.41786694526672,-7.48508071899414,-5.58092069625854,7.01050519943237,-1.721431016922,-29.6210632324219,-50.8480567932129,-23.4775409698486,-37.4979858398438,-40.2178001403809,10.9271364212036,3.77805018424988,0.03112462162971,-2.5598304271698,-1.94250977039337,-0.5502091050148,-1.20161831378937,-1.65488839149475,-0.66951870918274,8.68829727172852,8.10453224182129,5.29063606262207,17.1041774749756,26.1351051330566,51.0467758178711,-10.979808807373,14.2718362808228,39.707836151123,5.78917980194092,13.7834196090698,18.7178688049316,1.5025554895401,1.33371114730835,0.49055427312851,0.90707266330719,0.6615292429924,0.41225734353065,-4.19820737838745,-6.83580207824707,-7.75033140182495,38.7717018127441,27.133487701416,27.133487701416,42.0565452575684,22.1918563842773,22.1918563842773,11.8800287246704,6.01184034347534,6.01184034347534,2.05010151863098,2.15183424949646,0.57311224937439,-0.15126755833626,-0.2514024078846,0.2306297570467,-7.02275609970093,-4.54015731811523,2.59764742851257,-5.98550415039063,-33.2506713867188,-56.2350082397461,-28.4455108642578,-41.268856048584,-39.6168556213379,13.4769611358643,2.99993467330933,-0.83318221569061,-1.1861720085144,-3.00830674171448,-2.67487907409668,0.90174633264542,-0.63862603902817,-0.81332939863205,9.04356288909912,8.08322715759277,7.25924444198608,-32.9920997619629,16.9916496276855,33.4398155212402,-36.1404762268066,-3.46680402755737,20.4033870697021,-3.54102420806885,3.15795207023621,12.801796913147,-1.1430287361145,-0.37124466896057,-0.01597896590829,-0.30945932865143,0.4868258535862,1.03969812393188,2.95983719825745,-1.9861855506897,-7.03926753997803,55.428165435791,47.5440559387207,22.8837795257568,42.2792091369629,47.5057487487793,15.5024557113647,17.9397525787354,13.3165502548218,12.9765729904175,0.73023879528046,2.72974014282227,4.4693169593811,1.1387677192688,-0.13741911947727,-0.86073368787766,-7.4749608039856,-6.83739995956421,-6.72661256790161,7.76439619064331,1.24737906455994,-8.66461563110352,-1.20667767524719,-12.7132110595703,-29.4414978027344,16.0339679718018,19.357120513916,11.9614315032959,-0.38456046581268,-2.63013792037964,-2.87940979003906,0.8303736448288,0.83090627193451,-0.65567028522491,3.31510305404663,8.42464351654053,8.5056037902832,-50.9557952880859,-21.9045505523682,8.73644161224365,-36.3511657714844,-33.3512306213379,-20.3555030822754,-9.41878986358643,-2.20266556739807,4.60404968261719,-2.71269583702087,-1.96967399120331,-1.82106959819794,-1.35341846942902,0.1272991001606,0.91825795173645,7.65072917938232,2.26848077774048,-2.62587690353394,8.73644161224365,51.2454948425293,41.4053230285645,-20.3555030822754,41.1275978088379,43.6079902648926,4.60404968261719,13.6038541793823,11.7196168899536,-1.25488150119781,0.14434333145618,1.79656851291656,1.48018491268158,1.4471617937088,1.07272136211395,-5.32845258712769,-6.96629667282104,-7.55219221115112,27.925968170166,19.4265518188477,8.39646530151367,31.268274307251,15.5694932937622,0.48841714859009,14.9613666534424,18.1121349334717,17.3124732971191,SHAKE
-0.38456046581268,-2.63013792037964,-2.87940979003906,0.8303736448288,0.83090627193451,-0.65567028522491,3.31510305404663,8.42464351654053,8.5056037902832,-50.9557952880859,-21.9045505523682,8.73644161224365,-36.3511657714844,-33.3512306213379,-20.3555030822754,-9.41878986358643,-2.20266556739807,4.60404968261719,-2.71269583702087,-1.96967399120331,-1.82106959819794,-1.35341846942902,0.1272991001606,0.91825795173645,7.65072917938232,2.26848077774048,-2.62587690353394,8.73644161224365,51.2454948425293,41.4053230285645,-20.3555030822754,41.1275978088379,43.6079902648926,4.60404968261719,13.6038541793823,11.7196168899536,-1.25488150119781,0.14434333145618,1.79656851291656,1.48018491268158,1.4471617937088,1.07272136211395,-5.32845258712769,-6.96629667282104,-7.55219221115112,27.925968170166,19.4265518188477,8.39646530151367,31.268274307251,15.5694932937622,0.48841714859009,14.9613666534424,18.1121349334717,17.3124732971191,3.78967833518982,3.04878687858582,-0.27004453539848,-0.27537086606026,-0.22956448793411,0.108124345541,-5.25867795944214,-2.98433828353882,1.47965228557587,-12.1793041229248,-27.5476856231689,-40.9623985290527,-22.3522663116455,-31.5483951568604,-33.0040702819824,10.6733512878418,-1.35990655422211,-8.10437297821045,-3.4716968536377,-2.48899030685425,-0.10226538777351,0.26578348875046,-1.05674231052399,-2.12520265579224,8.36658668518066,7.5820198059082,6.18545818328857,-0.79966336488724,16.4218292236328,30.3441123962402,-22.7760410308838,-0.01436521019787,27.5668392181396,6.61757326126099,12.392388343811,18.3946514129639,1.86740863323212,-0.81226414442062,0.16511599719524,-1.73478317260742,1.03810024261475,1.4599449634552,2.23545742034912,-6.12154197692871,-8.05020332336426,48.5496215820313,29.2068672180176,8.68855762481689,45.4060363769531,30.5093116760254,-7.64947462081909,13.6828622817993,1.98239898681641,19.7377986907959,2.69139075279236,2.92841196060181,0.76965355873108,0.3115898668766,0.44155210256577,1.05514442920685,-7.44193744659424,-5.44669723510742,0.19973708689213,-1.9943699836731,-26.0225791931152,-50.429069519043,-23.2069969177246,-36.8371887207031,-36.6001625061035,18.1911449432373,4.84825849533081,-5.04697704315186,-1.71134734153748,-2.92787933349609,-2.84372353553772,1.14515924453735,0.41971418261528,-0.96885800361633,6.26375484466553,8.77138710021973,8.35380363464355,-38.5873489379883,-7.58483076095581,11.0085391998291,-33.375171661377,-26.2117195129395,-11.5544176101685,-5.7436900138855,-0.96246910095215,4.50828170776367,-0.54328489303589,0.33449304103851,0.61891865730286,-1.47113025188446,-0.00159789668396,0.56885123252869,5.18890333175659,0.1368864774704,-3.88395428657532,43.1602745056152,43.1602745056152,36.2553977966309,33.3416519165039,33.3416519165039,41.9583854675293,16.8432083129883,16.8432083129883,12.4450607299805,0.79735046625137,1.50415337085724,2.51615452766419,0.49854376912117,0.51292484998703,0.46179214119911,-6.46881818771362,-7.77536535263062,-7.40039205551147,26.1327114105225,6.50265169143677,-0.56981998682022,24.363395690918,-8.89206504821777,-22.7449169158936,12.2990140914917,16.2183227539063,13.0364284515381,SHAKE
-1.71134734153748,-2.92787933349609,-2.84372353553772,1.14515924453735,0.41971418261528,-0.96885800361633,6.26375484466553,8.77138710021973,8.35380363464355,-38.5873489379883,-7.58483076095581,11.0085391998291,-33.375171661377,-26.2117195129395,-11.5544176101685,-5.7436900138855,-0.96246910095215,4.50828170776367,-0.54328489303589,0.33449304103851,0.61891865730286,-1.47113025188446,-0.00159789668396,0.56885123252869,5.18890333175659,0.1368864774704,-3.88395428657532,43.1602745056152,43.1602745056152,36.2553977966309,33.3416519165039,33.3416519165039,41.9583854675293,16.8432083129883,16.8432083129883,12.4450607299805,0.79735046625137,1.50415337085724,2.51615452766419,0.49854376912117,0.51292484998703,0.46179214119911,-6.46881818771362,-7.77536535263062,-7.40039205551147,26.1327114105225,6.50265169143677,-0.56981998682022,24.363395690918,-8.89206504821777,-22.7449169158936,12.2990140914917,16.2183227539063,13.0364284515381,1.669802069664,0.15339808166027,0.2226402759552,1.30654680728912,1.01572966575623,-0.14434333145618,-6.19557809829712,-0.21571604907513,7.49093961715698,-24.9715232849121,-57.997142791748,-47.3261833190918,-39.6838912963867,-41.4891204833984,-39.832332611084,0.19871874153614,-1.0414776802063,0.58897364139557,-2.46182608604431,-4.49754667282104,-3.48341488838196,-0.78616517782211,0.15712650120258,0.99016332626343,9.42013359069824,8.56685638427734,6.94126319885254,19.333179473877,24.6195755004883,41.7644538879395,-16.788143157959,3.80438661575317,28.881254196167,-5.28400325775146,6.34463453292847,25.0553207397461,-0.21092236042023,2.33878803253174,2.63759469985962,0.52304482460022,-0.36165729165077,-0.70999878644943,1.72732627391815,-3.20271754264832,-6.00489568710327,55.2797241210938,41.4364471435547,27.6099338531494,45.3868827819824,43.5505294799805,27.7176723480225,27.9092082977295,19.4145812988281,9.2416181564331,1.43757438659668,0.46818372607231,0.3755057156086,-0.41971418261528,-0.01438106968999,1.05780756473541,-7.483482837677,-7.86538028717041,-5.09622526168823,17.5375270843506,9.35893440246582,-42.327091217041,10.1609916687012,-5.29358005523682,-41.367015838623,6.34463453292847,9.7013053894043,9.55047035217285,1.65062725543976,1.29695951938629,-1.3401026725769,-0.15872439742088,-0.01970739290118,0.31851407885551,2.17633533477783,7.4280891418457,9.9271993637085,-51.7123641967773,-32.3887596130371,-5.04937124252319,-42.0733070373535,-38.7956428527832,-28.9554748535156,9.48103904724121,-3.17231726646423,-8.63588523864746,-3.65119385719299,-1.92067182064056,-0.15286545455456,0.63862603902817,0.27324032783508,0.19334550201893,10.3074989318848,4.46984958648682,-0.42876893281937,15.1576910018921,55.619701385498,49.1074714660645,-12.2176113128662,37.8930320739746,47.484203338623,-0.98401689529419,18.727445602417,18.7992725372314,1.24742472171783,1.83438539505005,1.82586324214935,-0.49801114201546,-1.0018812417984,-0.5310343503952,-4.22963237762451,-6.85710716247559,-8.04594230651855,38.9464797973633,26.8198471069336,10.512939453125,38.2593421936035,19.7354049682617,-9.16021537780762,17.5423164367676,15.128960609436,14.8799638748169,SHAKE
-0.29774141311646,-2.2695460319519,-2.22746801376343,0.70307451486588,0.21731394529343,-0.49747851490974,8.54981231689453,8.91306781768799,8.51306056976318,-23.4583873748779,6.009446144104,19.6013298034668,-34.0216064453125,-19.3403606414795,2.77248549461365,-3.77086758613586,-2.98078107833862,8.09000778198242,0.1416801661253,1.7853832244873,1.47485864162445,-1.45461857318878,-1.1259845495224,-0.35206991434097,6.68986082077026,1.34489631652832,-3.13560581207275,45.7005233764649,57.1759300231934,43.1243591308594,30.6409931182861,47.4147720336914,46.775520324707,16.6277313232422,8.50420475006104,2.88501310348511,0.54967647790909,-0.26471820473671,0.26951190829277,-0.17949706315994,-0.48576059937477,-0.82930839061737,-5.93086004257202,-7.27948474884033,-7.71730852127075,29.0967330932617,17.0946006774902,9.68694019317627,30.7630977630615,11.7938375473022,-4.98233366012573,3.5960910320282,9.5624418258667,20.503942489624,2.68499898910522,4.18009757995605,0.42504051327705,-0.81386202573776,-0.79735046625137,1.58511352539063,-7.61291265487671,-6.37720584869385,4.44694662094116,0.66319388151169,0.66319388151169,-48.5807456970215,-21.5382385253906,-21.5382385253906,-39.0973129272461,27.0592670440674,27.0592670440674,-1.32399356365204,-1.37951743602753,-1.9307918548584,-1.7465010881424,2.16514992713928,0.22210763394833,0.08255799859762,8.99615859985352,9.32692337036133,7.34659624099732,-19.6180896759033,7.50103378295898,46.5265197753906,-34.5674858093262,-21.2461452484131,26.6761951446533,-3.23456645011902,-0.86909520626068,12.0907182693481,-0.61838603019714,1.3784521818161,2.96090245246887,0.9097358584404,-0.03781688958406,-1.38164794445038,2.64238858222961,-1.73158740997314,-4.9369683265686,56.728214263916,44.9128303527832,34.1652565002441,48.3054122924805,49.5192718505859,34.8643646240234,14.9805202484131,16.1010055541992,11.0707883834839,2.68553161621094,1.50042498111725,0.59122174978256,-2.17846584320068,-1.29110050201416,-0.18322548270226,-7.03766965866089,-7.09093284606934,-6.88054323196411,20.0897464752197,4.5418004989624,-11.5065336227417,15.2199401855469,-13.6589202880859,-30.121452331543,6.97909784317017,12.2056398391724,8.54490566253662,-0.27430561184883,-0.42983421683311,-1.57765662670136,0.60720074176788,1.90682339668274,0.95341169834137,-3.50738310813904,8.65900230407715,9.31094360351562,-11.5065336227417,-25.6299285888672,5.92564916610718,-30.121452331543,-32.4821357727051,-20.4153575897217,8.54490566253662,0.35434186458588,-3.4620156288147,-2.76915502548218,-1.84344017505646,-0.12303804606199,-0.19174760580063,0.36964675784111,1.19309616088867,8.30267143249512,6.98174333572388,2.75583910942078,21.1479835510254,39.3439178466797,55.025936126709,-0.11492168158293,25.5581035614014,45.9830360412598,2.10689759254456,15.8328561782837,15.0786819458008,1.19362878799438,1.79443800449371,1.12864768505096,0.48309743404388,-0.4740426838398,-0.83143889904022,-2.16514992713928,-5.53990793228149,-7.53514814376831,47.8385429382324,34.383129119873,21.5956993103027,48.8872032165527,34.7446556091309,15.1050186157227,10.979808807373,5.95437955856323,3.12922167778015,SHAKE
-0.42983421683311,-1.57765662670136,-2.76915502548218,1.90682339668274,0.95341169834137,-0.19174760580063,8.65900230407715,9.31094360351562,8.30267143249512,-25.6299285888672,5.92564916610718,21.1479835510254,-32.4821357727051,-20.4153575897217,-0.11492168158293,0.35434186458588,-3.4620156288147,2.10689759254456,-1.84344017505646,-0.12303804606199,1.19362878799438,0.36964675784111,1.19309616088867,0.48309743404388,6.98174333572388,2.75583910942078,-2.16514992713928,39.3439178466797,55.025936126709,47.8385429382324,25.5581035614014,45.9830360412598,48.8872032165527,15.8328561782837,15.0786819458008,10.979808807373,1.79443800449371,1.12864768505096,0.32277512550354,-0.4740426838398,-0.83143889904022,-0.70999878644943,-5.53990793228149,-7.53514814376831,-8.08535766601563,34.383129119873,21.5956993103027,11.3197860717773,34.7446556091309,15.1050186157227,-1.35272395610809,5.95437955856323,3.12922167778015,8.64546203613281,2.28445959091187,1.31347107887268,0.32969933748245,-0.64128917455673,-0.41065946221352,1.05834019184113,-7.21716690063477,-3.84880042076111,3.20111966133118,-11.1234607696533,-41.5537643432617,-52.9477691650391,-31.4215030670166,-39.2792739868164,-39.2218132019043,12.4618196487427,4.82431650161743,3.1196448802948,-1.08443915843964,-3.16330289840698,-2.39418196678162,2.32760286331177,-1.22079300880432,-0.81226414442062,9.1964282989502,8.53756237030029,6.9188928604126,-29.4343166351318,24.1455249786377,41.6136207580566,-35.5634727478027,-1.58017313480377,26.5445137023926,-4.10126733779907,1.38863694667816,14.9493951797485,-1.4040185213089,0.92305165529251,1.72359788417816,1.1558119058609,0.51931643486023,-0.42823630571365,2.41708493232727,-5.35082340240479,-7.54367017745972,55.8663024902344,33.9880867004395,22.0170783996582,48.0037422180176,36.6264991760254,15.8567981719971,15.2821893692017,14.1832504272461,12.0500173568726,2.11827826499939,2.72334861755371,2.59604954719543,-0.7318366765976,-0.48522797226906,-0.60560286045074,-8.0438117980957,-7.66138219833374,-7.33434581756592,10.060435295105,3.79959797859192,-7.92720174789429,-1.01753568649292,-14.662091255188,-30.779857635498,13.1465616226196,13.6134309768677,7.1419038772583,1.00933802127838,-1.20747721195221,-2.09750580787659,-0.04474110901356,2.36328911781311,1.38857221603394,-4.23176288604736,9.34290218353272,10.310694694519,-39.3630714416504,-32.2451095581055,6.3781533241272,-40.0980911254883,-35.8651428222656,-25.0888404846191,2.45645093917847,-1.48201084136963,-4.34308195114136,-2.70257592201233,-0.89269161224365,-0.18002969026566,-0.8522115945816,0.12836436927319,1.03756761550903,8.78736686706543,3.24745869636536,-1.66926944255829,6.3781533241272,56.9963645935059,46.2511901855469,-25.0888404846191,46.8952293395996,50.5439910888672,-4.34308195114136,12.3732347488403,12.0284690856934,0.7536746263504,1.53664398193359,1.71827161312103,0.29454562067986,-1.24902260303497,-1.02584969997406,-5.01899337768555,-7.65712070465088,-6.75164604187012,32.4964981079102,8.93755531311035,-13.8504571914673,36.2434234619141,-0.72783732414246,-30.0975093841553,11.2910556793213,11.3509101867676,6.42843151092529,SHAKE
1.71827161312103,0.04420847445726,-0.46392267942429,-1.02584969997406,0.13635385036469,1.59203767776489,-6.75164604187012,-2.99232792854309,3.7284255027771,-13.8504571914673,-41.9320487976074,-47.7595367431641,-30.0975093841553,-35.5395317077637,-34.634521484375,6.42843151092529,4.76446151733398,5.20978307723999,-0.8586031794548,-1.37578904628754,-2.16355204582214,1.88871383666992,0.27750140428543,-1.24263095855713,8.97591876983643,9.34023857116699,7.91651296615601,-22.72336769104,8.48744487762451,21.9620113372803,-30.2698917388916,-18.4281711578369,2.46363353729248,-0.20829555392265,-3.39018964767456,1.09415018558502,-2.4788703918457,-2.16834568977356,1.87859392166138,-0.4580637216568,1.57339560985565,0.63223445415497,6.31328964233398,2.59019041061401,-4.71699094772339,36.2170906066895,47.9103698730469,29.8317527770996,27.3058700561523,44.2879447937012,32.4773445129395,10.5560350418091,14.8655986785889,18.6867446899414,3.72469711303711,3.63095378875732,0.16245283186436,-1.26766467094421,-1.99737083911896,-1.05088341236115,-6.45337200164795,-6.64671754837036,-6.26482009887695,16.9413719177246,7.58722496032715,-6.63433313369751,14.4585838317871,1.55623114109039,-21.4712009429932,10.3764705657959,4.97993946075439,-1.08936178684235,-1.70335781574249,-0.38935416936874,-0.98057591915131,2.00163197517395,1.46473860740662,-0.47297742962837,2.59338641166687,8.19561195373535,8.50666904449463,-49.0188865661621,-49.0188865661621,19.548656463623,-34.7877502441406,-34.7877502441406,2.68629431724548,14.6118125915527,14.6118125915527,-0.83318221569061,-1.17924773693085,-1.91641080379486,-1.36247324943542,0.25939190387726,1.20374882221222,0.89588743448257,0.98696750402451,-3.39020419120789,-5.92926216125488,57.3842277526855,40.4883460998535,27.8541431427002,48.3078079223633,45.4299774169922,28.9722347259521,0.63446342945099,3.82593441009521,10.8409452438354,2.38779020309448,2.97155523300171,1.71773898601532,-1.77686107158661,-2.410160779953,-1.00028336048126,-7.54473543167114,-7.42542600631714,-3.83441948890686,5.216965675354,-8.46589756011963,-40.1292152404785,-6.93600225448608,-25.356990814209,-35.7645835876465,18.7465991973877,13.539210319519,12.4809732437134,1.57978713512421,0.74834829568863,0.16511599719524,1.30175316333771,1.93025922775269,1.57978713512421,3.27355766296387,8.48855972290039,8.61372852325439,-51.7913703918457,3.07894349098206,16.6397018432617,-35.5515022277832,-18.0259437561035,0.57221418619156,15.4018993377686,-2.04943656921387,-4.35265874862671,0.01331580616534,-0.98750013113022,-1.03650236129761,0.85008102655411,-0.12516857683659,-0.90387690067291,6.24244976043701,-1.50468599796295,-5.64004278182983,42.69580078125,35.8531723022461,18.2821235656738,23.6810493469238,42.293571472168,17.6787853240967,-3.67031121253967,-5.54736518859863,7.6877818107605,0.02609897963703,1.51054501533508,-0.84209156036377,-1.51853454113007,-1.74809896945953,-0.14594122767448,-6.01661348342896,-5.67093515396118,-4.21631669998169,8.16183376312256,1.81241071224213,-26.4655055999756,5.34625244140625,-5.13077402114868,-25.8478012084961,14.7147636413574,16.6660385131836,3.82832860946655,SHAKE
-1.95103180408478,-1.66181254386902,-0.97791278362274,2.14757323265076,2.2343921661377,-1.25275099277496,0.41758367419243,5.17026090621948,6.59132385253906,-40.8019866943359,-28.6274700164795,9.24640655517578,-28.8644962310791,-26.0441265106201,-0.00239420169964,8.71010589599609,6.22731876373291,0.62009823322296,-1.1941614151001,-0.324373036623,0.46498793363571,-0.01757686398923,-0.42024683952332,-1.12864768505096,3.02109003067017,-0.81439465284348,-3.97503423690796,40.6990356445313,41.4986991882324,31.9290733337402,37.995979309082,44.979866027832,37.0646362304688,5.52342319488525,8.60715484619141,7.1012020111084,0.61039650440216,0.51612061262131,0.95607483386993,-1.20907521247864,-1.33903741836548,-1.51320815086365,-5.98199272155762,-6.95031785964966,-7.06110525131226,31.9290733337402,13.0747356414795,3.23935484886169,37.0646362304688,5.94719696044922,-8.52814674377441,7.1012020111084,9.60553741455078,13.7331409454346,0.96406435966492,-0.4420847594738,-1.11959290504456,-1.14249610900879,0.34088462591171,2.25516486167908,-6.32181167602539,-3.39233469963074,7.26776695251465,-11.9303073883057,-11.9303073883057,-28.7064781188965,-22.8789920806885,-22.8789920806885,-31.2060241699219,11.142614364624,11.142614364624,8.57363605499268,-1.13290870189667,-0.95820540189743,0.2737729549408,1.5409049987793,0.51345747709274,0.01491370238364,9.08510780334473,8.79801940917969,6.63872814178467,1.04626619815826,20.5661926269531,43.8521995544434,-19.6923084259033,1.92972660064697,29.5588150024414,3.99352836608887,4.56813669204712,7.30949783325195,1.24369621276855,-0.81439465284348,-1.60748410224915,-0.1193096190691,-0.80161148309708,-0.77870833873749,1.3358416557312,-5.54203844070435,-7.53088712692261,55.2797241210938,32.5012893676758,19.4624652862549,48.8129844665527,31.7183837890625,9.93114852905273,-0.50038814544678,-2.68629431724548,7.19936466217041,-0.17417073249817,1.76674115657806,1.21546673774719,-1.27352368831635,-1.68737888336182,-0.53263223171234,-7.74234199523926,-7.29120254516602,-4.24987268447876,6.88572406768799,-7.68059921264648,-7.68059921264648,-8.33421611785889,-26.6761951446533,-26.6761951446533,21.2964248657227,20.8654670715332,20.8654670715332,-0.15659387409687,-0.989098072052,-1.53611135482788,2.07833099365234,2.58592939376831,0.85966843366623,1.87646329402924,7.44353532791138,9.0020170211792,-49.3780174255371,-49.3780174255371,1.73579621315002,-37.253776550293,-37.253776550293,-21.6172466278076,6.34463453292847,6.34463453292847,-1.43412685394287,-1.84024429321289,-0.81972098350525,0.65247446298599,0.56352490186691,1.07325398921967,-0.13262543082237,6.44218683242798,2.49804520606995,-2.0160129070282,38.7118453979492,49.5408210754395,43.8833236694336,26.7647800445557,45.3964576721191,46.8856506347656,10.350133895874,12.3349275588989,10.1801452636719,0.99868541955948,-0.07190535217524,0.81812310218811,-1.17445409297943,-0.74248933792114,-0.26152241230011,-5.30235385894775,-7.08826971054077,-7.00890731811523,31.1557464599609,18.839973449707,-0.89782565832138,33.1908187866211,14.3149318695068,-15.3923225402832,4.25928497314453,3.21780705451965,17.5614700317383,SHAKE
1.21546673774719,-0.15659387409687,-0.989098072052,-0.53263223171234,2.07833099365234,2.58592939376831,-4.24987268447876,1.87646329402924,7.44353532791138,-7.68059921264648,-49.3780174255371,-49.3780174255371,-26.6761951446533,-37.253776550293,-37.253776550293,20.8654670715332,6.34463453292847,6.34463453292847,-1.53611135482788,-1.84024429321289,-0.81972098350525,0.85966843366623,0.56352490186691,1.07325398921967,9.0020170211792,6.44218683242798,2.49804520606995,1.73579621315002,38.7118453979492,49.5408210754395,-21.6172466278076,26.7647800445557,45.3964576721191,-1.43412685394287,10.350133895874,12.3349275588989,0.65247446298599,0.99868541955948,-0.07190535217524,-0.13262543082237,-1.17445409297943,-0.74248933792114,-2.0160129070282,-5.30235385894775,-7.08826971054077,43.8833236694336,31.1557464599609,18.839973449707,46.8856506347656,33.1908187866211,14.3149318695068,10.1801452636719,4.25928497314453,3.21780705451965,0.81812310218811,1.92653071880341,2.04104661941528,-0.26152241230011,-0.70413982868195,-0.1161138266325,-7.00890731811523,-5.59530162811279,-0.90547478199005,-0.89782565832138,-20.4656352996826,-42.2265357971191,-15.3923225402832,-28.881254196167,-31.6130390167236,17.5614700317383,14.5280160903931,9.5815954208374,-0.88470214605331,-2.15449738502502,-2.95024991035461,1.93771600723267,0.8713863492012,-0.04048004746437,8.05073642730713,8.20573234558105,7.65978384017944,-16.6947689056396,5.45638561248779,15.2510652542114,-26.0082130432129,-15.631742477417,1.22104287147522,-3.78044438362122,-2.46602773666382,4.9990930557251,2.16355204582214,4.76279735565186,4.24028539657593,-0.32597091794014,-1.36779952049255,-2.05862355232239,2.43785762786865,-3.15051960945129,-6.42727327346802,54.5734329223633,47.4818077087402,30.3345355987549,47.5751838684082,46.8641052246094,29.9227333068848,25.3474140167236,9.58398914337158,-5.82269859313965,1.42638909816742,-2.81655931472778,-2.29830813407898,-1.57499349117279,0.63969129323959,1.68045473098755,-7.75192928314209,-8.3516731262207,-5.37425899505615,18.9620780944824,-1.80043971538544,-38.0271072387695,11.7100400924683,-26.3697376251221,-38.2449760437012,-10.2830963134766,5.3366756439209,18.3826808929443,0.53689330816269,1.76567578315735,0.38402783870697,0.97098857164383,0.31638354063034,0.68762820959091,1.8967033624649,7.44193744659424,8.7431583404541,-52.5527267456055,-28.1582069396973,0.89782565832138,-38.055835723877,-33.039981842041,-20.3842334747314,18.4473247528076,3.94564437866211,-7.6183500289917,-2.02773094177246,-2.63546419143677,-1.20161831378937,0.73290193080902,0.56032907962799,0.30253511667252,8.36765193939209,7.06003999710083,2.44424939155579,15.1265659332275,34.7326850891113,51.8775634765625,-0.83078801631927,23.3314952850342,43.4020881652832,-6.84023427963257,5.25527286529541,10.0053691864014,-0.39041942358017,-0.7190535068512,-1.50841450691223,-0.15872439742088,-0.09587380290031,0.7664577960968,-2.05329728126526,-4.90501022338867,-6.96097040176392,40.033447265625,30.3465061187744,19.6947040557861,47.2783012390137,33.9282341003418,14.4466133117676,5.72693061828613,2.99514627456665,4.17788219451904,SHAKE
0.52624064683914,0.41545313596725,-0.41172471642494,-0.79894834756851,0.11558119207621,1.92706334590912,-7.21716690063477,-5.34496450424194,-0.10705907642841,-0.85951840877533,-24.5381736755371,-24.5381736755371,-19.0746040344238,-34.4621391296387,-34.4621391296387,16.1919860839844,13.2854251861572,13.2854251861572,-0.85380947589874,-2.5086977481842,-2.75637173652649,2.24131631851196,0.20559604465961,-0.64448499679565,6.25470018386841,9.09096717834473,8.29787731170654,-42.8155097961426,10.5392761230469,32.2714462280273,-37.7805023193359,-11.063606262207,15.0260095596313,3.48835182189941,-3.40934324264526,8.00621032714844,-0.90494215488434,0.72118401527405,0.84581995010376,-0.36005938053131,-0.04580637067556,-0.67164921760559,4.33828926086426,-4.08901739120483,-6.47893857955933,55.5119590759277,33.8923187255859,22.8718090057373,42.8849411010742,40.6607284545898,20.3985977172852,15.9190473556519,8.55927085876465,7.34541082382202,0.70680296421051,1.34702694416046,0.3946804702282,-1.03969812393188,-0.324373036623,0.53849118947983,-7.42009973526001,-6.12899923324585,-2.36222386360169,10.0005807876587,-17.2861366271973,-43.0836601257324,1.92733240127563,-29.9993476867676,-36.0111885070801,10.5392761230469,10.7236289978027,6.95276165008545,-0.33822146058083,-2.15609526634216,-2.53905773162842,1.51587128639221,0.47990164160728,-0.79735046625137,3.72576236724854,8.98710346221924,8.09867286682129,-46.141056060791,6.94079065322876,23.1495361328125,-35.8244400024414,-17.6428718566895,4.21379518508911,3.65594601631165,-2.67911171913147,5.66707563400269,0.33609092235565,1.85728859901428,1.02904546260834,0.14647386968136,-0.65673553943634,-1.49403345584869,1.55475342273712,-2.98593616485596,-7.61823892593384,53.2207107543945,43.1530914306641,19.1392478942871,47.5656051635742,46.8353729248047,11.417947769165,15.9166526794434,10.2280292510986,2.09253239631653,0.03994741663337,0.21358552575111,0.49215218424797,-1.63251781463623,-1.32678687572479,-0.05858954414725,-8.00386428833008,-7.72423267364502,-5.20861053466797,7.96790313720703,-3.57214903831482,-30.5188884735107,-5.32231044769287,-23.3889560699463,-34.7207145690918,8.96628570556641,15.361198425293,15.5192155838013,0.40000680088997,-0.70041137933731,-1.51640391349792,1.19096565246582,1.74596846103668,0.61678814888,0.52038168907166,8.5748462677002,8.29255104064941,-47.5751838684082,-6.7348895072937,9.88565921783447,-36.2075119018555,-24.1886196136475,-9.16739845275879,11.6837043762207,-1.54665434360504,-3.22498965263367,-1.99364244937897,-0.72011876106262,0.56831860542297,0.02503371424973,0.60613548755646,-0.13422332704067,7.46484088897705,0.29028457403183,-2.9364013671875,25.9507522583008,42.7412872314453,35.618537902832,11.2910556793213,45.623908996582,41.6208038330078,2.53067111968994,11.5831480026245,12.5719528198242,1.42905223369598,1.19149827957153,1.19469404220581,-0.73769563436508,-1.0657970905304,-1.05514442920685,-5.59263849258423,-6.60836791992188,-6.34737825393677,24.8613910675049,11.9638261795044,4.13718032836914,26.4583225250244,10.3142213821411,-2.20745396614075,8.66940402984619,6.89530086517334,11.6118783950806,SHAKE
0.49215218424797,0.40000680088997,-0.70041137933731,-0.05858954414725,1.19096565246582,1.74596846103668,-5.20861053466797,0.52038168907166,8.5748462677002,-30.5188884735107,-47.5751838684082,-6.7348895072937,-34.7207145690918,-36.2075119018555,-24.1886196136475,15.5192155838013,11.6837043762207,-1.54665434360504,-1.51640391349792,-1.99364244937897,-0.72011876106262,0.61678814888,0.02503371424973,0.60613548755646,8.29255104064941,7.46484088897705,0.29028457403183,9.88565921783447,25.9507522583008,42.7412872314453,-9.16739845275879,11.2910556793213,45.623908996582,-3.22498965263367,2.53067111968994,11.5831480026245,0.56831860542297,1.42905223369598,1.19149827957153,-0.13422332704067,-0.73769563436508,-1.0657970905304,-2.9364013671875,-5.59263849258423,-6.60836791992188,35.618537902832,24.8613910675049,11.9638261795044,41.6208038330078,26.4583225250244,10.3142213821411,12.5719528198242,8.66940402984619,6.89530086517334,1.19469404220581,0.94968324899673,1.25328361988068,-1.05514442920685,-0.14860439300537,0.71479243040085,-6.34737825393677,-3.71777296066284,2.03731822967529,4.13718032836914,-28.5676155090332,-47.4099807739258,-2.20745396614075,-29.9514636993408,-34.8835182189941,11.6118783950806,9.73482418060303,14.1353664398193,1.39762699604034,-2.6109631061554,-2.50709986686707,1.28683948516846,1.47219550609589,1.37525641918182,6.81662702560425,8.09174919128418,7.08507394790649,-26.7695693969727,8.89685344696045,32.7095832824707,-31.9362564086914,-3.49553442001343,19.7401924133301,4.13239192962646,-2.94007968902588,9.74440097808838,-0.07723167538643,1.17125821113586,-1.06739497184753,0.34141725301743,-1.21120572090149,-0.50227218866348,2.55397152900696,-1.72732627391815,-6.15563058853149,50.2016220092773,50.2016220092773,21.5956993103027,41.151538848877,41.151538848877,18.5239391326904,11.8800287246704,11.8800287246704,0.4716577231884,-1.16593194007874,0.54435014724731,1.47059762477875,-0.21891184151173,-1.12491929531097,-1.18031299114227,-6.85977029800415,-6.57534503936768,-5.85682392120361,9.95509052276611,1.38384854793549,-14.5759000778198,3.51468801498413,-10.1657800674438,-26.4080448150635,10.6877164840698,19.4959850311279,13.1202249526978,-0.680703997612,-1.13610458374023,-1.38218069076538,2.57367897033691,2.14277935028076,0.52304482460022,3.82749509811401,7.3375415802002,7.38121747970581,-40.7373428344727,-15.1600847244263,9.71088218688965,-31.7375373840332,-25.5341606140137,-11.4969568252563,6.39491271972656,2.34631776809692,1.42694425582886,-1.2628710269928,-0.06711166352034,-0.37337517738342,0.07084008306265,0.28975194692612,-0.7318366765976,6.9561767578125,4.9614691734314,-4.55720138549805,22.857442855835,42.4875030517578,36.6097373962402,11.2982378005981,38.0965385437012,43.3973007202149,6.42843151092529,8.2312650680542,-3.37821865081787,-1.59257030487061,-0.84848314523697,1.84290754795074,0.04580637067556,-0.3371562063694,-1.26659941673279,-6.71382904052734,-7.57456302642822,-7.46910190582275,22.4647941589355,11.8441162109375,11.8441162109375,23.0489807128906,3.92888498306274,3.92888498306274,3.52426481246948,17.8966579437256,17.8966579437256,SHAKE
1.47059762477875,-0.680703997612,-1.13610458374023,-1.18031299114227,2.57367897033691,2.14277935028076,-5.85682392120361,3.82749509811401,7.3375415802002,-14.5759000778198,-40.7373428344727,-15.1600847244263,-26.4080448150635,-31.7375373840332,-25.5341606140137,13.1202249526978,6.39491271972656,2.34631776809692,-1.38218069076538,-1.2628710269928,-0.06711166352034,0.52304482460022,0.07084008306265,0.28975194692612,7.38121747970581,6.9561767578125,4.9614691734314,9.71088218688965,22.857442855835,42.4875030517578,-11.4969568252563,11.2982378005981,38.0965385437012,1.42694425582886,6.42843151092529,8.2312650680542,-0.37337517738342,-1.59257030487061,-0.84848314523697,-0.7318366765976,0.04580637067556,-0.3371562063694,-4.55720138549805,-6.71382904052734,-7.57456302642822,36.6097373962402,22.4647941589355,11.8441162109375,43.3973007202149,23.0489807128906,3.92888498306274,-3.37821865081787,3.52426481246948,17.8966579437256,1.84290754795074,1.49669659137726,-0.19281286001205,-1.26659941673279,0.69668292999268,2.49857783317566,-7.46910190582275,-1.94890129566193,4.0975399017334,11.8441162109375,-43.2009773254395,-43.0597190856934,3.92888498306274,-35.5538940429688,-33.8995018005371,17.8966579437256,6.6271505355835,1.76452660560608,-1.05514442920685,-1.82639586925507,-0.93104112148285,1.99310982227325,-0.00213052891195,0.140082269907,7.8813591003418,7.66084957122803,5.06799554824829,-14.8177146911621,22.6299953460693,44.6255264282227,-27.818229675293,6.66066932678223,34.9074592590332,-0.38307225704193,2.93768548965454,10.2471828460693,0.57630807161331,0.86552739143372,-0.2242381721735,-0.58376491069794,-1.41200804710388,-1.28630685806274,0.22317290306091,-3.24958920478821,-6.06348514556885,47.6374320983887,35.151668548584,29.9227333068848,49.0500106811523,46.8234024047851,30.0496253967285,7.71651220321655,1.1947066783905,0.33997663855553,0.15606124699116,2.05649304389954,1.40827965736389,-1.06153607368469,-0.82877576351166,0.18109495937824,-7.89041376113892,-7.31996488571167,-4.32870197296143,6.34463453292847,-6.12197351455688,-34.6895866394043,-7.02937602996826,-24.7153434753418,-34.9433746337891,20.3435325622559,18.3850746154785,8.12113189697266,-0.9997506737709,-1.14782249927521,-1.46154284477234,2.62481164932251,1.15368139743805,-0.23968450725079,7.07229089736938,8.61159801483154,8.23342895507813,-30.8444995880127,-0.33997663855553,16.5487213134766,-33.0687141418457,-22.1272125244141,-3.50271701812744,3.39497804641724,-0.47405192255974,-0.36152446269989,-1.42638909816742,0.58589547872543,0.69881349802017,-0.07350324839354,-0.38722363114357,-0.97258645296097,7.07442140579224,-1.73265266418457,-5.008873462677,32.1325798034668,43.8928985595703,30.5619850158691,22.9580001831055,48.769889831543,36.470874786377,5.04218864440918,8.13549709320068,3.00951147079468,-0.30945932865143,-0.24873925745487,2.15396475791931,-0.61199444532394,-0.3659183382988,-0.87831056118011,-6.68080615997314,-6.9561767578125,-6.44698047637939,18.0379161834717,6.77798509597778,-2.34152936935425,17.5925941467285,1.40060794353485,-13.3883762359619,3.56257224082947,15.2845840454102,23.3314952850342,SHAKE
-1.52119767665863,-0.89269161224365,-1.82106959819794,2.18219423294067,0.19494339823723,-0.10705907642841,7.49626588821411,7.30078983306885,6.90344619750977,-18.4664783477783,-18.4664783477783,13.7834196090698,-26.3649482727051,-26.3649482727051,6.19140577316284,6.45955610275269,6.45955610275269,0.50996494293213,-1.77313268184662,-0.40533313155174,0.59601545333862,0.42290997505188,0.18269285559654,0.10865697264671,5.70076274871826,1.61014723777771,-2.55290627479553,33.3296813964844,47.5153274536133,38.4843978881836,29.0273017883301,43.8689575195313,43.7899475097656,10.1514148712158,13.4338655471802,9.23682975769043,0.80533993244171,0.69934612512589,1.06100344657898,0.14221280813217,-0.00532632227987,-0.67005133628845,-5.01846075057983,-6.31648540496826,-6.79958295822144,26.0776443481445,16.4314060211182,7.57046556472778,30.38720703125,13.8528509140015,-1.29526317119598,5.57609558105469,5.67904663085938,9.63666152954102,1.60748410224915,0.40373522043228,-0.69295454025269,-1.21919512748718,-1.03863286972046,2.01761078834534,-6.52314710617065,-4.96200180053711,6.69731760025024,-4.00549936294556,-27.6985187530518,-37.7661361694336,-16.5032329559326,-31.651346206665,-34.7159233093262,8.66461563110352,3.91930818557739,9.01895809173584,-0.15765914320946,-0.51771855354309,-0.82557994127274,0.87617999315262,-0.52890378236771,-0.9097358584404,8.84915161132813,8.14075088500977,6.99026536941528,-4.24970817565918,11.6358203887939,30.7894344329834,-24.4304332733154,-4.92008447647095,21.5597858428955,2.559401512146,-3.2082302570343,1.64242231845856,-0.99762016534805,-1.35608160495758,-1.09935295581818,0.09587380290031,0.73503249883652,0.81812310218811,-1.42905223369598,-4.99822092056274,-6.94179582595825,48.9063568115234,34.2538452148438,19.4935894012451,49.1457786560059,36.1907539367676,16.3116970062256,3.82593441009521,5.65031623840332,8.78911399841309,0.11078750342131,2.17260694503784,2.51988315582275,-0.06977482140064,-0.70413982868195,-0.68176925182343,-7.25551605224609,-6.65204381942749,-4.88477039337158,7.44357299804688,-2.88261890411377,-20.6021060943604,-0.0981622710824,-14.1521263122559,-25.6011981964111,15.0738935470581,16.261417388916,7.87931776046753,0.77018618583679,-0.53689330816269,-0.556600689888,0.40320259332657,1.73904418945313,1.64263784885406,-1.18670463562012,4.10765981674194,8.0294303894043,-38.8028259277344,-43.3446273803711,-19.3882446289063,-32.0080833435059,-32.0775146484375,-27.89723777771,2.48039293289185,4.05338335037231,4.85065269470215,-0.19068233668804,-0.31052458286285,0.08575379103422,-0.03568635880947,-0.88683265447617,-0.49854376912117,8.12264156341553,7.76790857315063,5.78172302246094,4.86262369155884,15.9597482681274,38.522705078125,-14.7147636413574,5.41089582443237,29.9011840820313,1.31681096553802,2.77487969398499,7.10599040985107,0.02556634694338,-0.42184472084045,-0.61572283506393,0.51239222288132,1.07698237895966,1.1259845495224,1.14569187164307,-3.07435321807861,-5.3902382850647,50.2926025390625,39.2888488769531,39.2888488769531,43.9240226745605,41.5034866333008,41.5034866333008,4.90571928024292,2.39659595489502,2.39659595489502,SHAKE
1.01999068260193,0.53476274013519,0.29454562067986,-0.71159666776657,-0.05379585549235,0.95021587610245,-7.47336292266846,-5.49676465988159,0.7254450917244,-2.30801033973694,-29.953857421875,-51.2957725524902,-20.7816715240479,-33.6959953308105,-34.9050674438477,10.1681747436523,6.33745193481445,7.2113356590271,0.15446335077286,-0.01278317347169,0.35047200322151,1.44023752212524,-0.97098857164383,-1.27032780647278,7.01103782653809,8.7287769317627,7.52396297454834,-36.6695938110351,11.5855417251587,34.476505279541,-33.1285705566406,-3.85466480255127,23.5278205871582,1.82917010784149,0.01915361359715,4.71657752990723,0.4452805519104,-0.05539375171065,-0.64661550521851,-0.81545996665955,0.32543829083443,-0.09906959533691,3.12761640548706,-1.92706334590912,-7.25764656066895,53.6373023986816,45.8944511413574,21.1982612609863,46.5480690002441,49.6102523803711,15.2845840454102,4.95839166641235,3.47877502441406,5.73650741577148,0.04687163606286,1.20960783958435,-1.52279555797577,-0.63116919994354,-0.28602349758148,2.13478994369507,-7.78495264053345,-6.08319282531738,6.12313985824585,10.1992988586426,-23.570915222168,-50.187255859375,-2.56418991088867,-34.0718841552734,-38.0079536437988,12.9430541992188,4.771644115448,-0.22744916379452,-1.54836189746857,-0.86659264564514,-0.18375812470913,1.45248806476593,-1.14356136322021,-0.64501762390137,9.55435657501221,8.86672878265381,4.5327000617981,-10.0628299713135,13.7834196090698,50.8360862731934,-29.4007968902588,-10.9869918823242,42.0828819274902,0.50038814544678,1.69270062446594,6.59602546691895,-0.63170182704926,-0.43036684393883,0.5028048157692,0.62690812349319,0.93849796056747,-0.24234765768051,-0.55500280857086,-4.5470814704895,-7.97403717041016,51.530403137207,39.4684143066406,25.1917896270752,52.6556777954102,42.2409019470215,21.4520473480225,7.15387487411499,9.07163047790527,8.53772354125977,1.91001915931702,2.72334861755371,1.81521058082581,-0.49055427312851,-0.61891865730286,0.07510114461184,-7.50638580322266,-6.87894535064697,-4.57424545288086,1.96563959121704,-9.90960121154785,-32.1158218383789,-11.9829797744751,-26.0513095855713,-35.8914794921875,15.9884786605835,10.9486846923828,2.54264211654663,-1.05141603946686,-1.69909679889679,-1.90842127799988,2.31535220146179,1.12491929531097,-1.31560158729553,7.50851631164551,9.38604545593262,8.24887561798096,-34.91943359375,-0.12449848651886,16.3715515136719,-32.5874786376953,-24.9571590423584,-6.60081386566162,-5.69580602645874,-4.78840351104736,0.21547815203667,-1.66394305229187,-0.02982740476727,0.68230187892914,-2.24504494667053,1.19309616088867,0.94488954544067,7.40784883499146,-0.91346424818039,-4.69462060928345,26.9491348266602,49.7850303649902,33.9617500305176,18.0091857910156,52.4761123657227,41.2808265686035,10.0125513076782,14.4130945205688,10.8409452438354,0.98057591915131,0.89961582422256,2.13905096054077,0.39627838134766,-0.14966966211796,-0.06764429062605,-7.03021287918091,-7.93089389801025,-6.74738502502441,22.8406848907471,10.9558668136597,-7.99423933029175,21.8446960449219,4.36941814422607,-23.0274314880371,7.41244840621948,8.26717853546143,8.91600704193115,SHAKE
-1.60428822040558,-2.05063414573669,-1.99310982227325,1.77153480052948,-0.10759171098471,-1.41413855552673,8.86939144134521,9.75782203674316,8.52424621582031,-30.5859260559082,8.03494071960449,22.9915180206299,-35.5299530029297,-23.7049903869629,-1.96803379058838,-3.75171399116516,-1.30005156993866,4.39575433731079,-1.35395109653473,-0.13262543082237,2.19977116584778,-0.81545996665955,0.11345066130161,-0.86978840827942,6.83154106140137,2.01334977149963,-5.83125782012939,39.3415222167969,54.350772857666,31.7878150939941,29.6881008148193,49.5695533752441,35.6831817626953,13.2566947937012,15.1983919143677,7.56088876724243,1.51587128639221,0.26791399717331,0.45540055632591,-1.49616396427155,-0.92784535884857,-0.10279802232981,-8.04487705230713,-8.73942947387695,-8.32078075408936,31.7878150939941,12.7395467758179,3.15316367149353,35.6831817626953,-1.36708915233612,-15.8448266983032,7.56088876724243,6.36378812789917,13.3524627685547,1.75342524051666,-0.77125144004822,-2.22001123428345,0.37763625383377,1.42212808132172,1.25275099277496,-7.26457118988037,3.01469850540161,8.91093730926514,-10.8768587112427,-57.1064987182617,-34.0814628601074,-30.6553592681885,-42.4491958618164,-39.9376792907715,13.3787994384766,-2.59531474113464,-0.9720458984375,-2.86183285713196,-3.22189235687256,-2.52361154556274,0.31691616773605,-0.1129180341959,0.25246766209602,10.4822025299072,9.48618030548096,8.26751708984375,6.52898788452148,6.52898788452148,40.7038230895996,-28.0265254974365,-28.0265254974365,29.2930583953857,2.16435837745667,2.16435837745667,15.3372564315796,0.10492854565382,1.65648627281189,0.46818372607231,0.48629322648048,-0.16458335518837,-0.83303678035736,2.99658894538879,-2.87142038345337,-5.75455856323242,64.7631530761719,44.989444732666,28.3545303344727,49.9478340148926,54.1376876831055,37.0143585205078,18.3300075531006,6.52419948577881,-1.40060794353485,-0.92092114686966,2.23332691192627,3.91910791397095,-0.27270770072937,0.06551376730204,0.59814602136612,-7.83661794662476,-7.87976121902466,-7.04672431945801,21.2437515258789,-0.70868372917175,-17.2574062347412,15.4856967926025,-20.4129638671875,-39.9783782958984,7.66862821578979,26.9898357391357,9.49779796600342,0.7920241355896,-4.80327749252319,-4.81073427200317,2.55397152900696,0.71852087974548,-0.864994764328,-2.36541962623596,8.73250579833984,9.76474666595459,-52.4976615905762,-20.0179195404053,10.2759132385254,-43.3422317504883,-35.8627471923828,-24.643518447876,-12.3588695526123,-4.38857173919678,1.81480491161346,-5.33271408081055,-4.84695339202881,-0.95820540189743,-1.4168016910553,-1.47858703136444,-0.61891865730286,8.69202518463135,7.28161525726318,3.20591330528259,25.6514778137207,38.872257232666,57.6404075622559,-6.32308673858643,24.9691295623779,44.3908920288086,5.86100578308105,25.2253093719482,36.0351295471191,2.60616946220398,2.73240327835083,0.89588743448257,-0.32224249839783,-1.4727281332016,-0.98164117336273,-1.77260005474091,-7.07761716842651,-8.29414939880371,57.6404075622559,22.7975883483887,13.8169384002686,44.3908920288086,19.7377986907959,2.3511061668396,36.0351295471191,6.29914474487305,9.00698661804199,SHAKE
-4.80327749252319,-4.81073427200317,-5.33271408081055,0.71852087974548,-0.864994764328,-1.4168016910553,8.73250579833984,9.76474666595459,8.69202518463135,-20.0179195404053,10.2759132385254,25.6514778137207,-35.8627471923828,-24.643518447876,-6.32308673858643,-4.38857173919678,1.81480491161346,5.86100578308105,-4.84695339202881,-0.95820540189743,2.60616946220398,-1.47858703136444,-0.61891865730286,-0.32224249839783,7.28161525726318,3.20591330528259,-1.77260005474091,38.872257232666,57.6404075622559,57.6404075622559,24.9691295623779,44.3908920288086,44.3908920288086,25.2253093719482,36.0351295471191,36.0351295471191,2.73240327835083,0.89588743448257,3.64693284034729,-1.4727281332016,-0.98164117336273,-0.264185577631,-7.07761716842651,-8.29414939880371,-7.43448066711426,22.7975883483887,13.8169384002686,-2.32716393470764,19.7377986907959,2.3511061668396,-26.3649482727051,6.29914474487305,9.00698661804199,25.874137878418,5.14576005935669,2.0634171962738,-2.55397152900696,-0.40053942799568,0.76699042320251,2.42720508575439,-6.79212617874146,-2.35316920280457,5.22139358520508,-17.1496658325195,-49.5815238952637,-51.0778999328613,-41.9727516174316,-42.7795944213867,-38.2090644836426,8.89924812316895,-11.3580932617188,-14.0300216674805,-4.58756160736084,-3.71138143539429,-2.69671702384949,1.48018491268158,-1.11107087135315,0.00532632227987,8.90827369689941,7.82649803161621,6.93487167358398,-15.4042940139771,18.5335159301758,35.427001953125,-32.4845275878906,0.7182605266571,35.1229400634766,-1.36708915233612,8.99501609802246,23.1782665252686,0.67804080247879,3.61923599243164,0.15126755833626,0.85647261142731,-1.17818248271942,-0.71692299842834,2.02666568756104,-5.22192621231079,-7.6374135017395,57.338737487793,28.0049781799316,7.58004236221313,50.3931579589844,35.6951522827148,-1.49158763885498,28.0744094848633,3.67270541191101,10.5751886367798,1.67672622203827,3.77103614807129,2.39791035652161,-0.76326197385788,-0.13795174658298,0.71425980329514,-7.03127813339233,-6.31648540496826,-2.80856966972351,-0.39025488495827,-11.9159421920776,-42.0493659973145,-17.4082412719727,-35.1349105834961,-41.0844993591309,23.0896816253662,15.7801837921143,-3.03345346450806,-1.29695951938629,-3.85146355628967,-4.62857389450073,1.58990716934204,0.35153725743294,-0.94329166412354,3.34333252906799,7.56444311141968,8.30320358276367,-49.7562980651855,-25.356990814209,0.15801730751991,-39.5426368713379,-33.2363090515137,-22.9963073730469,-13.7953901290894,-7.30949783325195,-0.86430680751801,-5.92127227783203,-0.70840084552765,3.10577845573425,-1.19682466983795,-0.02663161233068,-0.21038973331451,8.03369235992432,3.4850127696991,-1.42532384395599,14.6668796539307,53.8264427185059,43.8186798095703,-7.69735860824585,44.7188987731934,51.688419342041,4.52025270462036,39.4277153015137,24.4064922332764,3.93189120292664,-0.2466087192297,-0.30519825220108,-0.97578221559525,-0.21678131818771,-0.09480853378773,-4.57104969024658,-7.49466800689697,-7.26936483383179,30.6170520782471,10.0293111801147,0.58179098367691,37.7110710144043,1.38863694667816,-15.1050186157227,5.68622922897339,3.46919822692871,16.7067394256592,SHAKE
-0.70840084552765,3.10577845573425,3.93189120292664,-0.02663161233068,-0.21038973331451,-0.97578221559525,3.4850127696991,-1.42532384395599,-4.57104969024658,53.8264427185059,43.8186798095703,30.6170520782471,44.7188987731934,51.688419342041,37.7110710144043,39.4277153015137,24.4064922332764,5.68622922897339,-0.2466087192297,-0.30519825220108,1.22984778881073,-0.21678131818771,-0.09480853378773,0.47297742962837,-7.49466800689697,-7.26936483383179,-6.78094100952148,10.0293111801147,0.58179098367691,-11.310209274292,1.38863694667816,-15.1050186157227,-36.7246589660645,3.46919822692871,16.7067394256592,13.7427177429199,1.11426663398743,-0.96939063072205,-1.74543583393097,0.78509992361069,-1.39230060577393,-1.36300587654114,-2.67860746383667,7.60545539855957,7.67842626571655,-46.8904418945313,-17.1257247924805,6.39251852035522,-38.6352310180664,-26.1973552703857,-13.594277381897,3.28245043754578,-1.67833542823792,2.47321033477783,-2.27860069274902,-0.33875408768654,5.07332181930542,-0.63223445415497,-0.16085493564606,-2.15396475791931,7.12928247451782,5.97879695892334,-2.75104546546936,16.5319633483887,32.7550735473633,36.9784469604492,3.9384617805481,29.9562511444092,41.702205657959,8.63588523864746,21.5166912078857,-3.33991146087646,1.99950134754181,-5.73857975006104,-4.5327000617981,-2.43359661102295,-0.05699164792895,0.71852087974548,-5.50155830383301,-8.79482364654541,-8.76233291625977,27.4064273834229,10.8217916488647,-3.99113416671753,29.2068672180176,-6.9623384475708,-28.2779159545898,-23.1495361328125,1.79565131664276,21.1288299560547,1.64210510253906,1.41041016578674,-1.58351564407349,0.47777110338211,-0.61252707242966,-0.21678131818771,3.05145001411438,8.7719202041626,9.01000690460205,-66.6473922729492,-32.9537925720215,-1.87226569652557,-42.6598854064941,-36.387077331543,-20.4416942596436,14.7482824325562,-1.55383694171906,-9.2631664276123,-5.20115375518799,-5.56813716888428,-0.73769563436508,1.37259328365326,1.17445409297943,-0.26258769631386,7.44832897186279,6.27067899703979,4.26212310791016,15.4186592102051,21.9380702972412,40.2465324401855,-7.2807674407959,11.3317565917969,35.8579597473145,-2.52348852157593,18.83518409729,36.3655281066895,3.771568775177,3.67782545089722,-4.41871690750122,-1.38750696182251,-1.93292236328125,1.08656978607178,-0.94702011346817,-4.77664566040039,-8.11039066314697,48.434700012207,34.1317405700684,13.9701671600342,41.4867286682129,35.7502212524414,3.47877502441406,21.143196105957,-2.26491475105286,-2.00394678115845,-4.74202489852905,-1.53983974456787,2.0980384349823,2.56249356269836,2.65676951408386,1.07431924343109,-8.69309043884277,-7.73328733444214,-0.86179894208908,4.11323833465576,-19.8838443756104,-58.8039894104004,-15.8544034957886,-39.4923553466797,-43.1171798706055,14.8871459960938,23.3147354125977,18.3060665130615,1.08497190475464,-1.77100217342377,-2.32121133804321,-1.86581075191498,-0.75047880411148,-0.14114753901958,8.31598663330078,7.74873352050781,7.05631160736084,-9.60553741455078,7.85298156738281,19.9245471954346,-26.8773078918457,-10.886435508728,8.91840171813965,-7.29034423828125,-4.88895988464355,7.81946277618408,SHAKE
0.04474110901356,4.1694450378418,4.24507904052734,-1.32945001125336,-2.83626651763916,-3.16543340682983,6.46029615402222,1.9989687204361,-2.29031848907471,35.3910903930664,50.2830238342285,38.3335647583008,25.0170135498047,38.9033851623535,40.6655158996582,23.4464168548584,17.413028717041,-4.43884992599487,-3.82536458969116,-4.64029216766357,4.79262495040894,0.76166409254074,1.89137709140778,0.94488954544067,-7.55219221115112,-8.59455394744873,-5.22299146652222,20.4847888946533,5.75566101074219,-9.66778659820557,12.2319765090942,-7.37174701690674,-26.2260856628418,-0.56742578744888,18.3012771606445,37.8834533691406,4.393150806427,-2.39045333862305,-2.09963631629944,0.36804887652397,0.54754590988159,-0.46445530653,0.67484503984451,8.02996349334717,7.4446005821228,-54.0634689331055,-6.52419948577881,20.5470390319824,-44.3669509887695,-25.380931854248,8.22647666931152,-2.82994651794434,-2.32716393470764,11.6573677062988,0.81812310218811,3.32415771484375,0.4580637216568,-1.65329039096832,-2.40323662757874,-0.88523477315903,5.58251857757568,-2.64984536170959,-5.59104061126709,39.3798294067383,38.1779403686523,27.9187850952148,32.9130897521973,38.6567802429199,24.480712890625,20.8008251190186,-0.85233581066132,-3.58651423454285,-1.79177486896515,-1.55581879615784,3.47009897232056,0.64821344614029,1.59363567829132,0.76699042320251,-7.59746599197388,-7.94793796539307,-4.68236970901489,27.9187850952148,1.48201084136963,-37.1627998352051,24.480712890625,-7.91283655166626,-43.4954605102539,-3.58651423454285,16.6325187683105,10.3573169708252,1.0061422586441,-1.5536881685257,-2.14757323265076,1.19256353378296,1.57872188091278,0.43835631012917,2.19710803031921,7.7151780128479,9.05368232727051,-57.6308288574219,-33.4900932312012,-33.4900932312012,-41.4053230285645,-37.0670318603516,-37.0670318603516,-4.25210237503052,-0.94092124700546,-0.94092124700546,-1.68311786651611,-0.76699042320251,1.57339560985565,-0.14700649678707,0.23329292237759,0.26578348875046,8.71066761016846,8.23502731323242,4.74681854248047,14.2478942871094,30.3465061187744,52.7969360351563,-10.2016935348511,13.9701671600342,38.8171920776367,11.1234607696533,17.1736087799072,21.7489280700684,3.57609272003174,3.07435321807861,-1.77206742763519,0.03249056637287,-0.19174760580063,0.83356940746307,-0.78296935558319,-4.19501161575317,-7.95379686355591,51.5447692871094,34.2562370300293,14.4801321029663,46.3756866455078,38.0175285339355,4.69742393493652,11.7651071548462,-2.67192912101746,0.44771572947502,-1.98884868621826,-0.71053141355515,-0.86765789985657,1.63997459411621,2.66795492172241,0.9353021979332,-8.33036804199219,-8.06991100311279,6.39265203475952,4.79798030853271,-18.1983280181885,-52.1744422912598,-14.7099752426147,-39.5306625366211,-42.2073822021484,12.1697273254395,9.19852256774902,-4.01747035980225,-1.26500153541565,-1.59363567829132,-1.7853832244873,-0.95714008808136,-2.10123419761658,-1.82426536083221,10.1615571975708,9.98898506164551,9.39243698120117,-9.77552509307861,12.8089790344238,28.0576496124268,-35.3240509033203,-18.2486057281494,5.05655384063721,-2.67192912101746,-0.45489832758904,7.46272659301758,SHAKE
2.27433967590332,3.51697063446045,1.58511352539063,2.26208901405334,-0.2545982003212,-2.58646202087402,4.99981880187988,-3.18833661079407,-5.51434135437012,43.2919540405273,28.172571182251,17.9828491210938,35.110969543457,39.0278816223145,25.4551525115967,3.84987640380859,-14.209587097168,-23.7840003967285,-2.34358191490173,-5.59583425521851,-7.27362585067749,-2.5896577835083,-1.24742472171783,-0.14381070435047,-6.5375280380249,-6.99292850494385,-6.80277872085571,14.8464450836182,10.144232749939,-2.16914677619934,9.47385597229004,-6.83784008026123,-24.1072177886963,-22.3067779541016,-12.7108163833618,2.45645093917847,-4.80008172988892,3.37901878356934,1.04236125946045,-0.13741911947727,1.57499349117279,2.93746662139893,-4.09807252883911,7.71198225021362,9.74077796936035,-26.5469093322754,-29.6043033599854,-29.6043033599854,-29.7431678771973,-26.4271984100342,-26.4271984100342,27.8302001953125,17.7769470214844,17.7769470214844,-1.9004317522049,1.21014046669006,2.95131516456604,6.61262893676758,4.03788471221924,0.83463472127914,5.43125104904175,3.11749649047852,-2.63546419143677,18.294095993042,35.8411979675293,35.8411979675293,26.8725204467773,39.1284370422363,39.1284370422363,16.7498359680176,9.98382091522217,9.98382091522217,0.648746073246,-3.60165905952454,-6.28878879547119,-0.17523600161076,0.60560286045074,1.13930034637451,-5.24216651916504,-6.00276517868042,-6.8533787727356,16.187198638916,10.8696756362915,3.01190567016602,26.5277557373047,10.1202907562256,-10.144232749939,-26.9994125366211,-24.8494186401367,-8.62630844116211,1.11959290504456,4.83896398544312,0.30999195575714,-1.21866250038147,0.11238539963961,2.14597535133362,0.18375812470913,7.58734607696533,8.21425437927246,-47.0771865844727,-47.0771865844727,24.8254776000977,-30.779857635498,-30.779857635498,-3.61045622825623,36.7605743408203,36.7605743408203,-4.82671070098877,-0.1097222417593,2.08845090866089,2.18006372451782,3.01895952224731,0.38722363114357,-1.26659941673279,7.38707637786865,4.02297115325928,-1.31240582466125,25.2468566894531,46.3182258605957,41.2018165588379,21.5933055877686,39.482780456543,45.9016342163086,4.80516290664673,1.56101953983307,-13.5368165969849,-3.66237926483154,-4.54228782653809,-2.78300333023071,-0.39947417378426,0.47351005673409,0.66419237852097,-6.54711532592773,-7.70292711257935,-7.75565767288208,21.7201976776123,14.0156564712524,-1.96563959121704,17.1041774749756,-1.97521638870239,-22.6706962585449,-8.54251194000244,8.64785671234131,23.1088352203369,-0.29454562067986,0.65034395456314,-0.85434210300446,1.12332141399384,3.17715120315552,2.76862239837646,-4.87411737442017,7.67576313018799,8.62757682800293,-34.0120277404785,-26.0728569030762,5.04458284378052,-35.1684303283691,-29.9466743469238,-18.7729358673096,24.1958026885986,2.60249733924866,-3.64876341819763,-1.9222697019577,-0.95128113031387,0.09427590668201,2.24824070930481,0.6785734295845,-0.46285739541054,8.1950798034668,6.59238910675049,2.42827033996582,15.5263977050781,34.6991653442383,44.6638336181641,0.18674772977829,24.4615592956543,43.3350524902344,-2.69826531410217,5.19541788101196,0.57221418619156,SHAKE
-1.3310478925705,-1.12332141399384,0.96246641874313,0.59388494491577,0.61625546216965,-0.00159789668396,-4.91299962997437,-7.04459381103516,-7.38228273391724,30.3153820037842,18.1911449432373,6.42124891281128,34.4070739746094,15.2462768554688,-1.9632453918457,5.83466958999634,16.2111396789551,24.4663467407227,3.42535781860352,0.82025361061096,-0.59281969070435,-0.26365295052528,3.84134364128113,3.68155384063721,-7.32369327545166,0.78137147426605,5.93991470336914,-2.4396915435791,-46.3397750854492,-25.9172325134277,-21.5956993103027,-32.0248413085938,-26.341007232666,24.6099987030029,3.21301865577698,3.22259545326233,-0.41065946221352,-0.20133498311043,3.36570310592651,2.25729537010193,1.79017686843872,-2.15875840187073,7.05098533630371,6.93860006332397,2.46022820472717,1.24259066581726,12.1098718643188,42.5138397216797,-14.5567464828491,3.1004912853241,39.2337837219238,1.31202256679535,-2.71502470970154,-6.009446144104,2.12200689315796,-2.44424939155579,-5.4067497253418,-2.46289134025574,-1.15208351612091,-0.05592638254166,-1.69163990020752,-4.23602390289307,-6.46242666244507,34.442985534668,25.4000854492188,18.4233818054199,43.0094375610351,33.6145935058594,15.0954418182373,-22.2349510192871,-22.8406848907471,-3.9073371887207,-4.60300779342651,-1.16752982139587,0.68549770116806,-0.19334550201893,-0.3914846777916,0.65886604785919,-7.20757913589478,-6.53646278381348,-2.7957866191864,5.78917980194092,-9.17936897277832,-38.355110168457,-3.44286203384399,-22.9532108306885,-35.0798416137695,18.7011089324951,27.6530303955078,17.3627510070801,-0.17150758206844,-2.52947044372559,-2.14863848686218,1.49243545532227,0.81545996665955,0.1416801661253,3.895672082901,8.01398468017578,7.77216958999634,-49.5887069702149,6.90966606140137,15.5599164962769,-33.9473876953125,-15.5551280975342,5.04697704315186,2.86346530914307,-0.97444009780884,4.17069959640503,0.19867181777954,-0.72224932909012,-3.52655792236328,-1.71028208732605,-1.40188801288605,0.26578348875046,6.18971920013428,-3.33747363090515,-5.79397344589233,38.1061134338379,33.157299041748,26.5516967773438,30.8085880279541,42.5880584716797,27.1478538513184,12.5025215148926,-9.45230865478516,-0.6703764796257,-4.05492925643921,-1.16220355033875,3.99793744087219,1.02265381813049,0.58429753780365,-0.1129180341959,-7.49733114242554,-7.04672431945801,-3.44186949729919,13.4937210083008,1.15639936923981,-33.4374198913574,7.79312658309937,-7.7763671875,-35.0942077636719,14.0491752624512,29.2978458404541,11.841721534729,0.4740426838398,-0.68336713314056,0.55713331699371,2.80164551734924,2.17527008056641,-0.44368264079094,7.53088712692261,8.58709716796875,6.16575050354004,-29.9730110168457,1.26653265953064,24.9427928924561,-27.684154510498,-18.6651973724365,12.5887126922607,-2.61446833610535,-0.92176765203476,0.21308395266533,-0.5028048157692,-4.19234848022461,-2.97048997879028,-0.04527373984456,2.56622219085693,1.69377052783966,3.49726319313049,0.15446335077286,0.0,31.189266204834,21.0498218536377,3.48595762252808,22.0242614746094,22.2948055267334,13.7594776153564,-4.41251373291016,-2.53067111968994,17.1400890350342,SHAKE
4.85387754440308,4.5470814704895,1.51427340507507,1.05035078525543,0.06125270575285,0.51878380775452,8.33942317962646,5.52126550674438,5.74284076690674,12.1457853317261,20.5614032745361,10.4530849456787,-16.2757835388184,3.85466480255127,31.814151763916,0.01197100803256,-12.8089790344238,-20.2477645874023,-4.85334491729736,-4.90767335891724,-2.37340927124023,0.45380264520645,1.11692976951599,1.19096565246582,1.91747605800629,-2.23279428482056,-5.48557949066162,37.1460380554199,31.2156009674072,24.3394546508789,54.3028869628906,47.6781311035156,32.1325798034668,-3.09091448783875,13.5583639144897,19.1488246917725,-0.75900089740753,-1.62293040752411,-1.27512156963348,1.02212119102478,0.58589547872543,-0.07669904083014,-7.06163787841797,-6.69998073577881,-6.68613243103027,16.1680431365967,10.690110206604,10.690110206604,16.2949371337891,-12.4211187362671,-12.4211187362671,5.53778839111328,-9.21288776397705,-9.21288776397705,1.02105593681335,2.84159302711487,3.71244668960571,-1.10414659976959,-1.56700396537781,0.25300031900406,-5.51700448989868,-1.85835385322571,7.92237186431885,-13.9821376800537,-30.1406059265137,-18.1959323883057,-36.1093482971191,-40.2465324401855,-29.1063098907471,6.99106884002686,3.44046783447266,6.892906665802,4.98650312423706,3.60165905952454,0.51665323972702,0.61519020795822,0.28868666291237,0.64555025100708,8.79908466339111,8.64249038696289,8.233962059021,7.01979923248291,7.01979923248291,34.5195999145508,-14.5328044891357,-14.5328044891357,36.5283355712891,-1.67833542823792,-1.67833542823792,-15.646107673645,-3.09885430335999,-1.07751500606537,0.65460503101349,1.19735729694366,1.57339560985565,0.99655491113663,4.82032155990601,-3.23467540740967,-5.56014776229858,43.9671211242676,22.9316635131836,21.2868480682373,49.945442199707,38.7166366577149,24.2173500061035,-9.00459289550781,21.9668006896973,5.65031623840332,-0.26471820473671,-1.78272008895874,-1.37685430049896,1.17125821113586,1.59629881381989,0.17417073249817,-6.50770044326782,-6.18386030197144,-5.10847568511963,13.977349281311,7.37414121627808,-2.24336695671082,11.4778032302856,-0.14125789701939,-22.8167419433594,-8.02057552337646,-11.049241065979,0.56263738870621,1.78857898712158,3.14785647392273,1.91161704063416,-0.86020106077194,-0.92571479082108,0.25672873854637,-4.00060081481934,-1.04502439498901,8.72771167755127,-13.496114730835,-30.2818622589111,-25.6945724487305,-31.9889297485352,-38.2354011535645,-29.0153312683105,7.90804815292358,-0.87627780437469,11.403582572937,3.74440455436707,2.10869097709656,-0.54435014724731,0.9012137055397,0.91559481620789,0.3531351685524,10.7149629592896,10.6009788513184,6.12793397903442,5.59764337539673,33.1429328918457,33.1429328918457,-13.7379293441772,16.4721069335938,16.4721069335938,3.87621259689331,-15.2797956466675,-15.2797956466675,-0.16724652051926,-0.67963874340057,-1.36194062232971,1.00401175022125,0.8239820599556,0.58589547872543,-1.37312591075897,-3.70445704460144,-5.00940608978271,27.0616626739502,20.3531093597412,14.4370365142822,48.061206817627,35.9944267272949,22.6970329284668,5.77242040634155,-0.59376204013824,-2.40856695175171,SHAKE
3.28207969665527,0.67537766695023,-1.06313395500183,-0.44261738657951,0.02130528911948,0.38562572002411,9.98099517822266,9.78019332885742,6.71542692184448,8.59757804870605,29.9562511444092,51.2694358825684,-7.6375036239624,20.312406539917,39.6886825561523,-15.8591918945313,-12.6365966796875,-8.17859268188477,-2.57847261428833,2.35636496543884,1.78485059738159,0.86179894208908,0.15765914320946,-0.28975194692612,1.92067182064056,-5.03177642822266,-5.95109987258911,51.6333541870117,33.4733352661133,13.1369848251343,50.2255630493164,47.2328109741211,21.543025970459,2.3319525718689,22.5533790588379,-7.61116743087768,-0.96672749519348,-2.04956889152527,-2.28232908248901,0.30573090910912,0.68017137050629,-0.43196472525597,-5.9548282623291,-5.83924722671509,-5.09409475326538,9.76834297180176,7.71651220321655,0.05985504388809,11.6669445037842,2.28167414665222,-17.7338523864746,-13.3764047622681,-6.6654577255249,-6.59363126754761,-2.08845090866089,1.83385276794434,3.82536458969116,-1.04875290393829,-1.14569187164307,-1.19362878799438,-4.17530393600464,1.32518899440765,5.46267604827881,-4.84825849533081,-30.0448379516602,-29.5636024475098,-28.8453426361084,-31.572338104248,-27.3609371185303,1.30483996868134,10.405200958252,6.82586908340454,4.47304534912109,3.90046572685242,1.38857221603394,-0.41651839017868,-0.2370213419199,-0.22050973773003,8.33889007568359,9.2337121963501,10.2265386581421,-12.3756284713745,4.29040956497192,21.0977058410645,-19.9748249053955,-5.1068320274353,17.9924259185791,-1.2449848651886,-12.0093154907227,-16.074670791626,-2.40536713600159,-1.8796591758728,0.61092919111252,0.82877576351166,1.02638232707977,0.82078623771667,1.95795607566834,-1.92599809169769,-4.57903909683228,55.7968711853027,38.0031623840332,24.4447994232178,49.8089714050293,46.7587585449219,34.4501686096191,-0.96725749969482,15.7203283309937,14.5495634078979,1.29056787490845,-0.46605318784714,-1.95689082145691,0.19813919067383,0.80853569507599,1.72253262996674,-5.49676465988159,-5.89410829544067,-6.4080982208252,16.7139225006104,16.7139225006104,12.0643825531006,21.8279361724854,21.8279361724854,0.28012159466743,1.62326872348785,1.62326872348785,-4.97515106201172,-1.7427726984024,-1.06686234474182,-0.33342778682709,1.40508377552032,0.46605318784714,0.46445530653,-6.69678497314453,-6.66749000549316,-5.32152843475342,12.0643825531006,-1.49398183822632,-13.8935527801514,0.28012159466743,-18.1504440307617,-26.2739696502686,-4.97515106201172,0.92895025014877,1.47482824325562,1.99950134754181,3.61657285690308,3.56757068634033,0.02929477207363,0.31904670596123,0.34408041834831,1.54676401615143,5.79716920852661,8.55141067504883,-31.4215030670166,-29.2810859680176,-11.2216234207153,-33.1142044067383,-29.0512428283691,-22.6635131835938,6.81629228591919,0.61770403385162,-8.16422748565674,0.59122174978256,-2.10602784156799,-0.90387690067291,-0.71159666776657,0.40906155109406,0.09267801046371,9.84570693969727,1.1430287361145,-2.39311671257019,23.3913497924805,54.2789459228516,36.3511657714844,10.4171714782715,48.8465042114258,48.1833076477051,-17.8344078063965,1.90817880630493,11.7698955535889,SHAKE
2.76862239837646,3.35984420776367,-0.48522797226906,0.00319579336792,-0.08681905269623,0.73822826147079,5.98412322998047,8.23129844665527,8.98337554931641,-17.2382526397705,9.26556015014648,25.5652866363525,-24.3538188934326,-0.8164227604866,25.2133388519287,1.29047477245331,-14.7674360275269,-18.3826808929443,-2.14171409606934,-1.42745435237885,1.30867743492126,1.04289388656616,1.06366658210754,0.70520508289337,6.43259954452515,1.58245038986206,-3.60219168663025,45.2336540222168,44.4268074035645,15.263035774231,36.853946685791,46.6677780151367,34.802116394043,-0.45729252696037,10.7499656677246,3.9576153755188,-1.20055305957794,-2.36595225334167,-1.18563938140869,0.34514567255974,0.81279677152634,-0.96406435966492,-5.37106323242188,-5.81847429275513,-6.00276517868042,9.51934623718262,5.50666379928589,2.75812029838562,16.6444892883301,7.62553262710571,-11.7627124786377,-8.56884765625,-3.81635761260986,1.97282218933105,0.42876893281937,0.89642006158829,2.09058141708374,-0.248206615448,-0.69455242156982,0.81812310218811,-2.76755714416504,0.66472500562668,7.48135232925415,-18.1145305633545,-23.0274314880371,-9.92875480651856,-25.0289840698242,-27.2867164611816,-20.6188659667969,2.80361008644104,2.77487969398499,4.97754526138306,3.2575786113739,2.4192156791687,-0.35153725743294,0.58056914806366,-0.12197277694941,0.22317290306091,7.68694829940796,7.84780311584473,7.88934850692749,9.16021537780762,13.7187757492065,38.4628486633301,-10.3932294845581,9.54807662963867,32.9537925720215,-0.66319388151169,-12.7802486419678,-12.0284690856934,-2.55503678321838,-0.18695391714573,0.33023199439049,1.77366530895233,1.37632167339325,0.7707188129425,2.84372353553772,-4.66053199768066,-5.93725156784058,56.2757110595703,18.401834487915,12.4809732437134,48.1090888977051,34.634521484375,21.1791076660156,-7.9343843460083,9.25598335266113,-2.53545951843262,-0.88949584960938,-1.63464832305908,-1.63464832305908,1.03330647945404,0.9012137055397,0.07030745595694,-6.43259954452515,-6.39105415344238,-5.66880464553833,8.80108547210693,4.35744714736938,4.35744714736938,9.23682975769043,-0.41659110784531,-0.41659110784531,-7.41244840621948,-5.56651878356934,-5.56651878356934,-1.30441629886627,0.38562572002411,4.28342819213867,-0.24128240346909,-0.32011196017265,-0.86392945051193,-4.2722430229187,-2.3803334236145,6.04803895950317,-4.38617753982544,-22.0577793121338,-26.8892784118652,-13.5368165969849,-26.2787570953369,-23.8701915740967,-3.41652584075928,5.64073944091797,3.41892004013062,4.06504917144775,1.46260809898376,-3.49193692207336,-0.02450108155608,0.79521989822388,1.08071076869965,8.79961681365967,9.48724555969238,9.20441722869873,-26.8892784118652,13.6684970855713,34.043155670166,-23.8701915740967,-2.14520478248596,23.9707469940186,3.41892004013062,-19.711462020874,-18.1145305633545,-1.47326076030731,3.07541847229004,4.4650559425354,2.61309361457825,2.59125590324402,1.54889452457428,-0.20985709130764,-3.14039969444275,-5.60009527206421,33.2841911315918,16.2638130187988,11.4490728378296,41.6686859130859,36.3942604064941,28.4790287017822,34.4645347595215,25.8406181335449,3.32794046401978,SHAKE
4.06504917144775,1.46260809898376,-3.49193692207336,-0.02450108155608,0.79521989822388,1.08071076869965,8.79961681365967,9.48724555969238,9.20441722869873,-26.8892784118652,13.6684970855713,34.043155670166,-23.8701915740967,-2.14520478248596,23.9707469940186,3.41892004013062,-19.711462020874,-18.1145305633545,-1.47326076030731,3.07541847229004,4.4650559425354,2.61309361457825,2.59125590324402,1.54889452457428,-0.20985709130764,-3.14039969444275,-5.60009527206421,33.2841911315918,16.2638130187988,11.4490728378296,41.6686859130859,36.3942604064941,28.4790287017822,34.4645347595215,25.8406181335449,3.32794046401978,-0.00213052891195,-1.03437173366547,-1.09509181976318,0.75846827030182,-0.04048004746437,-0.95554220676422,-6.4224796295166,-6.54445219039917,-6.23126459121704,4.52504110336304,2.2864625453949,-2.42772054672241,10.690110206604,-1.23061966896057,-13.170503616333,-14.8320798873901,-10.0269165039063,-6.13633918762207,0.03462109342217,1.2287825345993,1.72146737575531,-2.72867488861084,-2.33878803253174,-1.35608160495758,-5.07545232772827,1.02798020839691,6.57747554779053,-7.8649525642395,-29.3337593078613,-27.4686756134033,-22.345085144043,-30.42551612854,-26.862943649292,0.59615623950958,2.60249733924866,6.80671548843384,2.58646202087402,1.60482084751129,-1.49296808242798,-0.59921127557755,-0.3211772441864,-0.32810145616531,9.72586441040039,10.7506484985352,10.1668844223022,-3.5314474105835,12.7347583770752,37.7733192443848,-20.1711502075195,-4.24731397628784,17.9229946136475,3.57214903831482,-11.2599306106567,-11.7890491485596,-3.0397322177887,-0.11504855751991,1.9222697019577,0.26205506920815,1.83864641189575,1.50947976112366,5.41580438613892,-2.42134618759155,-5.03284215927124,53.9030570983887,26.9347686767578,20.429723739624,36.3391952514649,38.6352310180664,28.3425598144531,0.83797061443329,22.6371765136719,10.8744640350342,2.06235194206238,0.6593986749649,-0.86872315406799,0.92678010463715,0.56885123252869,0.08894958347082,-6.59824800491333,-7.04619169235229,-7.12715196609497,12.7347583770752,6.8234748840332,-2.61446833610535,18.2007217407227,9.2224645614624,-7.508216381073,-2.24336695671082,-8.47547435760498,1.34554135799408,0.33449304103851,0.95767277479172,0.05432848632336,0.10918960720301,-1.41626906394959,-0.82131892442703,-6.36761808395386,-2.10869097709656,1.78431797027588,-9.02853488922119,-15.2750072479248,-30.1597595214844,-15.4737253189087,-30.3297462463379,-28.5843734741211,3.78044438362122,-5.48032760620117,2.80600428581238,0.19494339823723,-3.28953671455383,-0.44741106033325,0.54435014724731,0.31265512108803,-0.04527373984456,10.4758110046387,10.5711517333984,6.78413677215576,1.4484920501709,17.3675384521484,43.552921295166,-14.3508453369141,-0.87148940563202,36.0231590270996,-7.65186882019043,-12.6749038696289,17.5494976043701,0.48895639181137,1.12438666820526,2.32121133804321,0.47191214561462,1.34915745258331,1.27938258647919,1.41839957237244,-2.78939509391785,-5.03284215927124,40.6152381896973,27.4734649658203,17.8535614013672,44.9966278076172,38.6998748779297,27.5644435882568,10.223240852356,12.8975648880005,8.25999546051025,SHAKE
0.19494339823723,-3.28953671455383,-0.44741106033325,0.54435014724731,0.31265512108803,-0.04527373984456,10.4758110046387,10.5711517333984,6.78413677215576,1.4484920501709,17.3675384521484,43.552921295166,-14.3508453369141,-0.87148940563202,36.0231590270996,-7.65186882019043,-12.6749038696289,17.5494976043701,0.48895639181137,1.12438666820526,2.32121133804321,0.47191214561462,1.34915745258331,1.27938258647919,1.41839957237244,-2.78939509391785,-5.03284215927124,40.6152381896973,27.4734649658203,17.8535614013672,44.9966278076172,38.6998748779297,27.5644435882568,10.223240852356,12.8975648880005,8.25999546051025,1.50628399848938,0.80267679691315,0.76219671964645,0.51984906196594,0.21358552575111,0.01651159860194,-6.74312400817871,-7.1489896774292,-7.34553098678589,8.78193187713623,5.28400325775146,0.74220252037048,9.83059215545654,2.80361008644104,-4.57053089141846,-4.85304689407349,-3.74692559242249,-0.37588965892792,1.57925450801849,0.32916671037674,-1.79443800449371,0.30945932865143,-1.99204456806183,-1.63518095016479,-5.80675649642944,2.17207431793213,7.65605545043945,-9.36851119995117,-31.0240650177002,-24.9164562225342,-21.7800521850586,-26.3434009552002,-26.0225791931152,0.75177931785583,-8.56884765625,-1.99676418304443,-2.28978586196899,-3.96970796585083,0.1257012039423,-0.588558614254,-1.89084446430206,-1.58298301696777,11.4100475311279,11.5416078567505,8.59135818481445,-7.15626907348633,27.9379386901855,45.7053108215332,-23.3626194000244,-2.92092609405518,26.9251918792725,0.92655605077744,5.56651878356934,25.6035938262939,1.46580386161804,1.47645652294159,1.85995173454285,0.60240703821182,1.22558677196503,0.64555025100708,3.04026484489441,-4.54548358917236,-5.753493309021,50.0244522094727,22.1319999694824,14.9565782546997,43.6415100097656,32.1182174682617,21.2030506134033,7.96072053909302,10.3405570983887,2.63122773170471,0.98217380046844,0.04740426689386,-0.06924218684435,0.35686358809471,0.30253511667252,0.18482337892056,-6.33725833892822,-7.00198316574097,-7.22888469696045,12.9837560653687,10.8050327301025,-3.91451978683472,12.6581439971924,3.87381839752197,-19.6204833984375,-3.17471146583557,-3.14598107337952,3.70622420310974,0.67591029405594,1.59949457645416,3.09512591362,-0.07456851005554,0.09853696078062,1.25807726383209,-5.4845142364502,-0.92997586727142,6.23978662490845,-14.9709434509277,-35.594596862793,-38.7501564025879,-27.9858245849609,-30.3776302337646,-30.4087562561035,5.6335563659668,11.7866554260254,12.7730665206909,3.32149457931519,2.19497752189636,-0.85061365365982,2.94492363929749,3.28154706954956,1.1643340587616,11.2097778320313,11.1016530990601,5.83232307434082,-13.254301071167,28.6418342590332,45.1283073425293,-26.6761951446533,-9.86411094665527,22.9987010955811,3.45962142944336,-13.3835878372192,-23.5086669921875,-1.99204456806183,-0.22796659171581,0.87404948472977,1.17232358455658,1.09615707397461,0.35899412631989,3.21922922134399,0.86286419630051,-2.93799948692322,24.1574954986572,22.4743709564209,23.9180755615234,40.3351173400879,43.4332122802734,38.8507118225098,0.74459671974182,7.86016416549683,0.13168109953403,SHAKE
2.80484127998352,2.19391202926636,2.03572034835815,0.30519825220108,0.3179814517498,0.58323228359222,8.03315925598145,6.8885326385498,5.14735794067383,25.273193359375,19.1344604492188,28.0791969299316,-0.88824880123138,17.93017578125,34.3711585998535,-9.29189682006836,-3.30399823188782,-3.66073441505432,0.15819177031517,-0.69188928604126,-2.07353734970093,-0.2290318608284,-0.82238417863846,-1.35182058811188,-2.86023497581482,-4.49435091018677,-5.38757514953613,18.9572887420654,18.9572887420654,12.4211187362671,39.7030448913574,39.7030448913574,19.9532775878906,-6.31350994110107,-6.31350994110107,-7.57046556472778,-3.34333252906799,-3.6133770942688,-3.0860710144043,-1.47752177715302,-1.50947976112366,-1.52386081218719,-5.88824939727783,-6.18705606460571,-6.30050659179688,10.0939540863037,8.54730033874512,8.54730033874512,11.8896055221558,4.18985319137573,4.18985319137573,-4.94163227081299,-0.1268926858902,-0.1268926858902,-3.08820176124573,-3.29166722297669,-0.91559481620789,-1.54569876194,-1.52332818508148,-0.37017938494682,-6.09757375717163,-4.81446266174316,-0.80107885599136,2.24576115608215,-11.5831480026245,-32.5850868225098,-17.2454357147217,-27.7464027404785,-30.3465061187744,-0.18435353040695,7.2304892539978,22.3259315490723,5.16599988937378,4.7175235748291,3.04665637016296,1.53877449035645,1.76141476631165,1.36300587654114,9.11813068389893,9.41161155700684,8.07523727416992,-6.56729507446289,16.9341888427734,24.835054397583,-25.5389499664307,-14.6094188690186,4.39814853668213,5.58806657791138,-8.48983955383301,-12.746729850769,1.03543710708618,0.19228023290634,0.05379585549235,1.12971293926239,0.54168695211411,0.24288029968739,4.00592708587646,0.15606124699116,-2.32707023620605,32.8173217773438,25.1463012695313,17.6356887817383,38.6256561279297,42.7963562011719,37.6368522644043,-8.4132251739502,-4.69263553619385,-1.44609785079956,-0.78882831335068,-2.63972520828247,-4.57264757156372,-0.22849921882153,-0.39574575424194,0.57950389385223,-4.08955001831055,-5.34709501266479,-5.17452192306519,16.7618064880371,13.7259578704834,1.91775560379028,28.0361022949219,17.2023391723633,-0.17477671802044,-6.59602546691895,-8.9064302444458,0.9241618514061,-3.39659571647644,-2.20989108085632,2.95078253746033,0.60986387729645,0.06338323652744,0.10120012611151,-4.889564037323,-5.15481472015381,2.75370860099792,0.651222884655,-2.90895509719849,-39.5881233215332,-6.91924285888672,-18.7681465148926,-20.3626861572266,5.24330186843872,4.43645572662354,18.0642509460449,4.91832590103149,3.5744948387146,1.99364244937897,0.94755274057388,0.16298545897007,0.47457531094551,8.00759315490723,6.53166913986206,4.58489799499512,-39.5881233215332,30.0280780792236,18.8375797271729,-20.3626861572266,2.59292054176331,21.4903545379639,18.0642509460449,-13.2303581237793,-9.54568195343018,0.29614353179932,-0.78403460979462,-1.52492606639862,0.19707392156124,-0.29507824778557,-0.77338200807571,0.52677327394485,-2.42613983154297,-3.98355650901794,24.1311588287354,17.2957134246826,11.8704519271851,36.57861328125,32.5802955627441,23.9084987640381,-8.25999546051025,-5.5138463973999,-4.40772533416748,SHAKE
0.5502091050148,-0.02716424316168,-0.36804887652397,0.14487597346306,0.52357745170593,0.45646581053734,-0.17097494006157,-1.08497190475464,-2.38086605072021,14.0276279449463,11.5592060089111,14.563928604126,30.8780193328857,30.2483444213867,25.6706314086914,-4.51067590713501,-1.86987149715424,-2.48518133163452,-0.99069595336914,-1.66287779808044,-1.85249483585358,0.07723167538643,0.06231797114015,0.53263223171234,-3.69380450248718,-4.28396081924438,-4.3457465171814,12.1721210479736,7.16345167160034,4.03901815414429,19.519926071167,14.3987293243408,9.91678333282471,-3.0550012588501,-0.63685762882233,1.74776721000671,-1.37472379207611,-0.85487473011017,-0.6998787522316,0.60293966531754,-0.03675162419677,0.41598576307297,-4.28183031082153,-4.46186017990112,-4.14867258071899,3.33512306213379,3.4811692237854,-4.12999773025513,6.22253036499023,1.43652105331421,-7.39568901062012,3.31596946716309,1.87944829463959,1.3910311460495,-0.09693906456232,-0.36645096540451,1.16007304191589,-0.14860439300537,-0.80747044086456,0.13795174658298,-3.30498290061951,0.34727621078491,5.89836931228638,-9.2631664276123,-17.7218818664551,-21.1264362335205,-10.5320930480957,-13.5655469894409,-11.8824234008789,0.45729252696037,-0.42377370595932,3.05021286010742,2.30896067619324,2.52733993530273,0.4516721367836,-0.55873119831085,-0.1113201379776,1.7124125957489,7.3764238357544,5.36893272399902,5.07758283615112,-4.24013137817383,15.9046821594238,18.1169242858887,-7.3885064125061,15.538369178772,28.280309677124,2.24815535545349,-5.14513921737671,-8.33182144165039,-1.48923969268799,-1.07218861579895,0.36538571119308,0.61465758085251,0.96193379163742,0.30839407444,1.20481407642365,-1.669802069664,-5.82326793670654,25.6179580688477,26.5995807647705,17.5327396392822,40.5194702148438,37.4285545349121,18.7681465148926,3.29442143440247,3.06218385696411,0.56024318933487,0.49108690023422,0.02237055450678,-1.61281037330627,-0.27270770072937,-0.60240703821182,-0.73343455791473,-6.56575727462769,-6.72075366973877,-6.11941146850586,13.0531873703003,9.31344413757324,1.20188927650452,9.41160678863525,0.87388360500336,-16.0818519592285,-2.5091233253479,-3.7732617855072,-3.13401007652283,-1.99737083911896,0.46179214119911,3.25491547584534,-0.15606124699116,-0.6934871673584,-2.0250678062439,-5.85895442962646,-4.86080169677734,-1.4514228105545,-4.94402647018433,-16.3116970062256,-32.2666549682617,-23.3267078399658,-29.3074226379395,-29.3792495727539,3.42131423950195,12.8137674331665,10.0700120925903,3.52016639709473,1.0700581073761,-0.28975194692612,0.73769563436508,1.177117228508,1.58990716934204,8.5833683013916,10.2265386581421,8.963134765625,-16.4337997436523,18.2964897155762,25.5868339538574,-25.0577144622803,-5.14513921737671,11.0995187759399,-1.11569797992706,-8.10197830200195,-7.90804815292358,-2.86236548423767,-0.64182186126709,-0.87511473894119,1.23517417907715,1.2069445848465,1.26340365409851,4.42351055145264,-0.74248933792114,-2.69831490516663,28.4311447143555,28.5197315216064,23.6810493469238,31.8740081787109,34.6177635192871,28.6011333465576,6.13873338699341,6.83544588088989,5.19541788101196,SHAKE
-1.47006499767303,-0.10120012611151,1.4471617937088,-0.45433530211449,0.39574575424194,0.67377978563309,-3.13454055786133,4.05173349380493,9.97513675689697,-34.0144233703613,-45.5425033569336,-26.3984680175781,-25.4000854492188,-22.6850605010986,-23.8055477142334,5.46596240997314,13.8767929077148,7.22809505462646,1.98512029647827,0.58483016490936,-1.39496386051178,0.51079428195953,-0.58429753780365,-0.29294773936272,12.8092727661133,10.0971088409424,8.17004585266113,-0.34715923666954,27.2244682312012,32.6425476074219,-20.5901336669922,9.76355457305908,25.2923469543457,1.62087452411652,-7.63989782333374,-7.35738182067871,-3.27195978164673,-2.71535921096802,1.42425858974457,1.04715490341187,1.82746112346649,0.2194444835186,5.50368881225586,3.09832167625427,-4.1406831741333,33.7534561157227,28.4550876617432,30.3776302337646,33.6481094360352,35.2019462585449,24.23410987854,3.6152446269989,18.4880256652832,14.5806884765625,2.41601967811584,2.50230622291565,1.26340365409851,-0.04154531285167,0.36059200763702,-0.22477079927921,-6.25789594650269,-6.84059572219849,-7.61184740066528,19.1919212341309,12.5480108261108,7.48427438735962,14.5280160903931,6.49786329269409,-7.55610036849976,8.95192050933838,2.83952331542969,-2.95923328399658,0.56618803739548,-0.28708878159523,-0.836765229702,-1.73851156234741,-2.07300472259521,-0.93263900279999,-8.53117084503174,-9.36367416381836,-4.63390016555786,6.94079065322876,1.70467162132263,-34.4860801696777,-17.3244438171387,-24.6028175354004,-25.7687931060791,-2.51391172409058,-3.20104765892029,9.75397777557373,1.99204456806183,3.80459189414978,2.85011506080627,0.8841695189476,1.2197277545929,1.52279555797577,3.96757745742798,11.1735591888428,15.1725616455078,-54.1209297180176,-33.1453285217285,-7.35738182067871,-22.3211421966553,-25.7783699035645,-26.4774761199951,20.3339557647705,4.96557426452637,-6.74207210540771,0.44794371724129,-5.14576005935669,-2.85331082344055,1.05567705631256,1.69483578205109,1.06739497184753,13.8878526687622,7.08454132080078,5.55428886413574,-7.35738182067871,27.9786415100098,30.6194458007813,-26.4774761199951,27.7990760803223,33.6768417358398,-6.74207210540771,6.90487766265869,25.3474140167236,0.21891184151173,1.54889452457428,1.00667488574982,0.97684752941132,0.20719394087791,1.00081598758698,1.96115183830261,-2.9023129940033,-6.92634963989258,41.2353363037109,44.2927322387695,15.8974990844727,34.3328514099121,28.2898864746094,10.0388879776001,24.6602783203125,11.6214551925659,2.25294375419617,0.588558614254,0.43462789058685,0.90707266330719,1.18457412719727,0.56618803739548,0.14807176589966,-7.13407611846924,-7.65072917938232,-8.22171115875244,12.7658834457397,10.6015253067017,7.19936466217041,2.31758713722229,-5.10922622680664,-12.5791358947754,-0.62488663196564,-0.16759411990643,1.56820213794708,1.19682466983795,1.14143085479736,1.57339560985565,-1.17019295692444,-2.12999629974365,-0.79362201690674,-8.17590427398682,-6.24351501464844,0.0042610578239,0.4716577231884,-22.7975883483887,-51.372386932373,-21.3275489807129,-30.3824195861816,-25.1199645996094,-0.34237083792686,0.82839381694794,7.0126166343689,SHAKE
-0.98643487691879,-3.69540238380432,-3.96491432189941,0.08096009492874,0.90920323133469,1.65595364570618,8.77671432495117,6.89385890960693,4.93164157867432,38.3000450134277,31.5124835968018,32.1301879882813,9.7013053894043,28.3832607269287,36.7869110107422,-17.3124732971191,-3.63918662071228,14.5663232803345,-1.36779952049255,2.8378643989563,2.20243430137634,1.15368139743805,0.09906959533691,-0.15393070876598,1.8322548866272,-5.90795660018921,-7.42755651473999,33.7103614807129,31.2203903198242,18.9261646270752,39.8562774658203,23.9132862091064,13.1513500213623,25.2181262969971,4.13239192962646,-2.2553379535675,0.9203884601593,-0.29188245534897,-0.91452956199646,0.388288885355,0.56245964765549,0.10599381476641,-7.6288914680481,-7.68375253677368,-7.85632514953613,12.3277444839478,9.21288776397705,5.78439140319824,4.08690214157104,-4.14436292648315,-11.21204662323,-5.85382318496704,-5.36061763763428,-2.92332029342651,-1.04928553104401,-1.45568382740021,-2.80111289024353,-0.26152241230011,-0.99655491113663,0.13262543082237,-8.0842924118042,-8.8885669708252,-8.37670707702637,2.94247388839722,6.01423454284668,-12.0763530731201,-17.6739978790283,-31.1270160675049,-37.9409141540527,-1.57059633731842,-4.25689077377319,-5.63116216659546,1.10148346424103,2.95770668983459,2.7403929233551,0.62744075059891,-0.2466087192297,-0.1097222417593,8.6179895401001,14.9866733551025,17.4415740966797,-56.9724235534668,-27.8613243103027,5.54736518859863,-25.0529270172119,-30.49973487854,-30.830135345459,20.8702564239502,0.53630119562149,-5.91846656799316,0.44155210256577,-7.21716690063477,-1.60588622093201,-0.23435817658901,0.34940674901009,-1.15208351612091,12.9264516830444,4.61632347106934,3.78648257255554,60.1279830932617,19.9748249053955,29.5396614074707,-10.2016935348511,28.1007461547852,31.5244541168213,-27.5596561431885,22.9627876281738,41.0102806091309,1.86368012428284,3.10737633705139,3.40192198753357,0.02237055450678,0.07403588294983,-0.3371562063694,-0.17789916694164,-7.71837377548218,-8.14714241027832,44.5944023132324,21.2317810058594,14.0036859512329,31.6944427490234,13.9079179763794,5.16668748855591,25.953145980835,10.2974615097046,2.54982471466064,2.57101583480835,1.39496386051178,-0.70840084552765,-0.76699042320251,-1.35075533390045,-2.4911208152771,-8.37191295623779,-8.56951999664307,-8.30906295776367,10.4099893569946,6.8234748840332,-2.03028297424316,-2.30082774162292,-9.86889934539795,-24.4639530181885,-4.01986455917358,-5.32709884643555,-3.30160403251648,-1.66181254386902,-1.46101021766663,1.69323790073395,-2.29351449012756,-1.25328361988068,0.61092919111252,-7.33221530914307,-3.18141222000122,5.47812223434448,-10.251971244812,-36.0111885070801,-53.1009979248047,-29.7383785247803,-25.902868270874,-22.4312763214111,-1.36708915233612,10.5871601104736,22.419303894043,3.98195862770081,2.59764742851257,-2.84319090843201,0.33555829524994,0.3179814517498,2.1321268081665,12.0534677505493,12.7655963897705,7.29226779937744,-28.1653881072998,39.6096725463867,44.979866027832,-27.8493537902832,-16.1704387664795,13.5511817932129,8.47786808013916,-17.7793426513672,-29.2020778656006,SHAKE
