gyro_x_0,gyro_y_0,gyro_z_0,acc_x_0,acc_y_0,acc_z_0,gyro_x_1,gyro_y_1,gyro_z_1,acc_x_1,acc_y_1,acc_z_1,gyro_x_2,gyro_y_2,gyro_z_2,acc_x_2,acc_y_2,acc_z_2,gyro_x_3,gyro_y_3,gyro_z_3,acc_x_3,acc_y_3,acc_z_3,gyro_x_4,gyro_y_4,gyro_z_4,acc_x_4,acc_y_4,acc_z_4,gyro_x_5,gyro_y_5,gyro_z_5,acc_x_5,acc_y_5,acc_z_5,gyro_x_6,gyro_y_6,gyro_z_6,acc_x_6,acc_y_6,acc_z_6,gyro_x_7,gyro_y_7,gyro_z_7,acc_x_7,acc_y_7,acc_z_7,gyro_x_8,gyro_y_8,gyro_z_8,acc_x_8,acc_y_8,acc_z_8,gyro_x_9,gyro_y_9,gyro_z_9,acc_x_9,acc_y_9,acc_z_9,gyro_x_10,gyro_y_10,gyro_z_10,acc_x_10,acc_y_10,acc_z_10,gyro_x_11,gyro_y_11,gyro_z_11,acc_x_11,acc_y_11,acc_z_11,gyro_x_12,gyro_y_12,gyro_z_12,acc_x_12,acc_y_12,acc_z_12,gyro_x_13,gyro_y_13,gyro_z_13,acc_x_13,acc_y_13,acc_z_13,gyro_x_14,gyro_y_14,gyro_z_14,acc_x_14,acc_y_14,acc_z_14,gyro_x_15,gyro_y_15,gyro_z_15,acc_x_15,acc_y_15,acc_z_15,gyro_x_16,gyro_y_16,gyro_z_16,acc_x_16,acc_y_16,acc_z_16,gyro_x_17,gyro_y_17,gyro_z_17,acc_x_17,acc_y_17,acc_z_17,gyro_x_18,gyro_y_18,gyro_z_18,acc_x_18,acc_y_18,acc_z_18,gyro_x_19,gyro_y_19,gyro_z_19,acc_x_19,acc_y_19,acc_z_19,gyro_x_20,gyro_y_20,gyro_z_20,acc_x_20,acc_y_20,acc_z_20,gyro_x_21,gyro_y_21,gyro_z_21,acc_x_21,acc_y_21,acc_z_21,gyro_x_22,gyro_y_22,gyro_z_22,acc_x_22,acc_y_22,acc_z_22,gyro_x_23,gyro_y_23,gyro_z_23,acc_x_23,acc_y_23,acc_z_23,gyro_x_24,gyro_y_24,gyro_z_24,acc_x_24,acc_y_24,acc_z_24,gyro_x_25,gyro_y_25,gyro_z_25,acc_x_25,acc_y_25,acc_z_25,gyro_x_26,gyro_y_26,gyro_z_26,acc_x_26,acc_y_26,acc_z_26,gyro_x_27,gyro_y_27,gyro_z_27,acc_x_27,acc_y_27,acc_z_27,gyro_x_28,gyro_y_28,gyro_z_28,acc_x_28,acc_y_28,acc_z_28,gyro_x_29,gyro_y_29,gyro_z_29,acc_x_29,acc_y_29,acc_z_29,motion_type
-0.04337143152952,-0.07208210229874,-0.09224065393209,-0.02321287989616,0.00183259579353,0.16187928617001,0.06841690838337,0.10445795953274,0.13072516024113,0.44771572947502,0.66319388151169,0.3016694188118,2.09013819694519,2.04704236984253,1.89860188961029,9.34696388244629,9.46667385101318,9.72524738311768,-0.08368854224682,-0.04825835302472,-0.0549778714776,0.40622538328171,0.53756141662598,0.3683517575264,0.15210545063019,0.18631389737129,0.21868975460529,-0.3208230137825,-1.28089785575867,-2.35828876495361,1.62805712223053,1.48201084136963,1.48201084136963,9.71567058563232,9.27753162384033,8.86333465576172,-0.08979719132185,-0.19669860601425,-0.45142942667007,0.03054326213896,-0.22785273194313,-0.4673119187355,0.3072652220726,0.52167892456055,0.85582220554352,-3.25372004508972,-3.47638082504272,-3.22259545326233,1.22104287147522,1.08457338809967,0.69431847333908,8.20492935180664,7.52258157730103,8.19295787811279,-0.68600165843964,-0.8350527882576,-0.73914694786072,-0.56871557235718,-0.50640726089478,-0.67317348718643,1.24555420875549,2.22843647003174,3.18871665000916,-3.23935484886169,-2.71981310844421,2.72699570655823,0.35913026332855,0.23942017555237,0.67516487836838,9.09796619415283,10.41956615448,11.6884927749634,-0.49480083584785,0.05314527451992,0.59986966848373,-0.83383107185364,-0.463035851717,0.15760323405266,3.55829000473022,2.57846212387085,0.4416555762291,14.4035177230835,26.31227684021,36.2769432067871,3.60566782951355,4.97993946075439,5.02782344818115,15.8352499008179,17.2286758422852,21.9763774871826,1.45752441883087,2.72629165649414,3.72016930580139,-0.00244346098043,-0.00610865233466,1.04335784912109,-2.49721717834473,-5.92417097091675,-9.11777496337891,42.5090522766113,42.3199081420898,37.6536102294922,3.79002118110657,-1.35511815547943,-12.2463417053223,26.8006935119629,25.1846084594727,16.9820728302002,3.96695899963379,4.14838600158691,4.57965660095215,2.10259819030762,2.59556651115417,1.70309233665466,-11.6314849853516,-13.4506416320801,-14.2899703979492,31.380802154541,21.9715881347656,13.0100917816162,-23.1782665252686,-33.3033447265625,-40.0693588256836,11.4490728378296,9.67736339569092,8.75080680847168,4.86431980133057,4.61569786071777,3.8557813167572,-0.31764993071556,-1.84969997406006,-2.11725902557373,-14.090217590332,-12.9729452133179,-11.5294704437256,3.2776620388031,-2.17632937431335,-2.18590617179871,-39.0661888122559,-32.9130897521973,-29.0249080657959,7.7069354057312,6.34224033355713,4.60644388198853,3.00118088722229,1.6713273525238,1.58580613136292,-1.26388013362885,-1.5668693780899,-2.61205983161926,-10.8153696060181,-10.1177606582642,-7.10741710662842,1.59214413166046,-20.8654670715332,-33.7390899658203,-34.3424301147461,-31.0049114227295,-22.9867305755615,3.69664740562439,9.0644474029541,13.0699472427368,1.87413454055786,1.8912388086319,1.53143918514252,-2.3591616153717,0.60781091451645,0.75014251470566,-2.62061190605164,3.70245432853699,4.61447620391846,-32.2953872680664,-10.6134958267212,-5.57848978042603,-17.0060138702393,-10.5799770355225,-6.80671548843384,10.9558668136597,6.29675054550171,4.74051952362061,SWING_RIGHT
-0.33231070637703,-0.14782938361168,0.01343903504312,-0.25289821624756,-0.18325957655907,-0.06963863968849,0.66156703233719,0.79290306568146,0.86926126480103,0.19871874153614,0.77332717180252,0.9911994934082,1.62087452411652,1.64002811908722,1.84832370281219,10.6972932815552,10.1681747436523,9.33738708496094,0.01649336144328,-0.15393804013729,-0.23518311977386,-0.10323622822762,-0.29077184200287,-0.49235737323761,0.88697636127472,0.87170469760895,0.8906415104866,1.05105459690094,0.87867200374603,0.46208092570305,1.81001651287079,1.80283391475677,1.60172092914581,8.70531749725342,9.25358963012695,9.24880123138428,-0.23884831368923,-0.31031954288483,-0.51984632015228,-0.56321775913239,-0.50823986530304,-0.45570546388626,0.98776912689209,1.18630027770996,1.47829389572144,-0.00957680679858,-0.16998831927776,0.21068975329399,1.48919343948364,1.19710087776184,0.82839381694794,8.69095230102539,8.16662216186523,8.49223327636719,-0.72265356779099,-0.73487091064453,-0.45326200127602,-0.50457471609116,-0.88819807767868,-1.68598806858063,1.79472208023071,2.1978931427002,2.71896123886108,0.48123455047607,1.85550630092621,6.77319669723511,0.55784898996353,0.44771572947502,0.62488663196564,9.76115989685059,11.6238489151001,12.1553621292114,0.05314527451992,0.4459316432476,0.43737950921059,-2.31823348999023,-2.29624247550964,-2.41475033760071,2.91382718086243,2.23759937286377,0.62858033180237,15.8065195083618,25.0744743347168,39.1882934570313,2.28406834602356,3.94085597991943,4.771644115448,11.2599306106567,11.2503538131714,15.1050186157227,0.64568454027176,1.41965079307556,1.63589715957642,-2.15330004692078,-0.80206608772278,0.96150189638138,-1.80938291549683,-5.60285615921021,-8.91130256652832,49.1050758361816,47.441104888916,45.0540885925293,4.08450794219971,-1.87226569652557,-12.7132110595703,17.8176498413086,11.7172231674194,5.48511600494385,0.89369583129883,0.50885075330734,1.36772727966309,2.18445420265198,2.84357762336731,2.58212733268738,-11.767707824707,-14.9454288482666,-15.9014329910278,37.5913619995117,29.0009651184082,20.8271598815918,-24.8733615875244,-36.4421424865723,-45.5712356567383,6.01662874221802,9.87129402160644,8.26957225799561,2.14963483810425,3.34265470504761,4.01704978942871,1.81060457229614,1.34146010875702,0.23090706765652,-15.5611810684204,-13.0798463821411,-9.5606517791748,4.13718032836914,-11.9638261795044,-14.7363119125366,-45.7843208312988,-35.7717666625977,-26.3888912200928,10.0652236938477,11.2359886169434,3.81396341323853,3.15939497947693,2.09710049629211,1.4379768371582,-0.08552113175392,0.06414084881544,-0.56932640075684,-6.90888595581055,-5.48312664031982,-4.09707307815552,-11.3341512680054,-15.0714998245239,-20.12087059021,-22.064962387085,-18.8471565246582,-15.6413192749023,1.6136919260025,2.64080452919006,5.96395635604858,1.29075825214386,1.30664074420929,1.31824719905853,-1.50700461864471,-1.72019648551941,-1.4611896276474,-2.33533787727356,-0.61330872774124,0.61575216054916,-20.8941974639893,-16.9772834777832,-13.6301898956299,-12.9071416854858,-9.50976943969727,-6.22731876373291,7.60877323150635,7.93199014663696,7.88889455795288,SWING_RIGHT
-0.52595496177673,-0.22479841113091,0.16187928617001,-0.23518311977386,0.09285151958466,0.16615535318851,1.02991878986359,1.15392446517944,1.694540143013,-0.72783732414246,-3.38300704956055,-4.1659107208252,0.24660277366638,0.38546648621559,0.36391866207123,10.8122148513794,10.8888292312622,9.37090587615967,0.26450464129448,-0.03848451003432,-0.68966686725616,-0.29260444641113,-0.91385442018509,-1.00976026058197,2.54669713973999,3.26385307312012,2.62122273445129,-0.59136784076691,5.93522596359253,18.3778915405273,-0.28012159466743,-0.09337386488914,2.35828876495361,7.58483076095581,7.44596719741821,13.3835878372192,-0.49968776106834,-0.03787364438176,0.23396138846874,-0.97249746322632,-1.05068826675415,-0.87964594364166,1.66338610649109,0.02443460933864,-2.52959299087524,27.3896675109863,36.4589042663574,39.6455841064453,4.22097778320313,5.23611927032471,3.15316367149353,16.783353805542,16.9270057678223,17.3076839447021,0.54916787147522,1.06534898281097,1.73119211196899,0.10812314599752,1.19424152374268,1.24738681316376,-5.10255718231201,-7.45744276046753,-9.40365982055664,41.4388427734375,38.5251007080078,35.9561195373535,-3.05978965759277,-10.5105457305908,-18.1504440307617,17.0802345275879,17.1185417175293,17.0060138702393,2.35855078697205,2.86190366744995,3.17039060592651,0.44470989704132,-0.32925635576248,-0.60353487730026,-11.0108461380005,-12.3040475845337,-12.9986019134521,32.2187728881836,26.8390007019043,22.7856178283691,-25.7999172210693,-31.2275733947754,-36.0901947021484,16.8312377929688,16.0219974517822,13.2519063949585,3.09769773483276,3.19971203804016,3.4324517250061,-0.8472700715065,-1.29503428936005,-1.84542393684387,-13.1433763504028,-13.2160692214966,-12.7359294891357,21.0929164886475,14.9326362609863,8.80826759338379,-41.6998100280762,-41.3837776184082,-37.2944793701172,14.7243404388428,15.4114761352539,13.1058597564697,3.25163578987122,2.57052087783813,1.73730075359344,-2.08182883262634,-1.7446311712265,-1.61451685428619,-11.5251941680908,-10.4396867752075,-9.96015739440918,7.56328296661377,7.66383981704712,8.48026275634766,-32.6497268676758,-31.2778511047363,-34.2825736999512,9.74200630187988,8.25760173797607,9.47385597229004,1.1734721660614,0.64385199546814,0.65301495790482,-2.16490650177002,-2.68658542633057,-2.59190130233765,-10.3804330825806,-10.3523330688477,-8.80989837646484,0.68474167585373,-11.8512983322144,-23.5373973846436,-34.6321258544922,-30.5164947509766,-24.6842193603516,10.9127712249756,15.4928789138794,18.8591270446777,1.21073496341705,1.88940620422363,2.13863921165466,-1.83442831039429,-0.85032439231873,-0.08796459436417,-5.65844488143921,-2.27119708061218,0.1777617931366,-25.7448501586914,-19.5917530059814,-13.156138420105,-19.8862400054932,-16.8815155029297,-14.0659351348877,17.767370223999,13.6756801605225,10.8720703125,2.14230442047119,2.08427214622498,1.90834307670593,0.04948008432984,-0.05375614017248,0.02809980139136,1.46546566486359,2.00669240951538,2.32006621360779,-9.74679470062256,-8.65982723236084,-8.71728801727295,-10.1705684661865,-6.31829833984375,-3.13161587715149,9.28471374511719,7.90086555480957,7.69735860824585,SWING_RIGHT
-0.71349060535431,-0.96028017997742,-1.3567316532135,-0.06841690838337,-0.27366763353348,-0.22663100063801,2.25287103652954,3.17955350875854,4.26200675964355,-4.96078586578369,-4.93684387207031,-0.47405192255974,2.43011474609375,1.64242231845856,-0.01197100803256,8.68616390228271,8.15225696563721,9.51455783843994,-1.48562431335449,-1.0067058801651,-0.36407569050789,-0.51312679052353,-1.74646377563477,-3.18932747840881,5.01031684875488,4.9217414855957,3.25957703590393,7.35977602005005,20.0993232727051,26.6738014221191,-1.35511815547943,-1.08457338809967,0.07422025501728,11.1641626358032,10.4674501419067,9.0644474029541,-0.32131510972977,-0.32986724376678,-0.11850785464048,-3.57417249679565,-2.23882102966309,-0.02809980139136,1.01953411102295,0.03970624133945,-0.89369583129883,22.8670196533203,26.745626449585,38.2641334533691,0.39743748307228,-0.4525041282177,-0.92655605077744,9.97663879394531,10.6134958267212,8.96867942810059,-0.18264870345592,-0.09834930300713,0.28955012559891,1.80021989345551,2.27547311782837,1.64689266681671,-3.43000841140747,-6.2625904083252,-8.82822418212891,41.0222511291504,40.859447479248,40.9552154541016,-1.76931500434875,-7.04134702682495,-15.3348617553711,9.94551372528076,11.3820352554321,11.2551422119141,0.57482421398163,0.70799279212952,1.06107294559479,1.09467053413391,1.33657312393188,1.93827545642853,-11.2564134597778,-13.2887620925903,-14.6546573638916,39.5402412414551,35.510799407959,28.7352085113525,-25.6371116638184,-34.6608581542969,-41.0557708740234,10.6374378204346,9.82580375671387,9.96227359771728,1.86558246612549,2.6523768901825,2.6768114566803,1.56076073646545,0.19608774781227,-1.03602743148804,-15.1891641616821,-15.1378517150879,-14.4268045425415,22.9771537780762,16.9629192352295,10.7691192626953,-45.2336540222168,-45.7436180114746,-41.4125061035156,9.64863300323486,7.81706857681274,5.72214221954346,1.84420216083527,0.24129177629948,-1.11543989181519,-1.33962750434875,-0.94561940431595,-0.44898596405983,-13.1690330505371,-11.7334995269775,-10.0053615570068,6.73967790603638,1.94888019561768,1.67594122886658,-38.2832870483398,-32.9897041320801,-31.78542137146,2.28167414665222,3.32794046401978,7.49385118484497,-1.51433491706848,-0.99326688051224,0.15149457752705,-0.07941248267889,0.01221730466932,-0.29321530461311,-8.67734050750732,-7.71461725234985,-6.56313610076904,-1.73340201377869,-7.2113356590271,-13.4027414321899,-30.4901580810547,-29.6521873474121,-27.8876609802246,11.9231243133545,14.9733371734619,16.4002819061279,1.42331600189209,1.96332085132599,2.3469443321228,-0.96822142601013,-0.99387776851654,-0.53633970022202,-4.81300735473633,-2.51981902122498,-0.19608774781227,-18.3539505004883,-19.3738803863525,-15.8184909820557,-23.9635639190674,-18.9070110321045,-14.1473379135132,13.0938892364502,12.5815296173096,11.2910556793213,2.77393913269043,2.36893534660339,1.67193818092346,-0.20341812074184,-0.31764993071556,-0.4331034719944,2.61328148841858,2.88328385353088,2.64626812934875,-4.90332508087158,-1.20667767524719,0.08379705995321,-7.04852962493896,-4.27843856811523,-1.66157603263855,5.52102899551392,4.01268196105957,3.89057779312134,SWING_RIGHT
-0.53878313302994,-0.63407814502716,-0.76052725315094,0.05375614017248,0.01466076634824,0.04153883829713,1.2467759847641,1.33596229553223,1.62367987632751,1.98718738555908,1.33357036113739,1.00795888900757,3.07415509223938,2.59531474113464,2.88261890411377,8.09718990325928,8.20971775054932,8.64306831359863,-0.84665924310684,-0.91690874099731,-0.84604835510254,-0.01099557429552,-0.50213122367859,-1.50028502941132,1.89551484584808,2.05311799049377,1.97065126895905,2.43490314483643,5.25048446655273,10.3644990921021,2.46363353729248,2.55461311340332,2.98078107833862,8.74123001098633,9.5408935546875,10.6063137054443,-0.63896507024765,-0.62002819776535,-1.16553092002869,-2.09221339225769,-1.49478721618652,-0.16737708449364,1.33718407154083,0.05864306539297,-1.351233959198,15.813702583313,19.1057300567627,22.1679134368896,2.88501310348511,2.5282769203186,2.17393517494202,10.1394443511963,7.99902772903442,8.15704536437988,-1.85703039169312,-1.73302471637726,-0.65118235349655,1.08978354930878,1.5112806558609,1.54365646839142,-2.85029721260071,-4.2235221862793,-5.66760778427124,22.8670196533203,26.1901721954346,33.5020637512207,1.96085119247437,0.14125789701939,-2.25294375419617,13.3716163635254,17.6309013366699,17.6261119842529,0.55955255031586,1.51066970825195,2.07083320617676,1.32191240787506,0.74403387308121,0.26267206668854,-7.69751310348511,-9.71764469146728,-11.0951452255249,33.1788482666016,33.1070213317871,34.5698776245117,-6.99585723876953,-12.8879880905151,-20.2166385650635,16.5678749084473,14.415488243103,10.886435508728,1.990198969841,1.8912388086319,2.08854818344116,0.43493604660034,1.14109623432159,1.203404545784,-12.583212852478,-13.2930383682251,-13.5288324356079,30.279468536377,25.8717441558838,22.0817222595215,-27.3274173736572,-30.475793838501,-32.0463905334473,11.1186723709106,12.5336456298828,13.7953901290894,2.57296442985535,3.03905463218689,3.00606775283813,0.75197511911392,0.27794370055199,-0.31887164711952,-13.599081993103,-12.954008102417,-12.03648853302,14.5950536727905,12.3205623626709,9.11472606658936,-31.9194965362549,-30.5978984832764,-29.0249080657959,12.8640460968018,9.63187313079834,7.20415306091309,2.36771368980408,1.36161863803864,0.6010913848877,-0.67317348718643,-0.65057146549225,-0.63713246583939,-11.0108461380005,-9.960768699646,-8.94917583465576,7.15387487411499,4.29040956497192,-1.0414776802063,-28.4095973968506,-29.4486808776855,-29.4055843353271,5.67904663085938,7.96790313720703,9.88326454162598,0.25900685787201,0.61514127254486,1.30053210258484,-0.62491512298584,-0.21807889640331,-0.63896507024765,-7.78364515304565,-5.46174621582031,-3.42878651618958,-7.45314979553223,-14.0874824523926,-18.2007217407227,-28.4287509918213,-26.1087703704834,-21.3299427032471,11.9805850982666,14.0084743499756,14.2287406921387,1.94560575485229,2.47339344024658,2.83930158615112,-0.73364913463593,-0.16065755486488,0.07208210229874,-1.2168436050415,0.74220126867294,2.01585531234741,-17.5590744018555,-13.5751237869263,-7.07486581802368,-16.3595809936523,-11.5352640151978,-7.88650035858154,12.9119300842285,10.965443611145,7.58483076095581,SWING_RIGHT
-0.29626965522766,-0.50518554449081,-0.5583308339119,-0.82039201259613,-0.61880648136139,-0.23518311977386,1.67987942695618,2.24859499931335,2.82097578048706,1.08217918872833,0.79966336488724,5.37019443511963,1.6903064250946,1.60172092914581,1.41018486022949,8.96628570556641,9.79946708679199,9.54568195343018,-0.60720002651215,-0.68905597925186,-0.52534413337708,-0.24068090319633,-0.65851271152496,-1.00059723854065,2.7269024848938,1.82587623596191,0.55955255031586,11.113883972168,14.9924907684326,15.9310178756714,2.52588272094727,3.80678081512451,4.10126733779907,8.98543930053711,10.9008007049561,12.5671644210815,-0.14233160018921,0.16126842796803,-0.06536258012056,-0.91324353218079,-0.5589417219162,-0.3720169365406,-0.50579643249512,-1.71958565711975,-3.97673273086548,19.1368541717529,26.8749141693115,38.8770484924316,3.67749381065369,3.89536619186401,2.99275207519531,11.9877681732178,9.09317779541016,8.26717853546143,-0.74159038066864,-1.41537475585938,-0.26022860407829,-0.20402899384499,0.65301495790482,2.32495307922363,-7.64558935165405,-10.0096378326416,-10.3700485229492,35.7621917724609,24.1143989562988,26.7982997894287,-4.38138914108276,-8.00621032714844,-9.23682975769043,9.25837802886963,18.7657527923584,20.2645225524902,1.41354215145111,2.39703512191772,2.66092896461487,2.18201065063477,0.52351152896881,0.16249015927315,-11.1482906341553,-12.4518775939941,-13.4622478485107,30.7535209655762,31.0791320800781,28.9674472808838,-14.2502889633179,-20.6739311218262,-25.5078258514404,17.74342918396,14.853627204895,12.5240688323975,2.9168815612793,3.52285981178284,4.07752561569214,1.49784159660339,1.59496915340424,0.01710422709584,-13.6815490722656,-13.9423885345459,-14.0303525924683,28.285099029541,24.0689105987549,12.4378776550293,-29.2092609405518,-32.6233940124512,-31.6824703216553,11.2503538131714,11.4323129653931,10.251971244812,3.9901716709137,2.98285508155823,1.33290791511536,-1.19424152374268,-1.34817957878113,-1.08245325088501,-13.0267009735107,-11.3028392791748,-9.57714557647705,5.70059442520142,3.96479797363281,3.35667085647583,-28.6825370788574,-25.3019237518311,-24.6866130828857,6.40448951721191,3.1196448802948,3.72537779808044,-0.23945917189121,-1.42270517349243,-1.81182634830475,-0.81917029619217,-0.62002819776535,-0.30848693847656,-8.0597562789917,-6.7018027305603,-5.32979917526245,1.25695586204529,-2.54743051528931,-8.67658710479736,-25.740062713623,-26.8342132568359,-26.1973552703857,5.29836845397949,9.05487060546875,14.5615348815918,-1.05129909515381,0.63346725702286,2.37748742103577,-0.14416420459747,-0.26145032048225,0.03604105114937,-3.6603045463562,-1.51555669307709,0.64079761505127,-15.4162645339966,-17.1496658325195,-10.5680065155029,-22.4360637664795,-17.5590744018555,-14.0204448699951,18.6053409576416,17.6189308166504,11.5065336227417,3.27790284156799,3.10624980926514,2.18934106826782,0.32681289315224,0.23212879896164,0.06414084881544,1.88818442821503,2.28524684906006,2.25653624534607,-5.4755392074585,-3.29920983314514,-3.03824186325073,-9.79946708679199,-5.04937124252319,-1.89860188961029,5.43004941940308,2.0135235786438,2.8012158870697,SWING_RIGHT
-0.25289821624756,-0.37873646616936,-0.59864795207977,0.55405479669571,0.6010913848877,-0.06536258012056,2.2913556098938,1.78739166259766,1.26388013362885,6.59841966629028,7.1419038772583,7.5465235710144,2.58094954490662,2.31279873847961,2.42293214797974,8.10437297821045,7.15148067474365,7.08683681488037,-0.93767815828323,-0.89797192811966,-0.50152039527893,-1.18752205371857,-2.04334425926209,-1.85031080245972,0.88697636127472,0.46670106053352,-0.40072759985924,9.49779796600342,16.103401184082,24.0042667388916,3.54341840744019,3.66312861442566,3.4117374420166,10.6733512878418,11.6214551925659,9.94072532653809,-0.55588740110397,-0.79045963287354,-0.76052725315094,-1.25838243961334,-1.02075576782227,-1.70981180667877,-2.12947630882263,-4.30782175064087,-5.88018894195557,26.9084320068359,24.2772045135498,25.5006427764893,4.88656568527222,5.37258863449097,1.93212080001831,11.6669445037842,14.9086942672729,15.5910415649414,-0.57726764678955,-0.58520889282227,-1.11666166782379,-1.65910995006561,-0.38728857040405,0.37934732437134,-6.9540901184082,-8.31204319000244,-9.93083667755127,29.8724536895752,32.1876487731934,33.842041015625,-1.42455005645752,-6.49068069458008,-14.8967227935791,12.7299699783325,8.56645393371582,8.85375785827637,-1.6334536075592,-1.00548422336578,0.5412266254425,0.77885317802429,1.92117118835449,2.89000344276428,-11.4653301239014,-12.5661087036133,-12.7310428619385,30.2483444213867,25.7687931060791,28.9602642059326,-21.6459770202637,-24.0665149688721,-27.2891101837158,14.401123046875,13.1250133514404,8.22168827056885,1.62917757034302,2.28280353546143,2.76416516304016,2.36099410057068,1.111163854599,-0.17165313661098,-13.2484455108643,-14.0358505249023,-14.2093362808228,27.6650009155273,20.1711502075195,11.1904983520508,-31.9554100036621,-35.1157569885254,-34.3376426696777,6.27041435241699,6.40927791595459,4.87220048904419,2.78188037872314,2.26936435699463,1.4801265001297,-0.81245076656342,-1.65300130844116,-2.42818927764893,-13.4940128326416,-11.9320306777954,-10.2100019454956,5.20260047912598,4.00549936294556,1.07499659061432,-30.7750682830811,-30.145393371582,-29.7024669647217,5.09486103057861,5.29118585586548,4.60644388198853,-0.40927970409393,-1.12704634666443,-0.78496181964874,-1.65666651725769,-1.31824719905853,-1.01159286499023,-7.69079351425171,-5.58086490631104,-3.009122133255,-5.43004941940308,-12.1338138580322,-18.4904193878174,-29.7144374847412,-28.5340957641602,-24.2149562835693,7.85298156738281,15.128960609436,19.2302284240723,0.31276300549507,1.78861343860626,2.79593014717102,-0.17837265133858,0.48808133602142,0.5283984541893,-0.12034045159817,2.09710049629211,2.91260552406311,-18.2342395782471,-10.3884410858154,-3.51229381561279,-18.5383033752441,-13.007698059082,-7.66623401641846,20.0514392852783,15.6413192749023,8.48744487762451,2.72445893287659,1.7745635509491,0.48319441080093,0.33047810196877,0.25167647004128,0.31887164711952,2.75744581222534,2.3347270488739,1.88757359981537,-0.80205756425858,-0.32321724295616,-1.25456166267395,-2.49715232849121,1.90339040756226,3.73256039619446,3.52665901184082,1.63045132160187,4.25689077377319,SWING_RIGHT
0.10567969083786,0.00305432616733,-0.48136180639267,-1.5534303188324,-0.61269783973694,-0.37018433213234,3.34937405586243,1.49723076820374,-1.66155350208282,22.1894607543945,32.4581909179688,30.9713935852051,3.97437477111816,4.92487287521362,2.35828876495361,8.77474880218506,8.11873817443848,11.1521911621094,-0.50885075330734,0.07574728876352,0.61819565296173,-0.86681777238846,-1.23211514949799,-0.40866884589195,-4.13433599472046,-5.45197248458862,-6.49044322967529,26.0106067657471,26.4870529174805,28.368896484375,0.14125789701939,-1.51074123382568,-4.71897172927856,15.0499515533447,15.1074123382568,10.9127712249756,0.47647488117218,0.54550266265869,1.55892813205719,1.07145762443542,2.40436553955078,2.52409529685974,-7.61565685272217,-8.94551086425781,-9.2765998840332,27.5788097381592,23.8773727416992,26.3505840301514,-8.4706859588623,-15.2414884567261,-21.0761566162109,9.25598335266113,12.1505737304688,10.9127712249756,2.79043245315552,3.80874490737915,3.36831092834473,2.43735241889954,1.21806526184082,-2.57724046707153,-10.247875213623,-11.6821870803833,-12.5716066360474,26.4415626525879,19.7258281707764,4.75488471984863,-28.3569240570068,-33.2363090515137,-31.9099197387695,8.78911399841309,6.55771827697754,4.14675712585449,1.9779816865921,-0.10384709388018,-1.45630276203156,-3.07387399673462,-3.03172421455383,-2.97124862670898,-12.0261039733887,-11.7579345703125,-10.9748048782349,4.21858358383179,-2.90656089782715,-19.4145812988281,-35.5874137878418,-38.5394630432129,-34.4908714294434,2.79642748832703,9.67257499694824,23.3314952850342,-0.51190507411957,1.72080743312836,2.85946011543274,-2.48316717147827,-1.35978603363037,-0.15882496535778,-8.26867198944092,-3.96146106719971,-0.43799036741257,-32.6257858276367,-26.9275856018066,-15.7634239196777,-26.4918422698975,-20.1735439300537,-15.5455513000488,28.2396087646484,20.2717056274414,12.9765729904175,2.97491383552551,2.59678816795349,2.11786985397339,0.34819319844246,0.50946164131165,0.71349060535431,1.38360977172852,2.0134117603302,1.83076310157776,-8.26957225799561,-3.36624765396118,-2.72460150718689,-10.4387197494507,-4.66151094436646,0.02394201606512,8.48265647888184,6.56011247634888,6.86417627334595,1.84053695201874,1.84786736965179,1.59863436222076,0.50152039527893,-0.25045475363731,-0.45998153090477,1.40865528583527,1.28770399093628,1.31091678142548,-4.99191045761108,-4.80276870727539,-2.76051449775696,2.82515811920166,4.69024133682251,4.96557426452637,8.01339340209961,6.40688371658325,5.15950489044189,0.36774086952209,-0.13011430203915,-0.10323622822762,0.1667662113905,0.14416420459747,0.129503428936,0.8228355050087,0.34208452701569,0.13805554807186,-0.46208092570305,-2.78445649147034,-3.76847338676453,4.8602294921875,4.92726707458496,4.29280376434326,6.16028118133545,9.35654067993164,10.5991306304932,0.27244588732719,0.79107052087784,0.66523224115372,0.23945917189121,0.10751228034496,-0.04031710699201,0.1685988008976,0.38423424959183,0.39889499545097,-4.12760353088379,-3.33272886276245,-2.59292054176331,3.81396341323853,3.96000957489014,3.86663579940796,9.95987892150879,7.16345167160034,6.20816516876221,SWING_RIGHT
-0.30604347586632,-0.68905597925186,-1.11482906341553,0.29138273000717,0.7922922372818,0.62186080217361,1.86374986171722,2.56257963180542,3.05860233306885,-0.3016694188118,1.11330378055573,6.90248346328735,1.63523972034454,1.20188927650452,0.61052143573761,5.81551599502563,6.447585105896,7.20175886154175,-1.32191240787506,-1.25044119358063,-0.92057394981384,0.00794124789536,-0.42882740497589,-0.28283059597015,2.80570411682129,1.34268176555634,-0.50640726089478,15.5168209075928,17.2095222473145,11.566388130188,1.52510643005371,1.60890352725983,2.43011474609375,10.0412817001343,12.1481790542603,13.2997903823853,-0.62919121980667,-0.29688051342964,0.07635815441608,0.08185594528913,0.15821409225464,0.1685988008976,-1.40071403980255,-1.37261426448822,-1.82648706436157,10.3046445846558,16.2805709838867,22.503101348877,2.71741890907288,3.48835182189941,4.11084413528442,14.3149318695068,14.9062995910645,13.9246768951416,0.26878070831299,0.48808133602142,0.78374010324478,0.13805554807186,-0.1667662113905,-0.19792033731937,-3.20337724685669,-5.60407781600952,-6.68775272369385,24.3394546508789,22.9196929931641,23.2405166625977,2.2864625453949,-1.16597628593445,-4.07253694534302,14.5735054016113,15.6676559448242,17.2286758422852,1.42270517349243,2.19728231430054,2.84846472740173,0.00549778714776,-0.20708331465721,-1.6890424489975,-7.78120136260986,-8.94795417785645,-10.3529443740845,23.1974201202393,24.2580509185791,24.0952453613281,-8.64306831359863,-14.2143754959106,-19.1679782867432,17.2071285247803,16.3763389587402,16.8336315155029,3.50270128250122,3.16367101669312,1.81549155712128,-2.83685827255249,-3.01706337928772,-3.06532168388367,-11.6925716400146,-12.9863843917847,-12.7811336517334,21.981164932251,14.2119808197021,11.8058090209961,-23.9204692840576,-27.2388324737549,-27.1143341064453,15.4665431976318,6.49068069458008,8.0924015045166,0.80328780412674,0.23273965716362,-0.28283059597015,-3.09342169761658,-3.01828527450562,-2.25959062576294,-12.2997713088989,-11.6229333877563,-9.09456157684326,7.48427438735962,3.65594601631165,-10.3237981796265,-27.8709011077881,-30.6194458007813,-28.5939502716064,11.4921684265137,12.8401041030884,18.1336841583252,0.12828169763088,0.56810468435287,1.40071403980255,-1.44103109836578,-0.61514127254486,0.41233405470848,-6.80198431015015,-1.40376830101013,1.98225772380829,-17.9086284637451,-20.7912483215332,-12.3349275588989,-24.6147880554199,-15.2079696655273,-6.17704057693481,16.4505596160889,16.9078521728516,12.5911064147949,1.68965327739716,1.70370316505432,1.19912850856781,0.32131510972977,0.40011674165726,0.17104226350784,2.72323727607727,2.60839462280273,1.96209919452667,-6.04296493530273,-0.23942017555237,-0.92176765203476,-3.56975483894348,1.00077629089355,2.06859016418457,10.2495775222778,7.80749177932739,6.43321990966797,0.78251838684082,0.37323865294456,0.18875735998154,0.15454891324043,0.40927970409393,0.64568454027176,1.74829638004303,1.67499256134033,1.75990271568298,-1.93690919876099,-3.56496644020081,-2.48757553100586,2.3319525718689,3.47877502441406,3.51229381561279,6.41167211532593,7.72130060195923,8.37012958526611,SWING_RIGHT
-0.33231070637703,-0.60597831010818,-0.8662069439888,0.64629542827606,0.28344148397446,0.23212879896164,1.62917757034302,1.59008228778839,1.29198002815247,1.63763391971588,3.95043277740479,3.48595762252808,2.74614930152893,2.28885674476624,2.2361843585968,6.90487766265869,7.50342798233032,8.72207641601563,-0.96577793359756,-0.8906415104866,-0.8356636762619,0.657290995121,0.92668259143829,0.73853605985641,1.1423180103302,1.34756875038147,1.7256942987442,1.08936178684235,0.07182604819536,1.46046304702759,2.91853189468384,3.01429986953735,2.52109432220459,9.54807662963867,9.19134044647217,7.97508573532104,-0.95905846357346,-1.13926362991333,-1.23822391033173,0.25167647004128,-0.05803219974041,0.14660765230656,1.94621670246124,1.80999374389648,1.46668744087219,3.62003302574158,5.50426959991455,5.15232229232788,3.10767388343811,3.21541285514832,3.01429986953735,7.48427438735962,8.10676670074463,8.89445972442627,-1.22234129905701,-1.26510190963745,-1.3078625202179,0.38606682419777,0.14844025671482,-0.27611109614372,1.33596229553223,1.36711645126343,0.36346483230591,5.60482597351074,14.0850887298584,22.1415767669678,3.11246228218079,3.90254878997803,4.67108774185181,8.97107410430908,9.32302188873291,11.3987941741943,-1.14537239074707,-0.80328780412674,-0.28283059597015,-0.53695052862167,-0.34574973583221,-0.20402899384499,-1.67987942695618,-2.88450574874878,-3.95901775360107,18.6221008300781,20.2980422973633,29.953857421875,5.61200857162476,6.67742872238159,5.46596240997314,13.5990657806396,15.8663749694824,14.7554655075073,-0.10262536257505,0.14049901068211,1.0800096988678,-0.33658674359322,-0.63163465261459,-0.06108652427793,-6.22044086456299,-8.66878890991211,-9.91922950744629,32.5348052978516,26.8964614868164,23.082498550415,2.36786556243896,-2.36547136306763,-5.74129581451416,17.305290222168,22.3235359191895,21.4328937530518,2.16429567337036,2.71896123886108,2.81059098243713,1.04702305793762,0.2981022298336,-0.10262536257505,-10.3260660171509,-11.971736907959,-12.2765588760376,28.0696201324463,24.7321033477783,21.1503772735596,-12.2247934341431,-23.9922943115234,-26.4966297149658,15.6221656799316,11.7986259460449,9.82580375671387,2.87045574188232,2.82158660888672,2.1789562702179,-0.25717425346375,-0.86742866039276,-1.3567316532135,-12.1769876480103,-11.4970951080322,-10.7597808837891,15.5335807800293,12.8209505081177,9.34456920623779,-25.5389499664307,-23.7840003967285,-21.380220413208,8.24084186553955,4.4532151222229,3.52665901184082,1.2156218290329,0.01649336144328,-0.91141092777252,-1.90040183067322,-1.86802589893341,-1.55220854282379,-9.92167377471924,-9.25338649749756,-8.55638980865479,8.62870311737061,5.28400325775146,-6.14591598510742,-22.2325572967529,-26.9563159942627,-28.9267444610596,3.04542446136475,6.35899972915649,14.5423812866211,-0.81306165456772,0.06902777403593,1.0378600358963,-1.46974182128906,-1.21378922462463,-0.56871557235718,-6.98218965530396,-4.63096952438354,-2.30540537834167,-14.2718362808228,-16.0291805267334,-13.8217267990112,-26.9850482940674,-23.5469741821289,-19.8096256256104,19.0889701843262,18.9525012969971,17.1305122375488,SWING_RIGHT
-0.47403141856194,-0.54611355066299,-0.45570546388626,0.11850785464048,-0.16065755486488,-0.43921211361885,0.31398472189903,0.28221973776817,0.61880648136139,0.81163436174393,0.83078801631927,9.19852256774902,5.70777702331543,5.60961437225342,8.63109683990479,8.40364837646484,9.6989107131958,12.6677207946777,-0.26816985011101,0.11423180252314,0.43921211361885,-0.70860368013382,-0.95661497116089,-1.52410876750946,0.31948253512383,-1.14720487594604,-3.00484609603882,18.3084602355957,21.9739837646484,25.7304859161377,9.897629737854,10.8409452438354,11.2766895294189,14.2646541595459,13.3572511672974,12.3468980789185,0.53756141662598,0.34941491484642,0.13439035415649,-2.06961154937744,-1.78555905818939,-0.35124751925468,-4.7280969619751,-6.81236934661865,-8.48308563232422,30.9282970428467,29.0943393707275,26.8677310943604,9.17218685150146,4.14196872711182,-1.26892685890198,10.7763013839722,9.86411094665527,9.09557247161865,0.19058994948864,0.15149457752705,-0.41294491291046,0.00855211354792,-0.58704149723053,-0.22174409031868,-9.54599094390869,-10.2460432052612,-11.4274559020996,26.9682884216309,28.8836498260498,21.8901863098145,-5.96395635604858,-12.0548057556152,-19.7856826782227,7.87931776046753,6.97191524505615,10.0412817001343,-0.26511552929878,-0.05314527451992,0.18081611394882,-0.23701570928097,-0.34330627322197,-0.81183993816376,-11.2955093383789,-10.9888553619385,-10.550253868103,18.9141941070557,14.7865896224976,15.1385374069214,-21.5980930328369,-22.8263187408447,-26.3960742950439,10.4961805343628,11.5759649276733,10.9199542999268,0.30176743865013,0.69455379247665,1.0622946023941,-1.20829141139984,-1.42087256908417,-1.36284041404724,-10.5661363601685,-9.87402629852295,-7.3273286819458,10.0221281051636,-6.06930112838745,-17.2885303497314,-33.5786781311035,-33.1381454467773,-28.206090927124,12.3085908889771,14.3819694519043,11.8512983322144,0.93706727027893,1.94316232204437,2.58457088470459,-0.88208943605423,-0.73426002264023,-0.70188415050507,-4.05492353439331,-0.14477506279945,1.45141577720642,-15.907075881958,-16.3763389587402,-12.5887126922607,-26.3793144226074,-16.3093013763428,-10.4219598770142,12.6461734771729,13.5511817932129,9.92157173156738,2.66398334503174,2.16612815856934,1.34573614597321,-0.3805690407753,-0.11667526513338,-0.10262536257505,2.57846212387085,3.05493712425232,2.89489030838013,-7.10359621047974,-1.86508309841156,2.4899697303772,-5.22175407409668,-1.30723416805267,1.30962836742401,6.1291561126709,3.94564437866211,3.51468801498413,0.51434850692749,0.14110986888409,0.21563543379307,-0.0598647929728,-0.06841690838337,-0.23457226157188,2.24920582771301,1.73119211196899,1.64261662960052,1.90578460693359,-1.15879356861115,-2.95683908462524,2.47560453414917,1.97761058807373,1.82917010784149,6.35181713104248,9.44512557983398,10.9534730911255,0.46670106053352,0.57726764678955,0.65790188312531,-0.23945917189121,-0.07941248267889,-0.21319197118282,1.80327415466309,1.69637274742126,1.07695543766022,-0.7182605266571,2.75333189964294,0.87148940563202,2.57855534553528,2.00873517990112,0.88346040248871,9.94790840148926,9.14585018157959,9.89044761657715,SWING_RIGHT
-0.35430184006691,-0.6010913848877,-0.8533787727356,-0.129503428936,-0.04886921867728,0.05742133408785,0.17470745742321,-0.1924225538969,-0.97616267204285,6.51462268829346,9.74918937683106,11.8920001983643,6.33745193481445,6.18661737442017,5.9902925491333,7.3885064125061,7.5465235710144,8.73644161224365,-0.92301738262177,-0.71593403816223,0.25473082065582,0.01710422709584,-0.08735372871161,-0.71226888895035,-1.93094503879547,-2.72140455245972,-4.64990615844727,11.7938375473022,14.0300216674805,21.7513217926025,6.81150388717651,6.76361989974976,5.02303504943848,10.6039190292358,12.8472862243652,12.7299699783325,0.46425759792328,0.25228735804558,-0.13683381676674,-0.56077426671982,0.16493362188339,0.59559363126755,-5.94127559661865,-7.27907037734985,-8.17459869384766,24.9763126373291,22.9556064605713,21.7656879425049,1.70467162132263,-1.64002811908722,-2.61446833610535,10.0771951675415,8.99501609802246,10.6015253067017,-0.30298915505409,-0.39889499545097,-0.50335294008255,0.73181658983231,1.16064393520355,1.31397116184235,-8.69505596160889,-9.51911354064941,-10.8550758361816,25.5964107513428,30.7630977630615,28.6801414489746,-4.10126733779907,-8.77953720092773,-15.2175464630127,10.2807016372681,9.45709705352783,11.8393278121948,-0.05681046843529,1.13865280151367,3.85761404037476,1.33535146713257,1.35550999641418,-0.5705481171608,-11.8116903305054,-11.9411935806274,-10.856297492981,22.4552173614502,17.2621936798096,12.2846488952637,-19.4193706512451,-20.5278854370117,-28.4598751068115,15.0954418182373,15.9693250656128,15.8807401657104,4.50818538665771,3.56623125076294,1.63711881637573,-2.5002715587616,-2.89916634559631,-1.73546814918518,-10.075611114502,-9.60707759857178,-9.02248001098633,14.1329727172852,12.8329210281372,3.17231726646423,-32.0918807983398,-33.2626457214355,-30.5380420684814,9.71567058563232,5.8514289855957,9.60793113708496,0.42516219615936,0.73242741823196,1.45202672481537,-0.59498274326324,-0.657290995121,-0.68966686725616,-7.61626768112183,-5.09705972671509,-2.36038327217102,-9.05726528167725,-14.3819694519043,-12.0093154907227,-26.6354942321777,-22.5701389312744,-18.8040599822998,16.7689895629883,17.1161479949951,13.9965028762817,1.85275423526764,2.15452170372009,2.12092423439026,0.20647245645523,0.49846604466438,0.07391469180584,-0.39828413724899,0.94073247909546,1.87535631656647,-10.4387197494507,-9.0668420791626,-6.88093566894531,-15.2007865905762,-11.1904983520508,-7.43639039993286,11.9805850982666,9.01656341552734,6.94557905197144,1.75929188728333,1.24372160434723,0.52900928258896,-0.17287486791611,-0.08063421398401,0.15638150274754,2.41108512878418,2.64199209213257,2.67803335189819,-4.85783529281616,-3.16513466835022,-1.73340201377869,-4.23773717880249,-2.24576115608215,-1.07260239124298,6.32069253921509,5.82988119125366,6.16028118133545,-0.75319683551788,-0.73609262704849,-0.48075094819069,0.52656584978104,0.51251596212387,0.29688051342964,2.39886784553528,2.13863921165466,1.73424637317657,-0.75177931785583,0.02633621916175,0.21547815203667,0.04070143029094,0.01197100803256,-0.28251579403877,11.0588178634644,11.8896055221558,11.9087591171265,SWING_RIGHT
-0.21135938167572,0.07819075137377,0.5839871764183,-2.20033669471741,-1.57419979572296,-0.38851028680801,-1.86374986171722,-3.7415497303009,-5.41470956802368,28.3186168670654,28.8213996887207,27.2268619537354,7.08444261550903,4.20182418823242,0.82839381694794,14.7147636413574,15.3252849578857,13.0220632553101,0.79351395368576,0.69394290447235,0.59803706407547,-0.18020524084568,-0.36407569050789,-0.22968533635139,-6.67431354522705,-7.80380344390869,-8.73109722137451,27.3058700561523,26.3984680175781,24.6985855102539,-3.93367338180542,-9.64384460449219,-14.7865896224976,11.4083709716797,11.4418897628784,12.619836807251,0.91507613658905,1.31641459465027,1.35062301158905,-0.2101376503706,-0.76663589477539,-1.27487576007843,-9.38105773925781,-9.7952241897583,-10.1605215072632,21.9141273498535,20.8774394989014,20.5661926269531,-18.4401416778564,-20.9013805389404,-23.9970836639404,12.0069217681885,10.6063137054443,9.13866806030273,0.59620445966721,0.26022860407829,-0.08918632566929,-1.68415546417236,-2.1789562702179,-2.14108276367188,-11.1684494018555,-10.9314336776733,-10.2368793487549,9.32062721252441,5.14513921737671,4.12999773025513,-28.2228488922119,-27.9834289550781,-31.2371501922607,10.2711248397827,10.8265800476074,9.48103904724121,-0.65362578630447,-1.20829141139984,-1.07451200485229,-1.54854345321655,-1.15881133079529,-1.70797920227051,-9.74024677276611,-9.2765998840332,-8.52828979492188,-1.46046304702759,-7.69735860824585,-14.7578592300415,-32.5300178527832,-32.3672142028809,-29.7671089172363,9.96945571899414,13.9965028762817,17.1544551849365,-0.42943826317787,0.5839871764183,1.86191725730896,-2.27119708061218,-1.90956473350525,-1.26204764842987,-7.20576620101929,-4.8661527633667,-1.8600846529007,-22.6802730560303,-26.070463180542,-20.5422496795654,-22.8718090057373,-15.9741134643555,-11.3173913955688,19.682731628418,20.0753803253174,15.2103633880615,2.7892107963562,2.45262384414673,1.31030595302582,-0.59376102685928,0.08491026610136,0.42882740497589,0.77518796920776,2.52043008804321,2.36221599578857,-11.1210670471191,-1.86508309841156,0.09337386488914,-7.65426301956177,-3.98155736923218,-0.19393034279346,8.67179870605469,3.55778384208679,2.25294375419617,0.12705996632576,-0.47708576917648,-0.57299160957336,0.58032196760178,0.78251838684082,1.24494338035584,2.05372905731201,1.87535631656647,2.026850938797,-0.59136784076691,-2.3247697353363,-3.96000957489014,2.11408019065857,2.06619596481323,0.33518823981285,5.62876796722412,9.0452938079834,12.2822551727295,-0.20158553123474,0.14844025671482,0.22968533635139,1.40071403980255,1.13559854030609,1.02136671543121,2.33228349685669,2.33594870567322,2.0580050945282,-2.74136090278625,-0.46686932444572,-1.4484920501709,-0.42377370595932,0.03591302409768,0.1723825186491,12.7898254394531,10.8050327301025,12.2271881103516,0.63835418224335,1.21989786624908,1.40315747261047,0.9211847782135,0.50029861927032,0.1991420686245,2.01524448394775,2.36832451820374,2.43735241889954,-4.48433971405029,-2.92810869216919,0.6703764796257,-0.4764461517334,-1.12288057804108,-0.25139117240906,13.6637086868286,10.8505220413208,8.62870311737061,SWING_RIGHT
-0.67073005437851,-1.12521374225616,-1.31702542304993,-0.38117989897728,-0.3158173263073,-0.2119702398777,1.81671321392059,2.29196643829346,2.05006384849548,-0.29927521944046,3.7541081905365,8.72447109222412,1.06063139438629,1.85311210155487,2.14041638374329,6.10042572021484,7.40287160873413,9.7180643081665,-1.22234129905701,-1.06168377399445,-0.77885317802429,-0.12644910812378,-0.29077184200287,-0.12034045159817,1.19301986694336,0.54733526706696,0.34269541501999,9.53849983215332,7.92001914978027,12.6318082809448,2.58573794364929,3.56017804145813,4.5920786857605,11.0205106735229,12.7826433181763,13.6804685592651,-0.60597831010818,-0.5839871764183,-0.16432274878025,0.54244834184647,0.5711590051651,0.36224308609962,-0.68966686725616,-3.29012012481689,-4.880202293396,25.8789253234863,23.9515933990479,16.4553489685059,5.03979444503784,4.17309379577637,4.39575433731079,12.9813613891602,15.9884786605835,19.3427562713623,0.58520889282227,1.0134254693985,1.28587138652802,0.62002819776535,0.92484998703003,0.6872233748436,-5.02009057998657,-6.2106671333313,-8.44948768615723,24.2724170684814,33.875560760498,28.7902755737305,4.42209053039551,0.13646949827671,-4.50109910964966,17.1257247924805,14.9733371734619,15.2893724441528,1.98409032821655,2.08305048942566,2.0201313495636,1.13559854030609,1.52288711071014,1.46974182128906,-10.5026063919067,-11.3266630172729,-12.2173051834106,30.2651042938232,32.1996192932129,28.2779159545898,-14.8344736099243,-20.8151893615723,-26.2667865753174,12.4666080474854,10.4554786682129,11.2383823394775,2.31640100479126,3.54240751266479,4.16793346405029,1.31580376625061,0.75808376073837,0.18448130786419,-12.6253633499146,-12.6113128662109,-11.6192674636841,23.3171310424805,14.6213893890381,4.50828170776367,-32.4294624328613,-36.3703193664551,-32.1253967285156,16.4194355010986,14.6285724639893,6.55292987823486,3.12335395812988,1.93949711322784,1.2712105512619,0.27183502912521,0.23396138846874,-0.31948253512383,-9.81843662261963,-8.35846900939941,-6.58634901046753,1.40300214290619,-7.46751499176025,-13.8289089202881,-33.3296813964844,-31.9554100036621,-28.7112674713135,5.23851346969604,7.41723680496216,10.3453454971313,1.28281700611115,1.93949711322784,2.75988912582397,-0.28466320037842,-0.29993483424187,-0.64568454027176,-4.56499576568604,-2.61633586883545,-0.92057394981384,-16.7546234130859,-17.142484664917,-16.0435447692871,-24.7704105377197,-21.2868480682373,-16.7618064880371,12.3828115463257,12.4953384399414,8.84178733825684,3.01523089408875,2.80875849723816,2.4678955078125,-0.84910267591476,-0.72570788860321,-0.69394290447235,0.43982297182083,1.45385932922363,2.14291524887085,-13.6277961730957,-11.2623243331909,-7.24964284896851,-12.0141038894653,-7.72369480133057,-4.36223554611206,5.98550415039063,5.14274501800537,4.35984134674072,2.00302720069885,1.21317839622498,0.15882496535778,-0.7183775305748,-0.49541172385216,-0.06902777403593,2.34388995170593,2.21133208274841,2.02501821517944,-4.33111095428467,-3.7541081905365,-3.99831676483154,-2.06380176544189,-0.61052143573761,-0.1268926858902,3.15316367149353,3.19865345954895,6.03099393844604,SWING_RIGHT
-0.40866884589195,-0.40194934606552,-0.18570303916931,0.6878342628479,0.2981022298336,-0.03848451003432,1.76967656612396,1.93277764320374,1.79960906505585,-0.37349545955658,1.98718738555908,3.00232887268066,2.91853189468384,2.75812029838562,2.93768548965454,8.927978515625,10.0005807876587,8.29351425170898,-0.30848693847656,-0.61269783973694,-0.54855698347092,0.14966198801994,0.53267449140549,0.2461786866188,1.59130394458771,1.52166533470154,1.48440253734589,2.35828876495361,1.1947066783905,4.78600931167603,3.14119267463684,3.24893164634705,4.15872812271118,7.56088876724243,8.65264511108398,9.66778659820557,-0.34513887763023,-0.30909782648087,-0.27733281254768,0.10995574295521,0.17898350954056,-0.21746802330017,1.02258837223053,0.76541417837143,1.6701055765152,3.87381839752197,0.52911859750748,11.3844289779663,4.25928497314453,5.832275390625,9.17218685150146,8.69095230102539,8.40843677520752,10.2950668334961,0.10323622822762,0.35430184006691,0.44348818063736,-0.46242499351501,-1.16064393520355,-1.75318324565887,0.80573123693466,-0.82222461700439,-1.84481298923492,17.8368034362793,17.413028717041,19.8455371856689,10.0771951675415,10.010157585144,9.51934623718262,9.88565921783447,10.3118267059326,11.4418897628784,0.55955255031586,-0.81550508737564,-1.40865528583527,-1.6157386302948,-0.80206608772278,-0.36102136969566,-2.77760434150696,-5.71158981323242,-6.89483594894409,24.7823810577393,28.3593196868896,28.6538066864014,7.97029733657837,0.64643448591232,-4.33829355239868,8.85854625701904,11.0564231872559,19.2134685516357,-0.77152281999588,1.15148103237152,2.75744581222534,-0.89980453252792,-1.07329022884369,-0.00061086524511,-7.88443756103516,-8.82639217376709,-9.76773548126221,29.3409423828125,31.263484954834,31.4789638519287,-8.91840171813965,-14.0060796737671,-20.2836761474609,25.8214645385742,20.4153575897217,12.4881563186646,3.22353601455688,3.18321871757507,2.63221836090088,-0.7006624341011,-2.9657506942749,-4.14288806915283,-10.8892841339111,-11.9509677886963,-12.1342267990112,26.8773078918457,17.6356887817383,10.060435295105,-24.8973026275635,-26.745626449585,-26.5660629272461,11.1186723709106,10.704475402832,3.40216064453125,0.66706484556198,-1.57969748973846,-2.62183356285095,-3.16428208351135,-1.66338610649109,-1.41476392745972,-11.0780410766602,-9.68587970733643,-8.88564586639404,7.1227502822876,7.06528902053833,8.34379291534424,-24.8973026275635,-25.3354415893555,-30.0113182067871,1.7788919210434,8.77474880218506,16.6923751831055,-2.32678580284119,-1.31336033344269,1.08428585529327,-1.76845490932465,-1.14781582355499,-0.34941491484642,-8.91863250732422,-8.51668357849121,-3.70550847053528,0.96007490158081,-13.1896572113037,-22.7760410308838,-31.8859786987305,-29.1518001556396,-21.4664115905762,19.9508819580078,20.7936420440674,16.3476085662842,1.71653139591217,1.99814021587372,2.11603713035584,-0.36163222789764,0.16310101747513,0.39950588345528,-0.93584555387497,1.00853848457336,2.27302956581116,-18.7178688049316,-14.1425495147705,-6.72291851043701,-17.171215057373,-12.2391586303711,-8.01099872589111,12.8927764892578,10.5081510543823,7.62792682647705,SWING_RIGHT
-0.02138028293848,0.14233160018921,-0.00916297826916,0.25289821624756,0.12156218290329,-0.09040805697441,1.46302223205566,1.78983521461487,1.41109871864319,-0.34237083792686,6.31590414047241,7.97987413406372,2.61686253547669,2.20027136802673,1.99676418304443,8.36294651031494,6.54095888137817,4.7907977104187,-0.59009581804276,-1.75501585006714,-1.77517437934875,-0.18753562867641,0.7177666425705,0.97982788085938,0.63652157783508,0.75502943992615,0.7611380815506,4.5226469039917,5.79636240005493,9.30147361755371,2.77009129524231,3.36864185333252,4.76924991607666,6.20816516876221,11.3652753829956,14.937424659729,-1.20157194137573,0.36529740691185,1.0378600358963,0.63346725702286,-0.54305922985077,-0.62247169017792,0.09040805697441,-1.0800096988678,-1.73363554477692,9.20809936523438,13.3380975723267,18.4592952728271,5.90410137176514,6.34463453292847,6.42364311218262,16.2302932739258,16.6492786407471,15.9405946731567,1.47523951530457,1.60718643665314,1.18874371051788,-0.94012159109116,-1.43736588954926,0.19608774781227,-2.91993594169617,-4.43549251556396,-7.29495286941528,23.5541572570801,26.1159515380859,28.4048080444336,6.1890115737915,4.49152231216431,-3.31596946716309,15.2367000579834,14.7434940338135,13.1585321426392,0.85460048913956,1.2156218290329,1.80388510227203,0.5155702829361,-0.00366519158706,-0.21258109807968,-8.41039276123047,-9.81049537658691,-10.5184888839722,29.3146057128906,26.2308731079102,26.5588798522949,-10.0077629089355,-15.828067779541,-21.4113464355469,17.2238864898682,17.2143096923828,15.3181028366089,2.09526777267456,2.36282682418823,2.4813346862793,-0.66828656196594,-1.62734496593475,-2.01829886436462,-10.7261829376221,-11.5447425842285,-11.7909212112427,26.1398944854736,20.0729866027832,14.6189956665039,-27.2292556762695,-30.5117073059082,-34.6656455993652,15.0116443634033,14.3101434707642,14.3269033432007,2.5112669467926,2.35671806335449,1.72202908992767,-2.41963720321655,-2.07755279541016,-1.69270753860474,-11.7176170349121,-11.0566606521606,-9.33341026306152,8.10916137695313,-1.75255560874939,-10.3908357620239,-37.1077308654785,-37.1675872802734,-33.0016746520996,14.0659351348877,11.4801969528198,8.57363605499268,0.57421332597733,-0.00610865233466,0.77091193199158,-0.90774577856064,0.07147123664618,-0.33414328098297,-6.91438388824463,-4.64501953125,-2.82158660888672,-14.9326362609863,-17.1233310699463,-19.0985469818115,-28.9482936859131,-26.2596035003662,-21.6483726501465,9.27992534637451,15.0284042358398,16.3763389587402,2.39031577110291,2.56991004943848,2.42024803161621,-0.60475659370422,-0.36407569050789,-0.26083946228027,0.39217549562454,1.49356555938721,2.22171688079834,-13.7139873504639,-10.1921167373657,-6.82826328277588,-11.4011888504028,-6.93839645385742,-2.56179571151733,10.5799770355225,7.76439619064331,5.16668748855591,1.8912388086319,1.1612548828125,0.56077426671982,-0.08307767659426,0.22968533635139,0.30543261766434,2.58701419830322,2.46972823143005,2.18017816543579,-2.4013843536377,-0.63446342945099,-1.73340201377869,-0.04070143029094,1.54665434360504,3.3423056602478,3.76607918739319,4.40054273605347,6.31111574172974,SWING_RIGHT
0.61880648136139,0.04031710699201,-0.8600982427597,-1.44591808319092,-0.38728857040405,0.42638394236565,1.89795827865601,2.11664795875549,2.51737570762634,2.91853189468384,1.6903064250946,4.33350515365601,2.88022470474243,2.44447994232178,2.69108271598816,6.79235029220581,4.61841487884521,5.15711069107056,-1.50578284263611,-1.65727746486664,-1.37933373451233,0.30848693847656,-0.08796459436417,-0.07696902006865,2.41475033760071,1.76295709609985,0.97310835123062,7.85298156738281,10.3166151046753,9.68694019317627,3.72298359870911,4.04141235351563,4.26167917251587,7.44117879867554,10.1801452636719,11.0133275985718,-1.00426244735718,-0.45692721009254,-0.39522981643677,0.14355333149433,-0.6450737118721,-1.26510190963745,0.61208695173264,-0.99326688051224,-2.40375471115112,9.78989028930664,19.1320667266846,16.5535106658936,4.67587614059448,4.81234550476074,3.49074602127075,11.3964004516602,10.405200958252,11.6621561050415,-0.097127571702,0.43676865100861,0.25961771607399,-1.86802589893341,-2.28280353546143,-2.03112697601318,-2.87534260749817,-3.01828527450562,-3.94435691833496,16.783353805542,22.1080589294434,27.4231853485107,2.6431987285614,2.38941335678101,-0.105344876647,13.0029096603394,9.47625064849854,4.97993946075439,-1.54365646839142,-1.40743350982666,-1.07634460926056,-0.81489425897598,-0.54428094625473,0.5839871764183,-6.18256711959839,-7.36398029327393,-9.20635032653809,28.9195613861084,32.9968872070313,36.2625770568848,-4.55137729644775,-8.16901588439941,-17.1376953125,10.8289747238159,11.9781913757324,6.69897651672363,-1.38483154773712,-1.15636789798737,0.15332718193531,1.7757853269577,2.08427214622498,1.34023833274841,-11.4604425430298,-13.1519289016724,-13.4182662963867,31.1916599273682,19.766529083252,11.6094837188721,-27.3154468536377,-32.8005638122559,-34.6752243041992,8.01099872589111,12.7203931808472,13.3237323760986,1.39521622657776,0.90652400255203,-0.19303341209888,-0.36163222789764,-1.51494586467743,-0.69699722528458,-12.8128986358643,-11.0316152572632,-9.82760047912598,5.96874475479126,-1.6448165178299,-12.9622077941895,-33.4685440063477,-34.7374725341797,-31.6896533966064,9.51695156097412,4.54898309707642,6.93600225448608,-0.87475901842117,-0.51190507411957,1.22600650787354,-0.53328537940979,-0.68539083003998,-0.21685716509819,-7.43911695480347,-4.54789161682129,-0.32192599773407,-19.7904720306396,-20.6523838043213,-15.4497833251953,-27.4279747009277,-22.7664642333984,-15.2199401855469,12.5671644210815,14.7051868438721,11.9494609832764,1.88024318218231,2.05922675132751,1.73668992519379,-0.43676865100861,-0.56260687112808,-0.52045720815659,1.06962502002716,2.02624011039734,2.49110841751099,-11.3126029968262,-7.09641361236572,-2.83473491668701,-10.2854900360107,-5.564124584198,-2.01591777801514,8.9471321105957,5.95437955856323,4.58250188827515,1.111163854599,0.21991148591042,-0.39461895823479,-0.31642818450928,0.11606439948082,0.68600165843964,2.42391324043274,2.0323486328125,1.58091926574707,0.03830722719431,0.72544312477112,-1.43652105331421,0.54108959436417,1.9249382019043,2.82515811920166,3.81156921386719,6.19140577316284,9.2033109664917,SWING_RIGHT
0.11606439948082,-0.64079761505127,-1.16980695724487,-0.40866884589195,0.18936823308468,0.16126842796803,0.99204516410828,0.73487091064453,0.4758640229702,6.38773012161255,7.45075559616089,10.9941740036011,4.49870491027832,5.2672438621521,5.96156215667725,5.13556241989136,6.5361704826355,8.87769985198975,-1.26082587242126,-1.21989786624908,-1.07817721366882,0.32192599773407,0.99143427610397,1.17774820327759,-0.1795943826437,-1.0867292881012,-2.03295946121216,12.8329210281372,13.3716163635254,13.1250133514404,5.8825535774231,5.2863974571228,4.86501789093018,9.7396125793457,10.6302556991577,13.283031463623,-0.56199604272842,0.17409659922123,0.66706484556198,0.70310592651367,0.01099557429552,-0.05192354694009,-2.78859972953796,-3.17222332954407,-3.95840668678284,12.8424978256226,16.5606937408447,21.5238723754883,5.2672438621521,4.94642066955566,3.02866506576538,15.5168209075928,14.4777374267578,13.5679407119751,0.92057394981384,1.05129909515381,1.06840336322784,-0.11117747426033,-0.51068335771561,-0.62919121980667,-5.30047750473022,-6.59612274169922,-7.53685522079468,22.5390148162842,22.2277679443359,23.6451358795166,0.38546648621559,-2.56179571151733,-5.86100578308105,13.6373729705811,14.1712799072266,15.2534589767456,1.13254415988922,1.40987694263458,1.78433740139008,-0.33536502718925,0.13133603334427,0.39889499545097,-8.46659183502197,-9.7952241897583,-10.74267578125,27.3513603210449,25.1534824371338,21.4281044006348,-10.75954246521,-16.8647575378418,-22.2588939666748,16.1919860839844,15.8567981719971,15.1385374069214,2.17834544181824,2.702467918396,3.06654357910156,0.8356636762619,0.7000515460968,-0.09651670604944,-11.2606897354126,-11.4146280288696,-11.0725431442261,17.7913131713867,12.5863180160522,8.57842445373535,-27.5452899932861,-29.9394931793213,-28.9219570159912,13.6828622817993,12.0380458831787,8.60715484619141,2.9236011505127,2.07205486297607,1.23761296272278,-0.81550508737564,-0.81306165456772,-0.75625115633011,-10.3633289337158,-9.81416130065918,-9.19229984283447,6.79713869094849,0.41180267930031,-9.81862163543701,-27.8661136627197,-29.3816432952881,-28.0672264099121,3.85945320129395,4.21618938446045,7.11556768417358,0.81061816215515,0.59070670604706,0.54244834184647,-1.27670836448669,-1.3634512424469,-1.20951318740845,-7.76409721374512,-6.16301965713501,-4.24612426757813,-13.6589202880859,-18.1983280181885,-19.9413051605225,-26.7097148895264,-24.4615592956543,-20.5949230194092,8.92079544067383,10.8170032501221,10.6278610229492,0.4673119187355,0.79107052087784,1.49600899219513,-1.11299645900726,-0.81489425897598,-0.73792523145676,-2.12947630882263,-0.14782938361168,1.26815629005432,-18.997989654541,-13.5775175094604,-7.09880781173706,-15.8615865707397,-11.1450090408325,-7.09641361236572,13.2471179962158,13.4362602233887,9.9000244140625,1.82221102714539,1.68598806858063,1.20706975460052,-0.46670106053352,-0.21685716509819,-0.15699236094952,1.75868105888367,1.87108027935028,1.80510675907135,-4.57292509078979,-2.91374349594116,-1.10612118244171,-3.2082302570343,0.00478840339929,1.70706582069397,7.40047740936279,5.55454778671265,4.97993946075439,SWING_RIGHT
-0.69211030006409,-0.73487091064453,-0.55038958787918,-1.13315498828888,-1.55526292324066,-1.31641459465027,-2.9290988445282,-4.06103229522705,-4.555832862854,21.0019378662109,19.2374114990234,20.0753803253174,7.71890640258789,6.46913290023804,5.17387008666992,9.53610515594482,12.1984577178955,15.2031812667847,0.04459316283464,1.13682019710541,1.95660138130188,-1.36161863803864,-2.35549640655518,-3.38846945762634,-4.89730644226074,-5.59613656997681,-6.82825183868408,23.5924644470215,28.7352085113525,30.2172203063965,2.34631776809692,-3.12922167778015,-9.15063858032227,18.4185943603516,18.6699848175049,14.3412685394287,1.69881629943848,0.56688296794891,-0.01404990069568,-2.33045101165771,-0.86193084716797,-1.05435335636139,-7.91925716400146,-8.13122749328613,-8.37190818786621,25.7161197662354,24.1431293487549,27.1478538513184,-12.1577558517456,-13.4745674133301,-18.0618572235107,8.39646530151367,9.93354320526123,13.2112045288086,0.1685988008976,0.69394290447235,1.00181901454926,-2.26081228256226,-2.53814506530762,-2.52531695365906,-9.49467849731445,-10.7041921615601,-10.9705286026001,25.7592163085938,19.2852954864502,14.9565782546997,-22.8813858032227,-25.8334369659424,-26.7528095245361,16.4457721710205,16.0914287567139,14.0587520599365,0.68172562122345,-0.54244834184647,-1.21989786624908,-2.78004765510559,-3.14106917381287,-2.49110841751099,-10.5771312713623,-10.1525802612305,-10.2961339950562,15.1169891357422,16.5319633483887,13.6469497680664,-28.8094291687012,-30.9689998626709,-34.6129722595215,11.049241065979,14.6788501739502,17.5973815917969,-1.09222710132599,-0.33841934800148,0.72448617219925,-1.31519281864166,-0.31215214729309,-0.09346238523722,-10.5032167434692,-10.1287565231323,-8.8544921875,7.68538761138916,-2.50433492660522,-10.8624935150146,-36.7653617858887,-34.191593170166,-29.8652725219727,18.5718231201172,18.3395843505859,16.6037883758545,1.59496915340424,2.44895887374878,3.01278734207153,-0.56382864713669,-0.95722585916519,-1.42575943470001,-7.0237283706665,-5.06101846694946,-3.19787955284119,-15.6054067611694,-17.1305122375488,-16.2686004638672,-25.9004745483398,-21.8806095123291,-18.0905876159668,15.9669313430786,13.0029096603394,10.2926731109619,3.06226754188538,2.73301100730896,2.22477126121521,-1.40499007701874,-1.26876711845398,-1.2046263217926,-1.53876960277557,-0.19303341209888,0.69088858366013,-14.3915462493896,-10.7308120727539,-7.78115558624268,-13.5176630020142,-9.46667385101318,-6.13394498825073,8.06367111206055,7.29513263702393,6.72052431106567,1.66460776329041,0.96089100837708,0.10873401165009,-1.28464961051941,-1.35062301158905,-0.96089100837708,1.12643551826477,1.09222710132599,0.92790430784225,-4.16351652145386,-3.33751726150513,-3.53863000869751,-4.80755710601807,-3.227383852005,-2.18351197242737,6.24886655807495,6.43321990966797,8.08521938323975,-0.57421332597733,-0.66095620393753,-0.30298915505409,-0.35735616087914,-0.23457226157188,-0.3506366610527,0.83138757944107,0.83322018384933,0.81122905015945,-4.56095409393311,-4.33829355239868,-3.14598107337952,-1.65918183326721,-1.50595283508301,-1.71185421943665,11.5304756164551,13.5894889831543,13.1274080276489,SWING_RIGHT
0.40927970409393,0.42271876335144,0.46792277693748,0.23823744058609,0.03420845419168,-0.33841934800148,-1.54182386398315,-1.76723313331604,-1.89795827865601,4.41251373291016,4.2449197769165,5.94719696044922,4.2760443687439,4.00310516357422,4.13239192962646,9.897629737854,10.074800491333,10.5991306304932,0.5839871764183,0.68233644962311,0.50640726089478,-0.55344390869141,-0.8356636762619,-1.00426244735718,-2.21438646316528,-2.6700918674469,-2.85335159301758,7.57046556472778,7.18978786468506,8.02297019958496,4.46997451782227,4.78361511230469,5.07810163497925,11.1713447570801,10.8409452438354,10.8984060287476,0.24068090319633,0.29871311783791,0.8478809595108,-0.75197511911392,-0.50213122367859,-0.87231558561325,-3.00423526763916,-3.43733882904053,-3.77942323684692,10.8840408325195,10.8744640350342,12.2918319702148,4.52025270462036,4.58489608764648,5.07810163497925,12.526463508606,15.4162645339966,16.4768962860107,1.50944805145264,1.90712130069733,1.5778648853302,-1.14415061473846,-0.59925878047943,-0.64385199546814,-4.16610097885132,-5.87713432312012,-6.43057823181152,17.0323505401611,18.0546741485596,17.7649765014648,4.2760443687439,0.92176765203476,-0.77093297243118,15.306131362915,11.8105974197388,10.0293111801147,0.71226888895035,-0.26878070831299,-0.00183259579353,-0.37507125735283,0.76724672317505,1.55770635604858,-6.67370271682739,-6.85696220397949,-7.05427169799805,18.7537822723389,18.3204307556152,21.571756362915,-3.87621259689331,-8.13549709320068,-12.2415533065796,9.05008220672607,14.1784620285034,22.3666324615479,1.9889771938324,3.99200439453125,4.52956581115723,0.76602500677109,-0.55771994590759,-1.69270753860474,-7.87222051620483,-8.6889476776123,-8.89236545562744,20.7074508666992,15.2845840454102,14.4729490280151,-17.3172607421875,-18.294095993042,-19.3427562713623,22.6395721435547,16.182409286499,10.9534730911255,3.91564631462097,2.60656189918518,1.09222710132599,-2.27058601379395,-2.17406940460205,-1.71592044830322,-9.09272956848144,-9.13243579864502,-8.96994495391846,13.347674369812,12.3061971664429,12.8353157043457,-19.7904720306396,-19.1320667266846,-21.3634624481201,7.23288345336914,5.45877981185913,4.80037450790405,-0.26572638750076,-1.34268176555634,-1.52960658073425,-0.96761053800583,-0.79107052087784,-1.12643551826477,-8.94551086425781,-9.19840908050537,-9.02553367614746,12.0308637619019,5.7628436088562,-5.55215358734131,-26.391284942627,-30.061595916748,-31.2323608398438,3.79241538047791,8.27436065673828,10.9702320098877,-1.17835903167725,0.65851271152496,1.51861095428467,-0.54916787147522,-0.83688539266586,-0.9828822016716,-7.65291976928711,-3.35609364509583,-1.93766450881958,-14.6142072677612,-13.8576393127441,-13.2519063949585,-28.5293083190918,-22.7712516784668,-18.7585697174072,13.8935527801514,13.4051351547241,12.3564748764038,2.43246531486511,2.38542866706848,2.21621918678284,-0.59192842245102,-0.18570303916931,-0.43737950921059,0.48197266459465,1.25227379798889,1.41109871864319,-8.29351425170898,-3.92888498306274,0.03591302409768,-9.22964763641357,-5.57370138168335,-3.35667085647583,8.53772354125977,7.21851825714111,6.09324312210083,SWING_RIGHT
-0.36774086952209,-0.22174409031868,-0.04948008432984,0.63652157783508,0.56749379634857,0.42760565876961,2.18017816543579,1.64933621883392,1.39582705497742,5.54975938796997,3.24174904823303,1.47243404388428,2.55461311340332,3.21780705451965,3.51468801498413,10.8600988388062,10.8385515213013,9.75158309936523,-0.01588249579072,-0.1991420686245,-0.17592918872833,0.60048055648804,0.68172562122345,0.29993483424187,1.57053458690643,1.63467538356781,1.19240891933441,2.92332029342651,5.62158536911011,5.67665243148804,3.15795207023621,3.56975483894348,3.40934324264526,8.48265647888184,10.0676183700562,11.3772468566895,0.4239404797554,0.60048055648804,0.43737950921059,0.06108652427793,0.13377949595451,0.18264870345592,0.55038958787918,0.6884451508522,0.81428337097168,1.94888019561768,2.29125094413757,4.7022123336792,2.90895509719849,2.48039293289185,2.11408019065857,10.2280292510986,7.92241334915161,7.18021106719971,0.11239920556545,-0.0274889357388,0.0250454749912,0.20952677726746,0.27916541695595,0.22663100063801,0.62552601099014,0.37018433213234,0.52045720815659,4.61841487884521,3.05021286010742,0.99838209152222,2.21942496299744,2.67671751976013,4.27843856811523,7.97508573532104,8.30548572540283,6.54574728012085,-0.19486601650715,-0.70127332210541,-1.29259085655212,0.06414084881544,-0.21807889640331,-0.84421575069427,0.89186328649521,1.29259085655212,1.37200331687927,3.48835182189941,8.54251194000244,18.1863555908203,5.90410137176514,8.94473743438721,11.0707883834839,5.56173038482666,4.82910490036011,5.79396820068359,-2.14291524887085,-2.18506503105164,-0.3072652220726,-1.07939887046814,0.33108896017075,0.58826321363449,-1.95599055290222,-5.19540882110596,-10.2417669296265,39.2218132019043,35.6664237976074,30.7487316131592,7.24724864959717,-1.03668928146362,-19.519926071167,11.5304756164551,16.6061820983887,14.3747873306274,0.6444628238678,1.04885566234589,1.02747535705566,0.54183745384216,0.25961771607399,-0.74830991029739,-12.2649526596069,-13.9839267730713,-14.4310808181763,28.1869373321533,17.6620254516602,8.96149730682373,-27.4495220184326,-30.588321685791,-31.4502334594727,9.48103904724121,7.52976417541504,8.67658710479736,0.99876469373703,1.09772479534149,1.38422060012817,-1.63162112236023,-1.6334536075592,-2.03173780441284,-13.7853956222534,-12.8049573898315,-10.930212020874,3.7038300037384,-7.18499946594238,-12.4163303375244,-30.1190567016602,-29.0871562957764,-24.6052112579346,10.5081510543823,13.2854251861572,12.7802486419678,1.48195910453796,0.39645153284073,-0.90530228614807,-2.40131139755249,-1.97737073898315,-1.22173047065735,-8.25462245941162,-5.64439487457275,-3.45444297790527,-9.94790840148926,-9.77073669433594,-12.5456171035767,-22.1966438293457,-22.0027141571045,-18.8423671722412,6.82586908340454,10.6709566116333,19.361909866333,-0.4886921942234,1.04824471473694,2.08121800422669,-0.4331034719944,0.30421090126038,0.53817230463028,-1.39949226379395,0.30787608027458,1.07267940044403,-11.7722902297974,-6.45955610275269,-3.48595762252808,-13.6469497680664,-8.82742214202881,-4.48194551467896,20.503942489624,14.0707235336304,8.26478385925293,SWING_RIGHT
-0.05558873713017,-0.15149457752705,-0.20708331465721,-0.16737708449364,-0.01466076634824,-0.23212879896164,0.1472185254097,0.26083946228027,0.04337143152952,-0.23702596127987,0.53869539499283,0.35913026332855,1.79565131664276,2.07098436355591,2.18111777305603,9.26795482635498,9.34696388244629,9.58877754211426,-0.18448130786419,-0.18081611394882,-0.24801129102707,-0.2981022298336,-0.1795943826437,-0.02199114859104,-0.020158553496,0.01649336144328,0.06902777403593,-0.08379705995321,-0.04070143029094,0.18195933103561,2.33434677124023,2.29603934288025,2.43250894546509,9.61750793457031,9.2416181564331,9.4020299911499,-0.35124751925468,0.0226020142436,0.15760323405266,-0.05253441259265,-0.61697387695313,-0.90591317415237,0.13011430203915,-0.59498274326324,-1.76417887210846,1.81959331035614,10.2711248397827,13.6110363006592,3.23456645011902,5.43962621688843,7.18021106719971,10.6877164840698,10.6925048828125,9.44033718109131,-0.15638150274754,-0.60475659370422,-0.89125239849091,-1.21928703784943,-0.8600982427597,0.40133845806122,-3.01217651367188,-4.36585378646851,-5.91317558288574,18.6053409576416,21.3682498931885,23.5086669921875,9.25837802886963,8.18577575683594,5.67665243148804,10.582371711731,11.6765213012695,15.4138708114624,-0.64629542827606,0.52167892456055,1.69515109062195,0.72876220941544,0.27977627515793,0.65790188312531,-7.48126649856567,-9.0695161819458,-10.0670595169067,24.8661785125732,23.958776473999,28.3377704620361,1.61608612537384,-2.61925673484802,-7.86255836486816,22.0051078796387,21.0450325012207,14.2909898757935,1.97004044055939,1.96209919452667,2.1789562702179,1.63650798797607,1.88146495819092,1.64994704723358,-11.1208019256592,-12.1018514633179,-12.4524879455566,28.7399978637695,24.5453567504883,20.9588413238525,-13.268666267395,-18.2462120056152,-22.1511535644531,10.9343194961548,10.1609916687012,9.49300956726074,2.54791903495789,2.75561308860779,2.62122273445129,0.98654735088348,0.17226399481297,-0.46425759792328,-12.5673303604126,-12.3199300765991,-11.3272743225098,15.3228912353516,7.81946277618408,-0.72783732414246,-27.6266937255859,-30.9785766601563,-30.7343673706055,8.80587387084961,7.5465235710144,6.60081386566162,2.16673898696899,1.31824719905853,0.66645395755768,-0.62063908576965,-0.53084188699722,-0.40683624148369,-9.42381858825684,-7.14773416519165,-4.95167350769043,-5.92804336547852,-7.73805999755859,-9.66299819946289,-26.9682884216309,-24.4328289031982,-22.4576110839844,4.69742393493652,7.08683681488037,9.78749656677246,0.64018678665161,0.78740531206131,1.07817721366882,-0.41050145030022,-0.34330627322197,-0.13805554807186,-2.9236011505127,-1.0812314748764,0.3591887652874,-11.1881046295166,-11.034875869751,-8.84178733825684,-18.9381351470947,-14.7123699188232,-10.8050327301025,10.3309803009033,11.0420579910278,10.7954559326172,1.55892813205719,1.67560338973999,1.15514612197876,-0.14660765230656,-0.27000242471695,-0.31093040108681,1.27731919288635,1.64322745800018,1.84969997406006,-5.81791019439697,-5.41807842254639,-4.07253694534302,-6.98388624191284,-2.54503631591797,0.80924016237259,7.73327159881592,5.01345825195313,4.46997451782227,SWING_RIGHT
-0.60597831010818,-0.46486845612526,-0.15332718193531,-0.53084188699722,-0.06780604273081,-0.12156218290329,-2.69208312034607,-3.58211374282837,-5.08239889144897,16.5822410583496,23.2069969177246,26.7025318145752,10.321403503418,11.6525793075562,8.69813442230225,14.5304098129272,15.3947172164917,17.2574062347412,0.49296826124191,1.21195662021637,1.34695792198181,0.02443460933864,0.35796701908112,1.03297317028046,-6.81542348861694,-8.04081916809082,-8.56249809265137,25.6562652587891,24.1503124237061,26.9467391967773,3.70622420310974,-1.67354702949524,-5.25766706466675,16.7809600830078,11.5615997314453,8.84418106079102,1.2400563955307,1.64444923400879,2.59678816795349,1.36711645126343,0.7739662528038,-0.47036623954773,-9.17641735076904,-10.2442102432251,-11.2887897491455,29.1685600280762,27.3417835235596,22.8047714233398,-11.2551422119141,-17.496826171875,-21.9524345397949,10.6015253067017,13.4841442108154,10.3932294845581,2.82708430290222,2.16551733016968,1.41965079307556,-1.38299894332886,-1.29869949817657,-1.33474051952362,-11.8269624710083,-11.8636140823364,-11.4353971481323,18.6460437774658,13.8528509140015,7.07965421676636,-26.3601608276367,-27.6889419555664,-27.8876609802246,6.96712684631348,6.92642545700073,6.40688371658325,0.44287729263306,-0.69272118806839,-1.0800096988678,-1.6890424489975,-1.39827048778534,-1.00731682777405,-10.3712701797485,-9.2417802810669,-7.71706056594849,4.99191045761108,-3.60566782951355,-15.9262294769287,-31.3975620269775,-31.976957321167,-29.1709537506104,6.49786329269409,10.7236289978027,17.7362461090088,-0.22235494852066,1.29992127418518,2.53325819969177,-0.80267691612244,-0.49968776106834,-0.26755899190903,-5.15936803817749,-2.18384313583374,0.26816985011101,-21.4400768280029,-20.0155258178711,-15.842432975769,-25.6083812713623,-21.2269916534424,-14.9996738433838,19.9053936004639,16.6516723632813,10.5919485092163,2.8014280796051,2.138028383255,0.90346968173981,-0.21807889640331,-0.03665191307664,0.11728613078594,1.92056035995483,2.77454996109009,3.02072858810425,-9.94072532653809,-5.08049583435059,-0.72544312477112,-8.25999546051025,-2.88980150222778,1.3910311460495,5.32231044769287,2.40856695175171,3.72777199745178,-0.19853121042252,-0.74525558948517,-0.86254173517227,0.11239920556545,0.14477506279945,0.15821409225464,2.69635915756226,2.0079140663147,1.32557761669159,1.13245737552643,1.01514148712158,0.00957680679858,3.7732617855072,3.82354021072388,2.87543630599976,7.04374122619629,9.72285270690918,11.8704519271851,-0.57848936319351,-0.31154128909111,-0.08063421398401,0.10629054903984,0.22968533635139,0.28955012559891,0.81428337097168,0.74953162670135,0.71715581417084,-3.16752886772156,-2.39899015426636,-1.01753568649292,2.67432332038879,2.22181916236877,1.68072962760925,11.4083709716797,11.0300874710083,11.2503538131714,0.32314771413803,0.84543752670288,1.0445796251297,0.1814269721508,-0.0299323964864,-0.12889257073402,0.42516219615936,0.10201449692249,0.10812314599752,-1.43652105331421,-3.5003228187561,-5.07810163497925,1.14203417301178,1.28808057308197,1.80522811412811,11.1210670471191,8.79150867462158,6.56250667572021,SWING_RIGHT
0.67806041240692,0.24740041792393,-0.10201449692249,-0.46792277693748,-0.57421332597733,-0.58887410163879,-1.46668744087219,-2.47644782066345,-3.09525418281555,14.5567464828491,14.0443868637085,16.8240547180176,8.89206504821777,8.65503883361816,9.07163047790527,6.26323175430298,7.3190746307373,8.55927085876465,-0.62552601099014,-1.11238563060761,-1.12765729427338,-1.26632368564606,-0.63652157783508,0.98349303007126,-5.03352975845337,-6.77754974365234,-7.91314840316772,29.6066989898682,26.5732440948486,22.6347827911377,5.16668748855591,-0.3016694188118,-3.55538964271545,10.2184524536133,12.6940574645996,15.3851404190063,0.52045720815659,1.03724920749664,1.33840572834015,0.2119702398777,0.08979719132185,-0.08979719132185,-8.94123458862305,-10.3700485229492,-11.1934947967529,31.7638740539551,26.4128322601318,22.9675769805908,-11.8991823196411,-16.2135334014893,-18.0546741485596,12.3660516738892,11.0875482559204,8.7077112197876,1.25227379798889,0.42577308416367,0.58765238523483,-0.30176743865013,-0.24801129102707,-0.41661009192467,-11.2967309951782,-11.8886594772339,-11.6314849853516,25.5317668914795,19.0267200469971,16.6325187683105,-21.8207550048828,-31.5651550292969,-34.2897567749023,6.04775333404541,10.2328176498413,10.0843772888184,0.80878555774689,0.93095862865448,0.40744712948799,-0.57971113920212,-0.70554935932159,-0.78801614046097,-11.0407781600952,-10.4341888427734,-9.49651145935059,15.3540153503418,6.21295356750488,-9.32541561126709,-39.274486541748,-42.293571472168,-41.2449111938477,8.81066226959229,6.2201361656189,10.0939540863037,0.58643060922623,2.24004292488098,3.61571145057678,-0.66889744997025,-0.66828656196594,-0.03359758853912,-4.39639711380005,-0.93340212106705,1.5778648853302,-28.2611560821533,-20.1639671325684,-8.35336971282959,-27.9762477874756,-19.8407497406006,-12.526463508606,22.0793285369873,16.7474403381348,7.91762495040894,3.98100876808167,3.28401160240173,1.80755031108856,0.09285151958466,-0.15332718193531,-0.09773843735456,2.44162845611572,2.46545219421387,2.13558483123779,-3.26808524131775,-0.64643448591232,0.45968672633171,-4.53940629959106,1.58735573291779,5.1978120803833,1.74537301063538,-1.47482824325562,0.40222588181496,0.26694810390472,-0.5839871764183,-0.75258600711823,0.30909782648087,0.37751471996307,0.0500909499824,1.638951420784,1.05190992355347,0.52473324537277,0.59376204013824,-0.28969839215279,-2.50433492660522,4.68545293807983,2.87304210662842,2.3319525718689,5.17147588729858,9.22964763641357,11.9183359146118,-0.44409903883934,-0.08796459436417,0.09896016865969,-0.12034045159817,-0.04520402848721,-0.07819075137377,0.28893926739693,0.20708331465721,-0.05681046843529,-2.31758713722229,-1.5442601442337,-1.14442837238312,1.42694425582886,0.22266076505184,-0.43574470281601,11.9207305908203,10.9558668136597,9.79946708679199,0.01893682219088,0.04703662544489,0.19975294172764,-0.04703662544489,0.06719517707825,0.15699236094952,-0.1795943826437,-0.03054326213896,0.18753562867641,-3.12682747840881,-3.89057779312134,-3.93367338180542,-0.31364041566849,-0.11013327538967,-0.16998831927776,10.4506902694702,10.8146095275879,10.3261919021606,SWING_RIGHT
0.77213364839554,1.34390354156494,1.32741022109985,-0.78190749883652,-1.11055302619934,-1.05313169956207,-2.37504410743713,-3.03172421455383,-3.86494445800781,11.226411819458,14.5543518066406,15.2247285842896,8.9471321105957,8.47547435760498,7.81467437744141,13.4410486221313,10.7284173965454,9.15782165527344,0.96944314241409,0.67378437519073,0.49480083584785,-0.94623029232025,-0.72448617219925,-0.75136423110962,-4.60531330108643,-5.10683345794678,-5.75373983383179,14.3843641281128,16.8551807403564,20.9325046539307,7.18978786468506,5.84424638748169,2.81318688392639,9.74918937683106,10.3118267059326,11.0468463897705,0.41172316670418,0.32925635576248,0.42760565876961,-0.57910025119781,-0.27000242471695,-0.3933972120285,-7.5173077583313,-7.97912168502808,-8.62969303131104,20.5207023620605,22.8454723358154,23.1710834503174,-3.33272886276245,-6.38054752349854,-10.8457336425781,11.6956748962402,13.2040224075317,15.2319116592407,1.25532805919647,1.61390602588654,1.87413454055786,-0.7061602473259,-0.56321775913239,-1.02930796146393,-9.94855117797852,-10.4115867614746,-10.2020606994629,21.4616241455078,15.1624794006348,12.7802486419678,-20.7218151092529,-24.1311588287354,-26.8940677642822,14.0683288574219,13.4099235534668,10.0388879776001,1.50150680541992,1.09222710132599,1.02686452865601,-1.14476144313812,-1.1233811378479,-1.19729590415955,-9.71581172943115,-9.13243579864502,-7.93086338043213,7.88650035858154,-1.61608612537384,-10.1945104598999,-29.1925010681152,-29.4630470275879,-28.4790287017822,10.1298675537109,12.3899936676025,13.9079179763794,1.16430914402008,1.63162112236023,2.69025063514709,-1.26082587242126,-1.07329022884369,-0.73609262704849,-6.03840303421021,-3.91870045661926,0.34574973583221,-14.7482824325562,-19.1775550842285,-13.4290771484375,-26.9587116241455,-23.2524871826172,-14.2670478820801,15.7586355209351,15.7466650009155,9.44033718109131,2.6523768901825,2.19056272506714,1.51311326026917,-0.53267449140549,-0.46364670991898,-0.35552358627319,1.65972089767456,2.2168300151825,2.1447479724884,-7.64468622207642,-2.54982471466064,-1.11330378055573,-9.16979217529297,-4.67348194122314,-1.62805712223053,6.10281991958618,4.83628749847412,6.72052431106567,0.87964594364166,0.56077426671982,0.02871066704392,-0.19975294172764,-0.12156218290329,0.11301007121801,1.64506006240845,1.64994704723358,1.47279608249664,-3.24414324760437,-1.18034148216248,0.07182604819536,1.67354702949524,1.97761058807373,1.12527477741241,7.65665721893311,7.17063426971436,8.48744487762451,-0.37507125735283,-0.4202753007412,-0.10934487730265,0.16982053220272,0.11789698898792,0.25228735804558,1.07939887046814,0.68966686725616,0.61208695173264,-0.42137950658798,-2.3247697353363,-3.49553442001343,0.75177931785583,0.74699091911316,0.9241618514061,10.5584297180176,12.5719528198242,12.6006832122803,0.35185837745667,0.59986966848373,0.59498274326324,0.2229658216238,0.08368854224682,0.11972958594561,0.77213364839554,0.94806283712387,1.06412720680237,-2.90895509719849,-2.3511061668396,-2.47321033477783,0.56742578744888,0.10295066982508,0.76135611534119,10.9845972061157,9.7396125793457,9.32781028747559,SWING_RIGHT
-0.75075340270996,-0.3072652220726,-0.22785273194313,-0.09162978827953,0.14966198801994,-0.13866640627384,-0.60475659370422,-1.86741507053375,-2.06044840812683,9.75158309936523,8.19295787811279,14.6309661865234,6.83065748214722,7.79791498184204,7.65905141830444,11.9757966995239,12.6030778884888,14.9302415847778,0.16126842796803,0.82344633340836,1.37933373451233,-0.62369340658188,-0.89736104011536,-0.74464476108551,-2.86495804786682,-3.92358756065369,-4.71587991714478,18.6675910949707,18.9357414245605,21.5597858428955,7.69496440887451,8.01339340209961,6.45716190338135,17.4465484619141,17.2023391723633,16.0148143768311,1.78372657299042,1.84481298923492,1.39094018936157,-0.66462141275406,-0.87964594364166,-0.65484756231308,-5.58330821990967,-6.55763816833496,-7.34321117401123,23.8582191467285,24.0856685638428,23.1902370452881,2.7126305103302,-0.56263738870621,-3.8690299987793,13.9845323562622,11.2766895294189,10.2902784347534,0.89430671930313,0.79840087890625,0.94561940431595,-0.04581489413977,-0.52228981256485,-1.04519045352936,-7.72255849838257,-8.01394081115723,-8.85388088226318,22.2349510192871,25.7376689910889,28.0456790924072,-7.47948598861694,-12.265495300293,-17.3507804870605,12.45703125,14.2455005645752,14.3149318695068,1.10872042179108,1.73363554477692,2.25592541694641,-0.49663344025612,0.15210545063019,-0.56566119194031,-10.096381187439,-10.6382179260254,-10.2063369750977,23.1447486877441,14.1353664398193,11.2790842056274,-24.5118370056152,-26.5253601074219,-27.7966823577881,15.2079696655273,14.0204448699951,11.3940057754517,2.17468023300171,1.62551236152649,0.73242741823196,-1.49967420101166,-2.17040419578552,-1.79166781902313,-10.4971084594727,-9.98764705657959,-7.01334381103516,2.26012635231018,-19.0482692718506,-24.8709678649902,-42.8370552062988,-35.8507766723633,-26.8820972442627,8.28154373168945,8.52575206756592,9.99100399017334,0.19181168079376,1.07267940044403,1.7880026102066,-0.57421332597733,-0.5400048494339,-1.28037357330322,-3.62304186820984,-0.47891834378242,0.14844025671482,-19.9891891479492,-11.5137157440186,-9.92636013031006,-20.4776077270508,-11.1737394332886,-7.04852962493896,11.6765213012695,11.9853734970093,9.40921306610107,1.97737073898315,1.63223195075989,-0.0549778714776,-0.93156951665878,-0.64385199546814,-0.29138273000717,0.7305948138237,1.27731919288635,1.0567969083786,-8.73404788970947,-4.75967311859131,-1.26174426078796,-3.72298359870911,-1.1947066783905,1.80043971538544,6.84502267837524,4.61602067947388,8.0540943145752,-0.55955255031586,-0.15821409225464,0.27427849173546,0.00244346098043,0.15332718193531,0.01893682219088,0.68416905403137,0.34208452701569,0.43737950921059,-2.12126278877258,-5.16908168792725,-5.03500604629517,1.49158763885498,0.08379705995321,-0.08379705995321,11.0372695922852,12.8401041030884,11.2048635482788,0.47158795595169,0.4978551864624,0.26511552929878,0.05314527451992,0.09346238523722,0.30543261766434,0.58520889282227,0.64690631628036,0.51923543214798,-4.1347861289978,-2.08056116104126,-5.07091903686523,0.16759411990643,0.33518823981285,1.06541979312897,10.074800491333,8.86572933197021,10.3956241607666,SWING_RIGHT
1.16491997241974,1.72508347034454,1.99080979824066,-1.29747772216797,-1.50272846221924,-1.14292883872986,-3.52102732658386,-4.61081075668335,-6.287024974823,21.1695308685303,24.7177391052246,22.1966438293457,10.936713218689,9.00938129425049,7.55849456787109,16.4337997436523,14.499285697937,12.8329210281372,1.94927096366882,1.45752441883087,0.42882740497589,-0.82588982582092,-0.7177666425705,-0.18997909128666,-7.27907037734985,-7.78120136260986,-8.43177318572998,22.3881797790527,27.7152786254883,28.9195613861084,5.62637376785278,0.76853877305984,-4.97036266326904,10.6613798141479,9.01895809173584,14.7794075012207,0.0,0.76785761117935,2.29074478149414,0.34269541501999,0.95783668756485,0.7000515460968,-9.29859066009522,-9.87036037445068,-10.238712310791,27.0113830566406,25.4575462341309,25.2875576019287,-10.7763013839722,-15.4473896026611,-19.5438690185547,19.7808952331543,20.8367366790771,16.5343570709229,3.63709163665771,3.45627546310425,2.42330241203308,-0.16737708449364,-0.77702057361603,-0.8906415104866,-10.9155511856079,-11.007791519165,-10.640661239624,21.9668006896973,18.3252201080322,15.7658185958862,-23.3075542449951,-26.3505840301514,-29.1972904205322,11.8824234008789,7.34301662445068,3.21541285514832,0.82650065422058,-0.18753562867641,-0.05192354694009,-0.67867130041122,-0.44348818063736,-0.44409903883934,-9.99314498901367,-9.08173370361328,-7.89970922470093,10.5991306304932,3.78523278236389,-8.18816947937012,-32.807746887207,-36.5187568664551,-37.3279991149902,5.30555105209351,9.99100399017334,14.0372047424316,0.72815138101578,1.56320416927338,2.3591616153717,-0.63652157783508,-0.54794609546661,-0.10445795953274,-5.98770093917847,-3.22292494773865,-0.30543261766434,-19.7449817657471,-24.8446311950684,-20.6619606018066,-34.4070739746094,-28.285099029541,-20.6787204742432,15.44020652771,14.8751754760742,13.3979530334473,3.11296939849854,3.14473438262939,2.14780211448669,0.04031710699201,0.03420845419168,0.13133603334427,1.68782067298889,2.38054180145264,2.026850938797,-10.4506902694702,-2.3056161403656,1.25695586204529,-13.8648223876953,-5.86579418182373,0.13646949827671,8.15943908691406,1.18991827964783,0.1268926858902,1.06168377399445,0.5283984541893,0.44409903883934,0.24312436580658,0.21258109807968,0.03115412779152,1.25288462638855,0.76969021558762,0.62735861539841,-0.9528923034668,-4.08929634094238,-4.51546430587769,2.50672912597656,2.68629431724548,2.74375510215759,3.47159242630005,6.40927791595459,7.0820484161377,0.42332962155342,0.17837265133858,0.00366519158706,-0.09162978827953,-0.13255776464939,-0.25961771607399,0.41783183813095,-0.1050688251853,-0.56382864713669,-1.94888019561768,-2.0973207950592,-4.56334829330444,2.03746557235718,0.89064306020737,-0.14125789701939,5.70777702331543,6.36857652664185,7.61116743087768,-0.13255776464939,-0.1600466966629,-0.34452798962593,-0.2315179258585,-0.21502456068993,-0.05070181563497,-0.3591887652874,-0.04092797264457,0.4147774875164,-7.02698183059692,-6.3470287322998,-4.89135408401489,-1.47722244262695,-2.01591777801514,-1.0989385843277,8.88488292694092,8.7675666809082,8.89924812316895,SWING_RIGHT
0.53267449140549,0.21868975460529,-0.60658919811249,0.10262536257505,0.36774086952209,0.16432274878025,1.14903748035431,1.63956236839294,1.6157386302948,-1.26653265953064,-0.58657944202423,6.71334171295166,2.166752576828,2.05422496795654,2.00394678115845,6.81389808654785,6.2584433555603,8.24563026428223,-0.69149947166443,-0.56321775913239,-0.51740288734436,0.29382619261742,0.44226643443108,0.55710911750793,1.1966849565506,1.17835903167725,1.29075825214386,4.23534297943115,3.22977805137634,4.89853668212891,3.28723883628845,4.09169054031372,4.31195735931396,9.75876617431641,9.37329959869385,8.35576438903809,-0.63835418224335,-0.76358157396317,-0.58520889282227,0.58276546001434,0.4416555762291,0.39706242084503,1.16736352443695,0.56505036354065,-0.12339477986097,9.0644474029541,9.58398914337158,6.33984613418579,4.52982950210571,5.29597425460815,6.25126075744629,8.36055278778076,10.1897220611572,11.4083709716797,-0.25045475363731,-0.21868975460529,-0.13439035415649,0.31215214729309,-0.18753562867641,-1.26510190963745,-0.34208452701569,-0.59559363126755,-2.18017816543579,7.37414121627808,17.8439846038818,23.4272632598877,8.63349151611328,12.1122665405273,14.6932153701782,10.512939453125,12.0141038894653,11.5304756164551,-0.36590829491615,-0.61086523532867,0.13439035415649,-1.09589219093323,0.25961771607399,0.20830504596233,-4.24429178237915,-5.49351119995117,-6.34505748748779,21.6627368927002,21.6196422576904,25.6802082061768,12.7778549194336,9.62947940826416,5.20260047912598,11.7411651611328,17.2933197021484,19.165584564209,1.26143670082092,1.62917757034302,0.85948741436005,-0.09285151958466,0.06963863968849,0.59559363126755,-7.44522571563721,-8.76286220550537,-9.83615207672119,30.4183330535889,30.3105926513672,21.5406322479248,0.86909520626068,-5.76044940948486,-13.0962829589844,14.1976156234741,10.5512466430664,10.7284173965454,0.85276788473129,2.19667148590088,2.32861828804016,0.50213122367859,-0.26939156651497,-0.6884451508522,-9.68893337249756,-10.2185535430908,-9.99497699737549,22.4312763214111,16.6660385131836,10.2447891235352,-15.1864213943481,-21.02587890625,-20.9588413238525,13.2016277313232,10.3070383071899,7.81706857681274,1.82770884037018,0.83199846744537,0.13377949595451,-0.91690874099731,-1.00181901454926,-0.98837995529175,-9.0689058303833,-7.65963935852051,-6.8429126739502,4.85065269470215,6.30632734298706,6.14831018447876,-18.8854637145996,-19.7138576507568,-22.0027141571045,5.95677375793457,7.53215837478638,12.7994022369385,0.40500366687775,1.19363069534302,1.69331848621368,-1.20706975460052,-1.351233959198,-1.38238799571991,-6.6602635383606,-5.92783641815186,-4.47153377532959,-2.04943656921387,-8.69813442230225,-11.9159421920776,-22.6683025360107,-22.6515426635742,-23.1136226654053,15.4713315963745,14.0994539260864,12.5312519073486,1.74585282802582,1.59313654899597,1.5222761631012,-1.44103109836578,-1.16858518123627,-0.62247169017792,-2.71224164962769,-0.98166042566299,0.30909782648087,-12.1386022567749,-10.0843772888184,-7.41484260559082,-21.188684463501,-16.7402591705322,-12.4881563186646,11.9063653945923,11.7387704849243,12.5384340286255,SWING_RIGHT
0.10384709388018,-0.40744712948799,-0.78068578243256,-0.46364670991898,-0.26572638750076,0.13927727937698,-1.47768306732178,-1.5412130355835,-2.03723549842834,5.83466958999634,9.105149269104,9.22964763641357,5.25048446655273,4.90571928024292,5.13556241989136,7.11077928543091,9.34935760498047,12.4857616424561,0.00122173049022,0.60597831010818,0.77457714080811,-0.45875978469849,-0.6267477273941,-0.33231070637703,-2.90649676322937,-2.97369194030762,-3.05005025863647,7.85776996612549,9.93354320526123,12.0452289581299,5.63116216659546,3.95043277740479,1.84353530406952,15.4785137176514,14.5591402053833,13.4410486221313,0.67195177078247,0.85826569795609,1.09283792972565,0.01282817032188,-0.83322018384933,-0.38484510779381,-3.5204164981842,-3.32310700416565,-4.92784976959229,9.07881259918213,20.5997123718262,24.6554889678955,0.39743748307228,-1.02471828460693,-3.46440982818604,14.1880388259888,14.3891525268555,13.6804685592651,1.18752205371857,1.40926611423492,1.4611896276474,-0.03420845419168,-0.675616979599,-0.61025440692902,-6.64438104629517,-6.92782258987427,-7.30900287628174,15.8304615020752,15.8472213745117,27.9163913726807,-4.32153415679932,-4.23534297943115,-8.42759037017822,15.3300733566284,14.8991174697876,13.7403240203857,1.42637038230896,1.60962986946106,2.29440975189209,0.10751228034496,0.45387288928032,-0.18936823308468,-9.24727821350098,-10.8159799575806,-10.9955739974976,28.6466236114502,18.2917003631592,13.496114730835,-17.1137542724609,-23.8366718292236,-28.4574813842773,12.648567199707,14.8512334823608,13.8504571914673,2.33839225769043,1.8112154006958,1.27548658847809,-0.8045095205307,-0.75258600711823,-0.63285636901855,-10.5643033981323,-10.1898431777954,-8.71826839447021,10.3381633758545,-1.01274728775024,-10.9103775024414,-37.3591232299805,-36.5762176513672,-31.5603675842285,8.61912631988525,8.34858131408691,10.1897220611572,1.28587138652802,1.65910995006561,1.92056035995483,-0.53145277500153,-0.95539325475693,-1.20645880699158,-6.58512735366821,-4.48924875259399,-2.91260552406311,-16.0219974517822,-15.277400970459,-14.9422130584717,-26.4248046875,-22.6970329284668,-18.322826385498,11.5999069213867,10.5512466430664,9.95987892150879,2.08488297462463,2.15330004692078,2.14658045768738,-1.10566604137421,-0.88636547327042,-1.04030346870422,-1.62245810031891,-0.41233405470848,0.60597831010818,-14.3891525268555,-12.5049152374268,-9.05247688293457,-13.8815813064575,-10.0652236938477,-6.98867464065552,9.22725296020508,8.54730033874512,7.2999210357666,1.92544722557068,1.49600899219513,0.87598073482513,-1.30602991580963,-1.14659404754639,-0.80573123693466,1.13559854030609,1.16064393520355,1.03969264030457,-5.25766706466675,-4.16830539703369,-4.63517427444458,-4.49631071090698,-2.31998133659363,-0.79966336488724,6.51941108703613,6.11479091644287,6.94079065322876,0.30482175946236,-0.02687807008624,-0.31764993071556,-0.47952923178673,-0.44959682226181,-0.49602258205414,0.98043870925903,1.04152524471283,1.02625358104706,-5.63834476470947,-5.39653062820435,-4.27125597000122,-0.02394201606512,0.26096799969673,0.13168109953403,8.49462795257568,8.83460426330566,9.19612884521484,SWING_RIGHT
1.15942227840424,1.67865765094757,1.33718407154083,-1.32618844509125,-2.27669477462769,-2.1569652557373,-1.75807023048401,-3.50697731971741,-5.44891786575317,23.1519298553467,28.3665008544922,29.683313369751,16.0603046417236,15.6221656799316,12.471396446228,10.1681747436523,5.42286682128906,4.04380655288696,0.32986724376678,-0.82833325862885,-1.63039934635162,-1.82098925113678,-1.81365895271301,-1.39643800258636,-6.87712097167969,-7.89298963546753,-8.93451499938965,31.7399311065674,35.9992179870605,36.1763877868652,6.97670364379883,0.12210428714752,-7.39808320999146,7.06768321990967,13.70201587677,21.0354557037354,-1.52533054351807,-0.42577308416367,0.75564032793045,0.01893682219088,0.9511171579361,1.27670836448669,-9.7878942489624,-10.1202049255371,-10.733512878418,32.5491714477539,36.0231590270996,34.9409790039063,-12.526463508606,-17.7194862365723,-23.0202484130859,24.588451385498,21.9596176147461,19.3834571838379,2.78432369232178,2.90894031524658,2.20216917991638,0.93645644187927,0.24740041792393,-0.23396138846874,-12.1549968719482,-12.3578042984009,-11.8251295089722,27.9355449676514,20.9372940063477,17.1688213348389,-31.9673805236816,-32.3001747131348,-33.133358001709,8.7268648147583,4.05098915100098,1.8171991109848,1.02869701385498,-0.26267206668854,-0.96822142601013,-0.48930305242538,-0.30848693847656,-0.16187928617001,-10.9076099395752,-10.049955368042,-9.04324913024902,12.9454488754272,5.59046077728271,-10.9462900161743,-36.1332931518555,-40.8426856994629,-39.5546073913574,1.83156430721283,6.43561410903931,12.648567199707,-0.89552843570709,0.4886921942234,2.19728231430054,-0.11911872029305,0.05070181563497,0.28832840919495,-6.95286798477173,-3.62548518180847,-0.64385199546814,-23.8175182342529,-19.9724311828613,-11.1737394332886,-34.0455474853516,-28.8118228912354,-22.6659069061279,20.4871845245361,18.4401416778564,10.7906675338745,2.9358184337616,2.77821516990662,2.64382481575012,0.29260444641113,0.21563543379307,0.12156218290329,0.92423909902573,1.67193818092346,2.09160256385803,-7.36217021942139,-5.61440277099609,-1.75494980812073,-14.1856451034546,-7.05810642242432,-3.24414324760437,6.31350994110107,6.45716190338135,3.92649078369141,2.36099410057068,1.63406455516815,0.66401052474976,-0.01710422709584,-0.09773843735456,0.06902777403593,2.02990531921387,1.57175624370575,1.33046448230743,0.60094463825226,-1.85311210155487,-2.40856695175171,-1.25216746330261,1.07020819187164,1.32638776302338,2.19308876991272,2.75093770027161,5.05415964126587,-0.46059238910675,-0.69699722528458,-0.34880405664444,0.2767219543457,0.43004912137985,0.01221730466932,1.31885802745819,1.06290555000305,0.72387534379959,-1.28089785575867,-1.69509482383728,-0.85233581066132,0.56503158807755,-0.38786068558693,-0.26575639843941,7.25682544708252,10.3908357620239,10.5368814468384,0.020158553496,0.26694810390472,0.43554693460464,-0.12705996632576,-0.13133603334427,-0.1777617931366,0.28405234217644,0.06536258012056,0.12583823502064,-1.65678763389587,-3.21301865577698,-4.73812532424927,-0.50278234481812,-0.9433154463768,-1.33596456050873,9.93114852905273,10.0700120925903,9.15063858032227,SWING_RIGHT
-0.0598647929728,-0.00122173049022,-0.03543018549681,0.23090706765652,0.05436700582504,-0.08796459436417,0.97921699285507,0.84299403429031,0.60964351892471,2.1475989818573,4.25449657440186,4.44842672348022,3.79002118110657,4.97515106201172,6.35421133041382,8.81066226959229,8.5880012512207,7.09401941299438,-0.34330627322197,-0.29688051342964,0.3072652220726,0.33292156457901,0.25839599967003,-0.65790188312531,0.57543504238129,0.40072759985924,-0.37507125735283,5.35822343826294,10.1681747436523,16.3763389587402,8.2336597442627,11.0205106735229,12.7922201156616,8.43716716766357,11.0971250534058,10.6853218078613,0.75197511911392,0.5400048494339,0.19120082259178,-1.11482906341553,-0.64873886108398,-0.74647730588913,-1.71469879150391,-2.92787718772888,-3.84906196594238,17.6907558441162,16.974889755249,20.3938102722168,13.496114730835,13.3572511672974,12.0931129455566,7.74524259567261,7.82185697555542,10.6182842254639,0.07513642311096,0.30176743865013,0.64263021945953,-1.15331363677979,-1.1612548828125,-0.3683517575264,-5.00726222991943,-6.40553283691406,-7.75859928131104,23.4248695373535,26.1949615478516,28.0815925598145,9.99579238891602,5.14753341674805,0.651222884655,14.5399866104126,17.1448783874512,19.8479328155518,1.11971604824066,1.82526540756226,3.18016457557678,0.49357911944389,1.0256427526474,0.92484998703003,-8.91130256652832,-10.2552061080933,-11.1867752075195,32.7024002075195,31.4741764068604,28.9913883209229,-5.53539419174194,-12.4690027236938,-18.3156433105469,21.8255424499512,24.0306034088135,23.6092224121094,4.76719236373901,5.5613169670105,5.21129131317139,-0.02565634064376,-1.13376593589783,-1.96209919452667,-11.6333179473877,-12.2362413406372,-12.4738683700562,29.4965648651123,24.80153465271,14.4083061218262,-23.3147354125977,-28.2276382446289,-28.5987396240234,18.4736595153809,12.6581439971924,7.89128875732422,3.71467161178589,1.44347453117371,-0.24801129102707,-2.2467622756958,-2.02990531921387,-1.90162348747253,-11.4744930267334,-9.8850212097168,-8.58754348754883,8.31027412414551,6.31111574172974,3.32075786590576,-25.986665725708,-26.1901721954346,-29.9035797119141,4.49391651153564,7.70454120635986,15.375563621521,-0.54794609546661,0.2119702398777,1.37017071247101,-1.64689266681671,-1.11421823501587,-0.5412266254425,-7.50081443786621,-5.74152231216431,-3.18016457557678,-5.67665243148804,-16.1512851715088,-15.7634239196777,-31.2323608398438,-28.4957885742188,-24.1120052337646,20.2142448425293,21.380220413208,19.6923084259033,2.52714943885803,3.49109482765198,3.9437460899353,-0.49480083584785,-0.32681289315224,-0.16310101747513,-1.0500773191452,0.34269541501999,1.17835903167725,-12.3732347488403,-9.25598335266113,-6.82108068466187,-18.8615207672119,-13.9031295776367,-8.95670890808105,16.508020401001,11.0037508010864,5.71017122268677,3.57600522041321,2.46178698539734,1.40865528583527,-0.15149457752705,-0.21441370248795,-0.24678955972195,1.68476629257202,1.70920097827911,1.56198239326477,-3.29202723503113,-2.52588272094727,-3.42131423950195,-4.5920786857605,-1.99197578430176,-0.7182605266571,1.69748902320862,2.58094954490662,5.00866985321045,SWING_RIGHT
-0.80267691612244,-0.63285636901855,-0.4850270152092,0.08979719132185,-0.2944370508194,-0.21258109807968,0.73853605985641,0.24862214922905,-0.09224065393209,3.88100099563599,3.0693666934967,1.40539634227753,4.09887313842773,4.44363832473755,5.31512784957886,9.77552509307861,10.1226844787598,10.857705116272,-0.2852740585804,0.2229658216238,1.14170718193054,0.03481931984425,-0.2425135076046,-1.3200798034668,-0.00488692196086,-0.26450464129448,-1.50517201423645,5.63595056533813,13.1178312301636,14.8703870773315,6.61278486251831,7.30710363388062,8.60236644744873,12.6940574645996,14.2287406921387,12.5623760223389,1.89429306983948,1.92422556877136,1.50639367103577,-2.14658045768738,-1.56320416927338,-0.99387776851654,-2.94498133659363,-3.9315288066864,-5.01031684875488,14.8105316162109,18.1336841583252,18.4185943603516,10.4291429519653,11.2527475357056,9.52413463592529,8.67179870605469,5.86100578308105,5.11880302429199,1.02197754383087,0.01221730466932,-1.36955988407135,-1.29259085655212,-1.6279559135437,-1.1001683473587,-6.2039475440979,-6.61383819580078,-6.33039665222168,13.4865379333496,12.4235124588013,16.7139225006104,7.92001914978027,7.42681360244751,5.95677375793457,2.08774399757385,2.8658595085144,8.37012958526611,-2.05922675132751,-1.92056035995483,-1.34634697437286,-0.8662069439888,-0.61941736936569,-0.35124751925468,-6.40370035171509,-7.19782495498657,-8.15260791778564,21.6435832977295,21.5454216003418,18.4161987304688,2.50433492660522,-1.60650932788849,-4.83149909973145,13.4554138183594,15.4186592102051,17.9325714111328,-0.65668016672134,0.23518311977386,1.18141341209412,-0.4544837474823,-0.34636059403419,0.10873401165009,-8.59548473358154,-8.72498798370361,-8.75247764587402,17.851167678833,16.5678749084473,13.3764047622681,-8.25760173797607,-10.5775833129883,-11.9039707183838,19.9700355529785,19.6300601959229,17.4393653869629,1.97370564937592,2.31395745277405,2.00852489471436,0.18264870345592,-0.02321287989616,-0.13194689154625,-8.53134441375732,-8.01760673522949,-7.68773889541626,11.4993505477905,12.8688344955444,13.5128746032715,-12.1577558517456,-12.6102600097656,-13.9941091537476,13.6637086868286,9.05247688293457,6.78995609283447,0.93828904628754,0.29138273000717,-0.00244346098043,-0.1924225538969,-0.44348818063736,-0.55405479669571,-7.73355388641357,-7.69445848464966,-7.32244157791138,11.911153793335,8.97346782684326,5.4444146156311,-16.1129779815674,-17.8631381988525,-18.5718231201172,6.38533592224121,8.20014095306396,10.1322612762451,0.01832595653832,0.11972958594561,0.08552113175392,-0.54916787147522,-0.4331034719944,-0.39706242084503,-6.63338565826416,-5.87285852432251,-5.08850765228271,3.47638082504272,1.12288057804108,-2.29843354225159,-19.4169750213623,-19.2757186889648,-18.3635272979736,10.6877164840698,9.78749656677246,10.3118267059326,0.22846360504627,1.05618596076965,1.99936199188232,-0.51618111133575,-0.1814269721508,0.25289821624756,-4.04270601272583,-2.83869075775146,-1.55526292324066,-4.99430465698242,-7.5776481628418,-8.93276691436768,-17.1281185150146,-15.4569664001465,-13.0555820465088,13.2303581237793,13.716381072998,11.1833162307739,SWING_RIGHT
0.48197266459465,0.80756384134293,1.28281700611115,-0.49480083584785,-0.86681777238846,-1.37200331687927,-2.29990768432617,-3.04210901260376,-3.68840432167053,10.4937858581543,11.2910556793213,15.6556844711304,7.67341661453247,7.44596719741821,6.91206026077271,12.4306955337524,13.5080862045288,14.4921026229858,1.96209919452667,2.04517674446106,1.55892813205719,-2.31640100479126,-2.48194551467896,-2.08488297462463,-4.7659707069397,-5.78306150436401,-6.39087200164795,15.9525661468506,15.7706069946289,16.5535106658936,5.79157400131226,5.46117401123047,4.86501789093018,11.939884185791,9.7180643081665,6.72291851043701,0.49418997764587,-0.9523389339447,-2.18628668785095,-1.45447015762329,-0.70982539653778,0.30054569244385,-6.74273061752319,-7.04266548156738,-7.70545434951782,19.9149703979492,24.23410987854,25.2061557769775,3.45722723007202,-0.1508347094059,-3.98155736923218,4.75727891921997,5.34864664077759,10.7403888702393,-2.32312059402466,-1.17530477046967,0.48319441080093,0.98166042566299,1.14292883872986,0.86803948879242,-8.53806400299072,-9.31997108459473,-9.95954704284668,24.4783172607422,23.4224758148193,23.4631767272949,-8.36773490905762,-11.2575359344482,-13.7546892166138,16.4050693511963,16.4409828186035,11.4442844390869,1.34756875038147,1.5723671913147,1.48806774616241,0.61025440692902,0.30604347586632,-0.34025195240974,-10.4622888565063,-10.8184232711792,-10.9631986618042,22.5270442962646,21.3203659057617,21.3969802856445,-17.6404781341553,-22.211009979248,-28.6418342590332,8.88488292694092,7.74524259567261,7.77876138687134,1.14353978633881,0.48197266459465,0.10873401165009,-1.14964842796326,-1.34329271316528,-1.16491997241974,-11.0365028381348,-10.7023591995239,-9.30531024932861,16.6564617156982,3.27287364006042,-9.95509052276611,-34.6369171142578,-34.3951034545898,-31.6896533966064,7.953537940979,12.0069217681885,17.4249992370605,1.24372160434723,2.02990531921387,2.14841318130493,-0.68661254644394,-0.22907446324825,0.2981022298336,-5.24977588653564,-2.80936932563782,-0.99082344770432,-11.6669445037842,-10.172963142395,-9.14106178283691,-28.7615451812744,-23.5685214996338,-17.171215057373,17.3651447296143,13.086706161499,10.8050327301025,2.12031316757202,2.21255397796631,2.25714707374573,0.73364913463593,0.84665924310684,0.48624873161316,0.39645153284073,1.29992127418518,1.43370068073273,-7.36695861816406,-3.60087943077087,-0.39504328370094,-11.6310319900513,-6.90966606140137,-2.57855534553528,9.84735202789307,8.40125370025635,5.75805521011353,1.89673662185669,1.18996548652649,0.64629542827606,0.19975294172764,0.31826078891754,0.64629542827606,0.9957103729248,0.53206360340118,0.3720169365406,0.36152446269989,-1.28089785575867,-4.19942998886108,-0.15322890877724,0.55784898996353,0.98641109466553,4.3454761505127,5.51863479614258,9.20091724395752,0.68355822563171,0.86193084716797,0.74525558948517,0.40317106246948,0.06597344577312,0.01038470957428,0.48930305242538,0.50823986530304,0.34880405664444,-4.38857173919678,-2.8467059135437,-3.74692559242249,0.67995327711105,0.20829555392265,0.07182604819536,10.1825399398804,8.75559520721436,6.96952104568481,SWING_RIGHT
0.11972958594561,0.47891834378242,0.00916297826916,-0.70860368013382,-0.4972442984581,-0.35124751925468,-4.58698701858521,-4.47458791732788,-4.89364147186279,6.64869832992554,13.0340337753296,17.6452655792236,7.36217021942139,8.25520706176758,7.73805999755859,13.6661033630371,9.73721790313721,9.8808708190918,-0.7189884185791,-0.8778133392334,-0.3072652220726,0.22724187374115,0.98593652248383,1.80144155025482,-5.80871772766113,-6.867347240448,-8.00111293792725,20.0203151702881,23.0705280303955,13.7499008178711,4.84825849533081,-0.34955343604088,-3.55299520492554,14.1952219009399,19.0458736419678,23.0705280303955,0.97982788085938,1.97553825378418,2.1911735534668,2.39398097991943,2.31090331077576,2.32617473602295,-7.92108964920044,-7.45927572250366,-8.11045742034912,14.853627204895,25.2277030944824,23.2548809051514,-4.68784713745117,-8.57363605499268,-12.526463508606,19.2110748291016,13.1537437438965,10.4961805343628,2.17834544181824,2.42880010604858,2.75316977500916,2.39214825630188,2.29074478149414,1.66582953929901,-8.8477725982666,-8.71826839447021,-8.43788146972656,17.0443210601807,15.7275114059448,15.8232793807983,-15.842432975769,-17.693151473999,-19.3714866638184,10.2400007247925,8.75559520721436,5.80593919754028,2.60411858558655,1.94866013526917,1.56503677368164,1.2168436050415,1.00731682777405,1.16003310680389,-8.3566370010376,-8.14222240447998,-7.50264692306519,13.0962829589844,5.6742582321167,-5.99268674850464,-21.1048889160156,-26.1351051330566,-29.2858753204346,3.28963303565979,5.40371322631836,8.40843677520752,1.76417887210846,1.66888380050659,1.76967656612396,0.74159038066864,0.64812803268433,0.5705481171608,-5.97487306594849,-3.74582576751709,-1.55892813205719,-13.594277381897,-15.9812965393066,-13.8169384002686,-28.723237991333,-25.7879467010498,-22.7449169158936,7.48427438735962,9.06923580169678,10.0580415725708,2.34755516052246,2.63405084609985,2.36832451820374,0.18264870345592,-0.36468654870987,-0.33231070637703,0.21685716509819,1.32313406467438,1.94377315044403,-10.4243545532227,-8.30787944793701,-7.52497577667236,-18.7801189422607,-13.8360919952393,-9.89523601531982,7.161057472229,5.19062948226929,6.61039066314697,2.30784893035889,2.39153742790222,2.17101502418518,-0.30604347586632,-0.59253931045532,-0.58276546001434,2.36649203300476,2.59556651115417,2.37993097305298,-5.77002620697021,-2.67911171913147,-3.56975483894348,-6.69658231735229,-3.84987640380859,-1.45806884765625,6.63193893432617,4.98951625823975,4.87698888778687,1.75012898445129,0.89797192811966,0.30604347586632,-0.49846604466438,-0.32009339332581,-0.20402899384499,2.08610486984253,1.89368224143982,1.8613064289093,-4.86980628967285,-4.93684387207031,-3.05978965759277,-0.28012159466743,1.83156430721283,1.79086291790009,5.41329002380371,4.9105076789856,5.85382318496704,-0.21746802330017,-0.44287729263306,-0.59742623567581,-0.11178833991289,-0.06230825558305,0.15454891324043,1.60596477985382,1.25716066360474,1.24983024597168,-2.92092609405518,-5.832275390625,-7.41244840621948,1.38624274730682,1.84592950344086,2.11886858940125,7.56328296661377,7.59440755844116,7.04852962493896,SWING_RIGHT
-0.40866884589195,-1.1001683473587,-0.83749628067017,0.24862214922905,0.18692477047443,-0.37323865294456,-0.06658431142569,-0.06536258012056,-0.74036866426468,2.88740730285645,8.09000778198242,9.66778659820557,6.64151573181152,6.33745193481445,7.0317702293396,4.78361511230469,9.43315505981445,12.9909381866455,-0.07330382615328,0.29626965522766,0.38667771220207,-0.69455379247665,-0.74708819389343,-0.82711154222488,-1.48195910453796,-1.8912388086319,-2.22599291801453,8.87291145324707,9.09557247161865,10.0795888900757,8.15943908691406,9.32541561126709,11.580753326416,11.7818670272827,10.7930612564087,11.6070899963379,0.44898596405983,0.51068335771561,0.84055060148239,-1.18507862091064,-1.37994456291199,-1.24311077594757,-2.69269394874573,-3.20215559005737,-3.85822486877441,11.7938375473022,15.7849721908569,22.1703071594238,12.7610950469971,12.9981212615967,11.8872117996216,12.3109855651855,13.8313035964966,15.2702188491821,1.32985365390778,1.29625606536865,0.52412235736847,-1.12154853343964,-1.18752205371857,-1.2889256477356,-4.94739770889282,-6.25159502029419,-7.37986326217651,26.2141151428223,26.8078765869141,25.189395904541,7.95593214035034,3.67270541191101,0.91458505392075,12.4259071350098,9.05487060546875,7.65905141830444,-0.60658919811249,-1.53143918514252,-1.51311326026917,-0.52106803655624,0.41355577111244,0.62980204820633,-8.09946250915527,-8.52828979492188,-9.1244945526123,24.2125625610352,25.0648975372314,26.5157833099365,-3.77805018424988,-8.43956089019775,-15.1169891357422,7.90325975418091,11.8345394134521,18.0211563110352,-0.30237829685211,1.35489916801453,2.60534024238586,0.43554693460464,0.30482175946236,0.16249015927315,-9.87158203125,-10.2209968566895,-10.2662010192871,22.7113971710205,19.0171432495117,16.7689895629883,-19.5725994110107,-21.935676574707,-23.7504806518555,19.7641353607178,16.7977199554443,11.2862672805786,2.84235596656799,1.8301522731781,0.32742378115654,-0.62124997377396,-0.80145519971848,-0.45204028487206,-10.1837348937988,-9.84531497955322,-9.09211826324463,14.2574710845947,10.1825399398804,8.00381660461426,-24.6339416503906,-24.4184627532959,-26.3793144226074,5.13556241989136,2.52348852157593,3.99113416671753,-0.81611597537994,-1.16369831562042,-0.35796701908112,0.17043140530586,0.73853605985641,0.36407569050789,-8.35236072540283,-7.51425361633301,-6.13980674743652,3.5960910320282,-4.40772533416748,-12.5767412185669,-28.9554748535156,-28.8884372711182,-26.6139469146729,7.43399620056152,13.0914945602417,17.3220500946045,1.26143670082092,2.76783037185669,3.50086879730225,-0.04337143152952,-0.03970624133945,0.0299323964864,-4.12272930145264,-1.80693936347961,0.17043140530586,-17.3986644744873,-15.6963863372803,-10.5704002380371,-23.245304107666,-19.436128616333,-14.8129262924194,16.7282867431641,12.2080345153809,7.48188018798828,3.52224898338318,3.13618206977844,2.56563401222229,-0.04276056587696,-0.26328292489052,-0.46914452314377,1.37627935409546,1.77150917053223,1.62917757034302,-5.31273365020752,-2.03507137298584,-1.84832370281219,-10.8122148513794,-6.9431848526001,-4.23294878005981,4.80037450790405,3.68946480751038,3.0550012588501,SWING_RIGHT
-0.06597344577312,0.10812314599752,0.30298915505409,-0.30054569244385,-0.04581489413977,-0.22785273194313,-0.58154368400574,-0.76907932758331,-0.94561940431595,4.29040956497192,2.55221891403198,1.9249382019043,4.72854852676392,5.93283176422119,8.56884765625,10.6230726242065,10.6733512878418,12.0715646743774,0.58276546001434,0.89430671930313,0.37446039915085,-0.97860610485077,-1.16736352443695,-0.60536748170853,-1.01464712619781,-1.21440005302429,-1.37994456291199,3.66791701316834,4.71418333053589,4.55616569519043,8.95910263061523,7.20654726028442,5.86339998245239,11.8656635284424,8.10676670074463,5.13556241989136,-0.54550266265869,-0.67378437519073,0.04153883829713,-0.31826078891754,-0.69516462087631,-0.51801371574402,-1.32557761669159,-3.35853719711304,-3.98100876808167,10.1777515411377,15.1313543319702,12.0284690856934,5.30794525146484,3.79241538047791,4.51546430587769,6.94797325134277,15.7945489883423,15.2103633880615,0.41722095012665,0.4850270152092,0.5894849896431,-0.07757988572121,0.13316862285137,-0.09773843735456,-3.97551107406616,-4.76841402053833,-6.67370271682739,18.6244945526123,27.5812034606934,27.4830417633057,4.64475107192993,3.2776620388031,-0.31842881441116,13.6948337554932,13.510479927063,13.0196685791016,0.84055060148239,1.1612548828125,1.43308985233307,1.13804197311401,0.74403387308121,-0.3500257730484,-8.51790523529053,-8.94306755065918,-9.85875415802002,21.5837287902832,24.9427928924561,26.6187343597412,-5.96635055541992,-9.91678333282471,-15.8591918945313,11.3964004516602,10.6972932815552,9.08120727539062,1.37811195850372,1.4312572479248,1.66338610649109,-0.9523389339447,-0.95050632953644,-1.21806526184082,-10.967474937439,-11.5441312789917,-11.3523197174072,22.5294380187988,16.4697132110596,10.8265800476074,-22.2445278167725,-26.3098831176758,-27.3058700561523,9.543288230896,10.8457336425781,9.29189682006836,1.31763637065887,-0.12889257073402,-1.64811444282532,-1.67926859855652,-1.61634945869446,-0.8344419002533,-10.3950939178467,-8.98338413238525,-7.77509260177612,6.07169532775879,5.37737703323364,4.06774854660034,-25.4575462341309,-25.6514778137207,-27.7128849029541,5.01585245132446,4.55137729644775,9.63905620574951,-2.02440738677979,-1.08734011650085,0.79351395368576,0.19975294172764,0.73426002264023,0.65790188312531,-6.74456310272217,-5.29803419113159,-3.35120677947998,-2.86107110977173,-9.98382091522217,-12.3061971664429,-26.2907295227051,-23.2620639801025,-19.9053936004639,15.7658185958862,20.0011615753174,18.2031154632568,2.42696762084961,2.93337488174438,2.54608631134033,0.37995818257332,0.49663344025612,0.7617489695549,-1.44408547878265,-0.03848451003432,0.8472700715065,-10.3812589645386,-8.1331033706665,-5.78917980194092,-16.1201591491699,-12.0907182693481,-8.83939266204834,11.9303073883057,6.92163705825806,5.98789834976196,2.12520027160645,1.82587623596191,1.53632605075836,0.77946406602859,0.27244588732719,-0.05681046843529,1.28037357330322,1.53021740913391,1.57908666133881,-5.09007263183594,-4.01507616043091,-1.20907187461853,-5.58088397979736,-2.77966809272766,-1.73819041252136,6.10521411895752,6.19619417190552,5.99747514724731,SWING_RIGHT
-0.69516462087631,-0.54489177465439,-0.10079276561737,0.31948253512383,0.15882496535778,-0.7367035150528,1.92972326278687,2.20705604553223,1.694540143013,0.33039984107018,6.65588092803955,11.1928930282593,2.58573794364929,3.02387666702271,5.85621738433838,9.81862163543701,10.6805334091187,10.3190097808838,0.35979962348938,0.24556782841682,-0.19669860601425,-1.786780834198,-2.23271250724792,-1.58763873577118,0.51190507411957,-0.23884831368923,-0.57543504238129,8.29351425170898,8.4299840927124,14.6213893890381,10.0556468963623,11.9614315032959,11.9853734970093,8.50899314880371,8.5712423324585,10.498574256897,-0.16310101747513,0.29565876722336,0.81855940818787,-0.64812803268433,-0.48075094819069,-0.61269783973694,-1.53510439395905,-3.24002933502197,-4.91746520996094,19.6133003234863,20.4704246520996,19.0267200469971,11.310209274292,9.58877754211426,7.78833818435669,11.1306438446045,10.9199542999268,11.6142721176147,1.47768306732178,1.86741507053375,1.26571273803711,-0.74464476108551,-1.53021740913391,-1.98531210422516,-6.05367469787598,-6.75861310958862,-7.14773416519165,18.4688720703125,19.7210388183594,22.5007076263428,6.68461132049561,6.63193893432617,5.23133087158203,10.4075946807861,5.84664058685303,0.9720458984375,-0.47342056035995,-2.68963956832886,-3.11419105529785,-1.34879040718079,-0.15088371932507,2.13680672645569,-7.4482798576355,-7.76226472854614,-9.03469657897949,25.4000854492188,27.8732967376709,23.3530426025391,2.67911171913147,-2.84191751480103,-9.26077175140381,0.36631286144257,7.50582218170166,19.4576778411865,-0.97066485881805,1.15331363677979,2.20583438873291,2.11115026473999,0.96638882160187,0.47952923178673,-9.41160106658936,-10.1464719772339,-10.8593511581421,26.3170642852783,24.4974708557129,19.0913639068604,-14.3005666732788,-19.6276664733887,-22.7066097259521,17.2167053222656,11.9231243133545,8.69574069976807,1.33840572834015,0.1685988008976,-0.79351395368576,-0.52962017059326,-0.6884451508522,-0.53695052862167,-9.79033756256104,-8.94734287261963,-7.88810300827026,13.3452806472778,9.41878986358643,2.35350036621094,-24.1048221588135,-25.3785381317139,-25.0241966247559,4.74051952362061,5.96874475479126,10.9822034835815,-0.75808376073837,0.38545596599579,1.4611896276474,0.04459316283464,0.36407569050789,0.2981022298336,-6.37743330001831,-4.65173864364624,-3.08853459358215,-3.35427665710449,-6.04775333404541,-6.76122570037842,-24.6123943328857,-22.6036586761475,-19.3978214263916,16.3069076538086,16.7857475280762,13.6541318893433,2.02135300636292,2.62000107765198,2.9480357170105,0.52595496177673,0.57421332597733,0.3500257730484,-1.81610238552094,-0.91813045740128,-0.35430184006691,-6.36378812789917,-5.82748699188232,-4.41490793228149,-15.9956617355347,-12.8424978256226,-9.59596061706543,13.0699472427368,11.2072582244873,7.48188018798828,2.64626812934875,2.04945278167725,1.48684597015381,0.18020524084568,0.17104226350784,0.23335053026676,-0.07696902006865,0.07819075137377,0.25595253705978,-3.91451978683472,-4.01747035980225,-3.8690299987793,-6.95515584945679,-5.30555105209351,-3.93367338180542,5.80115079879761,5.99986934661865,6.33026933670044,SWING_RIGHT
