gyro_x_0,gyro_y_0,gyro_z_0,acc_x_0,acc_y_0,acc_z_0,gyro_x_1,gyro_y_1,gyro_z_1,acc_x_1,acc_y_1,acc_z_1,gyro_x_2,gyro_y_2,gyro_z_2,acc_x_2,acc_y_2,acc_z_2,gyro_x_3,gyro_y_3,gyro_z_3,acc_x_3,acc_y_3,acc_z_3,gyro_x_4,gyro_y_4,gyro_z_4,acc_x_4,acc_y_4,acc_z_4,gyro_x_5,gyro_y_5,gyro_z_5,acc_x_5,acc_y_5,acc_z_5,gyro_x_6,gyro_y_6,gyro_z_6,acc_x_6,acc_y_6,acc_z_6,gyro_x_7,gyro_y_7,gyro_z_7,acc_x_7,acc_y_7,acc_z_7,gyro_x_8,gyro_y_8,gyro_z_8,acc_x_8,acc_y_8,acc_z_8,gyro_x_9,gyro_y_9,gyro_z_9,acc_x_9,acc_y_9,acc_z_9,gyro_x_10,gyro_y_10,gyro_z_10,acc_x_10,acc_y_10,acc_z_10,gyro_x_11,gyro_y_11,gyro_z_11,acc_x_11,acc_y_11,acc_z_11,gyro_x_12,gyro_y_12,gyro_z_12,acc_x_12,acc_y_12,acc_z_12,gyro_x_13,gyro_y_13,gyro_z_13,acc_x_13,acc_y_13,acc_z_13,gyro_x_14,gyro_y_14,gyro_z_14,acc_x_14,acc_y_14,acc_z_14,gyro_x_15,gyro_y_15,gyro_z_15,acc_x_15,acc_y_15,acc_z_15,gyro_x_16,gyro_y_16,gyro_z_16,acc_x_16,acc_y_16,acc_z_16,gyro_x_17,gyro_y_17,gyro_z_17,acc_x_17,acc_y_17,acc_z_17,gyro_x_18,gyro_y_18,gyro_z_18,acc_x_18,acc_y_18,acc_z_18,gyro_x_19,gyro_y_19,gyro_z_19,acc_x_19,acc_y_19,acc_z_19,gyro_x_20,gyro_y_20,gyro_z_20,acc_x_20,acc_y_20,acc_z_20,gyro_x_21,gyro_y_21,gyro_z_21,acc_x_21,acc_y_21,acc_z_21,gyro_x_22,gyro_y_22,gyro_z_22,acc_x_22,acc_y_22,acc_z_22,gyro_x_23,gyro_y_23,gyro_z_23,acc_x_23,acc_y_23,acc_z_23,gyro_x_24,gyro_y_24,gyro_z_24,acc_x_24,acc_y_24,acc_z_24,gyro_x_25,gyro_y_25,gyro_z_25,acc_x_25,acc_y_25,acc_z_25,gyro_x_26,gyro_y_26,gyro_z_26,acc_x_26,acc_y_26,acc_z_26,gyro_x_27,gyro_y_27,gyro_z_27,acc_x_27,acc_y_27,acc_z_27,gyro_x_28,gyro_y_28,gyro_z_28,acc_x_28,acc_y_28,acc_z_28,gyro_x_29,gyro_y_29,gyro_z_29,acc_x_29,acc_y_29,acc_z_29,motion_type
-0.8347709774971,-0.5723580121994,-0.61115097999573,-0.77954697608948,-1.43148505687714,-3.16942095756531,-1.64307403564453,-2.65339493751526,-5.57044315338135,3.25500011444092,6.31500005722046,8.27600002288818,9.01299953460693,10.66100025177,10.8959999084473,15.6389999389648,17.2080001831055,15.6389999389648,-1.02183103561401,-1.35931694507599,-1.19255399703979,-5.37538623809814,-6.58175086975098,-6.69005489349365,-8.87984943389893,-9.77701377868652,-8.64472961425781,8.9040002822876,7.80600023269653,5.53000020980835,9.72000026702881,9.0920000076294,7.28700017929077,10.9320001602173,7.79400014877319,3.24300003051758,-0.7964980006218,-0.37105199694633,0.12065000087023,-6.31317520141602,-5.78690099716187,-5.00379991531372,-6.76754379272461,-4.82571506500244,-3.13735389709473,4.43200016021729,-2.31399989128113,-11.8070001602173,4.54099988937378,-3.53800010681152,-12.4820003509521,1.75300002098084,-1.46300005912781,-3.42400002479553,0.31075701117516,-16.505672454834,-10.4600448608398,-1.59171998500824,13.6886787414551,10.3601408004761,-0.60450899600983,4.64111995697021,0.48310598731041,-23.8110008239746,-26.7919998168945,-5.4520001411438,-20.4850006103516,-22.5249996185303,-17.1110000610352,-5.07200002670288,-5.77799987792969,1.51699995994568,-7.91224193572998,-5.85697507858276,-4.20301198959351,8.65740203857422,7.11836719512939,5.28682422637939,-0.56633198261261,-1.23739898204803,-2.04994797706604,2.07800006866455,14.003999710083,31.8920001983643,-9.26599979400635,4.46299982070923,28.1569995880127,3.87100005149841,7.48000001907349,12.4230003356934,12.0959329605103,13.206166267395,11.7262277603149,-15.572359085083,-12.0930643081665,-9.47971534729004,0.66848301887512,-0.49781200289726,-1.07407200336456,29.3810005187988,23.6539993286133,16.6709995269775,39.2980003356934,32.7070007324219,18.742000579834,4.10599994659424,5.51900005340576,9.44099998474121,9.75659847259522,7.75103092193604,5.77871990203857,-7.47802209854126,-5.71503114700317,-3.77678203582764,-1.18583798408508,-1.01460003852844,-0.44141501188278,8.98200035095215,-1.2940000295639,-12.9060001373291,3.91400003433228,-10.5209999084473,-22.8390007019043,14.5410003662109,17.9930000305176,14.0699996948242,3.15222907066345,-4.44548320770264,-11.3315725326538,-0.7661389708519,4.40412282943726,9.6522274017334,1.04866003990173,3.94503498077393,1.13803195953369,-26.007999420166,-31.0289993286133,-23.3400001525879,-30.9200000762939,-31.2329998016357,-27.5459995269775,2.69400000572205,-5.62099981307983,-5.85699987411499,-10.6735439300537,-9.19272327423096,-7.84610414505005,10.8450727462769,10.0116147994995,8.880934715271,-0.68033999204636,-1.18760895729065,-1.40261101722717,-6.23699998855591,4.51000022888184,9.13899993896484,-18.8369998931885,-8.32400035858154,2.81500005722046,-0.36500000953674,4.10599994659424,7.32299995422363,-6.60599803924561,8.41269111633301,12.3477449417114,7.47325277328491,-12.6268243789673,-10.6510372161865,-1.45305001735687,0.51179397106171,-1.25726699829102,20.3589992523193,29.3810005187988,22.7910003662109,20.3899993896484,37.3359985351563,33.8059997558594,13.28600025177,12.5010004043579,5.12599992752075,SHAKE
-6.29980993270874,-0.00551200006157,11.4677762985229,7.02997922897339,-8.76755046844482,-11.8885345458984,-1.596146941185,-0.74234998226166,0.27344000339508,15.6510000228882,30.3229999542236,27.6550006866455,10.5830001831055,37.4150009155273,38.5130004882813,11.6379995346069,12.0299997329712,9.52000045776367,11.8247604370117,10.4555835723877,8.74804782867432,-9.75617980957031,-7.88778305053711,-6.33125114440918,-0.95119601488113,-1.34187400341034,-1.34739005565643,22.4769992828369,15.1809997558594,7.80600023269653,30.1180000305176,16.3099994659424,2.81500005722046,8.6569995880127,10.0690002441406,12.7360000610352,7.04614400863647,5.28401279449463,2.8477509021759,-4.89416122436523,-3.17490100860596,-0.53353101015091,-1.00454294681549,-0.25205400586128,1.51446902751923,-0.66699999570847,-10.7089996337891,-24.7530002593994,-9.10900020599365,-20.798999786377,-30.9979991912842,14.8549995422363,11.9519996643066,1.8309999704361,-4.75088596343994,-12.1665811538696,-9.49344444274902,4.08646583557129,9.78083610534668,10.1760749816895,4.8752818107605,1.69898200035095,-0.91929697990417,-33.226001739502,-25.6940002441406,4.35400009155273,-34.1360015869141,-30.6060009002686,-13.1890001296997,-7.66099977493286,-8.36699962615967,4.65500020980835,-8.02322959899902,-6.73981285095215,-5.45581102371216,8.83969783782959,7.3491587638855,4.29106616973877,-1.30072999000549,-1.59864497184753,-2.56068992614746,10.6300001144409,10.6300001144409,30.8719997406006,-2.28299999237061,-2.28299999237061,32.314998626709,7.95100021362305,7.95100021362305,15.4820003509521,3.35784292221069,11.939151763916,11.7095336914063,-13.1214046478271,-11.6740655899048,-9.15830230712891,-0.49412301182747,-1.41271901130676,-2.21084094047546,32.1269989013672,27.5769996643066,21.378999710083,38.1209983825684,37.0219993591309,26.2740001678467,11.6379995346069,7.71500015258789,8.0290002822876,10.3199348449707,8.61916637420654,6.9549560546875,-7.22641897201538,-5.67234420776367,-4.23950004577637,-2.30781006813049,-2.03458595275879,-1.38094699382782,14.003999710083,6.78599977493286,-0.58799999952316,12.2299995422363,-0.40000000596046,-12.0120000839233,10.3830003738403,13.9130001068115,13.9919996261597,5.1623067855835,2.34626293182373,-7.62788581848145,-2.60893511772156,0.11343199759722,5.6357889175415,-0.28965499997139,2.13185596466064,5.67747116088867,-14.0830001831055,-29.8519992828369,-32.9900016784668,-24.7220001220703,-33.4300003051758,-33.9010009765625,8.3430004119873,-0.28600001335144,-5.69999980926514,-11.8459243774414,-10.5559492111206,-9.01773166656494,10.4337472915649,10.8380403518677,9.74452114105225,2.22780108451843,0.70215302705765,0.01927999965847,-20.3589992523193,-2.86299991607666,7.09999990463257,-28.173999786377,-18.5240001678467,-8.71700000762939,-5.30700016021729,0.26199999451637,5.59700012207031,-7.51946783065796,-4.59097194671631,8.73053359985352,8.41244506835938,1.02660799026489,-12.8254928588867,-0.44448599219322,-2.47661304473877,-1.10173404216766,12.8269996643066,32.4410018920898,30.5580005645752,2.18799996376038,34.6689987182617,38.7480010986328,9.1269998550415,13.9919996261597,8.81400012969971,SHAKE
8.73053359985352,11.909065246582,11.0185308456421,-12.8254928588867,-10.3502330780029,-8.19755840301514,-1.10173404216766,-2.919105052948,-3.29502010345459,30.5580005645752,26.3209991455078,20.3589992523193,38.7480010986328,34.5120010375977,23.6849994659424,8.81400012969971,6.22499990463257,6.69500017166138,9.54555797576904,7.9912519454956,6.47681188583374,-6.55355978012085,-5.21109294891357,-4.03968477249146,-3.11462998390198,-2.62846088409424,-1.90342795848846,13.6110000610352,7.72700023651123,-0.195999994874,11.0530004501343,-0.24300000071526,-11.2270002365112,8.73499965667725,10.7749996185303,12.8149995803833,4.88377285003662,2.188805103302,-7.50823211669922,-2.44659996032715,0.47119799256325,5.85042905807495,-0.67692500352859,2.28019595146179,6.65437984466553,-12.9060001373291,-28.5179996490479,-33.6969985961914,-23.3880004882813,-32.2529983520508,-33.5870018005371,10.6180000305176,1.98800003528595,-4.75799989700317,-11.8788290023804,-10.5066909790039,-8.80672168731689,10.7101421356201,11.2263803482056,10.160138130188,3.20968198776245,1.35405302047729,0.49198600649834,-22.0849990844727,-5.2960000038147,1.05799996852875,-28.173999786377,-19.2299995422363,-14.6789999008179,-4.52299976348877,0.26199999451637,3.16499996185303,-7.20672082901001,-5.90931510925293,-4.65204620361328,8.96993446350098,7.37212896347046,3.13389897346497,-0.2281229943037,-0.80903297662735,-2.08301210403442,11.3360004425049,20.1229991912842,30.7929992675781,-0.55699998140335,14.9759998321533,32.2360000610352,8.3430004119873,12.9720001220703,15.7959995269775,6.41934013366699,11.6969900131226,9.70061111450195,-12.3403158187866,-10.5472621917725,-6.80762577056885,-0.27068901062012,-2.20116400718689,-2.96610903739929,32.7550010681152,28.2830009460449,15.9650001525879,38.1209983825684,36.4729995727539,14.4270000457764,12.5799999237061,8.3430004119873,9.36299991607666,8.06114292144775,6.42749500274658,4.8112587928772,-5.45811176300049,-4.22372913360596,-2.70609593391419,-2.64808797836304,-1.99063098430634,-0.8095999956131,10.1590003967285,2.23499989509583,-8.11999988555908,1.87399995326996,-10.128999710083,-20.9559993743896,13.4429998397827,15.2469997406006,12.8929996490479,2.56876301765442,-3.7713840007782,-10.8551177978516,-0.31199699640274,3.38794088363647,8.05507755279541,1.52440702915192,5.88016176223755,4.92839288711548,-20.2810001373291,-29.5380001068115,-27.2630004882813,-29.1940002441406,-32.5670013427734,-30.3700008392334,5.28299999237061,-2.09100008010864,-4.05200004577637,-10.7854776382446,-9.28729343414307,-7.69995021820068,10.335976600647,10.2599229812622,9.36594676971436,2.32046604156494,1.0998500585556,0.25093701481819,-12.7489995956421,2.07800006866455,7.33500003814697,-23.0739994049072,-13.0319995880127,-4.16599988937378,-1.93400001525879,3.32200002670288,7.08799982070923,-6.30167722702026,-4.96217679977417,-0.97902798652649,8.07398223876953,5.73323822021484,-4.10735988616943,-0.2821170091629,-0.86277198791504,-1.7435200214386,11.6499996185303,23.2609996795654,29.9300003051758,7.36600017547607,25.4109992980957,36.3950004577637,10.2259998321533,15.0120000839233,15.0900001525879,SHAKE
-6.52542591094971,-5.25212907791138,-2.23093891143799,7.07637786865234,4.73081588745117,-3.76527810096741,-0.15633399784565,-1.15302705764771,-2.01271295547485,14.4739999771118,23.0259990692139,29.6159992218018,4.30600023269653,21.0170001983643,34.4329986572266,10.3830003738403,12.9720001220703,12.1870002746582,11.1003522872925,9.84481906890869,8.31291484832764,-8.3971529006958,-6.70882081985474,-5.33531284332275,-2.89719009399414,-2.81690311431885,-2.51290488243103,27.6550006866455,21.2220001220703,13.7679996490479,34.5900001525879,23.056999206543,9.5629997253418,10.1470003128052,11.08899974823,13.4429998397827,6.89720916748047,3.67522811889648,0.40733900666237,-4.00499820709229,-0.9879310131073,1.60216498374939,-1.82161104679108,0.46108600497246,3.44621706008911,6.39300012588501,-14.6319999694824,-28.9109992980957,-2.51900005340576,-27.6240005493164,-35.548999786377,15.0900001525879,6.77400016784668,-1.85500001907349,-8.98324584960938,-11.9159641265869,-10.6051530838013,6.08912801742554,10.0117750167847,10.1132354736328,6.17263078689575,3.04636311531067,1.74131798744202,-28.9109992980957,-18.4759998321533,-3.33400011062622,-35.548999786377,-28.7229995727539,-17.3470001220703,-1.85500001907349,0.73299998044968,2.14499998092651,-9.06459045410156,-7.41618680953979,-5.61772680282593,9.01940822601318,7.89497184753418,5.36986207962036,1.07909405231476,0.38222399353981,0.00778899993747,6.94299983978271,18.1620006561279,18.1620006561279,-4.24499988555908,14.2700004577637,14.2700004577637,6.85200023651123,14.2270002365112,14.2270002365112,-0.46858900785446,10.3211097717285,10.6414070129395,-3.39838409423828,-9.43375873565674,-8.38808822631836,-0.65138000249863,-3.55507802963257,-4.62350177764893,31.8920001983643,27.4200000762939,20.9080009460449,38.1209983825684,37.0219993591309,26.3519992828369,15.2469997406006,12.9720001220703,13.2069997787476,9.38225555419922,7.82385683059692,6.23335695266724,-6.75297689437866,-5.24283313751221,-3.87279891967773,-4.2079439163208,-3.46741199493408,-2.517657995224,13.2980003356934,7.33500003814697,0.50900000333786,12.3090000152588,-0.16500000655651,-11.6979999542236,13.835000038147,15.7180004119873,14.8549995422363,1.92559194564819,-5.64647579193115,-10.7043724060059,0.41938701272011,4.63052082061768,8.50541591644287,1.52911305427551,5.31598091125488,3.84497809410095,-25.8509998321533,-29.8519992828369,-22.7910003662109,-32.3320007324219,-33.1160011291504,-26.9969997406006,2.06599998474121,-0.36500000953674,-0.83499997854233,-10.1407518386841,-8.75143909454346,-7.20243787765503,9.384108543396,8.94930171966553,8.28336334228516,2.31497406959534,1.49811995029449,0.78443098068237,-16.9069995880127,0.03900000080466,6.47200012207031,-23.2310009002686,-10.2069997787476,-0.55699998140335,0.02700000070035,3.08599996566772,5.0479998588562,-5.69742584228516,-3.90578699111938,11.922550201416,7.16383600234985,4.46490001678467,-10.0992946624756,0.29640299081802,-0.39338698983192,-3.19856905937195,13.6899995803833,27.8120002746582,26.1639995574951,13.0150003433228,30.5890007019043,36.3950004577637,11.4809999465942,17.5219993591309,12.1870002746582,SHAKE
-5.69742584228516,-3.90578699111938,11.922550201416,7.16383600234985,4.46490001678467,-10.0992946624756,0.29640299081802,-0.39338698983192,-3.19856905937195,13.6899995803833,27.8120002746582,26.1639995574951,13.0150003433228,30.5890007019043,36.3950004577637,11.4809999465942,17.5219993591309,12.1870002746582,11.3991718292236,9.89730644226074,8.17893600463867,-8.57232475280762,-6.86352682113647,-5.41518688201904,-3.363529920578,-2.9885458946228,-2.50986790657043,20.3589992523193,13.9250001907349,7.41300010681152,27.8430004119873,15.6820001602173,3.44300007820129,11.08899974823,11.1669998168945,12.2659997940063,6.66291904449463,5.03611421585083,2.72227001190186,-4.09513998031616,-2.61922907829285,-0.20892100036144,-1.71113300323486,-0.78876602649689,1.09588897228241,4.19700002670288,-8.82600021362305,-21.7709999084473,-2.20499992370605,-20.4069995880127,-31.3120002746582,12.8929996490479,10.6180000305176,1.28199994564056,-4.36479520797729,-11.6926460266113,-10.03089427948,3.8347749710083,10.163516998291,9.26270198822022,5.01741123199463,1.55934000015259,0.87270802259445,-30.0879993438721,-11.4940004348755,1.2150000333786,-35.3129997253418,-24.4860000610352,-14.4440002441406,-7.66099977493286,-1.46300005912781,4.49900007247925,-8.41128253936768,-6.83822393417358,-4.92454481124878,7.99426412582397,6.53725385665894,3.37042903900146,0.31687799096107,-0.20936000347137,-1.0517270565033,9.45300006866455,18.5540008544922,24.5949993133545,-2.75399994850159,13.4849996566772,22.8999996185303,10.6969995498657,17.2080001831055,19.3269996643066,2.87810397148132,11.05735206604,11.2375497817993,-7.93286800384521,-9.96160125732422,-8.47281837463379,-1.54563105106354,-3.0976300239563,-3.67850708961487,33.4609985351563,28.9890003204346,26.0069999694824,37.8849983215332,37.101001739502,33.3349990844727,14.6190004348755,7.87200021743774,5.44000005722046,10.1444826126099,8.66770362854004,7.20212697982788,-7.03442478179932,-5.87771987915039,-4.81252908706665,-3.49225807189941,-3.12039303779602,-2.39190697669983,16.6709995269775,10.6300001144409,2.07800006866455,16.0750007629395,3.67799997329712,-8.95199966430664,5.51900005340576,9.52000045776367,12.5010004043579,5.61148500442505,3.57873010635376,-3.63686490058899,-3.66101598739624,-1.55287396907806,3.31391596794128,-1.42804002761841,0.56873297691345,6.03505611419678,-9.76799964904785,-23.7329998016357,-31.1079998016357,-21.4260005950928,-31.3120002746582,-34.6860008239746,11.08899974823,7.08799982070923,2.45900011062622,-11.2537517547607,-10.5730314254761,-8.99967670440674,8.86885643005371,10.0214824676514,9.53929615020752,5.00110483169556,3.00184988975525,1.75201904773712,-25.6940002441406,-11.5719995498657,1.45099997520447,-30.9979991912842,-22.9169998168945,-12.6389999389648,0.26199999451637,0.10499999672174,2.6159999370575,-7.44607210159302,-4.54060792922974,3.93612599372864,8.68027496337891,4.39216709136963,-10.6002941131592,0.77674597501755,-1.14187502861023,-0.35242700576782,6.78599977493286,28.4400005340576,30.4009990692139,-6.59800004959106,32.2360000610352,38.1209983825684,4.49900007247925,10.0690002441406,8.5,SHAKE
-9.00185012817383,-7.43793201446533,-4.47740507125854,10.4105367660522,8.91238689422607,1.25690698623657,0.08638799935579,-0.10451100021601,-1.72501194477081,2.78399991989136,8.11900043487549,29.3810005187988,-10.3640003204346,-4.32299995422363,34.3549995422363,4.34200000762939,7.16599988937378,13.5989999771118,9.17454147338867,11.9942083358765,10.2705545425415,-11.8238792419434,-9.99652767181396,-7.35490608215332,-0.47834798693657,-2.46460390090942,-2.87954902648926,30.9500007629395,24.5170001983643,18.3190002441406,37.257999420166,33.8059997558594,23.5279998779297,12.2659997940063,6.46000003814697,6.53800010681152,7.24413681030273,5.79083108901978,4.22667598724365,-4.57294416427612,-3.29459691047669,-1.68951404094696,-2.02184891700745,-1.24662005901337,0.05872400105,6.70699977874756,-1.76499998569489,-15.4160003662109,0.14800000190735,-12.4820003509521,-23.7800006866455,11.7950000762939,9.75500011444092,5.44000005722046,-9.79071617126465,-11.8652925491333,-10.4257659912109,7.36277484893799,10.7008190155029,10.7947378158569,5.89680194854736,2.35829591751099,0.6908860206604,-30.636999130249,-20.4379997253418,-20.4379997253418,-31.8610000610352,-27.7029991149902,-27.7029991149902,1.9099999666214,-0.05099999904633,-0.05099999904633,-8.87804126739502,-7.27451801300049,-5.94581079483032,9.89824390411377,8.64857196807861,6.39917707443237,-0.19886699318886,-0.92433601617813,-1.38385498523712,9.76700019836426,16.5930004119873,25.6940002441406,-6.83400011062622,8.85700035095215,26.5879993438721,2.14499998092651,7.40100002288818,9.44099998474121,-4.50773191452026,11.2627277374268,12.3203325271606,-0.56068199872971,-13.9363145828247,-10.8334112167358,-2.8865110874176,-1.05877900123596,-2.82861804962158,33.6180000305176,31.3419990539551,25.6149997711182,36.7080001831055,38.5909996032715,31.2950000762939,7.24499988555908,3.79200005531311,1.75300002098084,10.8763828277588,9.25097274780273,7.71860122680664,-8.3902759552002,-6.53274202346802,-5.10048198699951,-2.9755699634552,-2.71445608139038,-2.06478905677795,19.0249996185303,12.5129995346069,4.74599981307983,19.2129993438721,6.65999984741211,-5.34299993515015,3.32200002670288,7.63700008392334,10.7749996185303,6.21910095214844,4.51110410690308,-12.3705272674561,-3.7247040271759,-1.87249100208282,10.890851020813,-1.0966659784317,0.44568198919296,3.03006291389465,-7.80600023269653,-24.8309993743896,-29.6949996948242,-19.1509990692139,-29.8999996185303,-31.6259994506836,10.4610004425049,7.16599988937378,-0.20800000429153,-11.1632041931152,-9.26762962341309,-6.43456888198853,12.6452970504761,11.8227987289429,8.8262996673584,0.06753099709749,-0.8320699930191,-1.56999397277832,-14.4750003814697,1.37199997901917,15.4160003662109,-24.1720008850098,-14.6789999008179,7.36600017547607,-2.24799990653992,-0.83499997854233,6.93100023269653,-5.51468706130981,-4.57756280899048,12.3095636367798,6.52032423019409,-3.06848001480103,-14.3816661834717,-2.23120498657227,-4.58098983764648,0.56679898500443,19.5739994049072,33.3819999694824,30.7929992675781,15.289999961853,35.923999786377,38.6699981689453,7.95100021362305,9.44099998474121,8.26399993896484,SHAKE
6.21910095214844,4.51110410690308,-12.3705272674561,-3.7247040271759,-1.87249100208282,10.890851020813,-1.0966659784317,0.44568198919296,3.03006291389465,-7.80600023269653,-24.8309993743896,-29.6949996948242,-19.1509990692139,-29.8999996185303,-31.6259994506836,10.4610004425049,7.16599988937378,-0.20800000429153,-11.1632041931152,-9.26762962341309,-6.43456888198853,12.6452970504761,11.8227987289429,8.8262996673584,0.06753099709749,-0.8320699930191,-1.56999397277832,-14.4750003814697,1.37199997901917,15.4160003662109,-24.1720008850098,-14.6789999008179,7.36600017547607,-2.24799990653992,-0.83499997854233,6.93100023269653,-5.51468706130981,-4.57756280899048,12.3095636367798,6.52032423019409,-3.06848001480103,-14.3816661834717,-2.23120498657227,-4.58098983764648,0.56679898500443,19.5739994049072,33.3819999694824,30.7929992675781,15.289999961853,35.923999786377,38.6699981689453,7.95100021362305,9.44099998474121,8.26399993896484,12.5647735595703,10.9955024719238,9.23977661132812,-10.4284658432007,-7.81738615036011,-5.95608711242676,-1.13348698616028,-1.61862194538116,-1.632208943367,24.673999786377,18.632999420166,12.6700000762939,32.4720001220703,21.0170001983643,8.9350004196167,7.63700008392334,9.36299991607666,11.6379995346069,7.66293478012085,6.0512638092041,0.09873799979687,-4.36302423477173,-2.98293709754944,1.42163002490997,-1.09998297691345,-0.35435199737549,4.29793405532837,7.33500003814697,-2.15700006484985,-34.4029998779297,-2.36199998855591,-16.8759994506836,-35.7840003967285,12.1090002059937,9.91199970245361,-2.79699993133545,-12.012321472168,-12.2012882232666,-10.2817354202271,8.29772758483887,12.4876527786255,12.1190519332886,4.21787405014038,-0.46141400933266,-1.34214997291565,-35.5009994506836,-13.4549999237061,2.15700006484985,-35.548999786377,-24.1720008850098,-13.3450002670288,-4.20900011062622,-4.99399995803833,-0.28600001335144,-7.13299179077148,-5.84350299835205,-2.16709494590759,8.78970909118652,6.12216186523438,-9.27379703521728,-1.36527895927429,-1.7112979888916,-1.71137595176697,17.3770008087158,28.5960006713867,31.8920001983643,11.8380002975464,30.9029998779297,37.7280006408691,11.08899974823,11.4809999465942,8.73499965667725,12.2365798950195,10.7235460281372,9.05957412719727,-9.7177267074585,-7.52920913696289,-5.94353294372559,-2.34224009513855,-2.36927509307861,-2.10273504257202,22.7119998931885,16.4360008239746,10.4729995727539,29.4909992218018,16.7019996643066,4.38500022888184,4.42000007629395,6.69500017166138,9.52000045776367,7.60291004180908,5.98884010314941,4.05932188034058,-4.56180191040039,-3.24478697776794,-1.2750289440155,-1.43005299568176,-0.52652502059937,1.22507297992706,3.96099996566772,-7.64900016784668,-24.5960006713867,-6.99100017547607,-19.5440006256104,-30.2919998168945,10.539999961853,9.04899978637695,6.46000003814697,-2.98328709602356,-12.2029447555542,-11.0259618759155,3.2503490447998,10.1200504302979,11.87868309021,6.06347179412842,2.87248396873474,-0.10074699670076,-32.4410018920898,-24.5960006713867,-9.5319995880127,-31.8610000610352,-26.6049995422363,-17.2679996490479,2.45900011062622,-1.07099997997284,-1.69799995422363,SHAKE
-3.56687903404236,-11.3128795623779,-10.8989028930664,4.94814109802246,9.68387985229492,10.7502174377441,4.22206497192383,1.19874894618988,-1.25343203544617,-31.2639999389648,-23.6539993286133,-10.5520000457764,-29.8999996185303,-25.8199996948242,-18.9160003662109,4.81199979782104,1.8309999704361,0.49700000882149,-9.35741996765137,-7.86851596832275,-6.62346410751343,10.0078773498535,8.93674755096436,7.71556520462036,-1.91012096405029,-2.18915390968323,-2.36380195617676,1.2940000295639,11.2580003738403,15.5729999542236,-10.7559995651245,-0.79299998283386,5.40500020980835,0.18400000035763,0.26199999451637,0.96799999475479,-5.88811016082764,2.33283400535584,12.6461982727051,5.6379919052124,-18.1650829315186,-13.3441848754883,-3.32738590240479,2.93265891075134,-0.84568500518799,26.0860004425049,30.8719997406006,28.2830009460449,28.3920001983643,36.9440002441406,36.7080001831055,6.06799983978271,6.53800010681152,5.98899984359741,11.5445356369019,9.90307521820068,8.20872783660889,-10.0671730041504,-7.67196178436279,-5.7385950088501,-1.75135397911072,-1.8122650384903,-1.60759603977203,22.5550003051758,16.5930004119873,10.8649997711182,28.863000869751,17.7220001220703,6.89499998092651,5.59700012207031,6.85200023651123,10.3830003738403,6.76214981079102,5.27107715606689,3.52065992355347,-3.94767999649048,-2.44185590744019,-0.61576998233795,-1.01557099819183,-0.20218500494957,1.23625898361206,4.58900022506714,-5.05999994277954,-21.6140003204346,-3.6949999332428,-16.0130004882813,-28.7229995727539,11.7170000076294,8.73499965667725,5.91099977493286,-1.86244702339172,-12.1072511672974,-8.85979080200195,3.15681004524231,11.8341665267944,10.5190410614014,4.89277982711792,-0.06746499985456,-1.72907495498657,-35.4230003356934,-27.9689998626709,5.53000020980835,-34.1360015869141,-31.1550006866455,-11.3839998245239,5.0479998588562,3.40000009536743,-0.05099999904633,-7.48968982696533,-6.27993488311768,-5.47924280166626,9.16566753387451,7.29873991012573,4.06497287750244,-1.98767900466919,-2.24126291275024,-3.51489806175232,14.4739999771118,20.9860000610352,20.9860000610352,1.87399995326996,17.0160007476807,17.0160007476807,2.38000011444092,5.20499992370605,5.20499992370605,6.8233847618103,12.8454265594482,11.7580604553223,-17.6780605316162,-12.4510269165039,-9.29466438293457,2.43839907646179,-1.09831595420837,-2.00230288505554,30.3229999542236,25.5370006561279,19.496000289917,38.1209983825684,35.2179985046387,25.8819999694824,6.85200023651123,6.53800010681152,6.61700010299683,10.0329818725586,8.32390403747559,6.78818893432617,-6.94487285614014,-5.14279794692993,-3.59084606170654,-2.11068105697632,-1.86210799217224,-1.23991799354553,13.6110000610352,8.59000015258789,2.15700006484985,14.8979997634888,4.38500022888184,-6.44099998474121,7.87200021743774,9.83399963378906,10.3830003738403,5.25993680953979,3.23448991775513,-5.16113376617432,-1.99561095237732,0.24426199495792,5.54145622253418,-0.26817399263382,1.55883300304413,5.67617511749268,-9.8459997177124,-25.8509998321533,-33.382999420166,-19.386999130249,-29.1149997711182,-32.3320007324219,6.85200023651123,5.36199998855591,4.9689998626709,SHAKE
8.94582462310791,7.45555400848389,4.82226514816284,-6.22194814682007,-4.76051712036133,-1.41452395915985,-2.63012909889221,-2.46932697296143,-0.13480399549007,12.5129995346069,7.80600023269653,-19.4179992675781,13.25,0.46200001239777,-32.9589996337891,6.61700010299683,11.3240003585815,17.2080001831055,1.17002201080322,-9.34025859832764,-11.1070213317871,2.71634292602539,8.14305591583252,9.76433372497559,3.79142093658447,6.14216279983521,2.71874094009399,-33.6180000305176,-23.8110008239746,-3.01999998092651,-37.9020004272461,-32.7239990234375,-20.5629997253418,14.9329996109009,6.61700010299683,1.59599995613098,-10.0627059936523,-8.60677146911621,-6.90267086029053,9.30899429321289,8.16217136383057,5.98364400863647,0.59524101018906,-0.57776099443436,-0.78453302383423,13.4540004730225,22.7119998931885,27.3409996032715,-4.00899982452393,15.289999961853,25.8819999694824,1.51699995994568,5.44000005722046,6.85200023651123,-3.55005502700806,9.86425399780273,10.2421493530273,-4.71481323242188,-10.6573038101196,-8.75378799438477,3.04914402961731,-1.57380902767181,-3.76919889450073,31.8920001983643,26.0069999694824,18.7110004425049,38.2779998779297,38.1209983825684,28.3139991760254,6.77400016784668,6.53800010681152,5.98899984359741,8.97528839111328,7.61729001998901,6.28733396530151,-6.71434688568115,-5.00223112106323,-3.74861407279968,-3.91238498687744,-3.55436301231384,-2.88176298141479,12.4350004196167,7.96299982070923,5.4520001411438,15.83899974823,2.97199988365173,-5.10799980163574,5.51900005340576,5.59700012207031,5.75400018692017,2.65106296539307,-9.23142242431641,-11.6226530075073,1.95347797870636,8.8926830291748,10.1434946060181,1.96936595439911,5.96001720428467,2.91613507270813,-35.0299987792969,-22.4769992828369,2.94099998474121,-38.1380004882813,-35.3129997253418,-21.3479995727539,17.2870006561279,9.1269998550415,2.38000011444092,-10.6857414245605,-9.31645584106445,-7.22067785263062,8.4215259552002,5.5039119720459,0.80058300495148,1.91489994525909,2.20182204246521,3.84884405136108,19.3390007019043,27.0270004272461,33.9309997558594,-2.12599992752075,19.1340007781982,34.826000213623,1.36000001430511,4.10599994659424,5.28299999237061,-0.62971299886703,8.38591289520264,7.72879123687744,-7.32368993759155,-10.0511484146118,-6.48558521270752,3.75546407699585,-3.94088888168335,-5.56251907348633,32.7550010681152,26.6350002288818,14.3170003890991,38.7480010986328,36.7080001831055,12.6219997406006,5.12599992752075,4.02799987792969,5.44000005722046,6.69232606887817,5.59807682037354,4.02101802825928,-4.74722909927368,-3.34561109542847,-1.19579899311066,-4.80885791778564,-3.62028908729553,-0.60511702299118,10.1590003967285,3.4909999370575,-11.414999961853,0.22599999606609,-14.2080001831055,-28.173999786377,7.63700008392334,7.63700008392334,9.44099998474121,0.7012130022049,-7.4154372215271,-9.10743999481201,1.16234195232391,5.89436483383179,7.16479921340942,4.39596891403198,11.7314758300781,11.1851043701172,-31.0289993286133,-30.1660003662109,-7.41400003433228,-35.548999786377,-34.1360015869141,-24.2509994506836,10.6969995498657,4.5770001411438,-1.14900004863739,SHAKE
5.52288913726807,6.2419548034668,5.58333778381348,-2.82224297523499,0.31343999505043,1.27014696598053,-9.11548233032227,-4.14719676971436,-1.50720000267029,12.8269996643066,4.74599981307983,-1.52999997138977,10.0329999923706,-14.5220003128052,-21.7399997711182,7.55800008773804,5.0479998588562,5.67500019073486,2.20837807655334,-8.44047737121582,-7.95169687271118,2.36080098152161,6.7733359336853,4.82150983810425,2.41108989715576,11.782958984375,10.7353200912476,-30.4799995422363,-7.33500003814697,15.6510000228882,-33.8219985961914,-23.5450000762939,-7.77500009536743,12.5010004043579,1.43900001049042,-0.36500000953674,-6.88564920425415,-5.25263500213623,-2.16858291625977,2.76165294647217,2.88645911216736,1.54207003116608,8.90205574035645,6.01312685012817,1.7926230430603,22.3199996948242,26.0860004425049,28.1259994506836,2.10899996757507,29.4120006561279,34.7470016479492,0.88999998569489,7.16599988937378,7.24499988555908,4.31704807281494,3.74668192863464,3.48456192016602,-5.72487878799438,-6.26831912994385,-5.16400194168091,-10.3261747360229,-12.579384803772,-11.3428077697754,28.2830009460449,23.6539993286133,21.2220001220703,39.3759994506836,32.7859992980957,26.5879993438721,5.44000005722046,5.91099977493286,6.06799983978271,3.83993005752564,4.65018177032471,4.19797277450562,-2.29703903198242,-0.49708399176598,1.21666705608368,-7.54145383834839,-4.57678413391113,-1.01864004135132,9.92399978637695,-2.23600006103516,-25.8509998321533,-7.77500009536743,-25.5849990844727,-35.4700012207031,9.75500011444092,11.4809999465942,13.9130001068115,-0.32499501109123,-6.71883106231689,-7.41092681884766,4.69613981246948,7.23682689666748,5.66167593002319,5.66953992843628,11.74720287323,11.9441385269165,-33.6180000305176,-16.5149993896484,5.8439998626709,-36.1759986877441,-28.173999786377,-15.1499996185303,7.63700008392334,0.34000000357628,-3.03200006484985,-6.89855718612671,-6.05209684371948,-4.84300994873047,3.57364296913147,2.1723210811615,2.27940702438354,10.4219331741333,8.50437355041504,5.76907205581665,19.181999206543,23.1049995422363,28.1259994506836,1.16799998283386,18.2709999084473,33.5699996948242,-1.14900004863739,3.40000009536743,5.44000005722046,-1.23544502258301,1.00045800209045,0.98346501588821,-3.25674295425415,-5.58627986907959,-4.68173694610596,-3.65528988838196,-14.3555850982666,-13.7671785354614,29.9300003051758,25.6940002441406,20.0450000762939,38.4339981079102,37.4150009155273,26.8229999542236,5.28299999237061,4.9689998626709,5.51900005340576,1.52423501014709,2.41973805427551,7.31024503707886,-3.43762493133545,-1.99548101425171,3.22265911102295,-11.9692058563232,-9.8244514465332,-2.4379301071167,15.1020002365112,10.1590003967285,-18.0049991607666,13.7209997177124,-0.16500000655651,-30.8409996032715,7.55800008773804,10.8540000915527,13.5989999771118,5.06801509857178,-4.05463981628418,-7.02452087402344,5.33198022842407,8.44582843780518,7.37196493148804,2.47618103027344,10.2057304382324,11.9509286880493,-27.2630004882813,-22.0849990844727,-1.60800004005432,-34.0579986572266,-28.7229995727539,-16.7980003356934,11.8730001449585,1.8309999704361,0.02700000070035,SHAKE
1.52423501014709,2.41973805427551,7.31024503707886,-3.43762493133545,-1.99548101425171,3.22265911102295,-11.9692058563232,-9.8244514465332,-2.4379301071167,15.1020002365112,10.1590003967285,-18.0049991607666,13.7209997177124,-0.16500000655651,-30.8409996032715,7.55800008773804,10.8540000915527,13.5989999771118,5.06801509857178,-4.05463981628418,-7.02452087402344,5.33198022842407,8.44582843780518,7.37196493148804,2.47618103027344,10.2057304382324,11.9509286880493,-27.2630004882813,-22.0849990844727,-1.60800004005432,-34.0579986572266,-28.7229995727539,-16.7980003356934,11.8730001449585,1.8309999704361,0.02700000070035,-6.25801610946655,-5.22527122497559,-2.71080589294434,3.79111504554749,3.36292004585266,0.78247702121735,8.80988216400146,6.68835687637329,1.97697901725769,18.3190002441406,24.9090003967285,27.9689998626709,13.0150003433228,29.4909992218018,37.4150009155273,2.30200004577637,4.89099979400635,5.12599992752075,-1.59689199924469,-2.33382296562195,-3.32415103912354,-5.55102491378784,-4.95792388916016,-4.55204677581787,-15.614275932312,-13.9193115234375,-12.0894107818604,19.9659996032715,16.0440006256104,13.0620002746582,30.6669998168945,19.6840000152588,7.91499996185303,2.8510000705719,3.40000009536743,6.61700010299683,-3.46387004852295,-4.05908584594727,7.16071701049805,-3.782231092453,-2.95723009109497,5.31764221191406,-9.99166202545166,-7.79300212860107,-0.75590997934341,9.92399978637695,-4.19700002670288,-28.8320007324219,-7.38299989700317,-27.0750007629395,-36.7249984741211,10.3830003738403,13.835000038147,13.28600025177,4.56814098358154,-3.00809502601624,-4.17271089553833,7.33916521072388,6.05477619171143,4.07937097549438,10.2361917495728,15.8854722976685,14.3768863677979,-32.4410018920898,-12.5129995346069,9.60999965667725,-36.4119987487793,-25.742000579834,-10.2069997787476,4.73400020599365,-0.60000002384186,0.02700000070035,-4.01940011978149,-3.4918360710144,-2.65122008323669,2.59765195846558,1.71290194988251,1.54238605499268,11.775218963623,9.38060569763184,6.68022680282593,20.2800006866455,21.5349998474121,25.6149997711182,6.58099985122681,22.3509998321533,34.826000213623,1.9099999666214,2.8510000705719,4.89099979400635,2.61289405822754,-3.48188090324402,-4.5813889503479,-3.49172401428223,-3.40238189697266,-3.11833596229553,-7.4029688835144,-14.7282485961914,-11.9879560470581,26.3999996185303,17.0629997253418,12.8269996643066,38.7480010986328,21.9589996337891,10.1899995803833,4.5770001411438,5.20499992370605,8.5,-4.75143718719482,-6.71244716644287,21.6607608795166,-2.65034008026123,-2.73322200775146,13.6922912597656,-10.0800256729126,-8.37833976745605,5.74782180786133,8.11900043487549,-0.66699999570847,-16.201000213623,-1.81200003623962,-16.4839992523193,-27.1539993286133,13.835000038147,15.4820003509521,12.7360000610352,11.0830411911011,1.69932997226715,-2.40250396728516,9.05442333221436,7.22590589523315,5.31113290786743,8.45802021026611,14.6814804077148,15.0167789459229,-27.8120002746582,-27.8120002746582,-21.4570007324219,-30.1350002288818,-30.1350002288818,-25.0349998474121,7.16599988937378,7.16599988937378,2.14499998092651,SHAKE
-6.37013816833496,-5.47323179244995,-3.94473791122436,-4.37527990341187,-3.7685980796814,-1.94661295413971,-12.2713813781738,-9.92654609680176,-7.57874917984009,11.3360004425049,6.23699998855591,-5.2960000038147,5.2480001449585,-5.7350001335144,-20.1709995269775,5.67500019073486,11.4029998779297,14.4619998931885,0.59334599971771,11.4613571166992,3.16002702713013,3.02641892433167,7.55693101882935,4.60421514511108,-3.73014497756958,12.8569736480713,17.8888187408447,-22.5559997558594,-27.8910007476807,-14.6319999694824,-28.2520008087158,-28.4090003967285,-20.4850006103516,15.0120000839233,9.91199970245361,4.5770001411438,0.70438599586487,0.00392499985173,0.23250000178814,3.20010709762573,2.36373710632324,2.40252709388733,15.8912191390991,13.1394147872925,10.3339376449585,2.23499989509583,14.3959999084473,20.3589992523193,-7.85400009155273,7.83699989318848,23.9990005493164,4.5770001411438,7.63700008392334,6.06799983978271,2.14216804504395,12.3698892593384,2.12732291221619,3.32070708274841,-2.15542101860046,-6.37428379058838,6.95300817489624,-2.16888093948364,-16.2918682098389,25.5370006561279,25.2229995727539,21.92799949646,35.375,36.8650016784668,29.2549991607666,0.34000000357628,-2.64000010490417,-1.30599999427795,-0.59915602207184,-0.51056402921677,1.41474902629852,-5.59000301361084,-4.49274682998657,-1.88000094890594,-12.0522708892822,-9.72979640960693,-6.64882707595825,13.8470001220703,7.80600023269653,-8.27700042724609,5.9539999961853,-9.26599979400635,-27.5459995269775,8.9709997177124,15.168999671936,19.5620002746582,6.06613397598267,2.80062294006348,-3.22071194648743,3.48309588432312,6.71104001998901,6.60482597351074,-0.4965940117836,10.0179891586304,13.7302198410034,-27.4990005493164,-27.9689998626709,-12.1999998092651,-35.6269989013672,-32.7239990234375,-21.3479995727539,16.423999786377,6.61700010299683,0.88999998569489,-4.44231081008911,-4.37378978729248,-3.83945202827454,5.31639385223389,4.12848281860352,3.42824506759644,12.6621751785278,10.6858549118042,8.74524116516113,4.51000022888184,15.5729999542236,21.2220001220703,-6.67700004577637,9.64099979400635,25.0189990997314,1.28199994564056,2.45900011062622,0.49700000882149,-2.76248693466187,5.18431520462036,-3.37372398376465,2.70965909957886,-6.43226623535156,-6.91845321655273,6.53122520446777,-11.1726942062378,-16.726526260376,24.5949993133545,24.1240005493164,21.6919994354248,34.0410003662109,33.492000579834,25.4109992980957,-2.71799993515015,-2.875,0.57599997520447,-3.05527091026306,-1.97403001785278,0.26200699806213,-5.76546001434326,-3.92710590362549,-1.69722294807434,-14.182017326355,-10.6800746917725,-8.20629978179932,17.8479995727539,12.2779998779297,5.8439998626709,14.6619997024536,3.75699996948242,-8.40299987792969,5.44000005722046,11.7170000076294,17.0520000457764,5.72407293319702,7.80137395858765,3.02466297149658,2.88257598876953,6.01395511627197,7.26964521408081,-3.96325707435608,2.42906308174133,9.79745864868164,-5.9229998588562,-5.9229998588562,-26.4790000915527,-22.6030006408691,-22.6030006408691,-27.0750007629395,18.2280006408691,18.2280006408691,7.00899982452393,SHAKE
-1.97403001785278,0.26200699806213,5.72407293319702,-3.92710590362549,-1.69722294807434,2.88257598876953,-10.6800746917725,-8.20629978179932,-3.96325707435608,12.2779998779297,5.8439998626709,-5.9229998588562,3.75699996948242,-8.40299987792969,-22.6030006408691,11.7170000076294,17.0520000457764,18.2280006408691,7.80137395858765,3.02466297149658,-2.30407905578613,6.01395511627197,7.26964521408081,7.72892189025879,2.42906308174133,9.79745864868164,12.3672676086426,-5.9229998588562,-26.4790000915527,-26.4790000915527,-22.6030006408691,-27.0750007629395,-27.0750007629395,18.2280006408691,7.00899982452393,7.00899982452393,-4.33353710174561,-4.59725713729858,-3.77667498588562,7.50192499160767,7.16866397857666,8.98271942138672,11.2299766540527,9.19424438476562,5.43822908401489,-2.62800002098084,6.55000019073486,15.0240001678467,-5.81400012969971,6.11100006103516,19.9190006256104,1.8309999704361,5.59700012207031,5.20499992370605,10.2119798660278,8.46924304962158,5.9580659866333,1.20817399024963,-9.62588787078857,-8.97474193572998,0.78774702548981,-12.4372930526733,-10.7385787963867,23.2609996795654,20.7509994506836,16.3570003509521,33.9620018005371,28.3139991760254,19.1340007781982,-0.67900002002716,-0.75700002908707,1.36000001430511,4.80842113494873,4.0040922164917,3.80324292182922,-7.51934480667114,-6.09877109527588,-1.17693603038788,-8.76403617858887,-6.92408514022827,-2.04037499427795,11.7279996871948,6.62900018692017,-24.125,9.48400020599365,-1.34200000762939,-30.056999206543,4.73400020599365,8.73499965667725,12.8929996490479,1.45530498027802,-8.93353271484375,-8.656813621521,5.2115797996521,9.91464614868164,9.12028884887695,5.3067798614502,9.41806411743164,4.68907690048218,-30.5580005645752,-18.632999420166,8.98200035095215,-32.5670013427734,-25.8980007171631,-0.16500000655651,10.6969995498657,6.22499990463257,5.59700012207031,-6.88973903656006,-4.8433837890625,-0.32151699066162,8.60884380340576,7.045973777771,-0.66198402643204,2.35337400436401,1.04881596565247,1.00362694263458,13.1409997940063,25.1439990997314,25.7719993591309,7.36600017547607,30.431999206543,35.6889991760254,6.30299997329712,4.26300001144409,-0.20800000429153,9.72928142547607,8.54800224304199,6.99943017959595,-9.37299537658691,-9.27076721191406,-7.9472541809082,-6.17666292190552,-7.52815580368042,-7.01410913467407,22.0060005187988,17.298999786377,11.96399974823,31.8439998626709,23.2140007019043,13.25,-1.85500001907349,0.41899999976158,4.49900007247925,5.70568704605103,4.69742679595947,4.24369192123413,-6.54440593719482,-4.98039293289185,-2.31708908081055,-6.08433723449707,-4.83815908432007,-2.89704895019531,6.39300012588501,-1.52999997138977,-17.1420001983643,2.89400005340576,-10.4429998397827,-23.7800006866455,9.04899978637695,13.9130001068115,14.8549995422363,3.65591907501221,-6.24028396606445,-9.80919647216797,3.65138101577759,9.41232109069824,10.1472406387329,1.82640898227692,8.13036346435547,6.35488176345825,-27.5769996643066,-27.2630004882813,-9.2180004119873,-29.2719993591309,-28.9580001831055,-18.7590007781982,12.5010004043579,10.3039999008179,4.5770001411438,SHAKE
5.70568704605103,4.69742679595947,4.24369192123413,-6.54440593719482,-4.98039293289185,-2.31708908081055,-6.08433723449707,-4.83815908432007,-2.89704895019531,6.39300012588501,-1.52999997138977,-17.1420001983643,2.89400005340576,-10.4429998397827,-23.7800006866455,9.04899978637695,13.9130001068115,14.8549995422363,3.65591907501221,-6.24028396606445,-9.80919647216797,3.65138101577759,9.41232109069824,10.1472406387329,1.82640898227692,8.13036346435547,6.35488176345825,-27.5769996643066,-27.2630004882813,-9.2180004119873,-29.2719993591309,-28.9580001831055,-18.7590007781982,12.5010004043579,10.3039999008179,4.5770001411438,-9.30723762512207,-8.08329391479492,-6.29331302642822,9.28357601165772,7.70317792892456,6.95119190216064,4.24141693115234,3.11098408699036,1.22751796245575,4.35400009155273,12.5909996032715,19.181999206543,-7.38299989700317,5.48299980163574,19.4479999542236,4.89099979400635,6.14599990844727,4.49900007247925,-4.34918403625488,5.92823696136475,7.53093290328979,3.40594601631165,-8.36325454711914,-9.40527629852295,0.82748001813889,-1.98129594326019,-7.24982690811157,24.988000869751,25.6149997711182,18.1620006561279,30.5100002288818,33.1780014038086,21.8799991607666,-0.60000002384186,-2.56100010871887,-0.99199998378754,6.22066116333008,5.07014894485474,4.16337203979492,-7.96428823471069,-6.62939977645874,-5.07014513015747,-6.54324197769165,-5.52587223052979,-4.20882606506348,14.003999710083,9.76700019836426,2.94099998474121,12.3870000839233,3.20799994468689,-9.6579999923706,3.16499996185303,8.10799980163574,12.5799999237061,3.4303150177002,-5.98590993881226,-9.98036956787109,2.36299300193787,8.64027976989746,10.565634727478,2.25754404067993,10.4202995300293,8.19034481048584,-31.9710006713867,-27.0279998779297,-9.8459997177124,-32.7239990234375,-30.2140007019043,-21.5049991607666,10.6180000305176,6.69500017166138,5.67500019073486,-9.26666259765625,-7.88119506835938,-5.9712381362915,9.94951152801514,8.53305053710938,8.40689945220947,5.53470802307129,3.95520401000977,1.35637903213501,4.51000022888184,9.29599952697754,19.496000289917,-9.02999973297119,-2.44000005722046,20.076000213623,6.46000003814697,7.00899982452393,5.67500019073486,5.13188695907593,9.46476364135742,8.15338325500488,-6.97653293609619,-9.96094131469727,-9.08171558380127,-0.8682450056076,-6.89888000488281,-7.43506002426147,24.9090003967285,20.9080009460449,18.8680000305176,34.9819984436035,29.882999420166,25.80299949646,-4.99399995803833,-5.54300022125244,-4.20900011062622,6.71704912185669,5.52265882492065,4.58091020584106,-7.85270595550537,-6.55929088592529,-5.06762599945068,-6.84961700439453,-5.81591320037842,-4.44988584518433,12.3559999465942,7.33500003814697,3.56900000572205,10.8959999084473,0.46200001239777,-5.89200019836426,3.00799989700317,8.26399993896484,10.9320001602173,3.12410593032837,-8.00988006591797,-9.96038722991943,3.46584796905518,9.83847045898438,10.6022520065308,2.81404805183411,9.45490169525146,6.67394876480103,-29.1459999084473,-20.7509994506836,-5.76599979400635,-31.2329998016357,-27.4680004119873,-18.2880001068115,12.8149995803833,8.89200019836426,5.44000005722046,SHAKE
4.28263807296753,3.64114189147949,-3.83128595352173,-4.62400388717651,-2.73386406898499,7.32711315155029,-4.49628496170044,-2.66669988632202,9.64082336425781,5.29500007629395,-10.6309995651245,-28.5970001220703,-7.22599983215332,-22.996000289917,-31.3899993896484,10.539999961853,14.3059997558594,8.57800006866455,-9.55257034301758,-9.32979679107666,-8.12790107727051,9.91258335113525,9.64686870574951,8.49646282196045,9.13794994354248,6.50381183624268,4.69005393981934,-13.7690000534058,0.58799999952316,11.7279996871948,-24.0149993896484,-13.581000328064,-0.63599997758865,5.51900005340576,4.65500020980835,5.83199977874756,-6.46949291229248,-4.76656007766724,0.3060399889946,8.04007244110107,5.90913391113281,-4.01676797866821,2.4180428981781,1.14453899860382,0.46700701117516,19.4169998168945,24.4379997253418,25.8509998321533,15.0550003051758,28.0779991149902,34.0410003662109,6.61700010299683,3.40000009536743,-1.22800004482269,8.73238754272461,7.48471307754517,6.06702184677124,-9.33437061309814,-8.44708919525146,-7.32189083099365,-7.64116716384888,-7.95940399169922,-7.28660011291504,22.8689994812012,18.632999420166,18.632999420166,31.8439998626709,24.1550006866455,24.1550006866455,-4.36600017547607,-3.18899989128113,-3.18899989128113,4.90485715866089,3.87822508811951,3.33192801475525,-6.21245288848877,-5.07415103912354,-3.2476110458374,-6.23031616210938,-4.98385715484619,-3.25592494010925,10.3950004577637,4.82399988174438,4.82399988174438,4.85500001907349,-6.36299991607666,-6.36299991607666,5.44000005722046,9.67700004577637,9.67700004577637,-2.53468298912048,-9.35775375366211,-9.25853824615478,7.57317686080933,10.6267061233521,10.3675222396851,9.82511901855469,9.71086978912354,6.77552509307861,-29.2250003814697,-14.7889995574951,1.2940000295639,-31.6259994506836,-24.7999992370605,-13.6590003967285,10.7749996185303,6.30299997329712,3.87100005149841,-8.11023616790771,-6.53244686126709,-5.01653814315796,8.88658618927002,8.60586452484131,6.29655408859253,5.02304887771606,2.20725297927856,1.25083994865417,12.3559999465942,17.8479995727539,24.2029991149902,-0.55699998140335,13.25,27.136999130249,4.10599994659424,5.12599992752075,3.32200002670288,-0.6207270026207,8.75349044799805,8.05068969726563,-3.3827109336853,-9.78447246551514,-9.07464790344238,0.86131101846695,-6.34901714324951,-7.88656520843506,27.8120002746582,24.9090003967285,24.9090003967285,34.5900001525879,32.943000793457,32.943000793457,-0.28600001335144,-3.89499998092651,-3.89499998092651,5.46436595916748,4.44130516052246,3.87853288650513,-6.40212678909302,-5.0062780380249,-3.01122903823853,-6.46153783798218,-5.08100605010986,-3.19065809249878,12.4350004196167,4.90299987792969,-9.92399978637695,4.38500022888184,-7.53999996185303,-21.8969993591309,7.63700008392334,13.6780004501343,15.7180004119873,3.86958694458008,-1.74263596534729,-8.23568725585938,0.68421798944473,6.4767689704895,9.61069774627686,0.3605700135231,8.9194917678833,9.59248733520508,-27.3419990539551,-28.9890003204346,-15.1029996871948,-31.0769996643066,-31.5470008850098,-24.3290004730225,13.0500001907349,10.1470003128052,7.00899982452393,SHAKE
3.87853288650513,3.86958694458008,-1.74263596534729,-3.01122903823853,0.68421798944473,6.4767689704895,-3.19065809249878,0.3605700135231,8.9194917678833,-9.92399978637695,-27.3419990539551,-28.9890003204346,-21.8969993591309,-31.0769996643066,-31.5470008850098,15.7180004119873,13.0500001907349,10.1470003128052,-8.23568725585938,-8.49181270599365,-7.5306510925293,9.61069774627686,9.80430603027344,8.82448101043701,9.59248733520508,6.84212779998779,4.94502210617065,-15.1029996871948,0.19499999284744,7.64900016784668,-24.3290004730225,-13.1890001296997,-2.75399994850159,7.00899982452393,4.73400020599365,2.92899990081787,-4.91612577438354,-2.35383796691895,9.01676654815674,7.79301977157593,-1.0125470161438,-10.3015813827515,0.64591497182846,0.49044799804688,-6.23215484619141,24.5170001983643,29.6949996948242,28.0470008850098,25.6459999084473,35.2960014343262,35.6889991760254,2.92899990081787,-0.12899999320507,-1.93400001525879,8.62311553955078,7.25400400161743,5.97250413894653,-9.49296760559082,-8.02820205688477,-6.48857402801514,-7.88203811645508,-7.40608215332031,-6.29044198989868,21.8490009307861,17.9260005950928,13.2189998626709,26.8229999542236,16.4669990539551,5.6399998664856,-1.77699995040894,2.6159999370575,7.32299995422363,4.87707996368408,4.09785079956055,3.55733108520508,-4.98288679122925,-3.18775296211243,-0.24967899918556,-4.90381813049316,-3.19878506660461,-0.19093599915504,7.41300010681152,-1.92200005054474,-19.8880004882813,-5.18599987030029,-18.2880001068115,-30.1350002288818,12.4230003356934,15.7959995269775,15.0120000839233,0.03558100014925,-7.42216300964355,-8.83438873291016,4.34207105636597,8.30803775787354,9.73537826538086,6.58707284927368,9.80126762390137,7.13606405258179,-31.0289993286133,-23.261999130249,-6.47200012207031,-34.0579986572266,-29.1940002441406,-19.1509990692139,11.1669998168945,7.08799982070923,4.02799987792969,-8.10632228851318,-6.8562707901001,-5.48387813568115,9.48542594909668,9.46230030059814,8.85880279541016,4.77793884277344,2.33703708648682,0.76153898239136,4.43200016021729,10.8649997711182,15.5729999542236,-8.32400035858154,2.65899991989136,10.2690000534058,3.00799989700317,3.24300003051758,4.34200000762939,-4.32812976837158,5.57367515563965,9.25577545166016,5.09752893447876,-9.17069339752197,-9.96539211273193,-0.0292329993099,-3.13204789161682,-7.8661208152771,28.2830009460449,27.8899993896484,23.9680004119873,31.9230003356934,34.7470016479492,34.1189994812012,3.00799989700317,1.04700005054474,-3.50300002098084,8.23041439056396,6.91980504989624,5.67273187637329,-8.62371921539307,-7.25841093063354,-5.92916011810303,-8.01151943206787,-7.19882678985596,-5.97912120819092,18.632999420166,15.3369998931885,10.7869997024536,23.2919998168945,12.6219997406006,1.08899998664856,-3.42400002479553,1.28199994564056,7.55800008773804,4.75475406646729,3.91840195655823,-6.38140678405762,-4.52836084365845,-2.61187410354614,8.21824169158936,-4.52579689025879,-2.62778091430664,9.91935539245606,1.76499998569489,-16.5930004119873,-25.9290008544922,-12.9530000686646,-25.8980007171631,-31.0769996643066,13.9919996261597,15.168999671936,9.1269998550415,SHAKE
-6.8562707901001,-5.48387813568115,-4.32812976837158,9.46230030059814,8.85880279541016,5.09752893447876,2.33703708648682,0.76153898239136,-0.0292329993099,10.8649997711182,15.5729999542236,28.2830009460449,2.65899991989136,10.2690000534058,31.9230003356934,3.24300003051758,4.34200000762939,3.00799989700317,5.57367515563965,9.25577545166016,8.23041439056396,-9.17069339752197,-9.96539211273193,-8.62371921539307,-3.13204789161682,-7.8661208152771,-8.01151943206787,27.8899993896484,23.9680004119873,18.632999420166,34.7470016479492,34.1189994812012,23.2919998168945,1.04700005054474,-3.50300002098084,-3.42400002479553,6.91980504989624,5.67273187637329,4.75475406646729,-7.25841093063354,-5.92916011810303,-4.52836084365845,-7.19882678985596,-5.97912120819092,-4.52579689025879,15.3369998931885,10.7869997024536,1.76499998569489,12.6219997406006,1.08899998664856,-12.9530000686646,1.28199994564056,7.55800008773804,13.9919996261597,3.91840195655823,-6.38140678405762,-9.7776288986206,-2.61187410354614,8.21824169158936,10.5883636474609,-2.62778091430664,9.91935539245606,7.45241785049438,-16.5930004119873,-25.9290008544922,-11.1009998321533,-25.8980007171631,-31.0769996643066,-23.7019996643066,15.168999671936,9.1269998550415,6.14599990844727,-9.01104259490967,-7.7477822303772,-6.24630689620972,10.3148393630981,9.17178058624268,8.60025501251221,4.77067184448242,3.14578700065613,1.22146904468536,3.4909999370575,11.4930000305176,20.3589992523193,-12.5609998703003,0.07000000029802,16.2310009002686,4.26300001144409,4.10599994659424,5.20499992370605,2.77011489868164,9.74369430541992,8.80842590332031,-7.81916904449463,-10.0511512756348,-8.91570854187012,0.31265199184418,-5.69107723236084,-6.79688310623169,29.6159992218018,24.8309993743896,20.5939998626709,37.3359985351563,32.8639984130859,23.371000289917,-1.77699995040894,-5.54300022125244,-2.09100008010864,7.27449321746826,5.89844512939453,4.74499177932739,-7.5166540145874,-6.05636215209961,-4.60116291046143,-6.46893501281738,-5.47950077056885,-4.17188215255737,15.6510000228882,9.8459997177124,-0.35299998521805,11.5240001678467,-0.55699998140335,-15.621000289917,4.18499994277954,10.2259998321533,14.9329996109009,3.92176795005798,2.50893688201904,-7.13203716278076,-2.51520609855652,1.92550301551819,8.63837432861328,-2.20297908782959,2.37221503257751,9.24688339233398,-9.61100006103516,-31.2639999389648,-21.92799949646,-22.996000289917,-31.6259994506836,-26.8400001525879,15.326000213623,10.0690002441406,6.61700010299683,-9.62890815734863,-8.8694019317627,-7.63888597488403,10.480658531189,10.11305809021,9.19072818756104,6.77954483032227,4.34533405303955,2.749351978302,-6.0019998550415,0.74500000476837,7.57000017166138,-17.5820007324219,-12.4820003509521,-3.38199996948242,3.63599991798401,3.32200002670288,2.30200004577637,-5.04373979568481,3.18861293792725,10.4350366592407,6.10608196258545,-8.43560123443604,-9.93799495697022,0.20217800140381,0.10173700004816,-5.76330709457397,22.0060005187988,26.3209991455078,23.5750007629395,26.117000579834,34.0410003662109,32.6290016174316,5.59700012207031,3.55699992179871,0.49700000882149,SHAKE
4.42839479446411,3.38137102127075,-5.13871908187866,-2.29250693321228,0.63699698448181,6.67148780822754,-2.12597393989563,0.80933797359467,8.6253547668457,-5.2960000038147,-20.6730003356934,-26.7919998168945,-18.6019992828369,-26.7609996795654,-28.4090003967285,15.5609998703003,11.3240003585815,4.81199979782104,-9.72406482696533,-9.50018310546875,-8.14107322692871,9.34365558624268,10.3041372299194,9.84111404418945,7.2781081199646,4.30071115493774,2.52518200874329,-26.7919998168945,-8.04100036621094,-8.04100036621094,-28.4090003967285,-17.6609992980957,-17.6609992980957,4.81199979782104,3.24300003051758,3.24300003051758,-5.44818592071533,-4.36664819717407,2.63672804832459,7.74867677688599,4.55064582824707,-7.82448196411133,-0.05471500009298,-0.80647498369217,-1.44285595417023,14.5530004501343,21.8490009307861,25.7719993591309,11.2889995574951,24.5480003356934,32.943000793457,7.16599988937378,6.53800010681152,2.06599998474121,10.2602300643921,8.44929695129395,7.02509689331055,-10.4253416061401,-7.91784620285034,-6.58813810348511,-5.94420909881592,-6.5101900100708,-5.60814523696899,23.6539993286133,17.4559993743896,13.5329999923706,33.492000579834,18.2709999084473,7.67999982833862,-2.79699993133545,0.41899999976158,4.89099979400635,5.79113101959229,4.66464185714722,3.86389303207397,-5.38576078414917,-4.12900876998901,-1.69872105121613,-4.4563159942627,-3.03537201881409,-0.5803490281105,8.35499954223633,-1.60800004005432,-20.2810001373291,-3.38199996948242,-16.8759994506836,-26.8400001525879,9.44099998474121,13.5209999084473,12.7360000610352,1.23479795455933,-8.56516647338867,-10.1204032897949,3.22845697402954,8.55754089355469,10.5133047103882,5.59777116775513,10.0825061798096,6.47734308242798,-30.4009990692139,-30.4009990692139,-7.64900016784668,-30.2919998168945,-30.2919998168945,-19.2299995422363,7.55800008773804,7.55800008773804,4.65500020980835,-8.93826484680176,-7.36018800735474,-5.91224002838135,10.2315864562988,9.79154968261719,8.8923454284668,3.93544101715088,1.77711498737335,0.57902300357819,3.7260000705719,9.06099987030029,14.7880001068115,-10.128999710083,-0.32199999690056,11.8380002975464,3.71399998664856,3.55699992179871,6.14599990844727,-4.79961681365967,2.17707300186157,10.2053375244141,5.64601182937622,-7.29285287857056,-9.83382511138916,-0.08715800195932,-0.3286620080471,-5.23836803436279,23.4969997406006,26.3999996185303,24.0459995269775,26.0380001068115,31.3729991912842,34.0410003662109,6.85200023651123,5.44000005722046,-0.75700002908707,8.20522880554199,6.79811382293701,5.57087278366089,-7.30251312255859,-6.01070976257324,-4.79619216918945,-6.16322708129883,-5.26564884185791,-4.07026386260986,17.3770008087158,12.6700000762939,6.62900018692017,16.7019996643066,5.56099987030029,-5.81400012969971,1.8309999704361,5.98899984359741,10.6969995498657,4.50573492050171,3.67059397697449,0.04134099930525,-3.4057788848877,-0.87707197666168,3.54510998725891,-2.60555601119995,0.04733199998736,6.6390118598938,-4.27600002288818,-20.0450000762939,-27.6550006866455,-18.2880001068115,-26.7609996795654,-30.3700008392334,13.28600025177,9.99100017547607,5.91099977493286,SHAKE
-4.79961681365967,2.17707300186157,10.2053375244141,5.64601182937622,-7.29285287857056,-9.83382511138916,-0.08715800195932,-0.3286620080471,-5.23836803436279,23.4969997406006,26.3999996185303,24.0459995269775,26.0380001068115,31.3729991912842,34.0410003662109,6.85200023651123,5.44000005722046,-0.75700002908707,8.20522880554199,6.79811382293701,5.57087278366089,-7.30251312255859,-6.01070976257324,-4.79619216918945,-6.16322708129883,-5.26564884185791,-4.07026386260986,17.3770008087158,12.6700000762939,6.62900018692017,16.7019996643066,5.56099987030029,-5.81400012969971,1.8309999704361,5.98899984359741,10.6969995498657,4.50573492050171,3.67059397697449,0.04134099930525,-3.4057788848877,-0.87707197666168,3.54510998725891,-2.60555601119995,0.04733199998736,6.6390118598938,-4.27600002288818,-20.0450000762939,-27.6550006866455,-18.2880001068115,-26.7609996795654,-30.3700008392334,13.28600025177,9.99100017547607,5.91099977493286,-9.1344404220581,-10.183295249939,-8.94264888763428,8.21275615692139,10.1997289657593,10.0686740875244,9.90443515777588,6.43181085586548,4.01648283004761,-21.3010005950928,-15.0240001678467,2.07800006866455,-27.3889999389648,-24.0149993896484,-10.9130001068115,4.65500020980835,4.18499994277954,3.55699992179871,-7.37791299819946,-5.95334005355835,-4.69385004043579,9.73740100860596,8.73539066314697,5.30847787857056,2.01746010780334,0.81624299287796,0.1087149977684,7.72700023651123,14.6309995651245,24.3600006103516,-1.73399996757507,11.210000038147,26.3519992828369,4.34200000762939,7.95100021362305,9.1269998550415,1.83781599998474,10.0570201873779,9.59743595123291,-6.08912992477417,-9.42750358581543,-8.46665954589844,-0.81750500202179,-5.76947021484375,-6.98104000091553,26.9489994049072,23.4969997406006,20.2019996643066,34.5900001525879,34.0410003662109,27.6079998016357,4.02799987792969,-1.62000000476837,-2.09100008010864,8.24014759063721,6.86159992218018,5.65316104888916,-7.29147577285767,-6.05666494369507,-4.87862920761108,-6.68326616287231,-5.74452114105225,-4.53358221054077,16.6709995269775,12.2779998779297,5.29500007629395,17.4869995117188,6.42399978637695,-5.4210000038147,1.8309999704361,6.85200023651123,12.8149995803833,4.59749603271484,3.81512904167175,-0.09514400362968,-3.41339302062988,-0.43929800391197,5.01872682571411,-3.09608101844788,-0.41906601190567,6.46056890487671,-6.39400005340576,-21.7709999084473,-27.5769996643066,-18.1310005187988,-26.9179992675781,-29.1149997711182,15.2469997406006,11.246000289917,6.46000003814697,-8.85356616973877,-9.75777053833008,-8.66652965545654,8.90916442871094,9.82403564453125,9.36668682098389,9.00757884979248,6.16228580474854,3.94979810714722,-19.1040000915527,-5.4520001411438,4.27500009536743,-24.9570007324219,-16.9540004730225,-7.77500009536743,5.20499992370605,4.65500020980835,3.55699992179871,-7.32523202896118,-5.87563419342041,-4.56150722503662,8.69839477539063,8.03457260131836,4.03452587127686,2.24809598922729,0.69425702095032,0.02673099935055,8.66899967193604,15.6510000228882,20.6720008850098,0.69700002670288,13.0150003433228,20.4680004119873,4.42000007629395,6.85200023651123,7.24499988555908,SHAKE
-7.05553722381592,-5.4832878112793,-3.50157690048218,8.35100936889648,7.41884613037109,1.98693299293518,2.22362089157104,0.72720497846603,0.48942399024963,10.7089996337891,18.5540008544922,22.8689994812012,5.71799993515015,19.2910003662109,25.7250003814697,4.5770001411438,5.59700012207031,4.9689998626709,9.61732959747314,8.33123683929443,6.92669582366943,-9.8174238204956,-8.63863468170166,-7.31964588165283,-6.54604721069336,-6.68106698989868,-6.01034879684448,20.5939998626709,17.7700004577637,14.16100025177,29.4909992218018,21.7229995727539,11.8380002975464,-4.13100004196167,-1.77699995040894,2.6159999370575,5.65600776672363,4.55350303649902,3.67426896095276,-6.03003311157227,-4.72778081893921,-2.65371704101563,-4.95224809646606,-3.70813703536987,-1.96601295471191,9.60999965667725,2.07800006866455,-4.35400009155273,1.40299999713898,-10.6000003814697,-16.7980003356934,7.71500015258789,13.9919996261597,15.168999671936,2.54153800010681,-5.72957515716553,-10.2762603759766,1.5331939458847,7.67393016815186,10.4461612701416,1.85739994049072,9.12495613098144,7.13034200668335,-26.3999996185303,-25.7730007171631,-14.710000038147,-28.173999786377,-28.2520008087158,-22.996000289917,9.99100017547607,6.22499990463257,5.51900005340576,-8.19562244415283,-6.19281911849976,-5.35475206375122,9.50740623474121,8.21260166168213,5.48727607727051,2.76116394996643,0.43673801422119,-0.37664800882339,6.15799999237061,11.414999961853,17.5340003967285,-7.14699983596802,2.97199988365173,15.6040000915527,3.94899988174438,5.0479998588562,7.55800008773804,7.87052202224732,9.54541397094727,8.60774326324463,-9.86917018890381,-8.99074363708496,-7.71476078033447,-3.49619197845459,-6.09025621414185,-6.45012903213501,27.1840000152588,23.7320003509521,20.2800006866455,34.826000213623,32.3930015563965,24.7830009460449,2.14499998092651,-0.67900002002716,0.65399998426437,7.36815309524536,6.13524580001831,5.01918077468872,-6.45350790023804,-5.2105188369751,-4.04030084609985,-5.95296621322632,-4.97448110580444,-3.77516794204712,16.1219997406006,11.414999961853,5.29500007629395,14.5839996337891,4.14900016784668,-6.59800004959106,4.18499994277954,8.3430004119873,12.8929996490479,4.16646909713745,3.43832206726074,-0.65799498558044,-2.40533399581909,0.75851899385452,5.03775787353516,-2.19216108322144,0.92861598730087,7.17408514022827,-5.37400007247925,-18.7900009155273,-24.3600006103516,-17.3470001220703,-24.2509994506836,-26.7609996795654,14.9329996109009,10.6969995498657,6.53800010681152,-8.02633094787598,-9.42663860321045,-8.48789215087891,8.19706535339355,9.70388031005859,9.75844764709473,9.35315132141113,6.43796396255493,4.09276580810547,-20.0450000762939,-11.1009998321533,-1.05900001525879,-24.3290004730225,-19.3080005645752,-12.4820003509521,4.9689998626709,4.65500020980835,4.34200000762939,-7.00813007354736,-5.71871614456177,-4.57449388504028,9.8037223815918,8.8691234588623,5.90856218338013,1.71373498439789,0.39972698688507,-0.41804999113083,7.02099990844727,12.7480001449585,19.3390007019043,-3.93099999427795,6.34600019454956,19.1340007781982,4.73400020599365,7.71500015258789,8.0290002822876,SHAKE
9.54541397094727,8.60774326324463,7.36815309524536,-8.99074363708496,-7.71476078033447,-6.45350790023804,-6.09025621414185,-6.45012903213501,-5.95296621322632,23.7320003509521,20.2800006866455,16.1219997406006,32.3930015563965,24.7830009460449,14.5839996337891,-0.67900002002716,0.65399998426437,4.18499994277954,6.13524580001831,5.01918077468872,4.16646909713745,-5.2105188369751,-4.04030084609985,-2.40533399581909,-4.97448110580444,-3.77516794204712,-2.19216108322144,11.414999961853,5.29500007629395,-5.37400007247925,4.14900016784668,-6.59800004959106,-17.3470001220703,8.3430004119873,12.8929996490479,14.9329996109009,3.43832206726074,-0.65799498558044,-8.02633094787598,0.75851899385452,5.03775787353516,8.19706535339355,0.92861598730087,7.17408514022827,9.35315132141113,-18.7900009155273,-24.3600006103516,-20.0450000762939,-24.2509994506836,-26.7609996795654,-24.3290004730225,10.6969995498657,6.53800010681152,4.9689998626709,-9.42663860321045,-8.48789215087891,-7.00813007354736,9.70388031005859,9.75844764709473,9.8037223815918,6.43796396255493,4.09276580810547,1.71373498439789,-11.1009998321533,-1.05900001525879,7.02099990844727,-19.3080005645752,-12.4820003509521,-3.93099999427795,4.65500020980835,4.34200000762939,4.73400020599365,-5.71871614456177,-4.57449388504028,-1.02112996578217,8.8691234588623,5.90856218338013,-2.51593708992004,0.39972698688507,-0.41804999113083,-1.11305701732636,12.7480001449585,19.3390007019043,25.6940002441406,6.34600019454956,19.1340007781982,29.9610004425049,7.71500015258789,8.0290002822876,5.20499992370605,8.74331474304199,9.68679809570312,8.65817832946777,-9.33959865570068,-8.93088722229004,-7.76032781600952,-4.56240320205688,-6.42704296112061,-6.40855312347412,24.988000869751,21.0650005340576,18.0830001831055,33.7270011901855,29.882999420166,22.5860004425049,1.125,-1.62000000476837,-0.44299998879433,7.38152503967285,6.20455408096313,5.05710887908936,-6.55197715759277,-5.49454784393311,-4.40266704559326,-5.76258277893066,-4.80189514160156,-3.61766600608826,15.0240001678467,11.1009998321533,5.60900020599365,13.25,3.12899994850159,-8.01000022888184,2.77300000190735,7.00899982452393,11.08899974823,4.1028618812561,-2.36355495452881,-9.38096046447754,-2.76955890655518,4.88887977600098,8.84542846679688,-1.93663001060486,8.84342861175537,9.30207443237305,1.2150000333786,-28.2049999237061,-19.181999206543,-14.1300001144409,-29.7430000305176,-25.8199996948242,12.5799999237061,7.71500015258789,5.75400018692017,-9.67798519134522,-8.48500061035156,-5.75784397125244,10.0959453582764,9.68142795562744,7.99441480636597,5.9919581413269,3.88938808441162,0.60383898019791,-7.02199983596802,4.03999996185303,16.6709995269775,-19.3080005645752,-10.9130001068115,10.9750003814697,4.18499994277954,3.24300003051758,6.06799983978271,-4.71838092803955,2.0805139541626,9.36082553863525,4.11412191390991,-7.88631677627563,-9.72806453704834,-0.34079900383949,-1.32047498226166,-5.78388690948486,22.0849990844727,26.3209991455078,24.8309993743896,23.4489994049072,31.6870002746582,33.2560005187988,6.38199996948242,3.79200005531311,-0.12899999320507,SHAKE
2.16086411476135,10.1282615661621,9.89047241210938,-8.14600276947021,-9.27095794677734,-7.78401613235474,-0.27990400791168,-4.47596788406372,-5.43572282791138,26.1639995574951,24.2810001373291,20.3589992523193,33.2560005187988,34.9819984436035,29.882999420166,8.10799980163574,4.89099979400635,2.14499998092651,7.50529623031616,6.36042499542236,5.40283393859863,-5.42676877975464,-4.26483821868896,-2.83672595024109,-4.94376611709595,-3.95659399032593,-2.69446110725403,12.6700000762939,8.04100036621094,2.07800006866455,11.5240001678467,1.0110000371933,-10.128999710083,6.46000003814697,11.4809999465942,13.7559995651245,4.65875577926636,2.75170803070068,-4.85904598236084,-0.59758198261261,2.51832699775696,6.05148792266846,-0.55293798446655,3.3044810295105,8.66152667999268,-8.82600021362305,-20.8299999237061,-25.2229995727539,-20.3279991149902,-26.2910003662109,-27.1539993286133,12.3439998626709,7.48000001907349,2.69400000572205,-10.1770248413086,-10.2521572113037,-8.8615894317627,8.58336353302002,9.83868408203125,10.3006772994995,7.56081819534302,4.14453601837158,1.29998099803925,-16.9850006103516,-4.27600002288818,8.35499954223633,-23.1520004272461,-17.1900005340576,-8.71700000762939,0.34000000357628,1.04700005054474,4.5770001411438,-7.06374406814575,-5.99292802810669,-4.55816411972046,10.1685695648193,7.57509422302246,-2.09220194816589,-0.92623400688171,-1.49483501911163,-0.51167899370193,16.5139999389648,24.1240005493164,30.7150001525879,3.05100011825562,18.9769992828369,31.9230003356934,9.1269998550415,9.28400039672852,5.91099977493286,7.551842212677,9.54775047302246,8.69608020782471,-11.1706380844116,-9.62800788879394,-8.01525402069092,-2.81955194473267,-5.52527093887329,-5.88694477081299,31.1070003509521,24.988000869751,19.6529998779297,35.375,32.2360000610352,23.6849994659424,3.79200005531311,-2.01200008392334,-1.22800004482269,7.4918270111084,6.46129512786865,5.44188976287842,-6.67733001708984,-5.53238010406494,-4.36370992660522,-5.60742998123169,-4.85290813446045,-3.77341508865356,15.4940004348755,13.4540004730225,6.31500005722046,13.7209997177124,8.77799987792969,-6.67700004577637,2.45900011062622,4.81199979782104,12.3439998626709,4.30246305465698,-0.5443029999733,-7.69973802566528,0.64401698112488,4.43936204910278,7.59756278991699,1.41285705566406,8.06029319763184,10.8683948516846,-10.3170003890991,-27.0279998779297,-21.92799949646,-23.0739994049072,-29.6639995574951,-26.3689994812012,14.3839998245239,5.28299999237061,0.88999998569489,-9.33609867095947,-6.76009607315063,-5.73603487014771,9.50936031341553,12.4832458496094,11.0621433258057,7.657790184021,-0.84385097026825,-1.97192096710205,-8.35499954223633,16.4360008239746,18.4759998321533,-19.7000007629395,1.71700000762939,13.8780002593994,-0.20800000429153,4.5770001411438,5.51900005340576,-5.81832599639893,4.5422477722168,10.1282720565796,6.11307001113892,-12.1910104751587,-9.88675022125244,-2.1275041103363,-0.85031998157501,-6.0451021194458,23.5750007629395,27.4979991912842,24.9090003967285,27.136999130249,35.4529991149902,35.5320014953613,5.98899984359741,5.59700012207031,3.16499996185303,SHAKE
-5.81832599639893,4.5422477722168,10.1282720565796,6.11307001113892,-12.1910104751587,-9.88675022125244,-2.1275041103363,-0.85031998157501,-6.0451021194458,23.5750007629395,27.4979991912842,24.9090003967285,27.136999130249,35.4529991149902,35.5320014953613,5.98899984359741,5.59700012207031,3.16499996185303,9.40521240234375,8.21374130249023,7.06074905395508,-7.75900077819824,-6.09359216690063,-4.71912002563477,-6.56729602813721,-6.193678855896,-5.37776184082031,20.8290004730225,16.9850006103516,13.1409997940063,29.0979995727539,19.6840000152588,9.72000026702881,2.45900011062622,4.02799987792969,6.61700010299683,5.46778011322021,4.62993097305298,1.85337698459625,-1.91042804718018,-0.09470900148153,2.35600304603577,-2.46209192276001,-0.08201000094414,4.43247222900391,3.09800004959106,-11.414999961853,-28.5970001220703,-13.8159999847412,-26.5259990692139,-33.4300003051758,11.5600004196167,11.0100002288818,6.85200023651123,-6.97294807434082,-10.6280822753906,-10.1423282623291,6.26301193237305,9.12829113006592,10.529746055603,10.7175235748291,8.29183769226074,4.29632520675659,-27.1849994659424,-11.6499996185303,5.76599979400635,-31.5470008850098,-24.1720008850098,-14.2869997024536,2.06599998474121,-0.67900002002716,-0.05099999904633,-8.2946252822876,-6.6756157875061,-6.13273620605469,12.1439380645752,11.4543285369873,7.80142021179199,-0.11155900359154,-1.99987304210663,-2.20250606536865,13.4540004730225,18.8680000305176,24.2029991149902,-7.53999996185303,10.1120004653931,23.4489994049072,1.75300002098084,6.46000003814697,8.57800006866455,9.36756038665772,9.36330223083496,8.20491123199463,-10.5554132461548,-8.2507848739624,-6.47724103927612,-5.14308404922485,-6.56109523773193,-6.43048620223999,28.4400005340576,24.5170001983643,19.5739994049072,36.8650016784668,30.746000289917,20.9389991760254,2.8510000705719,1.51699995994568,2.14499998092651,6.96292209625244,6.05237197875977,5.1673059463501,-5.1885871887207,-3.97621202468872,-2.79520392417908,-5.81488513946533,-4.58846092224121,-3.23428797721863,15.1020002365112,10.6300001144409,5.4520001411438,10.66100025177,0.93300002813339,-8.5600004196167,5.36199998855591,9.59799957275391,13.28600025177,4.65469884872437,3.31082606315613,-8.01609230041504,-0.9288489818573,1.57564902305603,7.2516770362854,-1.07220602035522,2.77053499221802,10.9512624740601,-3.56900000572205,-18.632999420166,-22.242000579834,-19.7789993286133,-28.4869995117188,-26.2910003662109,14.3059997558594,9.36299991607666,0.73299998044968,-9.07230854034424,-8.2510347366333,-6.29273796081543,9.02820014953613,9.68897914886475,12.34814453125,8.03666210174561,4.96410703659058,-0.3199970126152,-6.23699998855591,9.8459997177124,16.2789993286133,-18.1310005187988,-6.91200017929077,5.01200008392334,0.96799999475479,4.18499994277954,7.32299995422363,-4.41861009597778,7.34499979019165,9.82479763031006,4.14317178726196,-9.76575660705566,-9.03032875061035,-1.06762504577637,-3.37737202644348,-6.86903715133667,25.8509998321533,27.4200000762939,22.4769992828369,30.3540000915527,36.0019989013672,32.5499992370605,6.69500017166138,3.63599991798401,0.96799999475479,SHAKE
-2.94145488739014,8.80630302429199,8.96560192108154,-0.64369297027588,-9.28499889373779,-7.06999206542969,-0.532958984375,-3.68621706962585,-6.01690912246704,24.3600006103516,26.2430000305176,16.75,32.8639984130859,36.1590003967285,23.2140007019043,7.48000001907349,6.14599990844727,0.65399998426437,7.76901197433472,6.58690214157104,5.44897794723511,-5.83648014068604,-4.83883810043335,-3.66765809059143,-5.71307802200317,-4.89815998077393,-3.57606506347656,13.3760004043579,9.5319995880127,5.76599979400635,13.5640001296997,3.75699996948242,-6.36299991607666,3.87100005149841,9.20600032806396,13.2069997787476,4.55822515487671,3.25958704948425,-2.20928502082825,-1.84117805957794,0.95706897974014,4.50396203994751,-1.70518398284912,1.69761598110199,7.63287019729614,-2.0,-16.4360008239746,-28.2049999237061,-18.2099990844727,-26.2910003662109,-29.3509998321533,14.1490001678467,11.0100002288818,4.89099979400635,-9.39859199523926,-10.4621381759644,-9.30996799468994,8.01528072357178,10.2139692306519,10.7032060623169,8.4784984588623,4.54738521575928,1.71692097187042,-22.8700008392334,-15.8870000839233,5.68699979782104,-25.9769992828369,-22.681999206543,-10.9919996261597,0.49700000882149,-0.44299998879433,2.77300000190735,-7.56216716766357,-6.22780179977417,-5.31726503372192,10.8304862976074,9.13002777099609,4.64147186279297,-0.7433620095253,-1.4328670501709,-1.61175096035004,15.5729999542236,17.298999786377,25.1439990997314,0.77600002288818,7.28700017929077,28.4710006713867,7.08799982070923,8.42099952697754,9.91199970245361,4.6846227645874,10.5447816848755,9.85101318359375,-10.5786838531494,-9.7325382232666,-7.95897579193115,-0.04839500039816,-3.99667811393738,-4.81523084640503,28.6749992370605,24.9090003967285,20.1229991912842,36.3950004577637,34.3549995422363,26.4309997558594,7.87200021743774,3.16499996185303,0.02700000070035,8.59900283813477,7.31952381134033,6.20269680023193,-6.57586812973022,-5.45481491088867,-4.41115093231201,-4.82634592056274,-4.40086317062378,-3.45720911026001,15.6510000228882,11.7279996871948,7.02099990844727,16.4669990539551,6.73799991607666,-3.06800007820129,0.96799999475479,4.34200000762939,9.44099998474121,5.16549015045166,4.19475889205933,1.12669098377228,-3.1639358997345,-1.19074201583862,1.98767900466919,-2.15836000442505,0.13228400051594,5.38564205169678,-0.35299998521805,-13.3760004043579,-27.9689998626709,-14.5220003128052,-24.0939998626709,-29.5860004425049,12.1090002059937,9.67700004577637,5.44000005722046,-8.89313888549805,-11.0920915603638,-9.60067176818848,7.17101001739502,10.905740737915,11.5127487182617,10.3619594573975,5.60702180862427,2.21743297576904,-26.1650009155273,-11.2580003738403,5.13800001144409,-28.0949993133545,-21.4260005950928,-11.3839998245239,1.98800003528595,1.75300002098084,5.0479998588562,-7.71077013015747,-6.15840911865234,-4.73917484283447,10.7783899307251,8.98061466217041,4.56943321228027,0.12342099845409,-0.690505027771,-0.50808298587799,14.2390003204346,19.3390007019043,27.4979991912842,1.08899998664856,16.2310009002686,30.9810009002686,8.6569995880127,10.2259998321533,8.9709997177124,SHAKE
4.6846227645874,10.5447816848755,9.85101318359375,-10.5786838531494,-9.7325382232666,-7.95897579193115,-0.04839500039816,-3.99667811393738,-4.81523084640503,28.6749992370605,24.9090003967285,20.1229991912842,36.3950004577637,34.3549995422363,26.4309997558594,7.87200021743774,3.16499996185303,0.02700000070035,8.59900283813477,7.31952381134033,6.20269680023193,-6.57586812973022,-5.45481491088867,-4.41115093231201,-4.82634592056274,-4.40086317062378,-3.45720911026001,15.6510000228882,11.7279996871948,7.02099990844727,16.4669990539551,6.73799991607666,-3.06800007820129,0.96799999475479,4.34200000762939,9.44099998474121,5.16549015045166,4.19475889205933,1.12669098377228,-3.1639358997345,-1.19074201583862,1.98767900466919,-2.15836000442505,0.13228400051594,5.38564205169678,-0.35299998521805,-13.3760004043579,-27.9689998626709,-14.5220003128052,-24.0939998626709,-29.5860004425049,12.1090002059937,9.67700004577637,5.44000005722046,-8.89313888549805,-11.0920915603638,-9.60067176818848,7.17101001739502,10.905740737915,11.5127487182617,10.3619594573975,5.60702180862427,2.21743297576904,-26.1650009155273,-11.2580003738403,5.13800001144409,-28.0949993133545,-21.4260005950928,-11.3839998245239,1.98800003528595,1.75300002098084,5.0479998588562,-7.71077013015747,-6.15840911865234,-4.73917484283447,10.7783899307251,8.98061466217041,4.56943321228027,0.12342099845409,-0.690505027771,-0.50808298587799,14.2390003204346,19.3390007019043,27.4979991912842,1.08899998664856,16.2310009002686,30.9810009002686,8.6569995880127,10.2259998321533,8.9709997177124,4.3207631111145,10.3400602340698,9.58752536773682,-8.32790279388428,-9.42133140563965,-8.20762825012207,0.24261699616909,-4.13950109481812,-5.19454908370972,28.8320007324219,24.8309993743896,20.0450000762939,37.4150009155273,34.4329986572266,25.3320007324219,4.89099979400635,0.49700000882149,0.10499999672174,8.1711254119873,6.12225008010864,4.43540811538696,-6.96786403656006,-5.48576211929321,-3.52088809013367,-5.22250890731812,-4.33000183105469,-2.30320310592651,15.8079996109009,11.3360004425049,-10.0030002593994,14.5050001144409,3.12899994850159,-23.5450000762939,2.8510000705719,7.40100002288818,12.2659997940063,3.35702395439148,-3.46643710136414,-10.9829158782959,-0.77738797664642,4.77899217605591,9.54456520080566,0.63862001895905,8.59220409393311,7.80558919906616,-26.7919998168945,-28.1259994506836,-15.2589998245239,-31.3120002746582,-31.3899993896484,-25.2709999084473,8.5,4.9689998626709,2.77300000190735,-10.5496501922607,-9.01877021789551,-7.27433919906616,10.6496133804321,10.1702241897583,9.72642230987549,4.28150081634521,2.03301000595093,0.18809500336647,-7.72800016403198,10.7869997024536,17.4559993743896,-21.1909999847412,-4.55800008773804,8.38599967956543,2.06599998474121,2.8510000705719,6.06799983978271,-6.06696796417236,9.6283540725708,10.1174621582031,7.45015907287598,-10.8783569335938,-9.0705738067627,-0.60144001245499,-3.49917602539063,-5.71187305450439,25.2229995727539,27.7329998016357,23.3400001525879,24.3120002746582,36.1590003967285,29.5690002441406,7.87200021743774,0.49700000882149,-2.09100008010864,SHAKE
3.82255792617798,-1.12749898433685,-8.38466835021973,0.95260500907898,5.77292203903198,8.54529094696045,0.43041399121284,7.56810283660889,9.24701499938965,-24.2819995880127,-28.6749992370605,-16.8290004730225,-29.9780006408691,-31.0769996643066,-25.2709999084473,12.2659997940063,8.3430004119873,5.28299999237061,-9.22888946533203,-8.38942432403564,-7.03754281997681,8.85864353179932,8.34382629394531,8.11827278137207,6.93384313583374,4.78844499588013,2.73369789123535,-9.8459997177124,6.55000019073486,12.9840002059937,-21.2700004577637,-6.44099998474121,3.99200010299683,4.34200000762939,3.71399998664856,5.12599992752075,-5.55491876602173,-3.8895308971405,6.05399799346924,7.19354820251465,1.73415195941925,-8.61142158508301,1.13703095912933,0.35132199525833,-3.6401801109314,19.0249996185303,25.0659999847412,27.7329998016357,16.3099994659424,27.451000213623,32.943000793457,7.48000001907349,7.16599988937378,2.6159999370575,8.56434535980225,7.53656387329102,6.21977710723877,-8.93043994903564,-7.90792798995972,-6.86233711242676,-7.46892023086548,-7.87584018707275,-7.2852258682251,24.2029991149902,20.2019996643066,16.9850006103516,30.2749996185303,23.371000289917,15.3680000305176,-1.22800004482269,-1.93400001525879,0.81099998950958,3.85168600082397,3.0501229763031,2.83987092971802,-5.00175380706787,-3.83190393447876,-1.26040697097778,-5.03025722503662,-3.30676198005676,-0.0843809992075,8.82600021362305,-3.09899997711182,-24.3600006103516,-5.89200019836426,-21.1909999847412,-31.4689998626709,8.5,12.5010004043579,11.1669998168945,-0.08853600174189,-7.95224523544312,-8.60750961303711,3.41070508956909,8.03592967987061,9.35575485229492,8.47825622558594,12.3044538497925,9.34294605255127,-33.0690002441406,-20.9869995117188,-5.76599979400635,-34.3720016479492,-28.8010005950928,-19.8570003509521,6.77400016784668,5.0479998588562,3.63599991798401,-7.66054010391235,-6.29492998123169,-4.94733095169067,9.07730102539062,9.34186935424805,8.62967586517334,6.76762676239014,3.93630790710449,2.03445100784302,6.78599977493286,14.4739999771118,19.5739994049072,-8.71700000762939,3.05100011825562,16.4669990539551,3.32200002670288,5.12599992752075,7.63700008392334,-3.77865505218506,5.58523797988892,9.03777980804443,3.6551399230957,-7.94757509231567,-8.31287384033203,1.04047799110413,-3.09475803375244,-7.9786491394043,25.4580001831055,27.2630004882813,24.9090003967285,28.4710006713867,33.8059997558594,31.4519996643066,7.16599988937378,4.73400020599365,3.16499996185303,7.96799612045288,6.54207611083984,5.29962205886841,-7.14656686782837,-5.89198684692383,-4.74106502532959,-8.44590091705322,-7.75290298461914,-6.6341609954834,22.7910003662109,15.8079996109009,11.7279996871948,27.8430004119873,14.1129999160767,4.85500001907349,3.40000009536743,6.30299997329712,8.73499965667725,4.21437883377075,3.54795002937317,3.29913592338562,-3.69335508346558,-2.18496608734131,0.45518800616264,-5.25168323516846,-3.32097506523132,0.21934199333191,7.49200010299683,0.1169999986887,-6.70800018310547,-4.71500015258789,-16.7980003356934,-22.2889995574951,11.0100002288818,12.6579999923706,12.1870002746582,SHAKE
3.78913593292236,1.12206196784973,-6.19683790206909,0.48859000205994,4.58365106582642,7.58031177520752,0.00710000004619,6.99600696563721,11.21555519104,-15.8870000839233,-27.4200000762939,-23.7329998016357,-25.0349998474121,-30.056999206543,-28.4090003967285,12.2659997940063,9.36299991607666,6.14599990844727,-8.09107494354248,-7.74883079528809,-6.75332307815552,8.5808687210083,8.46286773681641,8.45620441436768,9.35429954528809,7.01115322113037,4.4429612159729,-18.0049991607666,-5.68800020217896,10.7869997024536,-25.5849990844727,-18.4449996948242,-3.93099999427795,4.5770001411438,2.92899990081787,4.42000007629395,-5.49222898483276,-4.43863916397095,2.796147108078,8.1905632019043,5.78467512130737,-6.34787607192993,2.16636800765991,0.80427700281143,-3.00892305374146,15.1809997558594,18.7110004425049,24.7520008087158,6.50299978256226,18.1140003204346,28.4710006713867,6.85200023651123,8.0290002822876,6.85200023651123,7.74735021591187,6.71979284286499,5.647873878479,-7.25745296478271,-6.23487281799316,-5.31721782684326,-8.82408046722412,-8.2994556427002,-7.30712509155273,23.1830005645752,19.181999206543,15.4160003662109,30.431999206543,22.6650009155273,13.5640001296997,0.26199999451637,1.28199994564056,4.73400020599365,4.68402194976807,3.35489106178284,3.32329702377319,-4.38049793243408,-1.68035101890564,1.61798095703125,-6.02270793914795,-2.57020092010498,1.55497896671295,11.7279996871948,-4.27600002288818,-21.8500003814697,3.83500003814697,-21.3479995727539,-30.8409996032715,8.6569995880127,14.6979999542236,11.0100002288818,-1.16400098800659,-7.54787015914917,-8.52008533477783,5.28667402267456,7.73416614532471,8.42196941375732,9.19862461090088,11.3602542877197,8.99377536773682,-30.4009990692139,-20.3589992523193,-6.55100011825562,-33.3520011901855,-28.4869995117188,-20.4850006103516,5.51900005340576,3.40000009536743,2.45900011062622,-7.858726978302,-6.70036792755127,-5.37615823745728,8.04056167602539,8.81695461273193,8.09472179412842,6.76853322982788,3.64012098312378,1.69320094585419,-6.55100011825562,14.8669996261597,14.8669996261597,-20.4850006103516,1.32500004768372,1.32500004768372,2.45900011062622,7.48000001907349,7.48000001907349,-4.00036096572876,4.03639221191406,8.28615856170654,3.376384973526,-7.42530822753906,-8.43075561523438,0.52172297239304,-3.12432289123535,-8.15530967712402,25.2229995727539,27.1840000152588,25.3010005950928,26.117000579834,32.7859992980957,32.314998626709,6.53800010681152,1.36000001430511,-2.48300004005432,7.54925298690796,6.28030920028687,5.02047681808472,-7.50013399124146,-6.5694899559021,-5.77267408370972,-8.87287139892578,-8.38717079162598,-7.42575693130493,20.9080009460449,16.5139999389648,12.1990003585815,25.568000793457,16.3099994659424,6.26800012588501,-3.26799988746643,-0.28600001335144,4.73400020599365,3.64246892929077,2.808100938797,3.05539989471436,-5.15925121307373,-3.97290205955505,-1.09447503089905,-6.24277591705322,-4.59196186065674,-1.53148996829987,7.25600004196167,-2.62800002098084,-20.5160007476807,-4.32299995422363,-18.2880001068115,-28.8799991607666,9.28400039672852,13.2069997787476,13.5989999771118,SHAKE
3.05539989471436,1.86550498008728,-6.29637098312378,-1.09447503089905,4.37956285476685,8.11700820922852,-1.53148996829987,7.03116178512573,12.7855129241943,-20.5160007476807,-30.8719997406006,-22.7129993438721,-28.8799991607666,-32.8030014038086,-29.1149997711182,13.5989999771118,9.52000045776367,6.77400016784668,-7.0115761756897,-6.05133104324341,-4.8114070892334,8.24220371246338,8.1839017868042,8.10013198852539,8.12881088256836,5.40818309783936,2.78135108947754,2.62800002098084,12.8269996643066,18.3969993591309,-13.2670001983643,-2.44000005722046,9.79800033569336,3.63599991798401,5.91099977493286,8.9709997177124,-3.72130107879639,1.6144779920578,7.63882493972778,4.60176515579224,-4.780348777771,-7.84040212631226,1.44392204284668,-1.34395599365234,-7.47678899765015,25.6149997711182,30.1660003662109,28.8320007324219,23.6849994659424,33.0989990234375,34.1980018615723,9.28400039672852,6.30299997329712,3.40000009536743,7.31745481491089,6.04469013214111,4.83544492721558,-7.21359395980835,-6.22032117843628,-5.27315282821655,-8.93398666381836,-8.54306030273438,-7.54262495040894,24.8309993743896,20.2019996643066,15.8079996109009,27.7639999389648,17.8010005950928,6.97399997711182,2.22300004959106,3.79200005531311,7.71500015258789,3.6101450920105,2.90218901634216,2.98907995223999,-4.43818283081055,-3.07705807685852,-0.34895199537277,-6.2738790512085,-4.41683292388916,-0.98216098546982,9.8459997177124,-2.23600006103516,-21.5359992980957,-5.18599987030029,-21.2700004577637,-32.1749992370605,13.5209999084473,16.5020008087158,13.128999710083,1.41898095607758,-7.31090879440308,-7.11883401870728,3.56285095214844,7.07702398300171,6.88198518753052,6.27998018264771,10.7016105651855,8.60038566589355,-31.0289993286133,-7.96299982070923,4.82399988174438,-34.9210014343262,-20.6420001983643,-9.50100040435791,7.08799982070923,0.81099998950958,2.45900011062622,-6.38179206848145,-5.01567077636719,-3.88618803024292,6.64081478118896,8.02548313140869,4.4812068939209,6.50026607513428,3.30280208587646,1.62232995033264,13.3760004043579,20.2019996643066,27.9689998626709,2.03099989891052,15.4469995498657,28.7840003967285,6.22499990463257,8.42099952697754,7.08799982070923,4.27761316299438,7.7471170425415,6.87603378295898,-6.98212194442749,-7.80267477035522,-6.75101089477539,-4.23282814025879,-9.95984745025635,-9.90472221374512,30.0090007781982,28.7530002593994,21.6140003204346,34.826000213623,34.2760009765625,23.056999206543,4.02799987792969,2.45900011062622,1.59599995613098,4.78121709823608,3.93072891235352,3.4363648891449,-4.67170906066895,-3.60952591896057,-1.86925005912781,-7.38399505615234,-5.7391881942749,-3.44300603866577,12.1990003585815,5.4520001411438,-1.37300002574921,2.57999992370605,-10.6780004501343,-19.3080005645752,9.28400039672852,14.3839998245239,16.1100006103516,3.21583104133606,-2.30105209350586,-7.09642601013184,1.57343101501465,5.8251371383667,7.91244602203369,1.20029997825623,9.44866752624512,10.6111536026001,-28.1259994506836,-29.1459999084473,-15.8090000152588,-34.3720016479492,-33.2729988098145,-25.2709999084473,12.0299997329712,6.53800010681152,2.92899990081787,SHAKE
0.0718249976635,8.36516952514648,8.7120885848999,-1.49402904510498,-8.53498935699463,-8.68164539337158,-1.13344895839691,-5.74291515350342,-7.34710788726807,23.0259990692139,23.4969997406006,23.4969997406006,24.8619995117188,28.863000869751,28.863000869751,8.6569995880127,4.65500020980835,4.65500020980835,7.68474817276001,6.49712181091309,5.29866504669189,-7.75933599472046,-6.77135181427002,-5.84798383712769,-7.10287523269653,-6.45767211914063,-5.65707492828369,17.1420001983643,12.9049997329712,9.06099987030029,22.0370006561279,14.5839996337891,6.89499998092651,1.67400002479553,3.79200005531311,7.32299995422363,4.19189977645874,3.61011695861816,4.22576522827148,-4.87005710601807,-3.05714797973633,1.44331300258636,-4.70327186584473,-3.22750806808472,0.4663459956646,4.35400009155273,-4.51100015640259,-16.3579998016357,-1.57700002193451,-12.5609998703003,-22.4459991455078,11.4029998779297,16.0319995880127,16.1100006103516,0.85807198286057,-6.42368698120117,-7.90480089187622,6.41815280914307,8.4604549407959,7.94065618515015,6.99067115783691,9.51802921295166,5.94569492340088,-24.2029991149902,-20.7509994506836,-0.35299998521805,-26.2119998931885,-23.3090000152588,-7.69700002670288,11.7170000076294,7.55800008773804,4.9689998626709,-6.72359609603882,-5.27415323257446,-3.52185702323914,7.62076282501221,7.15146112442017,4.86347389221191,3.62921404838562,1.71464896202087,0.64732700586319,6.31500005722046,13.6110000610352,23.5750007629395,0.30500000715256,10.8179998397827,23.7630004882813,6.06799983978271,7.95100021362305,7.71500015258789,2.86277008056641,7.89524507522583,6.85260105133057,-3.6252601146698,-9.14521598815918,-9.2779483795166,-1.39936196804047,-7.57963991165161,-8.48649311065674,27.1840000152588,24.988000869751,22.1630001068115,31.2950000762939,31.6870002746582,26.3519992828369,3.16499996185303,-1.30599999427795,-2.24799990653992,5.55262994766235,4.43336582183838,3.27908802032471,-8.43774795532227,-7.2921028137207,-6.10668802261353,-7.81112289428711,-6.65530014038086,-5.45744705200195,18.0830001831055,12.9840002059937,5.29500007629395,17.2509994506836,6.81699991226196,-5.57800006866455,1.36000001430511,7.00899982452393,13.5989999771118,2.66223406791687,3.22783803939819,0.57633197307587,-4.28811883926392,-0.23588399589062,5.64758205413818,-3.82170391082764,-0.51601999998093,7.6386251449585,-9.14000034332275,-23.0270004272461,-25.8509998321533,-20.3279991149902,-28.0949993133545,-29.0370006561279,17.0520000457764,13.3640003204346,9.67700004577637,-6.94570112228394,-8.25722026824951,-7.55839681625366,8.27804279327393,8.83942031860352,8.69043445587158,11.087477684021,8.94633865356445,6.49778699874878,-19.181999206543,-8.51200008392334,1.52900004386902,-22.3680000305176,-14.0520000457764,-5.97100019454956,3.87100005149841,3.63599991798401,6.06799983978271,-6.13410806655884,-4.54347276687622,-2.82448792457581,9.02195739746094,8.38874340057373,4.88398599624634,3.64268803596497,1.71688199043274,0.89333897829056,7.25600004196167,9.68900012969971,19.4169998168945,1.32500004768372,5.2480001449585,20.2329998016357,8.57800006866455,9.44099998474121,10.9320001602173,SHAKE
-7.28340578079224,-5.81391477584839,-3.60484194755554,7.08633184432983,6.59883213043213,3.6470959186554,5.02100992202759,3.08438611030579,1.67290198802948,11.6499996185303,23.5750007629395,32.1269989013672,3.99200010299683,21.4099998474121,34.2760009765625,8.10799980163574,8.89200019836426,4.89099979400635,6.0654149055481,8.01214981079102,6.71789789199829,-6.53381204605103,-9.30314445495606,-8.53093338012695,-3.09685707092285,-8.52122402191162,-8.32375526428223,29.7730007171631,25.5370006561279,18.9459991455078,36.0810012817383,29.4909992218018,17.9570007324219,0.34000000357628,0.02700000070035,3.79200005531311,5.55422210693359,4.50096797943115,3.52191805839539,-7.18173789978027,-5.80496978759766,-4.08337497711182,-7.20996522903442,-5.87935495376587,-4.25425386428833,12.0419998168945,7.96299982070923,-4.19700002670288,5.71799993515015,-1.02799999713898,-17.8959999084473,8.81400012969971,11.8730001449585,15.875,3.02640604972839,-8.53490352630615,-8.77602291107178,-0.58492398262024,9.08777523040772,8.98950862884521,-1.1219630241394,8.76100254058838,6.89897680282593,-22.9479999542236,-15.0240001678467,0.74500000476837,-30.8409996032715,-22.8390007019043,-11.3839998245239,14.6979999542236,2.38000011444092,2.8510000705719,-7.24529123306274,-5.89523410797119,-4.56469392776489,7.83167505264282,7.31798601150513,4.02449893951416,4.21294116973877,2.35854411125183,1.21113896369934,10.1590003967285,19.0249996185303,32.6759986877441,0.30500000715256,16.3099994659424,32.5499992370605,4.81199979782104,6.93100023269653,6.85200023651123,5.3235068321228,8.6095142364502,7.41577005386353,-8.69245052337646,-9.51581287384033,-8.09858894348145,-2.96486592292786,-8.1775426864624,-8.00079154968262,34.7949981689453,28.8320007324219,21.5349998474121,36.9440002441406,29.4120006561279,16.8589992523193,3.16499996185303,3.47900009155273,8.0290002822876,6.06435489654541,4.83880710601807,3.91075110435486,-6.52534484863281,-4.87888813018799,-3.00371789932251,-6.96086406707764,-5.53512907028198,-3.44751906394959,12.9049997329712,1.37199997901917,-17.5349998474121,2.57999992370605,-14.914999961853,-29.2719993591309,13.9130001068115,16.8159999847412,13.5989999771118,3.14453291893005,-2.75455904006958,-8.21657562255859,0.1496199965477,5.38582515716553,8.24422264099121,0.28781300783157,8.11792182922363,8.84688091278076,-32.9119987487793,-27.6550006866455,-11.1009998321533,-35.2350006103516,-31.2329998016357,-21.3479995727539,6.61700010299683,1.9099999666214,0.18400000035763,-7.57535123825073,-6.12535381317139,-4.69593191146851,7.85342979431152,7.99205780029297,6.37884616851807,5.08879995346069,3.10531806945801,1.67030704021454,10.0019998550415,10.0019998550415,14.5530004501343,1.71700000762939,1.71700000762939,12.701000213623,5.67500019073486,5.67500019073486,7.00899982452393,1.55667901039124,8.65967464447021,7.63262891769409,-5.02728891372681,-8.83584403991699,-7.65205097198486,-1.61340498924255,-9.49126529693604,-9.55817413330078,27.8120002746582,24.4379997253418,20.3589992523193,33.5699996948242,29.9610004425049,21.4099998474121,6.38199996948242,4.81199979782104,5.67500019073486,SHAKE
6.33112096786499,5.16061210632324,3.74401688575745,-6.28051614761353,-5.01715612411499,-1.17142903804779,-8.45223903656006,-6.96434879302979,-2.19889688491821,14.8669996261597,11.6499996185303,-21.4570007324219,10.503999710083,4.38500022888184,-30.4489994049072,8.5,10.3039999008179,11.9519996643066,2.23703694343567,-6.1017279624939,-8.61439990997314,3.26787996292114,6.89399385452271,7.80699300765991,4.30320119857788,10.1842708587646,8.85415267944336,-30.7940006256104,-27.7339992523193,-4.43200016021729,-33.6660003662109,-31.8610000610352,-17.4249992370605,6.61700010299683,4.42000007629395,1.04700005054474,-7.18829584121704,-5.57118797302246,-3.49192690849304,6.48006105422974,6.5964241027832,1.36932194232941,5.19074296951294,2.78168702125549,1.14526796340942,15.5729999542236,24.3600006103516,28.8320007324219,7.75799989700317,23.4489994049072,33.0989990234375,6.38199996948242,7.87200021743774,5.44000005722046,7.37237691879272,7.71782302856445,6.50220012664795,-8.66311359405518,-8.22608661651611,-6.89064979553223,-7.28379201889038,-9.82068157196045,-9.14225482940674,26.3999996185303,22.4769992828369,17.7700004577637,33.3349990844727,26.5090007781982,16.0750007629395,2.92899990081787,2.6159999370575,4.89099979400635,5.29019784927368,4.19932508468628,3.32894706726074,-5.63131189346313,-4.47694110870361,0.26165500283241,-7.91407823562622,-6.43005323410034,-0.05935600027442,12.6700000762939,6.94299983978271,-20.5160007476807,4.85500001907349,-9.50100040435791,-33.0379981994629,8.5,12.1870002746582,13.7559995651245,-1.43711996078491,-7.6200270652771,-8.10576725006104,4.9330620765686,7.42506790161133,7.34474277496338,9.17091369628906,11.0784664154053,9.1295166015625,-34.9519996643066,-14.003999710083,5.53000020980835,-37.4309997558594,-26.9969997406006,-13.8950004577637,7.79400014877319,1.04700005054474,3.16499996185303,-7.25187015533447,-5.86908292770386,-4.22409391403198,6.20513391494751,5.72128295898438,4.76803207397461,7.17720317840576,5.00760078430176,2.83651900291443,16.5930004119873,19.4169998168945,25.7719993591309,1.0110000371933,13.798999786377,28.0,8.42099952697754,8.9709997177124,6.69500017166138,0.81875997781754,7.30853414535522,6.64245414733887,-3.70165300369263,-7.70016479492188,-6.96040296554565,-0.84172600507736,-9.1943416595459,-10.0186748504639,28.3610000610352,26.556999206543,24.988000869751,34.9039993286133,32.0009994506836,27.9209995269775,2.69400000572205,0.02700000070035,0.02700000070035,5.47176694869995,4.37998390197754,3.38533592224121,-5.93785619735718,-5.03081178665161,-3.97121691703796,-9.2221794128418,-7.90489101409912,-6.16433382034302,17.1420001983643,9.375,-2.94199991226196,10.4259996414185,-2.98900008201599,-20.4850006103516,5.12599992752075,9.75500011444092,15.7180004119873,3.08362197875977,-5.32191801071167,-7.51802921295166,-1.76585102081299,6.87397623062134,7.71087789535522,-3.31421709060669,11.5394296646118,10.5276584625244,-22.1639995574951,-23.3400001525879,-4.35400009155273,-34.3720016479492,-31.3120002746582,-18.8369998931885,16.3449993133545,1.59599995613098,-0.05099999904633,SHAKE
-7.25187015533447,-5.86908292770386,-4.22409391403198,6.20513391494751,5.72128295898438,4.76803207397461,7.17720317840576,5.00760078430176,2.83651900291443,16.5930004119873,19.4169998168945,25.7719993591309,1.0110000371933,13.798999786377,28.0,8.42099952697754,8.9709997177124,6.69500017166138,0.81875997781754,7.30853414535522,6.64245414733887,-3.70165300369263,-7.70016479492188,-6.96040296554565,-0.84172600507736,-9.1943416595459,-10.0186748504639,28.3610000610352,26.556999206543,24.988000869751,34.9039993286133,32.0009994506836,27.9209995269775,2.69400000572205,0.02700000070035,0.02700000070035,5.47176694869995,4.37998390197754,3.38533592224121,-5.93785619735718,-5.03081178665161,-3.97121691703796,-9.2221794128418,-7.90489101409912,-6.16433382034302,17.1420001983643,9.375,-2.94199991226196,10.4259996414185,-2.98900008201599,-20.4850006103516,5.12599992752075,9.75500011444092,15.7180004119873,3.08362197875977,-5.32191801071167,-7.51802921295166,-1.76585102081299,6.87397623062134,7.71087789535522,-3.31421709060669,11.5394296646118,10.5276584625244,-22.1639995574951,-23.3400001525879,-4.35400009155273,-34.3720016479492,-31.3120002746582,-18.8369998931885,16.3449993133545,1.59599995613098,-0.05099999904633,-7.16907596588135,-6.15929985046387,-4.78860378265381,7.13273286819458,6.195387840271,6.31458187103271,8.49087524414063,6.65370607376099,4.06064987182617,8.74699974060059,20.0450000762939,28.9890003204346,-3.6949999332428,13.4069995880127,29.1770000457764,3.08599996566772,6.22499990463257,4.89099979400635,-2.94303894042969,7.33786821365356,6.7564058303833,0.72179502248764,-8.76933860778809,-7.74003410339355,1.7721049785614,-9.74345779418945,-10.9165000915527,30.3229999542236,26.0860004425049,20.2019996643066,35.5320014953613,31.1380004882813,21.3309993743896,1.51699995994568,0.49700000882149,2.14499998092651,4.64028978347778,3.7904589176178,3.29182600975037,-4.92284679412842,-3.56479692459106,-1.45444297790527,-8.17521476745605,-6.42694902420044,-4.02706718444824,10.0019998550415,-4.19700002670288,-21.6140003204346,3.44300007820129,-15.6990003585815,-27.6240005493164,8.6569995880127,12.7360000610352,10.9320001602173,2.73023796081543,-5.78041791915894,-7.75613594055176,3.68437600135803,8.91064739227295,9.31583786010742,2.13126993179321,10.0506772994995,8.93342113494873,-28.9109992980957,-20.2019996643066,-13.2200002670288,-30.1350002288818,-25.42799949646,-21.8190002441406,8.89200019836426,7.40100002288818,7.40100002288818,-7.10948514938354,-6.03866577148438,-4.6230788230896,8.18462371826172,7.10024785995483,5.99400806427002,7.16504907608032,5.53187894821167,3.80359101295471,2.54900002479553,11.8070001602173,18.4759998321533,-8.16699981689453,2.65899991989136,11.5240001678467,7.87200021743774,7.48000001907349,7.79400014877319,-1.7671309709549,6.44792318344116,7.3211030960083,1.76417005062103,-5.92682409286499,-7.49691820144653,2.07471394538879,-4.24939393997192,-8.19986057281494,30.7929992675781,24.9090003967285,19.8880004882813,30.9810009002686,28.7840003967285,23.1359996795654,8.57800006866455,5.59700012207031,3.94899988174438,SHAKE
7.3211030960083,6.26314210891724,5.13056182861328,-7.49691820144653,-7.1085901260376,-6.23937320709229,-8.19986057281494,-8.4114465713501,-7.53711986541748,19.8880004882813,14.8669996261597,12.1990003585815,23.1359996795654,14.8190002441406,10.0329999923706,3.94899988174438,4.26300001144409,4.9689998626709,3.42343091964722,3.27717995643616,-2.4848530292511,-3.40100002288818,0.62195700407028,7.09422588348389,-4.54330778121948,-0.6125699877739,8.4837589263916,-14.6319999694824,-27.1849994659424,-23.7329998016357,-23.5450000762939,-27.7810001373291,-23.4659996032715,12.9720001220703,11.246000289917,8.6569995880127,-7.68852519989014,-6.35143423080444,-2.5310800075531,8.1078929901123,6.6594409942627,3.57509303092957,7.62033700942993,6.11826705932617,4.11222076416016,2.86299991607666,18.1620006561279,18.1620006561279,-4.24499988555908,13.1719999313354,13.1719999313354,9.36299991607666,13.5989999771118,13.5989999771118,4.08831596374512,7.07638311386108,5.1762261390686,-1.26252102851868,-6.49839401245117,-8.12644577026367,0.59122002124786,-7.41297817230225,-9.30729866027832,26.1639995574951,22.5550003051758,22.5550003051758,29.1770000457764,26.2740001678467,26.2740001678467,4.9689998626709,-0.75700002908707,-0.75700002908707,3.91114497184753,2.99759006500244,2.31020307540894,-8.00839138031006,-7.35733509063721,-6.3281078338623,-8.52752590179443,-7.1833028793335,-5.45090579986572,11.8850002288818,2.54900002479553,-19.181999206543,6.65999984741211,-11.0699996948242,-28.0170001983643,-1.30599999427795,5.28299999237061,13.6780004501343,1.88811099529266,-5.68047285079956,-9.59405326843262,-3.6341609954834,6.9345178604126,10.4941568374634,-2.71303796768188,9.71733856201172,8.96808815002441,-34.7949981689453,-29.3819999694824,-13.3760004043579,-33.9010009765625,-30.3700008392334,-22.2889995574951,13.4429998397827,9.83399963378906,5.51900005340576,-8.30886173248291,-6.75699377059937,-2.64852809906006,9.24261569976807,7.50645399093628,2.99032807350159,7.04541492462158,5.44400882720947,2.4753110408783,3.56900000572205,3.56900000572205,28.9890003204346,-10.4429998397827,-10.4429998397827,33.3349990844727,4.89099979400635,4.89099979400635,-0.60000002384186,7.01328706741333,7.79346513748169,6.56413316726685,-7.87058305740356,-9.87513256072998,-8.57207489013672,-4.92519903182983,-9.23678302764893,-8.61446475982666,27.1840000152588,21.6140003204346,13.8470001220703,32.0009994506836,23.4489994049072,10.8959999084473,-1.46300005912781,0.65399998426437,4.10599994659424,5.37503385543823,4.35228204727173,3.63153791427612,-7.04570007324219,-5.46689701080322,-2.89023995399475,-7.52850723266602,-5.97699213027954,-3.4859459400177,10.4729995727539,-10.1599998474121,-29.5380001068115,3.99200010299683,-23.6229991912842,-34.0579986572266,6.30299997329712,14.6979999542236,15.326000213623,1.71761298179626,-7.28555822372437,-8.15813159942627,3.99900007247925,9.20977783203125,9.20721817016602,4.24985218048096,9.81840896606445,8.20505428314209,-32.5200004577637,-28.2830009460449,-12.7489995956421,-33.4300003051758,-30.5270004272461,-22.0540008544922,12.2659997940063,9.44099998474121,2.92899990081787,SHAKE
6.25625276565552,5.31215190887451,4.38640594482422,-7.29824876785278,-6.15991878509521,-4.83873701095581,-7.51786994934082,-6.20035696029663,-4.67044019699097,7.72700023651123,3.96099996566772,-6.23699998855591,6.73799991607666,-4.79400014877319,-22.681999206543,1.8309999704361,5.75400018692017,9.75500011444092,-4.62301397323608,-10.8909950256348,-9.7505989074707,7.4900598526001,10.7557735443115,9.7069902420044,10.5167074203491,9.42920589447022,7.17076587677002,-34.9519996643066,-29.9309997558594,-3.96199989318848,-33.1160011291504,-30.6840000152588,-18.4449996948242,8.42099952697754,7.24499988555908,3.79200005531311,-6.94814300537109,-5.13756990432739,-2.58188605308533,6.13814115524292,4.89173412322998,-0.65464001893997,4.21406412124634,2.81977295875549,0.93680900335312,20.6720008850098,23.3400001525879,24.988000869751,13.0150003433228,25.253999710083,32.0009994506836,5.44000005722046,2.92899990081787,-2.79699993133545,8.81959819793701,7.75248003005981,6.44683218002319,-10.9535293579102,-8.51236534118652,-6.97106790542603,-6.70533609390259,-8.29023456573486,-7.37029790878296,23.3400001525879,15.9650001525879,11.7279996871948,32.7859992980957,16.1529998779297,5.56099987030029,-5.69999980926514,-0.44299998879433,3.79200005531311,5.27055501937866,4.31547594070435,3.66815805435181,-5.67515182495117,-4.17661809921265,-1.24137496948242,-6.01933908462524,-4.20137596130371,-0.84147000312805,6.78599977493286,2.23499989509583,-27.1849994659424,-6.75500011444092,-15.3850002288818,-35.548999786377,9.36299991607666,12.0299997329712,13.2069997787476,-1.31929898262024,-8.51144123077393,-8.37329578399658,4.81084203720093,9.40830230712891,9.79507637023926,9.82978057861328,11.1155891418457,8.54603099822998,-35.3440017700195,-24.8309993743896,-7.80600023269653,-36.4900016784668,-30.1350002288818,-21.2700004577637,10.6180000305176,6.69500017166138,3.24300003051758,-7.36306285858154,-6.23206901550293,-4.79614305496216,8.86928367614746,7.55570697784424,6.58965110778809,6.47981977462769,4.87359619140625,3.08094191551209,8.51200008392334,14.5530004501343,25.4580001831055,-8.95199966430664,-0.87099999189377,24.6259994506836,3.55699992179871,4.89099979400635,5.0479998588562,-3.00233006477356,7.22680997848511,8.49581813812256,2.00081300735474,-9.3392744064331,-9.36559963226318,1.49084496498108,-5.81564521789551,-9.35055446624756,27.9689998626709,24.988000869751,20.5160007476807,33.3349990844727,33.7270011901855,27.451000213623,-0.36500000953674,-2.9539999961853,-2.64000010490417,7.37716007232666,6.14968299865723,5.04458522796631,-7.91564702987671,-6.52939081192017,-5.47942209243774,-9.00476360321045,-8.06898975372314,-6.88720607757568,15.6510000228882,10.9440002441406,6.86399984359741,18.193000793457,8.46399974822998,-1.65600001811981,-0.67900002002716,1.98800003528595,4.89099979400635,4.00072479248047,3.26483392715454,2.40527296066284,-4.50282621383667,-2.56939196586609,2.80417799949646,-5.419114112854,-3.15673899650574,4.07860088348389,-1.76499998569489,-18.5550003051758,-30.7150001525879,-15.8559999465942,-29.2719993591309,-33.5870018005371,9.44099998474121,11.6379995346069,11.1669998168945,SHAKE
-4.79857397079468,-3.48461103439331,-0.81809800863266,6.31171894073486,5.36319017410278,0.62762701511383,5.42810821533203,3.24744200706482,1.0767639875412,12.8269996643066,20.4370002746582,25.7719993591309,5.56099987030029,17.6439990997314,26.7450008392334,6.14599990844727,5.67500019073486,3.24300003051758,6.19552993774414,4.95456981658936,3.92783808708191,-8.28493309020996,-7.74953985214233,-6.7673659324646,-9.73983097076416,-9.65445327758789,-8.56876659393311,21.378999710083,17.8479995727539,13.6899995803833,26.117000579834,18.9769992828369,10.3470001220703,-1.85500001907349,0.81099998950958,4.89099979400635,3.05869007110596,2.39327001571655,2.58767890930176,-5.61755180358887,-4.26277303695679,-1.87399101257324,-7.13973093032837,-5.58498191833496,-3.34491991996765,11.4930000305176,4.82399988174438,-8.27700042724609,5.79699993133545,-4.79400014877319,-17.6609992980957,7.24499988555908,10.4610004425049,11.1669998168945,4.15713310241699,-2.61616492271423,-5.95177888870239,3.57340097427368,7.58349990844727,7.62993478775024,2.54821705818176,11.6096792221069,11.775598526001,-21.6140003204346,-16.8290004730225,-12.121000289917,-26.9179992675781,-25.6630001068115,-23.2310009002686,13.0500001907349,12.1870002746582,10.3830003738403,-5.57875490188599,-4.33816194534302,-1.26184296607971,5.02376985549927,3.20821905136108,0.06263799965382,8.53411293029785,6.89588212966919,4.30574178695679,14.3170003890991,22.4769992828369,29.6949996948242,3.83500003814697,18.9769992828369,30.2749996185303,5.28299999237061,7.24499988555908,4.5770001411438,5.69553184509277,5.31104612350464,2.41835498809814,-5.20389080047607,-7.30213403701782,-7.64588212966919,-3.36504006385803,-9.7956428527832,-10.9172677993774,28.7530002593994,24.0459995269775,20.5939998626709,33.0209999084473,28.0,19.4479999542236,-1.85500001907349,-6.24900007247925,-2.9539999961853,0.82809501886368,0.12319699674845,2.1381471157074,-7.08426523208618,-6.06946992874146,-1.37402403354645,-9.94678974151611,-8.29651546478271,-3.02323508262634,16.9069995880127,8.43299961090088,-24.8309993743896,8.77799987792969,-7.22599983215332,-29.2719993591309,2.92899990081787,9.91199970245361,17.6009998321533,3.12702608108521,-3.3511381149292,-4.58444690704346,4.83155202865601,7.77787017822266,7.21398782730103,6.13212919235229,12.5788679122925,11.6073389053345,-22.7129993438721,-11.1009998321533,-0.50999999046326,-28.4869995117188,-21.6620006561279,-11.9329996109009,15.326000213623,8.42099952697754,3.08599996566772,-4.56690216064453,-3.91833901405334,-2.52295398712158,6.32215881347656,6.27259397506714,5.50615787506104,9.79257392883301,7.21790981292725,4.15539407730103,8.66899967193604,17.4559993743896,22.5550003051758,-1.02799999713898,12.543999671936,24.2339992523193,3.94899988174438,5.44000005722046,3.16499996185303,1.86694204807281,6.79941892623901,5.29444408416748,-1.04156696796417,-7.18024492263794,-7.58201789855957,0.34794500470161,-9.08946418762207,-10.6028289794922,24.5949993133545,24.1240005493164,21.6140003204346,30.6669998168945,30.9810009002686,25.7250003814697,-0.36500000953674,-2.56100010871887,-2.16899991035461,SHAKE
2.228590965271,-4.78483009338379,-6.87391805648804,4.52712392807007,8.35613346099854,9.09382343292236,4.92210817337036,11.4068565368652,10.4380741119385,-25.0659999847412,-19.6529998779297,-8.66899967193604,-27.6240005493164,-23.7019996643066,-16.5620002746582,12.1870002746582,8.26399993896484,4.42000007629395,-5.9415397644043,-4.56313514709473,-2.55908989906311,9.05491924285889,9.06473541259766,2.81991004943848,5.17895889282227,2.36957192420959,0.45480999350548,9.2180004119873,13.2980003356934,17.3770008087158,0.38299998641014,8.38599967956543,18.0359992980957,4.49900007247925,5.51900005340576,5.51900005340576,0.29319798946381,7.1868200302124,6.70285987854004,-2.26631188392639,-7.79837322235107,-7.61782693862915,-0.95988899469376,-8.19926166534424,-9.80114936828613,21.1429996490479,23.5750007629395,22.5550003051758,26.9799995422363,31.9230003356934,30.0400009155273,4.65500020980835,3.47900009155273,1.36000001430511,5.57427597045898,4.56874322891235,3.77344989776611,-6.74984788894653,-5.81070280075073,-4.76797389984131,-9.22048187255859,-8.01079368591309,-6.56441497802734,19.3390007019043,15.7299995422363,13.9250001907349,22.82200050354,13.6420001983643,8.85700035095215,1.51699995994568,4.49900007247925,6.46000003814697,3.69484090805054,3.20835709571838,-2.48453998565674,-0.07718099653721,3.16711401939392,6.17404794692993,-1.34960603713989,3.32099390029907,9.85311317443848,-7.33500003814697,-21.5359992980957,-21.5359992980957,-21.5049991607666,-29.5069999694824,-29.5069999694824,14.3839998245239,12.1090002059937,12.1090002059937,-6.99680519104004,-7.14821720123291,-6.04550313949585,7.80284023284912,7.33043098449707,8.16081142425537,11.0539770126343,7.18823194503784,3.61304402351379,-26.3999996185303,9.2180004119873,15.8870000839233,-30.8409996032715,-5.7350001335144,6.65999984741211,9.75500011444092,5.20499992370605,7.40100002288818,-4.61939001083374,-2.33020091056824,5.9740309715271,6.93352794647217,1.04952597618103,-7.68882083892822,1.63462698459625,0.39545801281929,-6.17792987823486,15.8870000839233,27.6550006866455,27.6550006866455,6.65999984741211,29.8040008544922,29.8040008544922,7.40100002288818,2.38000011444092,2.38000011444092,6.82993316650391,5.85054779052734,4.81897687911987,-8.25796508789063,-7.13410615921021,-5.89189720153809,-9.48146152496338,-9.24813365936279,-8.26302528381348,23.3400001525879,18.7110004425049,18.7110004425049,29.4120006561279,21.5659999847412,21.5659999847412,1.75300002098084,4.89099979400635,4.89099979400635,3.83176398277283,3.18332290649414,3.88451194763184,-4.80126714706421,-3.49569201469421,-0.78745102882385,-7.05221605300903,-5.59371185302734,-3.20448589324951,9.2180004119873,5.21700000762939,-2.15700006484985,5.09100008010864,-2.44000005722046,-11.6190004348755,9.91199970245361,11.4809999465942,13.0500001907349,5.0820631980896,1.55535197257996,-5.18252992630005,3.31680202484131,6.08941602706909,8.02952480316162,1.14365196228027,6.50794219970703,10.0217723846436,-12.9060001373291,-21.693000793457,-21.0650005340576,-20.7199993133545,-25.1919994354248,-24.5650005340576,11.246000289917,9.1269998550415,7.32299995422363,SHAKE
3.64175796508789,-1.23407602310181,-6.60140419006348,1.76239705085754,4.89802694320679,6.77345895767212,2.03812098503113,9.01810455322266,11.4482469558716,-20.5160007476807,-28.1259994506836,-20.0450000762939,-30.6060009002686,-33.1160011291504,-28.3309993743896,11.9519996643066,8.9709997177124,4.65500020980835,-7.60303592681885,-7.21802616119385,-6.2525429725647,6.93852090835571,6.02853393554688,7.01980018615723,10.0243015289307,8.26667976379395,4.71967792510986,-3.7260000705719,10.7869997024536,19.4169998168945,-19.3080005645752,-6.83400011062622,8.69999980926514,2.14499998092651,4.42000007629395,8.3430004119873,-4.84278202056885,-1.98772299289703,5.70233917236328,5.94199705123901,0.0210410002619,-7.40183401107788,2.57138705253601,0.28886398673058,-7.96584177017212,27.1060009002686,30.4790000915527,27.9689998626709,24.2339992523193,33.4129981994629,34.826000213623,8.6569995880127,3.24300003051758,-2.56100010871887,5.8534688949585,4.94129991531372,4.05255889892578,-7.75504589080811,-6.82202577590942,-5.75618886947632,-10.6108617782593,-10.0455894470215,-8.83900165557861,23.7320003509521,21.5349998474121,14.5530004501343,28.7059993743896,23.9200000762939,8.22900009155273,-3.34599995613098,-1.54200005531311,5.98899984359741,3.10788798332214,2.42966508865356,3.04949808120728,-4.85478019714355,-3.72197699546814,-1.00216901302338,-7.41178607940674,-5.63861703872681,-2.50026106834412,8.9040002822876,4.90299987792969,-23.7329998016357,-3.46000003814697,-11.1490001678467,-32.8810005187988,10.539999961853,12.5010004043579,13.9130001068115,2.29765295982361,-5.51223278045654,-6.9476900100708,4.20290517807007,7.87153291702271,7.79705476760864,5.68896198272705,12.477502822876,11.3315887451172,-32.7550010681152,-20.3589992523193,-2.0,-35.6269989013672,-29.3509998321533,-18.6019992828369,9.28400039672852,3.79200005531311,1.36000001430511,-6.58839416503906,-5.73090219497681,-4.43585205078125,6.45072078704834,5.41485023498535,6.51924991607666,9.47680187225342,7.34157800674438,3.73199796676636,6.23699998855591,20.2019996643066,24.988000869751,-11.9329996109009,9.4060001373291,21.488000869751,2.22300004959106,6.61700010299683,5.20499992370605,-2.40649795532227,5.38476610183716,5.49437808990479,-0.06163100153208,-7.50857591629028,-7.16819477081299,1.6643830537796,-8.24781322479248,-10.9887189865112,28.1259994506836,26.9489994049072,23.4969997406006,30.19700050354,32.1580009460449,27.6079998016357,2.22300004959106,-0.44299998879433,-0.91399997472763,4.40027523040771,3.36930108070374,2.50767993927002,-6.10209608078003,-5.15651321411133,-4.2593879699707,-10.5037488937378,-9.35201168060303,-7.88378095626831,19.0249996185303,14.4739999771118,9.13899993896484,19.2910003662109,10.0329999923706,0.54000002145767,1.98800003528595,6.46000003814697,11.9519996643066,2.2220630645752,3.52828407287598,4.33039522171021,-2.80002999305725,0.26568099856377,4.47025299072266,-6.05651617050171,-3.01963090896606,3.0603449344635,1.9210000038147,-11.0229997634888,-26.4790000915527,-10.6000003814697,-23.5450000762939,-30.9200000762939,15.9530000686646,15.5609998703003,11.6379995346069,SHAKE
3.52828407287598,4.33039522171021,-2.00224304199219,0.26568099856377,4.47025299072266,7.62521076202393,-3.01963090896606,3.0603449344635,10.4148950576782,-11.0229997634888,-26.4790000915527,-27.5769996643066,-23.5450000762939,-30.9200000762939,-29.8999996185303,15.5609998703003,11.6379995346069,7.08799982070923,-5.92960500717163,-6.45866107940674,-6.05334711074829,8.42899608612061,7.66640090942383,6.23430919647217,11.2760896682739,9.63980293273926,8.01064586639404,-13.1409997940063,2.86299991607666,11.6499996185303,-22.2110004425049,-10.9919996261597,0.14800000190735,3.40000009536743,3.32200002670288,5.67500019073486,-5.09338617324829,-3.88013291358948,0.34586599469185,7.20714378356934,5.6379189491272,-3.19843411445618,4.53771114349365,2.57550692558289,-0.96998399496078,17.5340003967285,20.7509994506836,29.4599990844727,11.4460000991821,17.6439990997314,31.9230003356934,5.59700012207031,4.42000007629395,0.88999998569489,6.08007621765137,5.13329982757568,3.08473205566406,-8.37499237060547,-7.68373394012451,-5.5144681930542,-10.3443088531494,-10.9996585845947,-8.59439373016357,27.6550006866455,25.6149997711182,14.7880001068115,32.2360000610352,29.7259998321533,7.99399995803833,-0.28600001335144,0.02700000070035,7.63700008392334,2.31262898445129,2.24984502792358,3.4314649105072,-4.44862413406372,-2.68549990653992,0.58503597974777,-7.00957584381104,-4.95321178436279,-1.23848700523376,9.68900012969971,-0.98000001907349,-22.242000579834,-3.22499990463257,-19.7000007629395,-31.8610000610352,11.5600004196167,15.2469997406006,14.4619998931885,1.962317943573,-6.292640209198,-6.91504192352295,4.82068490982056,8.27588939666748,8.09743976593018,6.12910318374634,11.6981468200684,10.0637121200562,-32.5200004577637,-20.9869995117188,-3.09899997711182,-34.2150001525879,-27.7810001373291,-15.8559999465942,9.44099998474121,4.10599994659424,1.51699995994568,-6.39799976348877,-5.22771883010864,-3.7486720085144,7.10875797271729,8.16143131256104,8.92632102966309,8.15040397644043,4.87854909896851,1.94234800338745,8.04100036621094,12.0419998168945,18.9459991455078,-3.30299997329712,6.65999984741211,19.2910003662109,2.69400000572205,3.71399998664856,3.08599996566772,-3.08859896659851,7.51042413711548,7.48227882385254,3.88799595832825,-9.79010486602783,-9.07383632659912,0.84367400407791,-8.67683029174805,-11.4273357391357,28.9890003204346,28.9890003204346,23.0259990692139,32.6290016174316,32.6290016174316,29.882999420166,1.9099999666214,1.9099999666214,0.41899999976158,6.24811315536499,5.06423807144165,4.14296102523804,-7.50025415420532,-6.22153806686401,-4.9505729675293,-10.4917316436768,-9.02264499664307,-7.26290893554688,20.1229991912842,20.1229991912842,11.5719995498657,21.173999786377,21.173999786377,-0.94900000095367,1.28199994564056,1.28199994564056,11.08899974823,3.7427499294281,4.06383085250854,3.04996800422669,-3.23713493347168,-0.56721097230911,3.07797408103943,-5.13639879226685,-1.95017695426941,3.92114591598511,4.19700002670288,-15.1809997558594,-29.7740001678467,-16.6410007476807,-29.8209991455078,-33.4300003051758,15.7180004119873,16.3449993133545,11.246000289917,SHAKE
