gyro_x_0,gyro_y_0,gyro_z_0,acc_x_0,acc_y_0,acc_z_0,gyro_x_1,gyro_y_1,gyro_z_1,acc_x_1,acc_y_1,acc_z_1,gyro_x_2,gyro_y_2,gyro_z_2,acc_x_2,acc_y_2,acc_z_2,gyro_x_3,gyro_y_3,gyro_z_3,acc_x_3,acc_y_3,acc_z_3,gyro_x_4,gyro_y_4,gyro_z_4,acc_x_4,acc_y_4,acc_z_4,gyro_x_5,gyro_y_5,gyro_z_5,acc_x_5,acc_y_5,acc_z_5,gyro_x_6,gyro_y_6,gyro_z_6,acc_x_6,acc_y_6,acc_z_6,gyro_x_7,gyro_y_7,gyro_z_7,acc_x_7,acc_y_7,acc_z_7,gyro_x_8,gyro_y_8,gyro_z_8,acc_x_8,acc_y_8,acc_z_8,gyro_x_9,gyro_y_9,gyro_z_9,acc_x_9,acc_y_9,acc_z_9,gyro_x_10,gyro_y_10,gyro_z_10,acc_x_10,acc_y_10,acc_z_10,gyro_x_11,gyro_y_11,gyro_z_11,acc_x_11,acc_y_11,acc_z_11,gyro_x_12,gyro_y_12,gyro_z_12,acc_x_12,acc_y_12,acc_z_12,gyro_x_13,gyro_y_13,gyro_z_13,acc_x_13,acc_y_13,acc_z_13,gyro_x_14,gyro_y_14,gyro_z_14,acc_x_14,acc_y_14,acc_z_14,gyro_x_15,gyro_y_15,gyro_z_15,acc_x_15,acc_y_15,acc_z_15,gyro_x_16,gyro_y_16,gyro_z_16,acc_x_16,acc_y_16,acc_z_16,gyro_x_17,gyro_y_17,gyro_z_17,acc_x_17,acc_y_17,acc_z_17,gyro_x_18,gyro_y_18,gyro_z_18,acc_x_18,acc_y_18,acc_z_18,gyro_x_19,gyro_y_19,gyro_z_19,acc_x_19,acc_y_19,acc_z_19,gyro_x_20,gyro_y_20,gyro_z_20,acc_x_20,acc_y_20,acc_z_20,gyro_x_21,gyro_y_21,gyro_z_21,acc_x_21,acc_y_21,acc_z_21,gyro_x_22,gyro_y_22,gyro_z_22,acc_x_22,acc_y_22,acc_z_22,gyro_x_23,gyro_y_23,gyro_z_23,acc_x_23,acc_y_23,acc_z_23,gyro_x_24,gyro_y_24,gyro_z_24,acc_x_24,acc_y_24,acc_z_24,gyro_x_25,gyro_y_25,gyro_z_25,acc_x_25,acc_y_25,acc_z_25,gyro_x_26,gyro_y_26,gyro_z_26,acc_x_26,acc_y_26,acc_z_26,gyro_x_27,gyro_y_27,gyro_z_27,acc_x_27,acc_y_27,acc_z_27,gyro_x_28,gyro_y_28,gyro_z_28,acc_x_28,acc_y_28,acc_z_28,gyro_x_29,gyro_y_29,gyro_z_29,acc_x_29,acc_y_29,acc_z_29,motion_type
0.52038168907166,1.78485059738159,2.11614775657654,-1.01572966575623,-1.31719946861267,-1.61440825462341,1.74543583393097,2.67914009094238,3.0993869304657,-4.70939493179321,-4.70939493179321,-2.73657250404358,0.33039984107018,0.33039984107018,0.29927521944046,11.1785278320313,11.1785278320313,6.24168395996094,1.29163312911987,-0.05645901709795,-1.07591712474823,-1.2197277545929,-0.30626353621483,0.29134982824326,3.16969442367554,3.23094701766968,3.12548589706421,-0.62488663196564,0.92655605077744,0.92655605077744,0.4525041282177,0.90500825643539,0.90500825643539,4.0964789390564,4.58729028701782,4.58729028701782,-0.69455242156982,0.70413982868195,1.42212808132172,-0.85114628076553,-1.12864768505096,-0.74035876989365,2.17953109741211,0.81918835639954,-1.08071076869965,11.7842607498169,19.9389114379883,23.408109664917,1.4676456451416,1.71903681755066,0.68953007459641,16.7474403381348,18.013973236084,15.3875341415405,1.31347107887268,1.17498672008514,0.33236250281334,-2.09910368919373,-4.59182262420654,-3.77050352096558,-2.16355204582214,-4.50553607940674,-7.19905710220337,21.1695308685303,39.8012084960938,46.4211769104004,3.48356342315674,4.13957452774048,-2.24336695671082,13.1321964263916,10.4435081481934,4.66629934310913,-1.38271331787109,-2.97847938537598,-4.20140314102173,-2.06181931495667,-0.86765789985657,1.64636623859406,-10.3176193237305,-13.5677404403687,-17.4527606964111,50.0052947998047,49.6174354553223,44.0150032043457,-8.38688850402832,-20.3890209197998,-45.7891082763672,0.85473001003265,0.3447650372982,6.69897651672363,-2.94172787666321,-1.62399566173553,0.27164244651794,2.48952293395996,0.99282646179199,-0.46978163719177,-17.4527606964111,-17.4527606964111,-15.875636100769,36.7222671508789,26.336217880249,25.165454864502,-54.0036125183105,-53.2135276794434,-49.0978927612305,9.39724159240723,12.0787477493286,16.891092300415,2.60244107246399,4.15133571624756,3.53081893920898,-0.16564862430096,-1.03810024261475,-2.25303435325623,-14.3672218322754,-12.1131219863892,-8.37404346466064,25.165454864502,3.93606758117676,-7.97029733657837,-49.0978927612305,-47.2016868591309,-36.5211524963379,16.891092300415,12.1457853317261,2.45405673980713,0.24394555389881,-1.8620822429657,0.43409526348114,-1.43171548843384,-0.1209075152874,-0.38988679647446,-4.99662303924561,-2.04743838310242,1.72679364681244,-11.2240171432495,-13.9581956863403,-4.34308195114136,-27.4734649658203,-21.6196422576904,-11.0612115859985,-2.61925673484802,7.87213516235352,16.9437656402588,1.7683390378952,2.14597535133362,1.75395786762238,-0.35899412631989,-0.2402171343565,-0.31318774819374,1.60269033908844,1.15101826190948,0.87671262025833,1.76452660560608,1.43173265457153,0.25139117240906,-6.60799646377563,-3.72777199745178,-2.27209734916687,13.9965028762817,10.1992988586426,8.29351425170898,1.33264589309692,0.31052458286285,0.14114753901958,-0.5438175201416,-0.04101268202066,0.03302319720387,0.76166409254074,0.12676647305489,-0.00958738010377,0.33518823981285,0.16998831927776,-1.98958158493042,-2.17154097557068,-0.05746084079146,-0.97444009780884,8.09718990325928,7.98226833343506,9.4235782623291,SWING_RIGHT
0.27537086606026,-0.05592638254166,-0.30466562509537,0.4261057972908,0.38988679647446,-0.43409526348114,0.7190535068512,1.31506896018982,1.65009462833405,-2.65756392478943,-4.90571928024292,-3.004723072052,0.11252748221159,0.20111294090748,-0.11971008777618,8.58321285247803,7.11556768417358,7.4770917892456,-0.16831178963184,-0.11558119207621,-1.37206065654755,-0.96779274940491,-0.11078750342131,0.72757560014725,1.40455114841461,1.78644847869873,4.55294036865234,-1.45328044891357,-6.35899972915649,-5.20260047912598,-0.90500825643539,-1.42694425582886,-3.49074602127075,9.19612884521484,8.64067363739014,6.50025749206543,-1.53611135482788,-1.35554897785187,-2.05968880653381,-0.25513082742691,-0.47297742962837,-0.95074850320816,4.58809423446655,4.60780143737793,7.00251579284668,1.45328044891357,0.70628952980042,-2.20745396614075,-3.35188245773315,-3.39497804641724,-5.46117401123047,9.22964763641357,10.4746322631836,6.96473264694214,-0.39947417378426,2.34251642227173,1.56167769432068,-3.63574767112732,-2.65197587013245,-0.94062852859497,4.91779327392578,1.30175316333771,-2.38619232177734,32.9920997619629,34.826057434082,37.7685317993164,0.36631286144257,5.86579418182373,9.57920074462891,25.9244155883789,24.3777618408203,9.83777523040772,0.97365170717239,0.75740301609039,0.18748654425144,0.96193379163742,2.05596041679382,2.59125590324402,-6.13965177536011,-10.5061702728271,-14.108362197876,51.0324096679688,52.6054000854492,50.3356971740723,6.54095888137817,-4.83868169784546,-15.9717197418213,9.89284133911133,6.46434450149536,2.06140756607056,-0.2370213419199,-0.33289512991905,0.20399814844131,2.4703483581543,2.43412923812866,2.26049113273621,-17.4527606964111,-17.4527606964111,-17.4527606964111,50.2064094543457,40.8666305541992,30.5619850158691,-29.1829242706299,-40.541015625,-42.6670684814453,1.99676418304443,2.50672912597656,4.66869354248047,1.17764985561371,1.96274971961975,2.0591561794281,0.74515247344971,-0.38402783870697,-0.77338200807571,-17.2476959228516,-15.7398147583008,-14.6367340087891,26.2859401702881,30.8444995880127,27.3417835235596,-40.0358390808105,-42.7029800415039,-47.9798011779785,7.29752683639526,6.45955610275269,2.98796367645264,0.83623260259628,-1.09615707397461,-1.77845895290375,-1.28311109542847,-1.61707139015198,-1.66287779808044,-12.5935564041138,-9.06912899017334,-4.09487676620483,27.3417835235596,-11.4514665603638,-23.4176864624023,-47.9798011779785,-41.9296531677246,-37.6057243347168,2.98796367645264,0.56024318933487,10.0269165039063,-0.56459015607834,0.84528732299805,1.89563810825348,-1.44929230213165,-0.80107885599136,-0.45007422566414,0.43356263637543,2.84585404396057,3.72043609619141,-18.3491611480713,-8.11873817443848,1.53228902816772,-30.4877643585205,-21.6076698303223,-12.3181676864624,14.7674360275269,13.156138420105,11.3724584579468,2.4058997631073,2.16834568977356,1.59576618671417,-0.52411013841629,-0.3850930929184,-0.01651159860194,3.11163759231567,1.95529294013977,0.92997586727142,8.36534118652344,8.48026275634766,6.10521411895752,-4.77882671356201,-0.18674772977829,0.72544312477112,9.2440128326416,7.58722496032715,7.71411800384521,SWING_RIGHT
0.89801794290543,0.496413230896,0.34141725301743,-0.06924218684435,0.28602349758148,0.32277512550354,1.00294649600983,1.49776184558868,1.34329843521118,-1.21146607398987,-1.66157603263855,-0.05506663769484,1.05584299564362,1.39821374416351,1.66636443138123,10.5488529205322,9.19612884521484,9.21288776397705,0.27430561184883,0.14114753901958,0.02503371424973,0.27110978960991,0.2418150305748,0.20932446420193,0.70946609973907,1.00667488574982,1.46047759056091,-1.53947174549103,-3.46919822692871,-2.84910011291504,1.80762231349945,1.60172092914581,1.51313543319702,8.6095495223999,8.14268016815186,7.95114374160767,-0.07297061383724,-0.80320942401886,-1.52386081218719,0.21358552575111,0.27590349316597,0.28868666291237,1.62133252620697,1.23570680618286,1.76141476631165,-1.05823719501495,-0.46926352381706,-3.34948825836182,1.70227742195129,1.60890352725983,1.47243404388428,7.49863958358765,5.51624059677124,6.22971296310425,-2.0980384349823,-2.08099412918091,0.25992453098297,-0.03781688958406,-1.81041693687439,-3.76943826675415,3.1425302028656,4.68023920059204,0.49907639622688,-4.52025270462036,-4.52025270462036,49.3492851257324,0.74699091911316,0.74699091911316,7.9846625328064,8.7292594909668,8.7292594909668,20.8223724365234,1.15687716007233,1.31879734992981,-0.40746363997459,-2.6109631061554,-1.02957808971405,-0.70041137933731,-4.67118453979492,-7.79720306396484,-16.3880290985107,51.1162071228027,45.1019706726074,59.5054893493652,6.81868648529053,4.9105076789856,-15.5479459762573,20.5159149169922,15.7801837921143,6.19858837127686,-2.17367219924927,-2.87301826477051,-1.63518095016479,1.57446086406708,4.35693168640137,3.06103730201721,-17.4527606964111,-17.4527606964111,-17.4527606964111,50.4003410339355,37.4022178649902,26.4271984100342,-45.0492973327637,-50.4194946289063,-53.4720993041992,0.93852704763412,1.7788919210434,9.07641887664795,0.26791399717331,2.92841196060181,2.96036982536316,1.08603715896606,1.08656978607178,1.13131082057953,-16.7198581695557,-9.99058246612549,-7.7050576210022,16.6732215881348,4.4340615272522,6.65109252929688,-49.287036895752,-34.5076293945313,-32.0966682434082,11.6118783950806,6.05254173278809,3.47159242630005,2.73772954940796,2.82188558578491,4.37291049957275,0.04793690145016,0.26312032341957,0.10705907642841,-6.0922474861145,0.4612595140934,2.90178036689758,-0.71586632728577,-19.9269409179688,-1.02471828460693,-29.8724536895752,-22.0505981445313,-9.64623832702637,4.40772533416748,10.6661682128906,7.13232707977295,3.70978355407715,-0.49215218424797,-2.02293729782104,-0.5091964006424,0.40480050444603,0.81492727994919,2.3718113899231,1.50788187980652,1.27299106121063,1.50355863571167,-2.4013843536377,-2.54024791717529,-2.40377855300903,2.72220730781555,1.73819041252136,2.65277552604675,0.67995327711105,4.97036266326904,-2.47514200210571,-2.30576491355896,-1.86634337902069,0.40852892398834,-0.2498045116663,-0.55553543567657,0.87351685762405,0.37816888093948,0.3787015080452,-1.03668928146362,-0.63206923007965,-4.26646757125854,0.11492168158293,-0.428562104702,-0.99359369277954,8.10437297821045,10.1992988586426,11.4849853515625,SWING_RIGHT
-1.68524837493896,-1.54569876194,-2.1102888584137,1.09349393844604,0.74302196502686,1.52066504955292,1.03490436077118,0.2290318608284,1.54516613483429,0.53630119562149,-0.90740245580673,-8.91361331939697,2.69826531410217,2.04943656921387,-1.09654438495636,9.35175228118896,8.99262142181396,9.49540424346924,-1.66554093360901,-0.78403460979462,-0.27803403139114,0.28122982382774,-1.05354654788971,-1.41839957237244,2.31428694725037,2.17047643661499,1.80136215686798,-8.91361331939697,-0.81881695985794,0.52672439813614,-1.09654438495636,0.3016694188118,0.79966336488724,9.49540424346924,12.5168867111206,10.0197343826294,-0.5028048157692,-1.03383910655975,-0.79575252532959,-1.07538449764252,-0.68443238735199,-1.5755261182785,1.67725884914398,2.16674780845642,2.09963631629944,-0.17956513166428,2.83234071731567,5.32949304580688,0.49081134796143,0.16519992053509,0.74220252037048,8.18098735809326,10.6278610229492,13.0340337753296,-0.1368864774704,1.82213485240936,1.79017686843872,-3.030677318573,-1.58298301696777,-0.17736652493477,2.17420482635498,-2.04051399230957,-10.0337257385254,9.51934623718262,38.1492080688477,41.5729179382324,1.18512988090515,6.87135887145996,-1.944091796875,15.9525661468506,19.2350158691406,18.4138050079346,1.42106282711029,0.82238417863846,0.86872315406799,1.85462546348572,1.60908198356628,3.01789426803589,-12.4444189071655,-17.4527606964111,-17.4527606964111,41.5729179382324,48.0492324829102,41.6375617980957,-1.944091796875,-35.9010543823242,-47.1490135192871,18.4138050079346,11.142614364624,13.0412168502808,2.2173478603363,3.93828272819519,4.18435859680176,3.06796169281006,1.28364372253418,2.86343097686768,-17.4527606964111,-16.4141273498535,-12.3895578384399,32.606632232666,23.7696342468262,26.2356624603271,-53.7809524536133,-50.1920433044434,-47.7236213684082,17.9900321960449,19.716251373291,12.0524110794067,3.68688035011292,3.1425302028656,3.28900408744812,2.28339433670044,2.74731707572937,1.93665075302124,-10.8939266204834,-8.32770442962646,-5.05414724349976,26.2356624603271,-2.44447994232178,-15.8615865707397,-47.7236213684082,-43.9910621643066,-40.1100616455078,12.0524110794067,1.77170920372009,1.82677590847015,2.91616153717041,1.35821223258972,0.12303804606199,0.95873802900314,0.6615292429924,0.82557994127274,-1.65808415412903,1.4727281332016,4.71486043930054,-21.2916355133057,-21.2916355133057,-5.97592735290527,-35.5227699279785,-35.5227699279785,-9.96706199645996,-3.37582445144653,-3.37582445144653,5.01106405258179,0.75953358411789,0.60933125019073,-0.61305969953537,0.61625546216965,-0.40852892398834,-0.17150758206844,4.59235525131226,2.63439893722534,1.76301264762878,-0.45968672633171,3.79480957984924,3.79480957984924,-3.45483303070068,4.75249052047729,4.75249052047729,7.42202520370483,3.33751726150513,3.33751726150513,-1.47858703136444,-1.44449865818024,-0.60507023334503,0.34780883789063,-0.09640643000603,-0.04474110901356,1.40029013156891,1.13290870189667,0.63915866613388,-2.18830037117004,-0.58657944202423,-3.83311700820923,3.67988801002502,2.11168599128723,1.50116443634033,6.53138208389282,9.76594829559326,10.582371711731,SWING_RIGHT
-0.10865697264671,-0.24607609212399,-0.39947417378426,0.03462109342217,0.22636869549751,0.2737729549408,0.76379460096359,0.63702815771103,0.78882831335068,0.33758243918419,-0.49081134796143,-2.06380176544189,1.53468334674835,1.21386027336121,1.00795888900757,9.47146224975586,8.92319011688232,9.17218685150146,-0.11185276508331,-0.14860439300537,-0.53050172328949,-0.07669904083014,0.12144014984369,0.30892670154572,0.71053141355515,0.16405072808266,0.33342778682709,1.49398183822632,0.45489832758904,-2.41574954986572,2.10450339317322,1.8171991109848,1.78128612041473,10.8385515213013,8.58081912994385,7.71890640258789,-0.87458211183548,-0.85647261142731,-0.05006742849946,-0.07882957160473,-1.24529409408569,-3.87969303131104,0.97311908006668,1.63305044174194,2.51508927345276,-2.61925673484802,-0.63446342945099,11.6286373138428,1.7980455160141,1.63284552097321,1.11330378055573,8.87051773071289,11.473014831543,11.7962322235107,0.05592638254166,0.19600865244865,0.524642765522,-4.19394636154175,-3.47063159942627,0.61305969953537,0.8905611038208,-2.69245600700378,-9.26194190979004,26.8078765869141,37.9480972290039,39.2050514221191,4.34068775177002,3.69664740562439,0.29688102006912,11.0755767822266,15.7394819259644,14.7147636413574,0.74621772766113,0.65247446298599,-0.98750013113022,0.34194988012314,1.30654680728912,4.50926446914673,-14.0071620941162,-17.4527606964111,-17.4527606964111,50.4937133789063,49.6653213500977,39.2122344970703,-14.209587097168,-36.7174758911133,-46.0788040161133,12.717999458313,5.9902925491333,0.36631286144257,1.45195543766022,3.54200434684753,4.635498046875,0.24927188456059,-1.50308811664581,-1.08870029449463,-17.4527606964111,-17.3712673187256,-13.6822566986084,26.2069320678711,9.90481281280518,-2.04704236984253,-56.2565574645996,-52.3779487609863,-43.9359970092773,18.2653656005859,20.5637989044189,15.3947172164917,4.91246700286865,4.20353364944458,2.62800741195679,-1.09935295581818,-0.75740301609039,-0.35526570677757,-10.1343936920166,-7.19106769561768,-4.06824493408203,-1.98718738555908,-5.0182466506958,-9.92636013031006,-38.9033851623535,-35.1468811035156,-28.9411106109619,11.8034143447876,5.11640882492065,3.76129078865051,1.78698110580444,1.6314525604248,1.69749891757965,-0.01917476020753,0.07190535217524,-0.02396845072508,-1.10574448108673,1.04555702209473,2.12680053710938,-11.7818670272827,-9.98382091522217,-5.71974802017212,-22.5677452087402,-15.8496150970459,-9.51695156097412,6.93600225448608,7.66623401641846,7.88650035858154,1.71986949443817,-0.01278317347169,-1.08177602291107,-0.30413299798965,-0.63969129323959,-0.42876893281937,2.39151859283447,1.71880424022675,1.30015528202057,-1.38145434856415,1.81001651287079,0.56742578744888,-4.3837833404541,2.16196417808533,3.39497804641724,6.55292987823486,3.92888498306274,5.36301183700562,-1.98512029647827,-2.42134618759155,-2.22533750534058,0.16298545897007,0.19547602534294,-0.3435477912426,0.95873802900314,0.62211441993713,0.38349521160126,0.12210428714752,0.217872351408,-0.64643448591232,2.41096115112305,0.7493851184845,-0.13407529890537,6.6463041305542,8.99022769927979,11.5592060089111,SWING_RIGHT
-0.03302319720387,-0.28442561626434,0.25300031900406,-0.74941354990005,-0.8820389509201,-1.60428822040558,4.31645154953003,3.90685749053955,3.40778088569641,0.29448682069778,0.29448682069778,1.71185421943665,-2.10929179191589,-2.10929179191589,-2.92810869216919,7.57525396347046,7.57525396347046,12.7491245269775,1.29056787490845,0.60027652978897,0.02769687585533,-1.35821223258972,-0.56991648674011,-0.13795174658298,3.68901085853577,4.02989530563354,4.2125883102417,0.43095630407333,0.43095630407333,5.56173038482666,-3.66791701316834,-3.66791701316834,-2.53545951843262,7.52018737792969,7.52018737792969,7.05571222305298,-0.2402171343565,-1.15421402454376,-2.0932445526123,0.17523600161076,1.21919512748718,1.67353045940399,4.06451654434204,2.9108350276947,1.93452024459839,8.5496940612793,15.2558536529541,18.7705421447754,-1.40779054164886,2.77009129524231,3.58651423454285,8.51617527008057,8.14507389068604,7.93677854537964,-2.89379096031189,-2.50496935844421,2.65250849723816,1.09083080291748,-0.5693838596344,-2.52041578292847,0.76965355873108,-1.86847388744354,-11.4143085479736,25.1199645996094,40.2441368103027,55.9429168701172,1.75734400749207,-1.56580793857574,-10.7954559326172,11.1689510345459,23.2668514251709,22.4600067138672,2.1965754032135,0.51132690906525,-1.27192580699921,-2.5598304271698,-0.42983421683311,2.25037121772766,-16.0838947296143,-17.4527606964111,-17.4527606964111,56.6372337341309,52.8017234802246,46.8377685546875,-25.9914531707764,-41.6638984680176,-56.6492080688477,12.6222314834595,3.60087943077087,-2.9664158821106,-2.02826356887817,1.24742472171783,1.86634337902069,3.44293475151062,1.20055305957794,-0.4548679292202,-17.4527606964111,-17.4527606964111,-14.149374961853,41.0102806091309,13.5535755157471,10.9295310974121,-71.9816741943359,-53.7067337036133,-43.320686340332,-2.43729734420776,10.9055891036987,5.22654247283936,1.13290870189667,-0.15233281254768,-0.48096689581871,-0.27110978960991,-0.6870955824852,-0.45060685276985,-11.75892162323,-6.43366479873657,-2.28712272644043,9.60314273834228,-8.13070869445801,-19.0674228668213,-42.1427383422851,-36.461296081543,-31.5364246368408,1.56820213794708,3.47877502441406,8.02536392211914,0.34514567255974,1.60854935646057,2.51029562950134,-0.07190535217524,-0.16937704384327,-0.27803403139114,1.67992210388184,3.72789287567139,4.39847707748413,-17.6356887817383,-8.29830265045166,-2.37983655929565,-25.3330478668213,-18.9716548919678,-12.0452289581299,12.1577558517456,11.4394960403442,8.63588523864746,1.47432601451874,0.1257012039423,-0.90281164646149,-0.17896443605423,0.13582122325897,0.51399010419846,4.08475637435913,3.1638355255127,2.16728043556213,2.37504816055298,3.71580100059509,2.73896670341492,0.67277067899704,2.76769709587097,2.37744235992432,2.76769709587097,3.50271701812744,6.18422317504883,-1.48604393005371,-1.43917226791382,-1.44875967502594,0.38562572002411,0.3499393761158,0.51558798551559,1.16539931297302,1.08976554870605,0.90281164646149,-1.65918183326721,-2.47081613540649,0.38307225704193,-0.06464344263077,-1.24259066581726,-2.05422496795654,10.2783079147339,10.6063137054443,10.6518030166626,SWING_RIGHT
-1.66713881492615,-1.75182735919952,-1.30921006202698,-0.92997586727142,-1.09189605712891,-1.07112336158752,3.71990346908569,4.00699234008789,3.58621287345886,-4.05817174911499,-2.16196417808533,1.01753568649292,-1.95366859436035,-2.34392356872559,-2.18111777305603,7.58004236221313,8.78672027587891,12.746729850769,-0.4293015897274,-0.23595607280731,-0.19973708689213,-0.76912093162537,-0.61732077598572,-0.40959417819977,2.89964985847473,3.02694892883301,2.94811940193176,0.50278234481812,0.57939678430557,2.4205379486084,-2.21942496299744,-2.45166254043579,-2.13802218437195,12.0595941543579,11.417947769165,10.9343194961548,-0.07297061383724,-0.28069719672203,-0.54221957921982,-0.69881349802017,-0.7472830414772,-1.74437057971954,2.03145933151245,1.70389044284821,2.50923037528992,7.18739366531372,5.79396820068359,5.62158536911011,-1.10372698307037,-1.1947066783905,-3.34469985961914,10.5919485092163,9.6606035232544,10.4650554656982,-0.37710362672806,-0.4868258535862,-0.83942836523056,-3.15584588050842,-3.50045895576477,-2.30896067619324,3.18673872947693,1.01999068260193,-3.41364002227783,18.2797298431396,38.005558013916,48.8895988464355,-4.32632255554199,-1.36948335170746,-2.58334374427795,10.7906675338745,10.979808807373,14.2071924209595,-0.36485308408737,0.30839407444,0.15180018544197,-0.67164921760559,0.30945932865143,0.39681100845337,-7.75405979156494,-11.8771657943726,-15.8878870010376,51.3699913024902,51.3699913024902,53.2398643493652,-10.4219598770142,-10.4219598770142,-28.5221252441406,17.8775043487549,17.8775043487549,9.0261402130127,-1.93185710906982,-2.40483450889587,-0.58003652095795,0.61838603019714,3.84453940391541,3.2112398147583,-17.4527606964111,-17.4527606964111,-17.4527606964111,56.3475379943848,42.2145652770996,30.4422740936279,-72.2857360839844,-78.4508056640625,-75.3024291992188,0.39743748307228,1.2449848651886,6.87135887145996,1.46047759056091,1.2415657043457,-0.34194988012314,-0.64555025100708,-1.65808415412903,-1.40934491157532,-17.4527606964111,-12.3064680099487,-7.99800539016724,22.5581684112549,2.60010313987732,-3.2585084438324,-65.4431076049805,-45.0492973327637,-38.3934173583984,12.2080345153809,1.5179238319397,-1.88184249401093,-1.92759609222412,-1.73478317260742,1.95316243171692,-0.37284255027771,0.3850930929184,-0.52411013841629,-4.46452331542969,-0.76912093162537,3.20751118659973,-8.4108304977417,-17.8056774139404,-2.78924489021301,-36.2960968017578,-29.9969539642334,-14.923059463501,0.28012159466743,10.3884410858154,12.5049152374268,2.53319883346558,1.65009462833405,0.06498113274574,-0.53849118947983,-0.55500280857086,-0.06231797114015,2.9619677066803,2.41175866127014,2.01974129676819,3.29920983314514,3.24414324760437,2.06859016418457,-7.86016416549683,-2.77727389335632,-0.74459671974182,7.24964284896851,3.94564437866211,3.77805018424988,-1.95795607566834,-1.8407769203186,-1.25115311145782,1.35395109653473,0.81492727994919,0.00479369005188,1.36460375785828,1.14089822769165,0.95394432544708,0.20590133965015,-0.84754741191864,-0.69431847333908,-3.04781866073608,-3.30160403251648,-3.19865345954895,8.97586250305176,11.7555303573608,12.4187240600586,SWING_RIGHT
-0.524642765522,-0.56512278318405,-0.40213733911514,0.82131892442703,0.44687843322754,0.05539375171065,1.55315554141998,1.36300587654114,1.16646456718445,-0.75896191596985,-0.05506663769484,-0.49081134796143,-0.33518823981285,-0.31842881441116,-0.51714754104614,9.61511421203613,9.78510189056396,10.3860473632813,-0.12996226549149,-0.13635385036469,-0.29294773936272,0.71692299842834,0.98856544494629,0.91985583305359,1.36194062232971,1.80775380134583,2.16248679161072,-1.69988322257996,-2.82994651794434,-1.78607451915741,-1.29526317119598,-0.80924016237259,-0.10773907601833,10.9750204086304,10.2878847122192,8.58081912994385,-0.55766594409943,-0.32703620195389,-1.09615707397461,0.23116238415241,-1.18990039825439,-1.77260005474091,2.161954164505,3.51697063446045,4.97904586791992,-1.78607451915741,-2.22660756111145,2.3702597618103,-0.10773907601833,1.30005156993866,-0.02154781483114,8.58081912994385,9.80186176300049,6.22731876373291,-2.782470703125,-3.75612258911133,3.22189235687256,-1.96807610988617,-1.18563938140869,1.84823381900787,5.28477716445923,3.09725642204285,-8.87525081634521,14.125789642334,32.5515670776367,55.9908027648926,-1.05823719501495,-1.13006317615509,-5.71495962142944,5.39892482757568,13.6708917617798,34.1389236450195,4.66639089584351,2.96569633483887,-0.35792887210846,2.38885545730591,0.41225734353065,0.89109373092651,-14.1440486907959,-17.4527606964111,-17.4527606964111,58.047420501709,49.7155990600586,42.3390617370605,-24.8254776000977,-42.5090522766113,-49.3492851257324,13.5080862045288,-0.67277067899704,-4.85783529281616,-2.35316920280457,1.32998263835907,5.07705020904541,3.41843366622925,4.7090015411377,1.58617877960205,-17.4527606964111,-17.4527606964111,-14.6862688064575,39.8299407958984,11.3628816604614,6.03099393844604,-60.7169532775879,-54.8583450317383,-47.4770202636719,-3.94085597991943,14.8655986785889,17.0706577301025,4.96626281738281,0.99282646179199,0.21092236042023,0.69668292999268,1.03064334392548,0.17470337450504,-9.52026844024658,-4.76439523696899,-1.81734120845795,9.76115989685059,-9.01177501678467,-11.1162786483765,-35.6855773925781,-25.6395053863525,-21.739351272583,-1.14921677112579,0.24420857429504,4.75967311859131,0.36325517296791,0.82451468706131,0.94382429122925,-0.1272991001606,-0.61039650440216,-0.71852087974548,1.99257719516754,2.77288341522217,2.72760963439941,-7.56807136535645,-3.79002118110657,-0.73262572288513,-12.7395467758179,-8.19774627685547,-4.62559747695923,7.88410615921021,7.93917274475098,7.2807674407959,0.11398329585791,-1.38857221603394,-1.5712651014328,-0.20666129887104,0.232227653265,-0.524642765522,2.31854820251465,1.53025233745575,0.38775625824928,1.57777893543243,-0.01436521019787,3.73256039619446,0.4955997467041,0.16519992053509,-0.73023152351379,5.27921485900879,8.26478385925293,9.96945571899414,-1.51161026954651,-0.76752305030823,-0.32810145616531,-0.07616640627384,-0.08735168725252,-0.51558798551559,-0.21678131818771,0.26152241230011,0.40480050444603,0.80445176362991,-3.89536619186401,-2.06619596481323,-1.5179238319397,-2.37504816055298,-2.68390011787415,10.498574256897,12.1386022567749,11.3772468566895,SWING_RIGHT
-0.06498113274574,0.68443238735199,0.24394555389881,-0.51931643486023,0.1097222417593,0.87032103538513,2.1102888584137,1.978196144104,2.5433189868927,2.83234071731567,-1.23780226707459,-4.41969633102417,-2.34631776809692,-2.44447994232178,-2.70305371284485,15.6772327423096,11.743558883667,6.89051246643066,-0.7962851524353,-0.17257283627987,0.41545313596725,1.07325398921967,-0.40000680088997,-0.35739621520042,3.05145001411438,1.43491125106812,1.30335104465485,-2.03028297424316,2.29843354225159,-1.14203417301178,-3.14598107337952,-1.88184249401093,-1.60172092914581,5.91367816925049,14.7195520401001,10.4746322631836,0.05965480953455,-1.06100344657898,-0.82664519548416,-0.17789916694164,-0.22849921882153,-1.02158856391907,1.89723598957062,3.7076530456543,4.0421462059021,-3.85705900192261,1.08457338809967,5.77481460571289,-1.27371525764465,-0.71107792854309,0.07422025501728,7.08923101425171,9.73482418060303,13.1058597564697,0.06391586363316,2.05596041679382,3.36357259750366,-2.92787933349609,-4.55080986022949,-4.43576097488403,4.07676696777344,1.82053697109222,-4.27117776870728,15.6485023498535,40.5529899597168,58.9069404602051,2.47321033477783,7.15148067474365,7.76918458938599,16.7258930206299,22.3618431091309,16.2470531463623,-0.40266996622086,-1.89723598957062,-1.80082952976227,-0.34514567255974,1.40934491157532,2.44531464576721,-12.2372255325317,-15.1134395599365,-17.4527606964111,48.3939971923828,49.9502296447754,49.7371444702149,-15.5982236862183,-23.879768371582,-40.2800483703613,3.18668246269226,7.97029733657837,11.9590377807617,-1.20641195774078,-0.18961706757545,1.54143762588501,2.76968765258789,2.81815719604492,1.45408594608307,-17.4527606964111,-17.4527606964111,-17.4527606964111,44.1395034790039,32.8316879272461,32.8316879272461,-53.6109657287598,-56.2541618347168,-56.2541618347168,11.4634380340576,12.9382658004761,12.9382658004761,3.09139752388,4.32071256637573,5.79024505615234,-0.54594802856445,-0.3115898668766,-0.28549087047577,-16.8567447662354,-14.9339427947998,-10.6270780563354,26.1470775604248,22.8047714233398,6.39012432098389,-51.7889785766602,-47.184928894043,-41.3358917236328,16.6373081207275,15.6221656799316,9.97185039520264,4.99023151397705,2.59604954719543,0.38456046581268,-0.67324715852737,-0.524642765522,0.388288885355,-7.67096948623657,-4.06504917144775,-0.79948097467422,-5.21217727661133,-13.6780738830566,-14.6381492614746,-36.0471000671387,-28.7543621063232,-22.0721454620361,4.7022123336792,1.37906014919281,5.31273365020752,0.65460503101349,1.29802477359772,1.37206065654755,0.18695391714573,0.00639158673584,-0.1065264493227,2.35902810096741,2.69618439674377,2.37713766098022,-5.10204362869263,-1.59932672977448,1.84832370281219,-10.0029745101929,-4.55377149581909,-0.40940847992897,11.925518989563,10.3525285720825,8.39646530151367,0.49801114201546,-0.340351998806,-1.1004182100296,-0.280164539814,-0.15126755833626,0.22690132260323,0.83303678035736,0.05113269388676,-0.13901701569557,3.29920983314514,2.08056116104126,-1.39581954479218,3.12203907966614,2.79882168769836,0.65601128339767,6.72531270980835,6.4164605140686,7.55131196975708,SWING_RIGHT
-0.07190535217524,-0.03515372797847,0.13102753460407,-0.58110177516937,-0.16032229363918,0.30573090910912,-1.09935295581818,-1.15900778770447,-0.71798825263977,2.26970314979553,2.26970314979553,-2.43250894546509,1.97282218933105,1.97282218933105,1.68551802635193,9.68215179443359,9.68215179443359,10.8098211288452,0.23808661103249,0.25353294610977,0.24714136123657,0.36432045698166,0.14487597346306,-0.16884441673756,-0.28282770514488,-0.17736652493477,-0.47137951850891,-1.94888019561768,-0.39504328370094,-1.36708915233612,1.81959331035614,1.8674772977829,1.53707754611969,9.96227359771728,9.33738708496094,9.47146224975586,0.34088462591171,0.73023879528046,1.12172341346741,0.16511599719524,0.60027652978897,0.57364493608475,0.18322548270226,1.43863964080811,2.49165368080139,-4.88895988464355,-6.72052431106567,-5.26245546340942,0.91458505392075,0.43095630407333,1.03908348083496,11.3030261993408,12.2631015777588,10.6182842254639,1.06366658210754,0.25513082742691,0.83516734838486,0.1416801661253,-2.27700281143188,-3.66610765457153,3.27994918823242,5.22618722915649,3.04931950569153,-4.27365016937256,7.49624538421631,28.3473472595215,1.91296720504761,2.71981310844421,9.32541561126709,7.86016416549683,8.24563026428223,10.5799770355225,0.69242191314697,-2.01974129676819,-2.7659592628479,-3.81258153915405,-1.40987753868103,-1.48764181137085,-5.81261539459229,-11.458517074585,-14.2090301513672,42.2265357971191,44.4148368835449,44.5704574584961,12.8664398193359,-3.16034626960754,-12.0380458831787,10.7356004714966,3.6343982219696,5.96874475479126,-3.58088636398315,-2.13425731658936,-0.61678814888,1.01093602180481,-0.65194183588028,-0.46818372607231,-17.4527606964111,-16.4839019775391,-13.4036903381348,38.1013259887695,14.8081378936768,14.8081378936768,-34.0623092651367,-43.9431762695313,-43.9431762695313,8.63827991485596,16.8096904754639,16.8096904754639,2.27647018432617,5.2778525352478,4.93004369735718,1.18936777114868,-0.37337517738342,-0.56991648674011,-8.32610702514648,-5.34443187713623,-2.36382174491882,7.76200199127197,-7.8266453742981,-13.5152683258057,-30.5452251434326,-29.2523555755615,-22.4791603088379,14.6549081802368,10.9582614898682,6.04296493530273,2.23652267456055,1.22132575511932,0.56672066450119,0.15659387409687,0.3914846777916,0.45753109455109,1.48444604873657,1.77526319026947,1.34542906284332,-3.99113416671753,-3.99113416671753,2.85867691040039,-9.0452938079834,-9.0452938079834,-1.55144274234772,4.97275686264038,4.97275686264038,6.78995609283447,0.18216022849083,0.03249056637287,-0.24074976146221,0.59867864847183,-0.06125270575285,-0.43675842881203,0.65620291233063,-0.26258769631386,-0.32064458727837,1.98958158493042,-2.64559292793274,-3.85466480255127,-0.78290396928787,-1.41018486022949,-1.82677590847015,7.20415306091309,7.35977602005005,6.3470287322998,-0.80960100889206,-1.11906027793884,-0.66632294654846,-0.3307646214962,-0.08522115647793,-0.1097222417593,-0.07989483326674,0.44101947546005,1.33637428283691,-5.37019443511963,-6.62475633621216,-4.05577754974365,-2.26970314979553,-2.40377855300903,-1.92014980316162,6.34463453292847,8.95431423187256,10.5105457305908,SWING_RIGHT
-0.62584286928177,-0.58749336004257,-0.35739621520042,-0.34088462591171,-0.34088462591171,-0.19867181777954,1.3102753162384,1.20055305957794,0.95021587610245,0.86191260814667,0.91937345266342,3.05260705947876,1.75016140937805,1.46285724639893,1.47482824325562,8.37252330780029,10.9199542999268,11.9566431045532,0.04420847445726,0.32490566372871,0.19920445978642,-0.124103307724,-0.21518342196941,-0.32224249839783,0.52144694328308,0.324373036623,0.43729105591774,3.12922167778015,1.78846871852875,0.88346040248871,1.53707754611969,2.03028297424316,2.48039293289185,12.294225692749,11.2910556793213,9.92875480651856,0.18695391714573,0.60507023334503,0.59281969070435,0.01278317347169,0.64555025100708,0.09054747968912,1.39869225025177,1.41946494579315,0.4996090233326,2.77966809272766,8.77235507965088,15.5910415649414,3.04063606262207,4.12520933151245,7.14908647537231,13.496114730835,12.4378776550293,10.0771951675415,-0.12144014984369,-0.93636745214462,-0.49055427312851,-1.19788992404938,-1.85142958164215,-1.10148346424103,-0.85700523853302,-1.91534554958344,-3.73268675804138,18.2414226531982,22.2445278167725,33.6888122558594,7.89368295669556,7.60637903213501,7.00303983688354,8.59278964996338,11.8848171234131,17.5518932342529,1.04076337814331,1.78751373291016,-0.42077946662903,-0.03462109342217,-0.19281286001205,-0.51505535840988,-7.59107446670532,-12.6058073043823,-17.4527606964111,48.4514579772949,49.9047393798828,43.2823791503906,3.39737224578857,-11.5855417251587,-40.7014274597168,18.7657527923584,11.7818670272827,6.96473264694214,-1.18457412719727,0.41065946221352,3.66504240036011,1.95049917697906,2.52947044372559,0.55819857120514,-17.4527606964111,-17.4527606964111,-16.5451545715332,37.0646362304688,28.177360534668,21.5238723754883,-47.2208404541016,-47.292667388916,-47.0340919494629,7.70932960510254,18.485631942749,17.2574062347412,2.51828527450562,1.08603715896606,0.52837115526199,-1.40934491157532,-0.73663038015366,-0.80747044086456,-12.9573440551758,-8.13755512237549,-1.68471574783325,-2.95683908462524,-27.380090713501,-35.4892501831055,-49.2822494506836,-43.2656173706055,-35.2905311584473,3.23935484886169,8.40125370025635,14.4633722305298,0.69721555709839,1.053013920784,2.49005556106567,0.30200245976448,1.35501635074615,0.6551376581192,2.95983719825745,4.84588813781738,4.44108772277832,-19.5630226135254,-6.6056022644043,10.1155023574829,-27.0472965240479,-16.7785663604736,-0.56024318933487,12.9286890029907,11.8345394134521,8.38210010528564,2.46502184867859,1.70602107048035,-0.56352490186691,0.19494339823723,0.07936219871044,0.17150758206844,2.70523905754089,1.29642689228058,0.05752427875996,10.5799770355225,7.42441940307617,-1.54665434360504,3.33512306213379,4.79319190979004,4.55616569519043,5.4444146156311,2.87304210662842,4.85304689407349,-0.80747044086456,-0.64288711547852,-0.61625546216965,-0.10759171098471,-0.448476344347,-0.54008907079697,0.00639158673584,-0.13741911947727,-0.16777914762497,-2.17872357368469,-2.23857855796814,-2.47321033477783,3.16034626960754,1.90339040756226,1.38145434856415,8.12113189697266,9.07641887664795,8.5712423324585,SWING_RIGHT
-0.36432045698166,-0.61465758085251,-0.29667615890503,0.50440269708633,0.70467245578766,0.46711847186089,-0.00639158673584,0.18216022849083,0.2673813700676,0.40701428055763,0.3208230137825,1.34314715862274,2.8012158870697,2.56179571151733,1.92972660064697,8.15465068817139,9.45470237731934,11.0612115859985,-0.14594122767448,-0.06338323652744,-0.09054747968912,0.15233281254768,-0.2338255494833,-0.19174760580063,0.14966966211796,0.49481534957886,0.8303736448288,1.10372698307037,-0.80684596300125,-1.42694425582886,1.57777893543243,1.12048637866974,1.22104287147522,10.2591543197632,10.187328338623,9.61990261077881,-0.23116238415241,-0.52038168907166,-1.03969812393188,-0.264185577631,-0.78723043203354,-3.58514761924744,1.26127314567566,1.89297497272491,3.09086489677429,-2.40617275238037,-3.42849683761597,-1.65678763389587,1.16597628593445,0.97922849655151,0.22984336316586,8.34618759155273,7.39329481124878,7.26400804519653,-0.76752305030823,0.35153725743294,1.13663721084595,-4.4773063659668,-3.26024198532104,-0.9827064871788,3.3087112903595,1.83491802215576,-1.91694343090057,10.5847654342651,27.0808162689209,39.0590057373047,0.46447512507439,3.08852028846741,5.95198535919189,12.9406604766846,17.7338523864746,14.5711116790771,0.64288711547852,-0.30146983265877,-1.91268229484558,-0.17257283627987,0.28495824337006,1.70708632469177,-7.93728542327881,-11.4244289398193,-15.5427408218384,37.5410842895508,47.4219512939453,52.2342987060547,2.03028297424316,-6.67264032363892,-27.1215171813965,8.16901588439941,4.57771348953247,1.5753847360611,-2.87301826477051,1.24529409408569,3.76091623306274,4.8075385093689,2.65144324302673,-0.73609775304794,-17.4527606964111,-16.9222583770752,-14.2026386260986,41.7931861877441,29.5181121826172,20.0155258178711,-42.7317123413086,-41.4292678833008,-39.3678588867188,2.30322194099426,7.58483076095581,10.8936176300049,2.95238041877747,1.48284816741943,0.2418150305748,-1.08017814159393,-0.65087658166885,-0.37284255027771,-11.9639854431152,-8.85767364501953,-2.22160911560059,4.4532151222229,4.4532151222229,-14.1688852310181,-37.656005859375,-37.656005859375,-26.2859401702881,2.13802218437195,2.13802218437195,9.90960121154785,0.73716300725937,1.20002043247223,1.65968203544617,-0.80533993244171,-0.67910611629486,-0.31318774819374,-0.01864212751389,1.43118274211884,2.09164667129517,-12.1505737304688,-12.1505737304688,-1.60890352725983,-22.014684677124,-22.014684677124,-6.53377628326416,11.5256872177124,11.5256872177124,8.7077112197876,1.46899974346161,0.54541540145874,-0.76059883832932,-0.52677327394485,-0.588558614254,-0.19441075623035,1.7811222076416,1.53185033798218,1.47113025188446,0.73980832099915,0.73262572288513,0.41419690847397,-2.6934769153595,-0.76375031471252,-0.10055647045374,7.2616138458252,5.23372507095337,5.53778839111328,-1.57499349117279,-1.61121249198914,-1.19948780536652,0.05379585549235,-0.15712650120258,-0.39521312713623,1.39549648761749,1.14143085479736,0.72011876106262,0.75656771659851,1.54904854297638,2.34392356872559,-0.16519992053509,-0.53151279687881,-0.6033388376236,8.18338108062744,10.4889974594116,11.1785278320313,SWING_RIGHT
0.30519825220108,0.28122982382774,0.18801917135715,0.24128240346909,-0.18056233227253,-0.01384843792766,0.70733559131622,0.53209960460663,0.42290997505188,-0.42137950658798,-0.33997663855553,-0.40701428055763,1.6448165178299,1.92972660064697,1.81241071224213,8.76996040344238,8.36534118652344,8.01339340209961,-0.01225054077804,-0.52304482460022,-0.63436496257782,0.42077946662903,0.47883638739586,0.2418150305748,0.45327001810074,0.96033591032028,1.21706461906433,-1.07260239124298,-2.30801033973694,-2.50433492660522,1.78846871852875,2.27927994728088,2.41335535049438,7.58004236221313,7.6877818107605,8.33900451660156,-0.66951870918274,-0.81918835639954,-1.07591712474823,0.03142530098557,-0.7792409658432,-1.17445409297943,1.64157247543335,3.4850127696991,4.19447898864746,-4.03422975540161,-2.60249733924866,0.27293899655342,3.08612608909607,3.09570288658142,2.54982471466064,8.49941635131836,7.99423933029175,6.715735912323,-1.46101021766663,-1.53983974456787,-1.0402307510376,-2.00908875465393,-2.78087282180786,-2.56941795349121,4.98597049713135,4.95028400421143,2.01548027992249,4.57292509078979,17.3124732971191,37.488410949707,2.13083958625793,2.83952331542969,5.34385824203491,6.86417627334595,9.68454551696777,13.5272397994995,-1.01572966575623,-1.27192580699921,-0.62690812349319,-1.48604393005371,0.10173275321722,1.15527927875519,-2.26848077774048,-6.24830865859985,-10.7889986038208,46.8736801147461,49.4187164306641,55.5167503356934,4.14436292648315,-1.54904854297638,-8.5496940612793,12.1386022567749,13.333309173584,15.7538471221924,-0.3531351685524,-0.00585895450786,1.43650913238525,1.38324594497681,3.35931158065796,3.45625042915344,-15.7984046936035,-17.4527606964111,-17.4527606964111,57.063404083252,43.7229118347168,31.0240650177002,-26.2165088653564,-40.943244934082,-35.8507766723633,10.9462900161743,9.93833160400391,11.5711765289307,2.30043864250183,1.82000434398651,0.91719269752502,0.28921929001808,-0.79042625427246,0.03249056637287,-17.1395721435547,-16.9685974121094,-16.2207813262939,30.3991794586182,29.9179439544678,22.8335018157959,-38.8459243774414,-40.8762054443359,-41.6902351379395,8.82502746582031,5.96874475479126,3.84987640380859,0.49801114201546,0.13635385036469,-0.66845345497131,-0.3179814517498,-1.39176797866821,-0.3371562063694,-14.1168842315674,-8.05233383178711,-6.38679313659668,11.8321447372437,3.59130263328552,1.97042798995972,-38.8411331176758,-28.8501300811768,-29.599515914917,6.17225217819214,5.90410137176514,5.92325496673584,-0.50972902774811,1.26446890830994,4.65094470977783,0.43409526348114,1.04342651367188,0.43036684393883,-4.21631669998169,-0.80054622888565,3.2101743221283,-9.57680702209473,-18.6699848175049,-4.2257661819458,-27.8948440551758,-24.6961898803711,-13.0627641677856,12.3612632751465,17.9445419311523,9.25837802886963,4.30153799057007,2.84958243370056,-1.05194866657257,-0.56139439344406,-1.07272136211395,-0.39041942358017,2.75637173652649,1.65861678123474,0.62371236085892,3.7038300037384,2.93289709091187,1.9943699836731,-6.88332986831665,-0.88106620311737,1.27850365638733,3.63679242134094,0.77093297243118,2.70544791221619,SWING_RIGHT
-0.15606124699116,0.02556634694338,0.13795174658298,-0.19920445978642,-0.03302319720387,-0.16564862430096,0.74621772766113,0.89002847671509,1.17764985561371,0.96725749969482,0.10773907601833,-0.18195933103561,1.91536140441895,1.63763391971588,1.82677590847015,10.4770269393921,10.4770269393921,10.172963142395,0.39734363555908,0.27483823895454,0.00372842559591,-0.12623383104801,0.3307646214962,0.65407240390778,0.95714008808136,0.79308938980103,1.0444917678833,2.96881008148193,1.45328044891357,-1.18512988090515,2.21463656425476,2.32716393470764,2.93050289154053,10.158597946167,8.79390239715576,8.63827991485596,-0.24607609212399,-2.06927609443665,-2.94279313087463,0.92411690950394,1.29855740070343,-0.32597091794014,2.72441387176514,5.22192621231079,6.41821813583374,-2.92092609405518,-2.70544791221619,1.07260239124298,3.61045622825623,0.54587799310684,-2.03746557235718,9.29429054260254,5.39174222946167,9.97903251647949,-2.13425731658936,0.58483016490936,2.04211187362671,-2.94652152061462,-4.64242267608643,-4.34148550033569,6.27866888046265,2.50550198554993,-3.56064653396606,14.3029613494873,39.9568328857422,44.7811470031738,-2.29843354225159,3.26090264320374,3.67270541191101,17.4058456420898,24.9595527648926,16.9701023101807,1.20481407642365,-0.12144014984369,-2.99925208091736,-2.78193807601929,-1.94677078723907,-0.93263900279999,-7.03021287918091,-9.03823661804199,-16.6958904266357,36.0135803222656,39.6384048461914,55.0307273864746,-0.49320554733276,-4.93205547332764,-15.0906534194946,9.46427917480469,4.49391651153564,2.91853189468384,-2.20030379295349,-0.4868258535862,0.28495824337006,0.85540735721588,0.15606124699116,-1.65382301807404,-17.4527606964111,-17.4527606964111,-17.0133380889893,40.8618392944336,31.1318054199219,35.101390838623,-42.6742515563965,-40.3686332702637,-39.8778228759766,11.7698955535889,13.4003467559814,10.4099893569946,-0.74302196502686,-1.02265381813049,-1.0657970905304,-1.3997575044632,-1.88445281982422,-2.19071626663208,-16.0556659698486,-14.3176870346069,-11.1831464767456,27.7751331329346,16.4481658935547,2.72938990592957,-40.9791564941406,-40.1747055053711,-33.0232238769531,5.18105268478394,6.56250667572021,10.010157585144,-0.97524958848953,-0.82504731416702,0.09054747968912,-1.42266070842743,-0.29987195134163,0.86925578117371,-7.95113372802734,-5.58624696731567,-1.89137709140778,-2.26491475105286,-4.08929634094238,-10.9295310974121,-29.9658279418945,-27.9427280426025,-23.1950263977051,11.2623243331909,11.8632698059082,14.4250650405884,1.21493411064148,2.43679237365723,2.37234401702881,0.69615030288696,0.31585091352463,-0.62424498796463,0.04101268202066,1.68897676467896,3.38541054725647,-11.0516347885132,-8.75320148468018,-0.7972691655159,-18.7825126647949,-13.5559701919556,-5.19062948226929,14.5016794204712,12.4761848449707,4.73812532424927,1.05780756473541,-0.37763625383377,-1.50308811664581,-0.95820540189743,-0.58056914806366,0.01597896590829,3.34013676643372,3.0051109790802,2.66529178619385,2.1978771686554,3.45243883132935,4.10366153717041,-2.45166254043579,-1.05344879627228,-0.38786068558693,2.75572609901428,3.22498965263367,5.40371322631836,SWING_RIGHT
-0.15712650120258,-0.2226402759552,-0.25566345453262,0.18855181336403,0.03089267015457,0.04846953228116,0.83463472127914,1.00294649600983,1.18084561824799,-1.0223240852356,-1.20667767524719,-1.20667767524719,0.36391866207123,0.17477671802044,0.17477671802044,9.3828763961792,9.09078407287598,9.09078407287598,-0.2306297570467,-0.44101947546005,-0.47457531094551,0.20719394087791,0.20453077554703,0.07030745595694,1.33317852020264,1.55528604984283,1.74490320682526,-0.87627780437469,-1.46285724639893,-1.05105459690094,-0.41180267930031,-0.14844051003456,-0.32321724295616,9.37329959869385,9.0476884841919,9.32062721252441,-0.56885123252869,-0.92198640108109,-1.54729664325714,0.20666129887104,0.48416268825531,0.26258769631386,1.89084446430206,2.07939624786377,2.69352126121521,-1.12766897678375,-1.91057300567627,-1.91296720504761,-0.35194763541222,-0.24181437492371,-0.28012159466743,8.75798988342285,7.75003099441528,11.1737394332886,-0.67644292116165,-0.33768883347511,1.03224122524261,-0.32650354504585,-1.07272136211395,-3.21283769607544,3.06316804885864,2.9752836227417,2.22959852218628,0.70868372917175,2.79163908958435,13.5679407119751,0.54587799310684,1.73100781440735,5.77720880508423,12.2750720977783,11.8584814071655,17.7362461090088,2.3883228302002,2.39737772941589,1.02265381813049,-3.16170501708984,-3.39606308937073,-2.66103053092957,-0.92092114686966,-5.33164882659912,-9.41427421569824,32.532413482666,38.9081726074219,38.9081726074219,9.10993766784668,4.85783529281616,4.85783529281616,18.9213752746582,13.8504571914673,13.8504571914673,-2.68180322647095,-3.41364002227783,-1.72146737575531,3.85465931892395,5.62885761260986,4.17104291915894,-15.1464624404907,-15.953932762146,-15.4378128051758,41.5968589782715,31.1174392700195,26.8318176269531,-20.3698673248291,-22.615629196167,-26.1207408905029,2.69587111473084,9.19852256774902,20.1065063476563,0.82611256837845,4.00699234008789,5.58358383178711,4.07410383224487,3.76997089385986,2.60670208930969,-13.9496383666992,-11.2688999176025,-10.8497180938721,21.2006568908691,21.4568347930908,20.3363494873047,-26.4535350799561,-26.0489139556885,-29.2595386505127,18.5406970977783,12.5025215148926,11.5424461364746,6.57055139541626,5.40515184402466,2.57634210586548,0.53050172328949,0.06924218684435,-0.03408846259117,-9.6235990524292,-8.17377376556396,-2.96409845352173,8.18338108062744,0.65601128339767,-11.8393278121948,-32.6760635375977,-31.189266204834,-22.9196929931641,4.26407337188721,1.90099620819092,4.76924991607666,1.70708632469177,0.80107885599136,0.16138756275177,0.15393070876598,1.01146864891052,1.15474665164948,-0.49055427312851,1.45461857318878,2.96782684326172,-11.4993505477905,-9.13148498535156,-2.04943656921387,-18.2869129180908,-14.5016794204712,-7.24006605148315,6.02381134033203,5.00627565383911,6.75164890289307,0.51771855354309,0.62158179283142,0.26045715808868,0.40480050444603,-0.24074976146221,-0.73343455791473,2.59178853034973,1.83012437820435,1.01999068260193,0.85712420940399,1.5442601442337,0.78050976991653,-3.5960910320282,-0.86670100688934,0.97683429718018,6.88572406768799,5.44920301437378,4.46758031845093,SWING_RIGHT
-0.30839407444,-0.31638354063034,-0.2290318608284,0.22690132260323,0.13262543082237,0.07030745595694,0.23915186524391,0.50387006998062,0.59761333465576,-0.39025488495827,-0.36152446269989,-0.49320554733276,0.60094463825226,0.5147533416748,0.39983168244362,9.78989028930664,10.0173397064209,10.5560350418091,-0.10546118021011,-0.01331580616534,-0.01225054077804,0.08948221802711,0.15073491632938,-0.12942963838577,0.70840084552765,0.84901577234268,1.16646456718445,-0.40462008118629,-0.40462008118629,-0.57939678430557,0.23463176190853,0.23463176190853,-0.19153612852097,10.6302556991577,10.6302556991577,9.54568195343018,0.01544633507729,0.11984225362539,0.30093720555305,-0.38402783870697,-0.740891456604,-1.18990039825439,1.24050045013428,1.30707943439484,1.36247324943542,-0.1963245421648,0.24420857429504,0.7493851184845,-0.31603461503983,-0.36391866207123,-0.34955343604088,9.47864437103272,9.48343276977539,9.07641887664795,0.3946804702282,0.28282770514488,-0.16831178963184,-1.74010944366455,-1.16539931297302,-0.41438788175583,1.60908198356628,1.82905912399292,2.47567462921143,2.66474652290344,3.82593441009521,3.9073371887207,-0.12449848651886,0.61052143573761,2.42532634735107,8.97346782684326,9.41400146484375,9.12669658660889,-0.87404948472977,-1.11586451530457,-1.61121249198914,-0.08948221802711,-0.08415589481592,-2.410160779953,3.01576375961304,1.61174511909485,-5.75455856323242,11.1545858383179,26.6498584747314,49.9741706848145,5.68622922897339,8.83460426330566,7.0820484161377,10.7954559326172,13.417106628418,19.5773868560791,-1.24476146697998,-1.63198518753052,0.2833603322506,-0.01544633507729,3.44293475151062,4.47943687438965,-10.3447828292847,-13.3163385391235,-15.6908130645752,54.8870735168457,48.8848114013672,38.4939765930176,-1.82198750972748,-18.5766105651855,-36.1069564819336,20.0921401977539,8.86812305450439,16.266206741333,3.15584588050842,5.46853494644165,6.47254705429077,5.07012605667114,4.09967041015625,-0.6721818447113,-15.4521932601929,-15.0793514251709,-14.2644233703613,32.7646484375,31.5100879669189,19.5558395385742,-36.4182014465332,-39.2529373168945,-42.0469703674316,14.7003984451294,9.28950214385986,0.96007490158081,5.23364448547363,3.54200434684753,1.60482084751129,-1.99843609333038,-2.85863709449768,-3.09672379493713,-12.7906303405762,-10.7522468566895,-8.33196640014648,11.4490728378296,4.34308195114136,4.34308195114136,-38.9512672424316,-34.6584625244141,-34.6584625244141,0.58179098367691,1.92014980316162,1.92014980316162,-0.77018618583679,-2.30097126960754,-1.24209833145142,-2.88580131530762,-1.56753659248352,1.8748654127121,-5.16067361831665,-1.98032665252686,2.4314661026001,-9.39724159240723,-9.39724159240723,-10.3525285720825,-26.4415626525879,-26.4415626525879,-19.5079555511475,5.03261184692383,5.03261184692383,17.6428718566895,0.41864892840385,1.8450380563736,2.77767705917358,1.95689082145691,1.61440825462341,1.27352368831635,3.6863477230072,4.36545372009277,4.52311277389526,-8.38688850402832,-8.38688850402832,-4.17309379577637,-15.2845840454102,-15.2845840454102,-7.88410615921021,15.9118642807007,15.9118642807007,8.63109683990479,SWING_RIGHT
0.04420847445726,0.35579833388329,1.1989551782608,-0.80320942401886,-0.64075654745102,-2.10975623130798,2.23385953903198,2.09430980682373,1.22239100933075,-1.38624274730682,0.30645781755447,0.18914192914963,-0.95049810409546,-1.40060794353485,-1.86987149715424,11.2599306106567,10.8289747238159,10.9391078948975,1.75608849525452,1.48923969268799,0.32543829083443,-2.99499106407166,-2.21521735191345,-0.21145498752594,1.42851960659027,2.0335898399353,2.92255306243896,-3.81156921386719,-3.81156921386719,-3.94803857803345,-3.7349545955658,-3.7349545955658,-3.94085597991943,10.8672819137573,10.8672819137573,6.75164890289307,-1.48497867584229,0.84635263681412,1.20587933063507,1.78964424133301,-0.65087658166885,-1.42638909816742,4.90927124023438,2.94226050376892,0.87831056118011,6.12436771392822,29.3050289154053,44.8601570129395,-3.85705900192261,7.26879644393921,13.2662715911865,13.2902135848999,13.9462251663208,11.6358203887939,0.32011196017265,-0.82824313640594,-1.70389044284821,-0.3946804702282,0.55926382541656,0.54967647790909,-7.21237277984619,-8.9013500213623,-11.5048561096191,50.019660949707,46.1578140258789,52.0307922363281,11.0803651809692,8.93037223815918,-3.3231520652771,2.68868851661682,2.61207413673401,5.216965675354,-2.25676274299622,0.29507824778557,1.70229256153107,1.26020789146423,2.45064091682434,2.04317712783813,-13.61194896698,-15.6679096221924,-16.2548694610596,44.6351013183594,45.0253562927246,42.3175163269043,-16.9581298828125,-36.8922538757324,-43.0716896057129,10.8529167175293,17.8200435638428,17.1736087799072,3.16969442367554,4.2844934463501,3.8269624710083,1.91428017616272,2.52254629135132,0.54914385080338,-16.3289070129395,-15.6545934677124,-12.6878318786621,42.7915687561035,39.3606758117676,21.2150211334229,-47.2016868591309,-49.2678833007813,-41.2113952636719,16.0674877166748,12.6174430847168,6.02381134033203,2.57367897033691,1.67725884914398,1.54942715167999,-0.36538571119308,-0.18801917135715,0.26471820473671,-10.3522396087646,-7.81158447265625,-5.08131122589111,9.29668521881104,-1.29765737056732,-9.41160678863525,-36.2769432067871,-34.8954887390137,-32.7766227722168,6.64151573181152,8.59278964996338,12.2870435714722,2.96143507957459,3.80246138572693,4.08369112014771,0.67324715852737,0.99921804666519,0.95394432544708,0.30626353621483,2.03518772125244,2.82721185684204,-12.90953540802,-7.86974096298218,-2.94247388839722,-24.5764808654785,-18.7465991973877,-12.816162109375,14.1664915084839,10.8624935150146,6.35899972915649,3.69220662117004,1.60908198356628,0.27164244651794,0.67484503984451,-0.10492854565382,-0.29081720113754,2.94705414772034,1.97766351699829,1.46207547187805,0.07422025501728,0.99359369277954,-1.22104287147522,-7.29513263702393,1.06781399250031,2.38462495803833,3.09091448783875,0.7972691655159,1.58496153354645,-1.00347912311554,-1.87220227718353,-2.01068663597107,-0.11664646118879,-0.15606124699116,-0.15020228922367,1.37738692760468,1.60695147514343,1.94464027881622,-4.97754526138306,-5.3366756439209,-5.1786584854126,2.50672912597656,1.10851538181305,-0.69192427396774,3.56496644020081,6.50983428955078,10.9582614898682,SWING_RIGHT
-0.23435817658901,-0.22690132260323,0.18002969026566,0.51505535840988,0.42290997505188,0.03142530098557,2.31268906593323,2.26848077774048,1.89084446430206,1.98718738555908,3.4117374420166,4.67827033996582,-1.09415018558502,-0.96007490158081,-0.54587799310684,9.13148498535156,10.857705116272,11.7172231674194,0.58110177516937,0.76485985517502,0.76752305030823,-0.43356263637543,-0.68603032827377,-0.74408721923828,1.45355331897736,1.24902260303497,1.27245843410492,4.42448472976685,3.47638082504272,3.53384160995483,-0.26336219906807,-0.02394201606512,0.64404028654099,11.0803651809692,10.4291429519653,10.704475402832,0.78616517782211,1.03437173366547,0.90440952777863,-0.58589547872543,-0.31105720996857,-0.20825919508934,0.99921804666519,-0.21411815285683,-1.34170055389404,7.57046556472778,12.4163303375244,12.0356521606445,1.40060794353485,3.1699230670929,2.85149431228638,11.4969568252563,11.5975131988525,9.53610515594482,0.46445530653,0.14807176589966,-0.53582799434662,-0.15499597787857,-0.40852892398834,0.23276028037071,-1.91481280326843,-2.84638667106628,-5.00354719161987,11.3030261993408,16.153678894043,18.8447608947754,3.79480957984924,4.46758031845093,0.65361708402634,9.23204135894775,10.4578733444214,11.7363767623901,-0.47564056515694,-0.10279802232981,0.47510793805122,0.91080111265182,0.93157374858856,0.46498793363571,-5.72632884979248,-7.25338554382324,-9.46114635467529,21.1264362335205,27.0329322814941,27.0329322814941,1.58256733417511,-1.93930339813232,-1.93930339813232,14.7147636413574,15.6748380661011,15.6748380661011,1.39869225025177,1.43384599685669,2.12733316421509,-0.18801917135715,1.23623943328857,1.65808415412903,-12.8375015258789,-15.1395387649536,-14.743260383606,43.5792579650879,34.6752243041992,25.5916213989258,-14.2790193557739,-23.9084987640381,-24.9403991699219,20.9851779937744,15.389928817749,17.0993881225586,2.8900625705719,4.40273809432983,4.81925630569458,1.45568382740021,1.25381624698639,0.36218991875648,-13.7973051071167,-12.6596031188965,-11.8366861343384,24.8996982574463,26.6187343597412,17.4106349945068,-26.7336559295654,-35.0822372436523,-37.2011070251465,15.9645366668701,8.927978515625,7.44596719741821,5.03497266769409,4.44268560409546,2.37447452545166,0.12676647305489,-0.70413982868195,-0.77178412675858,-9.96767997741699,-7.1713604927063,-1.67033469676971,3.55778384208679,3.55778384208679,-10.0724067687988,-34.6153678894043,-34.6153678894043,-22.1367893218994,6.0788779258728,6.0788779258728,5.97832155227661,1.361407995224,0.70094400644302,0.43196472525597,-0.82611256837845,-0.65673553943634,-0.10279802232981,0.03941478580236,1.35981011390686,2.21947860717773,-8.83699893951416,-7.36695861816406,-5.44920301437378,-18.0642509460449,-13.4649906158447,-9.77791976928711,6.89051246643066,9.18176364898682,9.95269680023193,0.3850930929184,0.16990968585014,-0.32224249839783,0.2210423797369,-0.15765914320946,-0.46498793363571,2.05223202705383,1.45515120029449,0.85807049274445,-1.44609785079956,-0.57939678430557,-1.4293384552002,-3.5769374370575,-1.56101953983307,-1.32638776302338,9.31105041503906,8.32224464416504,7.48906278610229,SWING_RIGHT
0.26844665408134,0.69828087091446,0.82664519548416,0.07297061383724,-0.28176245093346,-0.98164117336273,1.71933686733246,2.69831490516663,3.20165228843689,-5.94240856170654,-5.21935987472534,-2.14520478248596,1.50116443634033,0.09576806426048,-0.98162269592285,12.0811414718628,11.2862672805786,9.33020401000977,0.62531024217606,0.54275226593018,0.44794371724129,-1.53185033798218,-1.08017814159393,0.15233281254768,2.85597395896912,1.76993691921234,0.82557994127274,2.09013819694519,4.56095409393311,3.16513466835022,-1.05584299564362,-0.97444009780884,-1.05105459690094,9.32302188873291,10.4219598770142,9.93593692779541,0.20719394087791,-0.81439465284348,-0.80960100889206,1.10574448108673,-0.29134982824326,-2.28818798065186,0.33182987570763,1.91001915931702,3.06583118438721,0.53151279687881,-1.53947174549103,8.37970638275146,-1.27132105827332,-0.91219085454941,-2.36786556243896,8.47786808013916,9.31823348999023,15.1433258056641,0.23116238415241,1.87646329402924,2.7393274307251,-3.0695595741272,-1.74969685077667,-2.19284677505493,2.63865995407104,-2.98327302932739,-6.53220176696777,25.5940170288086,42.494686126709,47.977409362793,-2.95205068588257,2.46363353729248,2.36547136306763,19.5941467285156,18.6173114776611,16.2925434112549,2.53586196899414,0.15446335077286,-5.10687780380249,-4.3622579574585,-5.3433666229248,2.0037624835968,-11.6539936065674,-16.2516746520996,-17.4527606964111,60.616397857666,57.9133453369141,48.568775177002,-3.40216064453125,-24.7033729553223,-56.0985412597656,10.8792524337769,3.98873996734619,7.30710363388062,-3.97183847427368,2.23545742034912,9.471266746521,2.13745307922363,3.8104510307312,-1.93558549880981,-17.4527606964111,-17.4527606964111,-17.1448993682861,47.6733436584473,36.2577896118164,39.6431922912598,-66.3888168334961,-62.0840454101563,-72.5850143432617,28.3210124969482,38.2904663085938,4.41969633102417,5.66241312026978,-0.47244477272034,-5.11380195617676,-4.41285800933838,-3.80938577651978,-0.83516734838486,-16.7592735290527,-14.1935834884644,-9.42013359069824,20.5470390319824,-0.28969839215279,-22.3953628540039,-68.1820755004883,-58.9500350952149,-53.3715438842773,-8.746018409729,-9.2248592376709,5.91367816925049,-4.13003015518188,0.49801114201546,3.339604139328,0.37444046139717,0.81972098350525,0.95714008808136,-2.92202043533325,3.90419411659241,6.80863761901855,-39.3080024719238,-32.9849166870117,-11.3556985855103,-47.3237915039063,-38.3144111633301,-30.7367610931396,33.9737205505371,32.6545181274414,16.5391445159912,4.27863454818726,4.19021797180176,3.16490077972412,1.39549648761749,1.46473860740662,0.98963069915771,7.52609348297119,7.12608671188354,5.61234569549561,0.80205756425858,6.52419948577881,12.1625442504883,-21.7561111450195,-11.9925565719604,-2.58813214302063,6.6271505355835,0.2777273952961,-3.47638082504272,1.82852649688721,-0.73556512594223,-1.59043979644775,0.35473304986954,-0.01491370238364,-0.06285060197115,3.19046711921692,0.9544769525528,1.16539931297302,12.4259071350098,-3.2585084438324,-4.39575433731079,5.1068320274353,9.27753162384033,7.80030918121338,-2.96162748336792,2.71023631095886,5.41089582443237,SWING_RIGHT
-0.2290318608284,-0.06338323652744,-0.07882957160473,0.42823630571365,0.34141725301743,0.24767398834229,0.03355583176017,0.2306297570467,0.33609092235565,1.0989385843277,-0.01197100803256,0.25857377052307,0.02394201606512,0.11731588095427,-0.09337386488914,9.79467868804932,9.92875480651856,9.49061584472656,-0.12942963838577,-0.1065264493227,-0.05699164792895,0.10226538777351,-0.04314320906997,-0.03781688958406,0.38615837693214,0.432497382164,0.54435014724731,0.35913026332855,0.29448682069778,0.16519992053509,-0.18674772977829,-0.01675941236317,-0.14604631066322,9.78031349182129,10.1346559524536,10.498574256897,-0.00905474834144,0.02929477207363,0.56512278318405,-0.00852211564779,-0.34088462591171,-0.85487473011017,1.00880539417267,1.3401026725769,1.29110050201416,0.10295066982508,1.22104287147522,7.66862821578979,0.06943184882402,0.26815059781075,1.24977326393127,10.9151659011841,11.9614315032959,14.6740617752075,1.0189254283905,1.36779952049255,1.10574448108673,-1.25221836566925,-2.04264450073242,-3.13454055786133,0.81705784797668,-0.01810949668288,-1.65115988254547,11.9350957870483,18.3491611480713,24.2245330810547,1.15161097049713,1.39342534542084,0.68953007459641,15.114595413208,13.8504571914673,11.417947769165,0.31585091352463,-0.16724652051926,-0.99282646179199,-3.36197471618652,-0.86073368787766,-0.81066626310349,-3.63734555244446,-8.3761739730835,-16.1568660736084,28.8309764862061,42.5952415466309,53.6947631835938,-1.66636443138123,-9.70848751068115,-36.0183715820313,11.1354322433472,13.6254014968872,9.65342140197754,-1.62719142436981,0.64714813232422,2.49857783317566,0.98217380046844,1.82586324214935,0.55393749475479,-17.4527606964111,-17.4527606964111,-17.3249282836914,45.7388305664063,31.1772937774658,29.5300846099854,-46.8904418945313,-50.4051284790039,-51.2143669128418,9.35175228118896,15.468936920166,14.046781539917,3.33747363090515,2.35796284675598,1.50521862506866,-0.33129724860191,-0.97844541072845,-0.84049367904663,-16.4024085998535,-12.1536026000977,-9.28644275665283,28.6370468139648,7.46512079238892,7.46512079238892,-52.7035636901855,-45.1211242675781,-45.1211242675781,8.88967132568359,6.80192708969116,6.80192708969116,0.78936094045639,0.90813797712326,1.96541297435761,-0.79095888137817,-0.44261738657951,0.33502566814423,-6.41768550872803,-2.6929886341095,1.23570680618286,-9.53131675720215,-19.1224880218506,-20.0203151702881,-40.6511497497559,-32.9705505371094,-25.2229156494141,10.9534730911255,15.907075881958,17.3555679321289,2.80324339866638,2.18645524978638,1.08124339580536,0.84901577234268,0.88257157802582,0.5480785369873,3.6554548740387,4.18915224075317,2.94865202903748,-10.8672819137573,-3.1387984752655,6.04775333404541,-17.5303440093994,-10.1370496749878,0.38067805767059,12.7539129257202,7.49145698547363,2.36307716369629,-0.12783172726631,-0.96193379163742,-1.33477640151978,0.29454562067986,0.19600865244865,0.15126755833626,1.61494088172913,0.79575252532959,0.8175904750824,6.04775333404541,0.42377370595932,-4.50828170776367,0.38067805767059,2.15956997871399,0.81402856111526,2.36307716369629,6.13394498825073,8.78432559967041,SWING_RIGHT
0.480434268713,0.47990164160728,0.8239820599556,-0.4740426838398,-1.13237607479095,-1.45248806476593,1.0231865644455,1.17658460140228,0.95341169834137,0.52672439813614,2.28885674476624,4.23294878005981,0.01675941236317,0.50038814544678,1.10851538181305,9.16979217529297,10.0652236938477,11.2000751495361,1.13184344768524,1.04395914077759,0.57737332582474,-1.37632167339325,-1.09668970108032,-0.9353021979332,0.82238417863846,0.96619486808777,1.29589426517487,3.76607918739319,3.12443327903748,3.27047944068909,1.53947174549103,1.98718738555908,2.49954652786255,10.2040872573853,8.51378154754639,7.6375036239624,-0.52890378236771,-1.02265381813049,-0.85434210300446,-1.08230865001678,-1.07165598869324,-0.50866377353668,2.10016894340515,1.84557068347931,-0.57630807161331,5.59046077728271,10.8146095275879,15.8208847045898,2.45645093917847,2.79642748832703,0.90979665517807,7.59919595718384,9.45230865478516,12.6772975921631,-0.19547602534294,0.4420847594738,0.29987195134163,-1.37312591075897,-2.76436138153076,-2.95291304588318,-1.59150505065918,-3.41949892044067,-5.753493309021,19.5438690185547,27.3082637786865,30.5332546234131,1.46046304702759,1.71424841880798,-0.4764461517334,16.0004501342773,16.8479976654053,14.4514017105103,-0.11078750342131,-0.35366779565811,-0.42237734794617,1.58031976222992,1.94304239749908,1.91481280326843,-10.1706123352051,-13.2162036895752,-15.1581802368164,34.0790672302246,39.2553329467773,39.2553329467773,-5.91607236862183,-19.0482692718506,-19.0482692718506,13.2973966598511,9.64863300323486,9.64863300323486,0.36964675784111,2.81655931472778,3.54253697395325,2.00216460227966,1.54729664325714,0.50600063800812,-15.8229055404663,-14.2191495895386,-13.0138034820557,29.4917774200439,19.5055618286133,17.4824600219727,-37.5315055847168,-35.4198188781738,-33.576286315918,12.9023532867432,10.3429517745972,8.29830265045166,3.81098365783691,2.1875205039978,1.88232231140137,-0.53795856237411,-2.86715936660767,-2.39791035652161,-12.7165946960449,-11.1288175582886,-7.51437568664551,19.1799507141113,-4.46518611907959,-20.2884654998779,-40.8307151794434,-39.0853424072266,-29.7503509521484,6.08127212524414,7.65905141830444,13.5224514007568,2.30363440513611,2.69618439674377,2.87727928161621,-1.64796411991119,-0.23276028037071,0.70254188776016,-3.2320122718811,0.23489081859589,1.94410765171051,-23.3075542449951,-15.5982236862183,-6.63672733306885,-22.9292697906494,-17.659631729126,-12.8257389068604,15.799337387085,13.3045787811279,10.2854900360107,2.66529178619385,2.12413740158081,1.30175316333771,0.71852087974548,0.31265512108803,0.26684874296188,2.63706207275391,2.74891495704651,2.45064091682434,-2.37265396118164,0.36152446269989,1.98000478744507,-8.38928318023682,-4.22097778320313,-0.641646027565,7.05331802368164,5.20499467849731,4.14196872711182,0.23435817658901,-0.83569997549057,-1.6010924577713,0.38136467337608,0.3627225458622,-0.44101947546005,1.76940429210663,0.74675035476685,-0.53156697750092,3.44525623321533,3.44046783447266,-2.95683908462524,1.43891525268555,1.23540806770325,1.30005156993866,3.76368498802185,4.54898309707642,9.41400146484375,SWING_RIGHT
0.04261057823896,-0.37284255027771,-1.04608964920044,0.36112466454506,0.23276028037071,-0.79468727111816,0.70999878644943,0.95234644412994,1.17338883876801,-3.45243883132935,-4.3837833404541,-4.44363832473755,-2.69587111473084,-2.34152936935425,-2.1284453868866,8.1331033706665,5.54497098922729,3.99113416671753,-1.6996294260025,-1.5409049987793,-1.23304355144501,-2.61842012405396,-1.88498544692993,-0.57417756319046,1.16326880455017,0.72011876106262,0.67111659049988,-0.40462008118629,1.71185421943665,0.87148940563202,-2.17393517494202,-2.87783050537109,-3.81156921386719,6.94557905197144,9.39005947113037,9.94312000274658,-0.85274422168732,-0.12942963838577,0.96246641874313,-2.2519690990448,-3.25012183189392,-2.72654438018799,1.6953684091568,1.68791151046753,1.00880539417267,-0.35434186458588,6.2201361656189,12.6030778884888,-1.14682257175446,-0.54827219247818,0.09097966551781,12.363657951355,17.5518932342529,18.9668655395508,1.6650083065033,2.286057472229,1.91161704063416,-1.66713881492615,-0.32650354504585,0.54861122369766,0.03888215124607,-4.77824354171753,-8.18495941162109,16.7067394256592,36.0231590270996,36.0231590270996,0.95049810409546,1.00556468963623,1.00556468963623,18.4473247528076,19.4648590087891,19.4648590087891,1.52599132061005,1.61653876304626,1.66713881492615,2.93373823165894,4.45653390884399,3.62722539901733,-10.1317300796509,-11.941614151001,-13.3360452651978,33.1692695617676,33.2746162414551,29.6306400299072,-5.68383502960205,-8.34379291534424,-16.2183227539063,17.2310695648193,15.8256731033325,13.7666597366333,3.26876401901245,6.79905033111572,8.89655590057373,3.16969442367554,2.41229128837585,1.20268356800079,-14.2047691345215,-12.5109987258911,-11.6742334365845,25.9124450683594,16.7091331481934,15.660472869873,-34.2729988098145,-36.7390251159668,-37.538688659668,14.7267351150513,17.4369716644287,17.1879749298096,9.88618659973144,7.2864089012146,2.99925208091736,-2.90976977348328,-4.1406831741333,-3.46583795547485,-11.3040533065796,-10.710168838501,-8.36126041412354,9.13866806030273,2.17393517494202,-6.66785192489624,-37.6703681945801,-32.1349754333496,-25.1846084594727,8.80587387084961,1.5945383310318,-2.85628271102905,-3.0993869304657,-2.00429511070251,0.10918960720301,0.87884318828583,1.90202963352203,1.85995173454285,-2.45170617103577,-0.08681905269623,1.55209028720856,-10.9199542999268,-11.9662199020386,-8.95670890808105,-19.5438690185547,-16.1393127441406,-12.5504055023193,13.5200567245483,19.9365177154541,18.6867446899414,1.65595364570618,2.32707023620605,2.24504494667053,1.7166736125946,2.00216460227966,1.71347784996033,2.42827033996582,2.67221593856812,1.98512029647827,-4.97036266326904,-4.97036266326904,0.04788403213024,-9.51934623718262,-9.51934623718262,-0.66798228025436,13.1202249526978,13.1202249526978,4.08211374282837,1.83704853057861,1.25967526435852,0.08096009492874,1.20907521247864,0.60453760623932,-0.30040457844734,1.04875290393829,0.11078750342131,-0.53156697750092,0.17717093229294,-1.8171991109848,-6.70376491546631,1.39342534542084,2.74375510215759,2.15717577934265,2.76769709587097,2.26970314979553,3.26808524131775,SWING_RIGHT
0.25832661986351,0.24714136123657,0.23808661103249,-0.09108011424541,-0.00745685119182,-0.52943640947342,0.54488277435303,0.45912897586823,0.80374205112457,0.99598789215088,1.01753568649292,-0.89782565832138,0.6703764796257,0.68713587522507,1.45567464828491,10.4219598770142,9.68454551696777,11.8680582046509,0.73876088857651,1.85089695453644,1.51480603218079,-1.22132575511932,-0.36325517296791,0.2418150305748,1.22132575511932,1.21706461906433,1.06366658210754,0.14844051003456,3.58651423454285,2.32237553596497,1.3718775510788,0.15322890877724,0.29209262132645,13.8241205215454,10.8098211288452,8.31745624542236,0.88896316289902,0.41705104708672,0.18429075181484,0.60933125019073,0.70946609973907,0.73876088857651,1.24476146697998,1.60428822040558,1.83704853057861,0.70150107145309,0.83078801631927,2.6934769153595,0.47405192255974,0.79008656740189,0.67516487836838,7.9152307510376,9.13387966156006,9.57680702209473,-0.13315805792809,-0.77977359294891,-1.68524837493896,-1.52386081218719,-3.68581509590149,-4.35267066955566,0.52783852815628,-1.27405631542206,-3.02109003067017,13.1968393325806,19.5127429962158,24.5525379180908,3.16513466835022,2.98078107833862,0.16519992053509,7.28316164016724,5.94959115982056,7.1419038772583,-2.46608710289001,-1.87433278560638,-1.72945690155029,-3.30231976509094,1.02212119102478,1.27671945095062,-4.73030662536621,-10.6973857879639,-14.5307397842407,30.937873840332,43.2919540405273,50.2111968994141,-3.41652584075928,-15.6532907485962,-27.6865482330322,10.8074264526367,14.0036859512329,10.26633644104,-1.85462546348572,1.13503932952881,3.32362508773804,0.94009590148926,2.66529178619385,1.28524160385132,-17.4527606964111,-17.4527606964111,-17.4527606964111,43.5601043701172,28.6609878540039,21.5286617279053,-43.3230781555176,-51.1640892028809,-49.6677131652832,9.96466732025146,15.907075881958,14.3723926544189,4.24081802368164,3.53561282157898,1.8924423456192,-0.28602349758148,-1.20534670352936,-0.8303736448288,-16.2516746520996,-14.952052116394,-13.2156705856323,19.6707611083984,17.1281185150146,11.9781913757324,-47.1681671142578,-44.8242454528809,-40.9887313842773,9.41160678863525,3.44046783447266,1.03668928146362,-0.84475469589233,-0.60720074176788,0.03355583176017,-0.53369748592377,-1.32146060466766,-1.15527927875519,-8.39534950256348,-5.43018579483032,-2.68926000595093,-5.19302368164063,-10.1250791549683,-10.1250791549683,-31.9985065460205,-28.177360534668,-28.177360534668,9.18655204772949,14.8320798873901,14.8320798873901,1.48071753978729,2.3371901512146,2.7095000743866,0.68762820959091,0.95341169834137,0.87191897630692,1.44982492923737,2.77607917785645,3.42535781860352,-9.0668420791626,-6.60799646377563,-2.84191751480103,-15.6580791473389,-10.1562032699585,-5.7819972038269,13.9534072875977,11.9518547058105,8.54490566253662,2.49484944343567,0.92464953660965,-0.80587255954742,0.804807305336,0.264185577631,-0.04793690145016,3.36996412277222,1.52492606639862,0.18216022849083,1.00556468963623,4.07971954345703,-0.15322890877724,-2.10210919380188,3.23217225074768,2.87783050537109,6.01184034347534,4.02225875854492,6.01902294158936,SWING_RIGHT
-0.496413230896,-0.1145159304142,0.09640643000603,0.67164921760559,0.40053942799568,0.16511599719524,-0.37284255027771,0.15233281254768,0.41065946221352,-1.92254400253296,-1.58256733417511,-0.91219085454941,1.28808057308197,0.88346040248871,0.97683429718018,11.5592060089111,11.4083709716797,9.94790840148926,0.00532632227987,-0.26791399717331,-0.324373036623,0.15712650120258,0.19547602534294,0.2705771625042,0.54488277435303,0.75420725345612,0.90707266330719,-0.99359369277954,-1.06541979312897,-1.06541979312897,1.0989385843277,0.641646027565,0.641646027565,8.67419242858887,9.40681838989258,9.40681838989258,-0.51452273130417,-0.77231675386429,-0.97897803783417,0.42450788617134,-0.12144014984369,-1.71720635890961,1.34809219837189,2.55610203742981,4.4773063659668,-3.3734302520752,-5.44920301437378,-0.86909520626068,0.74699091911316,1.21864867210388,0.56263738870621,8.25999546051025,8.30069732666016,9.55525875091553,0.73982614278793,1.07538449764252,0.63756078481674,-3.65598750114441,-4.22963237762451,-2.9411952495575,2.83466863632202,-0.68389976024628,-4.95507764816284,34.5794563293457,45.7340393066406,50.6613082885742,4.01028776168823,4.97515106201172,1.89620769023895,13.8265151977539,13.3883762359619,10.5416698455811,-0.33236250281334,-1.33424377441406,-3.20644593238831,-1.49403345584869,-0.51452273130417,2.84958243370056,-8.61372852325439,-12.0310964584351,-17.4527606964111,47.101131439209,48.2934417724609,49.2104225158691,-4.0462007522583,-13.3835878372192,-51.5950469970703,9.19134044647217,7.99184513092041,4.06056594848633,-2.87621402740479,-0.20506340265274,1.03224122524261,4.22696924209595,1.53398084640503,1.32785212993622,-17.4527606964111,-17.4527606964111,-15.7818927764893,41.7453002929688,25.5796508789063,18.8519439697266,-64.8206176757813,-59.1224174499512,-52.1169815063477,4.2449197769165,7.56328296661377,7.12753868103027,2.07779836654663,2.43625974655151,1.97713088989258,1.66607356071472,-1.5025554895401,-1.46047759056091,-13.2598791122437,-8.60680389404297,-5.36413908004761,12.4474544525146,6.19140577316284,-13.0675525665283,-45.2121047973633,-40.2513198852539,-32.5252304077148,6.28717374801636,5.33188724517822,7.08923101425171,1.87220227718353,1.97393500804901,1.63677883148193,0.45859634876251,0.47510793805122,-0.18855181336403,1.36087536811829,2.89698672294617,2.1789984703064,-12.5120983123779,-12.5120983123779,5.7436900138855,-21.143196105957,-21.143196105957,-4.56095409393311,9.77073669433594,9.77073669433594,6.16506958007813,1.12491929531097,0.35739621520042,-1.11906027793884,-0.34621095657349,-0.15446335077286,-0.5629922747612,1.18404150009155,0.40852892398834,-0.22690132260323,4.41490793228149,2.35350036621094,0.13407529890537,-1.22104287147522,-0.36152446269989,-0.96486330032349,5.6934118270874,5.21217727661133,5.75087261199951,-1.49030494689941,-1.7555558681488,-1.76674115657806,-0.85487473011017,-0.86712527275085,-0.65567028522491,-0.25353294610977,-0.07190535217524,0.47457531094551,-2.33434677124023,-3.33751726150513,-4.89853668212891,-2.559401512146,-3.17949986457825,-3.54581260681152,8.63349151611328,9.41160678863525,11.0085391998291,SWING_RIGHT
-0.46552056074142,-0.80267679691315,0.14860439300537,-0.28549087047577,-0.93743270635605,-0.88044106960297,1.68151998519897,2.32973337173462,2.66156315803528,-1.04387199878693,-1.97042798995972,5.06613063812256,1.82438170909882,0.91937345266342,1.09415018558502,6.61996793746948,7.95832633972168,12.2271881103516,0.42077946662903,-0.01491370238364,-0.67271453142166,0.06444849818945,0.78829568624496,1.12651717662811,1.49669659137726,0.25513082742691,-0.36698359251022,7.98226833343506,7.98226833343506,3.80438661575317,2.77966809272766,2.77966809272766,3.65115761756897,9.2057056427002,9.2057056427002,6.21295356750488,-1.37525641918182,-1.22185838222504,-1.05035078525543,0.36005938053131,-1.0018812417984,-2.59178853034973,-0.2226402759552,-0.58163440227509,-1.60002720355988,5.20020627975464,5.20020627975464,16.0267868041992,0.78769236803055,0.78769236803055,0.54587799310684,8.81305599212646,8.81305599212646,7.79073238372803,-1.23464155197144,-1.51267552375793,-1.82213485240936,-3.78701519966125,-4.39687919616699,-3.05358052253723,-2.27487230300903,-2.64718222618103,-6.28399515151978,16.0267868041992,23.762451171875,45.707706451416,0.54587799310684,-2.8012158870697,-9.27753162384033,7.79073238372803,8.6095495223999,10.1107139587402,-2.42294406890869,-3.02907943725586,-3.59526753425598,-1.92812871932983,-1.60375559329987,0.64341974258423,-9.43451499938965,-13.6502990722656,-17.4527606964111,53.7306747436523,61.969123840332,59.5916786193848,-19.2086811065674,-30.2890453338623,-71.5363540649414,9.43554878234863,12.2535238265991,12.3684463500977,-3.56597280502319,-1.95476031303406,1.04928553104401,4.76439523696899,6.25736331939697,3.86424684524536,-17.4527606964111,-17.4527606964111,-17.4527606964111,52.3085174560547,37.5793914794922,35.2187080383301,-78.4508056640625,-78.4508056640625,-72.4174194335938,9.25837802886963,13.318943977356,21.4233169555664,3.79979825019836,5.43870782852173,4.35373592376709,3.25065445899963,1.80509066581726,0.04740426689386,-16.4817714691162,-13.2454986572266,-9.7056245803833,38.965633392334,7.1227502822876,-6.73967790603638,-65.9865951538086,-58.0617866516113,-47.5488471984863,18.7513885498047,3.01669406890869,0.46447512507439,2.80058026313782,0.50227218866348,1.10361397266388,-0.86126631498337,-0.08415589481592,-0.04633900523186,-6.96523141860962,0.02343581803143,3.14732384681702,-9.34217548370361,-26.0608863830566,-16.5295677185059,-41.7189636230469,-26.2667865753174,-19.5749931335449,0.1268926858902,8.27436065673828,10.8098211288452,1.94890129566193,1.95422768592834,1.2287825345993,-0.6013417840004,0.02982740476727,0.53902381658554,4.18968486785889,2.92308568954468,2.67221593856812,-4.16112232208252,-0.59376204013824,-3.03824186325073,-13.5056915283203,-4.09408473968506,-1.7788919210434,10.0245227813721,5.24569606781006,4.6830587387085,0.70893347263336,0.47830373048782,0.24554345011711,0.16405072808266,-0.16884441673756,0.00532632227987,1.94304239749908,0.8713863492012,0.3627225458622,0.50517654418945,0.41898530721664,-4.16112232208252,-0.12449848651886,0.11731588095427,0.10055647045374,5.93283176422119,6.68939971923828,6.40209531784058,SWING_RIGHT
-0.38775625824928,-0.34301516413689,-0.35739621520042,-0.25619611144066,-0.07936219871044,0.14753912389278,-1.18723726272583,-0.24394555389881,0.6743124127388,-8.12113189697266,-9.41639518737793,-8.4706859588623,-1.95606279373169,-2.21224236488342,-2.3056161403656,9.16739845275879,9.81622695922852,8.99740982055664,-0.59761333465576,-1.21919512748718,-2.07513523101807,0.32277512550354,0.53529536724091,1.14196348190308,1.27352368831635,2.07833099365234,2.39258408546448,-6.91684865951538,-5.46596240997314,-3.58890843391419,-2.17872357368469,-2.31279873847961,-2.70544791221619,8.20014095306396,7.20894145965576,5.00148725509644,-3.20431542396545,-3.59420228004456,-2.05649304389954,1.22185838222504,-1.03064334392548,-4.97691535949707,2.82880973815918,3.78541731834412,4.43149995803833,-2.33913516998291,-2.33913516998291,13.4075298309326,-2.78924489021301,-2.78924489021301,-0.75656771659851,6.51222848892212,6.51222848892212,24.3035411834717,1.28257834911346,3.09086489677429,2.94385838508606,-6.59984588623047,-4.92738056182861,-1.92706334590912,2.6796727180481,-1.63411569595337,-5.77533102035522,13.4075298309326,49.3014030456543,49.5240631103516,-0.75656771659851,4.3143515586853,4.18506479263306,24.3035411834717,20.3483200073242,12.8736228942871,1.9094865322113,0.2705771625042,-1.46154284477234,-0.74408721923828,-1.02478444576263,-0.432497382164,-9.40522003173828,-13.6487007141113,-17.1518230438232,51.2119750976563,54.4202041625977,51.4777297973633,-0.81163436174393,-13.6014595031738,-35.0391426086426,7.16345167160034,4.68784713745117,7.78594398498535,-1.32838475704193,1.17285621166229,2.84159302711487,2.12147426605225,3.74014353752136,1.18510675430298,-17.4527606964111,-17.4527606964111,-17.4527606964111,45.1354904174805,31.2802448272705,23.3171310424805,-57.063404083252,-56.2397994995117,-56.2565574645996,14.6405429840088,15.4856967926025,11.3724584579468,2.60936522483826,1.54516613483429,1.5968314409256,-0.71372717618942,-0.20080235600471,-0.32277512550354,-15.3669719696045,-13.8329916000366,-10.4997787475586,20.6475963592529,6.95036745071411,-13.6517381668091,-54.4537239074707,-54.676383972168,-45.7962913513184,4.48433971405029,6.4164605140686,14.2191638946533,2.67381381988525,2.91722679138184,2.99605631828308,-0.4836300611496,0.2514024078846,0.68336713314056,-2.07353734970093,0.63329970836639,2.31854820251465,-21.0737628936768,-15.4162645339966,-11.0540294647217,-30.5667724609375,-22.6299953460693,-14.7291288375854,15.0379810333252,11.7531356811523,9.66539192199707,3.05677628517151,2.9198899269104,2.07620048522949,0.83836311101913,0.83942836523056,0.29614353179932,3.33694100379944,3.48767590522766,2.00908875465393,-7.23767185211182,-1.78368031978607,-0.11731588095427,-8.33182144165039,-3.80678081512451,3.20104765892029,8.12831497192383,6.07169532775879,4.40533113479614,1.4295848608017,0.52890378236771,-0.34621095657349,-0.20240025222301,-0.15073491632938,0.32543829083443,1.36513638496399,1.00294649600983,1.02265381813049,-0.91458505392075,-2.72220730781555,-4.38617753982544,4.01268196105957,3.61285042762756,3.2968156337738,4.03183555603027,3.73256039619446,4.87220048904419,SWING_RIGHT
0.1384843736887,0.14221280813217,-0.02237055450678,-0.26684874296188,-0.19600865244865,-0.25033715367317,1.18191087245941,1.12438666820526,1.20481407642365,-0.73262572288513,-0.9911994934082,-1.42455005645752,2.01112937927246,2.29603934288025,2.70065951347351,9.51934623718262,8.59757804870605,8.2911205291748,-0.03515372797847,0.19281286001205,0.23276028037071,-0.36645096540451,-0.3371562063694,-0.85540735721588,1.28896999359131,1.1813782453537,0.74834829568863,-0.46208092570305,1.73340201377869,0.65361708402634,2.8012158870697,3.1890766620636,4.4340615272522,10.0173397064209,10.582371711731,9.19612884521484,0.27909928560257,0.8713863492012,0.95660746097565,-2.00536036491394,-2.54012298583984,-2.36914825439453,1.26659941673279,0.91879057884216,-0.3850930929184,0.65361708402634,9.46427917480469,13.1034660339355,4.4340615272522,5.18105268478394,6.33745193481445,9.19612884521484,12.11705493927,8.08282470703125,-1.61813676357269,-2.61256098747253,-0.89215898513794,-2.79898238182068,-2.84585404396057,-2.15662789344788,-1.20161831378937,-1.62772405147552,-6.25150442123413,12.9885444641113,20.0442562103271,45.389274597168,5.20020627975464,3.71101260185242,-5.31033945083618,2.67432332038879,6.62954473495483,18.974048614502,-0.59654808044434,-0.23648871481419,-0.29880666732788,-1.98352241516113,-2.84958243370056,-3.58035373687744,-11.4744958877563,-13.3914394378662,-17.4527606964111,43.1985816955566,44.8769149780273,50.0148735046387,-22.9556064605713,-24.1886196136475,-45.8154449462891,15.4952735900879,20.5566158294678,17.1185417175293,-1.1430287361145,-2.0724720954895,-2.2386531829834,-2.38139867782593,-0.74994617700577,-0.68762820959091,-17.4527606964111,-17.4527606964111,-17.4527606964111,44.2065391540527,30.7654914855957,29.3648834228516,-59.8215255737305,-57.1879005432129,-58.4687995910645,12.56955909729,12.5982894897461,13.7379293441772,-0.37816888093948,1.83704853057861,3.70605492591858,-0.20453077554703,0.71372717618942,0.3531351685524,-14.7326078414917,-11.5448036193848,-8.19401454925537,11.7746839523315,-1.01035308837891,-6.44997930526733,-54.542308807373,-47.3716735839844,-42.5353889465332,18.5885810852051,19.3188133239746,14.9685487747192,3.98728489875793,2.21841311454773,2.25995850563049,-0.49215218424797,0.5629922747612,0.96832537651062,-4.99342727661133,1.14995300769806,3.12335538864136,-12.8472862243652,-16.7642002105713,-10.9127712249756,-35.9393615722656,-27.6266937255859,-14.2526826858521,9.08838939666748,6.41406631469727,9.50498104095459,2.60670208930969,2.76382851600647,1.31719946861267,0.65194183588028,0.216248691082,-0.24714136123657,4.0975399017334,4.06504917144775,2.22693538665771,-5.93043756484985,-0.61291563510895,1.39581954479218,-8.68376922607422,-3.64876341819763,3.64158082008362,8.63588523864746,6.25604915618896,2.54982471466064,-0.05006742849946,-1.30814480781555,-2.08525514602661,-0.01917476020753,0.43462789058685,0.52517539262772,1.44875967502594,1.12811505794525,1.25594675540924,-0.65840548276901,-3.12922167778015,-3.12922167778015,3.65115761756897,2.6934769153595,2.6934769153595,2.53306531906128,4.63517427444458,4.63517427444458,SWING_RIGHT
0.08096009492874,-0.1113201379776,-0.38136467337608,-0.16937704384327,-0.18855181336403,-0.11025486886501,1.16380143165588,1.23410892486572,1.66873681545258,0.40462008118629,-0.01675941236317,-0.33758243918419,1.92254400253296,1.70706582069397,1.31202256679535,8.4132251739502,7.58004236221313,8.50899314880371,-0.5374259352684,-0.43782368302345,0.42397525906563,-0.01970739290118,-0.62637549638748,-1.9393138885498,2.32600498199463,2.62694215774536,1.54889452457428,0.84754741191864,5.84903478622437,17.772159576416,0.99359369277954,1.97282218933105,5.96395635604858,9.71088218688965,12.265495300293,17.3507804870605,1.8407769203186,1.67086732387543,0.25832661986351,-2.49591469764709,-2.2562301158905,-1.75715374946594,-1.4599449634552,-4.13961744308472,-5.64803218841553,26.6833782196045,23.9611701965332,24.7368927001953,6.77319669723511,5.73171901702881,4.55616569519043,17.389087677002,10.6685628890991,7.67341661453247,-1.4295848608017,-2.33026599884033,-2.90284562110901,-1.42425858974457,-0.21198762953281,2.30842804908752,-7.73488521575928,-11.5229654312134,-15.1033191680908,37.730224609375,48.2455596923828,49.5144844055176,1.08936178684235,-8.83699893951416,-24.5716915130615,10.7954559326172,14.30774974823,13.8241205215454,-2.4868597984314,0.15126755833626,3.43068408966064,4.02030801773071,3.6432044506073,2.50816512107849,-16.9915008544922,-17.0458297729492,-16.2591304779053,39.2673034667969,30.8037986755371,32.0942726135254,-35.2474365234375,-35.0798416137695,-37.8595123291016,18.8375797271729,27.8924503326416,27.7057018280029,7.66617584228516,8.68137264251709,7.85206413269043,3.01949214935303,0.82664519548416,-1.37578904628754,-15.9315624237061,-15.7840232849121,-15.0979928970337,40.3351173400879,34.8404235839844,24.806324005127,-48.4155464172363,-52.1505012512207,-53.5558967590332,14.6573028564453,10.936713218689,3.97198057174683,1.32785212993622,-1.53877449035645,-2.04637312889099,-1.18031299114227,0.43462789058685,1.02478444576263,-9.28431224822998,-4.96945858001709,-1.25594675540924,-7.5776481628418,-13.8600339889526,-16.2638130187988,-38.2689208984375,-33.5858612060547,-29.7144374847412,0.21068975329399,6.76361989974976,14.9613666534424,-0.4420847594738,1.92972660064697,3.93189120292664,1.03064334392548,1.16593194007874,1.62293040752411,1.74863159656525,3.51697063446045,3.94041323661804,-13.8193321228027,-7.30470943450928,4.07971954345703,-23.879768371582,-17.9948196411133,-7.09162521362305,20.1998805999756,17.4848556518555,7.02219343185425,3.71777296066284,2.80484127998352,0.56245964765549,1.36833214759827,0.79948097467422,0.19494339823723,2.99392580986023,1.98938131332397,1.11852765083313,6.24407815933228,2.83712911605835,-3.45004463195801,-2.80839848518372,0.88106620311737,4.21379518508911,3.07894349098206,0.61530983448029,2.38462495803833,-0.232227653265,-0.76539248228073,-0.96033591032028,0.14753912389278,0.14860439300537,-0.07989483326674,0.94648748636246,0.77657777070999,0.5310343503952,-3.98155736923218,-3.80678081512451,-3.46680402755737,4.28083276748657,3.82593441009521,2.84910011291504,4.15393972396851,5.57130718231201,7.40526580810547,SWING_RIGHT
-0.06711166352034,0.12357068061829,0.23808661103249,-0.30732879042625,-0.32703620195389,-0.35899412631989,0.95980328321457,1.12385404109955,1.23357629776001,-0.55306059122086,0.02873042039573,0.72783732414246,0.08619125932455,-0.01915361359715,0.10773907601833,10.690110206604,10.8648872375488,10.4913921356201,0.30040457844734,0.57364493608475,0.40906155109406,-0.54221957921982,-0.88310420513153,-0.74248933792114,1.38271331787109,1.80082952976227,1.90256226062775,1.13006317615509,2.9352912902832,4.34787034988403,0.07661445438862,0.20590133965015,0.32800564169884,10.5919485092163,10.350133895874,8.76277828216553,-0.01491370238364,-0.75846827030182,-0.89162635803223,-0.81173151731491,-1.39283323287964,-1.85462546348572,1.74437057971954,1.18936777114868,0.71319454908371,5.71256542205811,7.95832633972168,12.167332649231,0.87867200374603,-0.34955343604088,-0.64404028654099,8.02775859832764,8.59997272491455,10.4411134719849,-0.73556512594223,-0.4261057972908,0.09534116834402,-2.13372468948364,-2.1832594871521,-0.99229383468628,-0.232227653265,-1.87220227718353,-5.58837747573853,18.2438163757324,24.830265045166,31.9937171936035,-0.81402856111526,-1.85311210155487,-5.4946928024292,12.1122665405273,13.6684970855713,12.8448925018311,0.09161274135113,-0.35473304986954,-1.01999068260193,-0.65833342075348,-1.08230865001678,-1.25594675540924,-8.2307653427124,-11.8824920654297,-15.6306257247925,37.696704864502,43.6127777099609,45.3413925170898,-7.55370616912842,-16.0435447692871,-33.0471649169922,11.1114902496338,9.17218685150146,8.34379291534424,-1.57978713512421,-0.85434210300446,0.07190535217524,3.61817073822021,3.99314379692078,1.77473056316376,-17.4527606964111,-17.4527606964111,-16.908411026001,32.7167663574219,22.4600067138672,18.3946514129639,-55.7609558105469,-54.2574005126953,-50.1178245544434,8.82742214202881,5.99986934661865,10.6446208953857,1.4088122844696,1.82746112346649,1.68950939178467,0.57684069871902,1.14728987216949,1.17498672008514,-15.4037237167358,-13.7983703613281,-10.2521047592163,18.9333477020264,14.9350299835205,5.77481460571289,-46.1003532409668,-42.928035736084,-36.0423126220703,11.7244052886963,6.33745193481445,5.28879165649414,1.6223977804184,1.40455114841461,1.80615592002869,0.36005938053131,-0.39681100845337,0.40426784753799,-8.62757682800293,-6.67707777023315,-0.13741911947727,-1.38384854793549,-8.46589756011963,-22.6730899810791,-33.7175407409668,-31.2946109771729,-21.3778266906738,6.05014753341675,7.29752683639526,13.0220632553101,2.56835269927979,2.75157809257507,2.2008364200592,0.53849118947983,0.42663842439651,0.40852892398834,2.50816512107849,3.44826102256775,3.37209463119507,-14.3939409255981,-5.23611927032471,-0.06224924325943,-16.5511169433594,-11.9566431045532,-7.21372985839844,11.1019134521484,6.65827512741089,3.2776620388031,-0.21571604907513,-1.47911965847015,-2.18965101242065,0.19281286001205,0.34194988012314,0.39041942358017,1.85462546348572,1.15794241428375,0.73769563436508,2.0973207950592,0.22505496442318,0.21308395266533,0.33997663855553,1.24019646644592,-0.50517654418945,1.86268889904022,3.41892004013062,6.13394498825073,SWING_RIGHT
0.05326322466135,0.00639158673584,0.19600865244865,-0.45433530211449,-0.05752427875996,0.25566345453262,1.00294649600983,0.88363689184189,0.87298423051834,3.11246228218079,2.61925673484802,2.61925673484802,0.67995327711105,0.73023152351379,0.73023152351379,9.55525875091553,10.9008007049561,10.9008007049561,0.41598576307297,0.34301516413689,0.29241508245468,0.56245964765549,0.49055427312851,0.24288029968739,0.87724530696869,0.76858830451965,0.77338200807571,1.6903064250946,1.20667767524719,0.23942017555237,0.65840548276901,0.92895025014877,1.10133278369904,9.33499240875244,8.67898082733154,8.78193187713623,0.28229507803917,-0.00958738010377,-0.65460503101349,0.13795174658298,0.01331580616534,-0.67644292116165,1.12651717662811,1.68471574783325,1.78644847869873,-0.5243301987648,0.74220252037048,11.417947769165,0.58657944202423,-0.20829555392265,1.14442837238312,8.64785671234131,7.90565395355225,10.0317049026489,-0.3914846777916,0.216248691082,0.95767277479172,-1.10201609134674,-1.99364244937897,-2.77661180496216,0.47297742962837,-1.96754348278046,-4.90927124023438,20.9851779937744,30.5931091308594,39.0925254821777,1.2449848651886,2.70544791221619,5.33906984329224,12.4163303375244,15.3971109390259,17.6835746765137,1.5153386592865,-0.10705907642841,-2.22746801376343,-1.81308007240295,-1.69270527362823,2.70257592201233,-11.0542488098145,-14.9840097427368,-17.4527606964111,52.1241645812988,53.2231025695801,46.9766311645508,-1.27371525764465,-17.5087966918945,-31.6345863342285,9.77552509307861,5.49229860305786,9.8401689529419,1.50362074375153,4.25253582000732,4.71645832061768,2.13905096054077,1.88232231140137,-0.46498793363571,-17.4527606964111,-15.5603179931641,-13.4186038970947,30.3249588012695,27.5931739807129,8.41561889648438,-53.8599624633789,-49.9095268249512,-51.3675956726074,21.02587890625,17.2286758422852,0.63685762882233,0.75580513477325,0.432497382164,1.17392146587372,-0.47990164160728,-0.44687843322754,-0.47830373048782,-6.37827110290527,-2.59498429298401,0.44687843322754,-18.0043964385986,-20.3267726898193,-16.6516723632813,-36.0255546569824,-30.3369293212891,-24.6985855102539,3.84748220443726,10.0795888900757,12.3157739639282,2.02773094177246,2.21148896217346,1.63518095016479,-0.55713331699371,-0.0042610578239,0.23915186524391,2.37980079650879,3.41257476806641,2.97634887695313,-10.6877164840698,-0.84754741191864,0.87148940563202,-18.0834045410156,-6.45476770401001,-2.26491475105286,10.7930612564087,6.01662874221802,5.20499467849731,0.124103307724,-0.70041137933731,-1.26872992515564,-0.3531351685524,-0.08735168725252,-0.00798948295414,1.50894713401794,1.15368139743805,1.22665202617645,0.59376204013824,-2.67432332038879,-3.20344185829163,1.5753847360611,1.49877023696899,0.73501992225647,4.87459468841553,5.42047262191772,7.48906278610229,-1.24848997592926,-0.97897803783417,-0.97524958848953,-0.44954159855843,-0.69401979446411,-0.3211772441864,0.93636745214462,0.59601545333862,0.76219671964645,-1.15879356861115,-1.58017313480377,-3.71340680122375,0.17477671802044,-0.04309562966228,-0.11013327538967,9.86171722412109,10.2543659210205,9.57441234588623,SWING_RIGHT
-0.26045715808868,-0.09534116834402,-0.11877698451281,-0.03834952041507,-0.2290318608284,0.40852892398834,2.86343097686768,2.45170617103577,1.69217264652252,-0.90021985769272,2.40617275238037,2.26012635231018,-0.01197100803256,-0.00478840339929,0.13646949827671,8.48983955383301,9.81143856048584,9.14585018157959,-0.52517539262772,-0.65886604785919,-1.16060566902161,0.67697554826736,0.896952688694,1.25062048435211,1.49137020111084,1.12918031215668,0.81972098350525,1.79325711727142,1.68791222572327,1.09175598621368,1.3407529592514,1.38624274730682,1.68072962760925,8.86333465576172,7.89368295669556,6.28238534927368,-1.96488034725189,-2.64505171775818,-2.99818682670593,1.64636623859406,1.91641080379486,1.81840646266937,0.5629922747612,0.56991648674011,1.10201609134674,0.50996494293213,-1.60411512851715,-4.40054273605347,1.14682257175446,-0.31603461503983,-0.55545479059219,5.80833339691162,6.75164890289307,8.46110916137695,-3.08766913414001,-2.75796961784363,-0.71532505750656,1.06526446342468,-0.2705771625042,-3.0439932346344,1.81148219108582,2.102299451828,2.17793321609497,-3.7541081905365,-1.22343707084656,1.33117616176605,-1.65918183326721,-2.11168599128723,-1.90339040756226,9.7013053894043,12.0643825531006,15.5192155838013,0.36218991875648,1.10521185398102,2.44211888313293,-4.7090015411377,-6.88586950302124,-2.72601175308228,2.40536713600159,2.48899030685425,-3.26716613769531,2.98078107833862,11.3317565917969,45.7962913513184,-1.34314715862274,0.36391866207123,7.70932960510254,15.0451631546021,17.6117477416992,19.3930339813232,1.72892415523529,1.17978036403656,1.11533188819885,0.42663842439651,3.2320122718811,4.60567092895508,-8.65846920013428,-12.7075395584106,-15.2061176300049,54.6069526672363,49.6533508300781,42.928035736084,1.49398183822632,-7.67820501327515,-14.2359237670898,16.8839111328125,15.128960609436,10.3740758895874,1.51640391349792,2.09004878997803,2.73986029624939,3.35505032539368,2.5688853263855,1.8796591758728,-17.3989639282227,-16.7656650543213,-14.8396663665771,31.9745635986328,26.750415802002,17.2645893096924,-35.1325149536133,-41.5058822631836,-37.2896919250488,6.13394498825073,5.1978120803833,3.76607918739319,2.84052777290344,2.47301149368286,1.35501635074615,1.1941614151001,1.00667488574982,-0.67005133628845,-12.7703905105591,-11.3999271392822,-8.24834251403809,16.0555171966553,13.6421613693237,-10.9127712249756,-36.0542831420898,-35.2043418884277,-37.6200904846191,1.53707754611969,-0.40222588181496,3.82593441009521,1.23836994171143,1.16273617744446,1.2671320438385,-0.71159666776657,-0.37017938494682,-0.13315805792809,-3.78754782676697,0.60080915689468,2.95344567298889,-26.4463520050049,-22.5438022613525,-11.9590377807617,-35.1564559936523,-30.6002922058105,-23.7409038543701,6.93600225448608,7.24485445022583,7.24006605148315,1.33850479125977,1.09775507450104,0.59654808044434,-0.43729105591774,-0.60879862308502,-0.10279802232981,4.05173349380493,4.48103475570679,4.25519895553589,-6.48110389709473,-2.36068296432495,1.80283391475677,-15.5838584899902,-8.83460426330566,-4.43645572662354,6.43321990966797,5.43962621688843,5.05415964126587,SWING_RIGHT
1.18031299114227,0.75900089740753,-1.82053697109222,-0.33342778682709,-0.31904670596123,1.06313395500183,0.08202536404133,0.68816083669662,0.83250415325165,-3.55299520492554,-3.95522117614746,-1.55144274234772,-0.00239420169964,0.42616790533066,0.6033388376236,9.32062721252441,5.44680881500244,6.07408952713013,-1.89297497272491,-1.15048563480377,0.11078750342131,0.88044106960297,0.62104916572571,-0.03941478580236,1.02105593681335,1.33797216415405,1.71401047706604,-2.09971499443054,-2.41096115112305,0.61770403385162,-0.05027823522687,-0.73741412162781,1.09654438495636,11.8058090209961,14.3340854644775,12.392388343811,0.15552860498428,-0.06391586363316,-0.09161274135113,-0.51505535840988,-1.35448372364044,-2.2519690990448,1.85728859901428,2.80910229682922,4.16465139389038,0.24420857429504,-0.70868372917175,2.70544791221619,1.55623114109039,1.73579621315002,0.46447512507439,10.3668937683105,10.5775833129883,11.9303073883057,0.3467435836792,0.04048004746437,-0.78509992361069,-3.02002477645874,-2.7095000743866,-2.09963631629944,4.38835716247559,0.13156016170979,-2.07300472259521,14.1090307235718,29.6976776123047,32.3791847229004,0.18435353040695,1.07020819187164,-1.95366859436035,12.5360403060913,8.1139497756958,9.29668521881104,-0.92837798595428,-0.43942159414291,-0.78296935558319,-1.62878930568695,-1.26500153541565,-1.55581879615784,-4.62963914871216,-8.14501190185547,-17.2833824157715,39.0087280273438,46.3158302307129,54.2550048828125,-4.4029369354248,-8.21929454803467,-40.8402938842773,13.0483989715576,15.552734375,8.9064302444458,-1.86368012428284,-1.74117469787598,0.00745685119182,0.480434268713,4.70474052429199,5.14948844909668,-17.4527606964111,-17.4527606964111,-17.4527606964111,43.6055946350098,35.0966033935547,20.6092891693115,-53.675609588623,-57.1855087280273,-63.5828132629395,11.729193687439,4.70700073242188,8.48026275634766,2.78513383865356,3.79074358940125,3.50525259971619,3.95799016952515,3.68688035011292,2.54438424110413,-15.6540613174438,-13.6582880020142,-11.0973920822144,13.3979530334473,6.80910968780518,-2.782062292099,-56.9245414733887,-54.8631324768066,-44.42919921875,11.5137157440186,2.34392356872559,1.26653265953064,3.21177244186401,2.8213529586792,2.47301149368286,0.98483699560165,0.24554345011711,-0.18748654425144,-8.46618938446045,-6.21155691146851,-3.39339995384216,-6.18182897567749,-8.88967132568359,-17.6021709442139,-37.5961494445801,-33.2123641967773,-26.5947933197021,2.33913516998291,1.83635270595551,2.9161376953125,2.27966594696045,2.17793321609497,1.50788187980652,-0.68123662471771,-0.5054680109024,-0.16990968585014,0.01864212751389,2.47620725631714,3.33001661300659,-19.9676418304443,-12.4402723312378,-0.70389527082443,-19.8192024230957,-14.3101434707642,-4.42927312850952,4.3646297454834,4.41011953353882,3.33991146087646,1.17019295692444,0.87831056118011,0.05645901709795,-0.61199444532394,-0.59068912267685,-0.4261057972908,2.78300333023071,2.13425731658936,1.31666684150696,0.72783732414246,-0.44292730093002,-3.9384617805481,-1.80762231349945,-0.44771572947502,1.2258312702179,4.30956315994263,4.66390514373779,6.01184034347534,SWING_RIGHT
0.01651159860194,-0.00639158673584,-0.00372842559591,0.07616640627384,-0.06551376730204,0.02982740476727,0.23755396902561,0.33928671479225,0.39574575424194,-1.33357036113739,-1.1372457742691,-0.74459671974182,0.91937345266342,0.91937345266342,0.83318221569061,9.39484786987305,9.63426780700684,10.172963142395,-0.08894958347082,-0.29880666732788,-0.40959417819977,0.54861122369766,0.82557994127274,0.68230187892914,0.55287224054337,0.9763149023056,1.59416830539703,-1.12048637866974,-1.12048637866974,-1.95127439498901,0.43335050344467,0.43335050344467,1.36469495296478,9.62708473205566,9.62708473205566,10.350133895874,-0.30040457844734,0.05592638254166,0.79042625427246,0.140082269907,-0.89162635803223,-2.31801557540894,2.15929102897644,2.56196093559265,2.32866811752319,-0.43335050344467,3.82832860946655,10.9869918823242,2.87064790725708,3.52426481246948,3.47159242630005,11.2982378005981,12.5504055023193,13.7355356216431,1.33797216415405,0.61305969953537,-0.38402783870697,-6.12899923324585,-5.72366571426392,-3.06849431991577,0.16777914762497,-1.38537645339966,-3.69913077354431,24.5262031555176,33.8899269104004,44.7572059631348,3.50750541687012,2.61207413673401,-0.90740245580673,10.2328176498413,10.0412817001343,9.39724159240723,-1.37898480892181,-1.47858703136444,-1.53504610061646,-0.248206615448,0.25513082742691,1.0018812417984,-7.17615413665771,-14.4678888320923,-17.4527606964111,49.7778472900391,53.4529457092285,51.1880340576172,-9.00698661804199,-30.2196140289307,-47.4075889587402,9.41400146484375,13.1681089401245,9.97185039520264,-1.73425054550171,0.08202536404133,2.71429371833801,3.9254994392395,4.6147255897522,3.30924391746521,-17.4527606964111,-17.4527606964111,-15.7254343032837,42.3534278869629,25.4264221191406,26.9443454742432,-58.164737701416,-54.2406387329102,-52.7777824401855,4.07014274597168,11.77707862854,13.4985094070435,4.02936267852783,4.44375085830688,2.25569748878479,2.83040761947632,1.8967033624649,-0.43995422124863,-14.4433879852295,-13.7259321212769,-10.5024423599243,26.7815399169922,20.2286109924316,-5.33906984329224,-53.675609588623,-54.8870735168457,-45.8274154663086,6.64390993118286,4.47715711593628,-0.11492168158293,0.9353021979332,1.26926255226135,2.63599681854248,-0.11504855751991,0.30040457844734,0.95341169834137,-7.04992008209229,-2.4016387462616,1.85249483585358,-18.9357414245605,-27.459098815918,-21.4281044006348,-38.7453651428223,-30.5117073059082,-23.2189674377441,5.72932481765747,12.801796913147,13.2662715911865,3.93721747398376,3.43707585334778,2.27487230300903,1.75715374946594,1.06419920921326,0.01331580616534,4.39528131484985,4.06771230697632,2.97155523300171,-2.17154097557068,-2.17154097557068,4.71897172927856,-10.0221281051636,-10.0221281051636,-1.92014980316162,4.23534297943115,4.23534297943115,-1.38384854793549,0.75846827030182,-1.40774703025818,-1.84237492084503,-0.26525086164474,-0.00159789668396,-0.01704423129559,1.88019180297852,0.20293287932873,-0.02929477207363,4.71897172927856,-1.51074123382568,-4.01507616043091,-1.92014980316162,0.17717093229294,-1.34314715862274,-1.38384854793549,4.37181234359741,6.5361704826355,SWING_RIGHT
-0.45380264520645,-0.47137951850891,-0.55606806278229,-0.47883638739586,-0.46605318784714,-0.38882151246071,1.81521058082581,1.96115183830261,2.19977116584778,0.59615623950958,1.20667767524719,2.18351197242737,-1.06302559375763,-0.82599955797195,-0.70150107145309,9.46188545227051,9.74200630187988,9.35654067993164,-0.96299904584885,-1.82959175109863,-2.91190028190613,0.11877698451281,0.54168695211411,-0.78509992361069,2.28818798065186,2.24238157272339,1.64583361148834,4.25689077377319,5.70298862457275,8.39646530151367,-1.31441676616669,-2.22181916236877,-4.39096593856812,7.80509757995605,6.72052431106567,12.801796913147,-1.87273490428925,0.01065264455974,1.53611135482788,-2.00109934806824,-2.28286170959473,-1.48710918426514,1.01999068260193,-0.48149952292442,-2.53799247741699,13.2040224075317,20.9779949188232,23.8390655517578,-4.74291372299194,-4.20182418823242,-5.16908168792725,18.8208198547363,22.1535491943359,19.4744358062744,1.9989687204361,0.97045594453812,-0.29614353179932,-0.73822826147079,-0.79788309335709,-1.2245215177536,-3.71670770645142,-5.66986989974976,-8.56153011322021,21.3490962982178,30.5931091308594,30.5931091308594,-7.35977602005005,-10.5177278518677,-10.5177278518677,14.1233959197998,8.52814674377441,8.52814674377441,-0.55500280857086,0.01597896590829,-0.10066749155521,0.82078623771667,2.70896744728088,2.72974014282227,-13.9933137893677,-16.0466117858887,-17.4527606964111,38.3120155334473,35.3719367980957,35.0846328735352,-28.364107131958,-44.1371078491211,-56.6587829589844,13.0148801803589,7.35738182067871,3.28005623817444,0.46658584475517,3.14732384681702,3.31670093536377,2.13638782501221,2.07087421417236,1.11479926109314,-17.4527606964111,-14.8774833679199,-13.9469747543335,30.150182723999,15.1169891357422,23.7528743743896,-63.8701171875,-48.0181083679199,-44.5106048583984,7.37892961502075,9.76355457305908,4.12760353088379,2.36328911781311,1.113201379776,0.4996090233326,0.18961706757545,0.03089267015457,0.33342778682709,-13.8303279876709,-13.1070137023926,-11.6795597076416,22.7856178283691,15.7610301971436,7.19936466217041,-44.0102157592773,-42.1642875671387,-38.9967575073242,0.30406361818314,1.16118776798248,5.38695383071899,0.07669904083014,0.89642006158829,2.53905773162842,-0.59974390268326,-1.23410892486572,-1.40561640262604,-8.18762302398682,-6.94445896148682,-4.89968395233154,-1.89860188961029,-5.44920301437378,-12.5575876235962,-33.1070213317871,-30.4686107635498,-27.459098815918,13.0938892364502,18.6675910949707,20.1017169952393,5.98572111129761,5.40302133560181,4.05652713775635,1.76940429210663,2.01388239860535,1.30228579044342,0.62531024217606,2.07460260391235,2.53532934188843,-13.9366483688354,-13.9366483688354,-4.86262369155884,-17.6548442840576,-17.6548442840576,-5.76523780822754,11.9374895095825,11.9374895095825,1.14921677112579,2.50283885002136,-1.16699719429016,-2.72920751571655,0.40693101286888,0.13102753460407,0.71159666776657,2.24344682693481,0.82238417863846,0.60347229242325,-1.73579621315002,-1.28808057308197,-3.68946480751038,-1.50595283508301,0.67516487836838,-1.05105459690094,-0.68234747648239,-0.51954174041748,2.93768548965454,SWING_RIGHT
-0.05965480953455,0.00692421896383,-0.36858150362968,0.52624064683914,0.55127435922623,1.07911288738251,2.5944516658783,2.15023636817932,1.70016205310822,1.43652105331421,3.45722723007202,2.47560453414917,-0.58657944202423,-0.85233581066132,-1.43652105331421,10.3022499084473,8.80826759338379,7.44357299804688,-0.84368944168091,-1.27725207805634,-1.57339560985565,1.50362074375153,1.30175316333771,0.69401979446411,1.72306525707245,2.29724287986755,3.39446520805359,-0.9720458984375,-3.46919822692871,0.59855043888092,-1.80043971538544,-1.50355863571167,-2.43729734420776,7.40526580810547,7.88650035858154,11.1114902496338,-1.19735729694366,-0.58696073293686,0.62797337770462,0.37390783429146,-0.85593998432159,-3.11589860916138,3.62616014480591,4.11511659622192,6.24671077728271,2.05661916732788,2.16435837745667,5.52821159362793,-2.42293214797974,-1.68072962760925,-2.77248549461365,12.6605386734009,13.9198884963989,9.52892303466797,0.54541540145874,0.01438106968999,-1.48231554031372,-4.0709080696106,-3.91111850738525,-1.89883387088776,6.69571971893311,5.30554962158203,-0.77338200807571,14.2885961532593,27.6434535980225,47.9031867980957,-2.68150591850281,-0.53390699625015,-3.13161587715149,5.80115079879761,5.0685248374939,9.50976943969727,-0.26631611585617,-0.02663161233068,-1.53131771087646,-1.43970489501953,-2.34464716911316,-3.29699349403381,-8.50347328186035,-12.6526784896851,-16.8343734741211,55.5454788208008,55.5454788208008,59.3762016296387,-11.5592060089111,-11.5592060089111,-45.899242401123,15.6101951599121,15.6101951599121,3.8379054069519,-3.95852279663086,-2.76436138153076,-0.78190410137177,1.71827161312103,3.8914110660553,2.84851717948914,-17.4527606964111,-17.4527606964111,-17.4527606964111,50.0268440246582,33.1285705566406,26.508602142334,-78.4508056640625,-78.1299819946289,-67.1214447021484,11.0276927947998,11.7267999649048,13.2040224075317,2.63226842880249,2.14757323265076,1.7853832244873,1.61067986488342,0.42344263195992,-0.4261057972908,-14.82102394104,-14.1813335418701,-12.7837057113647,30.858865737915,16.7426528930664,16.7426528930664,-55.2126846313477,-50.9605827331543,-50.9605827331543,7.53934097290039,3.27047944068909,3.27047944068909,1.34542906284332,1.3912353515625,2.20935845375061,-1.33264589309692,-0.98856544494629,-0.48149952292442,-7.20118761062622,-3.47382736206055,0.08735168725252,-7.88889455795288,-20.918140411377,-18.3539505004883,-39.8802185058594,-29.958646774292,-24.2125625610352,8.20253467559814,12.8233442306519,14.2814130783081,3.21443557739258,2.9321403503418,1.94250977039337,-0.33023199439049,-0.31052458286285,-0.33129724860191,2.42986822128296,3.78275418281555,3.38487792015076,-10.7858781814575,-1.78607451915741,0.21308395266533,-19.0099620819092,-9.01656341552734,-5.07570743560791,11.566388130188,3.76607918739319,2.59052634239197,0.78456729650497,-0.38562572002411,-1.34170055389404,-0.62264704704285,-1.04182863235474,-1.00241386890411,2.49058818817139,1.60162508487701,0.94329166412354,0.4525041282177,-0.35673606395721,-1.47003984451294,-1.57299053668976,-0.62728083133698,-1.74776721000671,2.72220730781555,3.71101260185242,5.70298862457275,SWING_RIGHT
-0.4452805519104,-0.17310547828674,-0.04474110901356,-0.62051653862,-0.68230187892914,-0.80320942401886,1.26127314567566,1.27938258647919,1.15794241428375,-0.53869539499283,-0.07422025501728,0.97922849655151,0.3687070608139,-0.03112462162971,-0.22505496442318,8.95431423187256,9.4235782623291,8.6095495223999,-0.20612867176533,-0.38669100403786,-0.30146983265877,-1.03543710708618,-0.87831056118011,-0.58962386846542,1.02851283550262,1.44662916660309,1.55049240589142,0.3256114423275,1.47243404388428,3.56496644020081,0.38067805767059,0.85473001003265,1.33596456050873,8.19774627685547,10.2064819335938,10.4315366744995,-0.30573090910912,-0.25353294610977,-0.97205382585526,-0.59548282623291,-0.70786821842194,-0.85487473011017,1.48710918426514,1.17764985561371,-0.43942159414291,5.45159721374512,10.3740758895874,23.3482551574707,1.8866308927536,3.03105926513672,4.22097778320313,10.4004125595093,10.4961805343628,11.5041389465332,-1.03916549682617,-0.27909928560257,0.27004453539848,-0.23595607280731,0.79788309335709,0.04900216311216,-2.04104661941528,-4.23442602157593,-9.79084587097168,23.3482551574707,34.3232765197754,42.2504768371582,4.22097778320313,-0.6033388376236,-12.4857616424561,11.5041389465332,18.6221008300781,13.6134309768677,-0.51771855354309,-0.65993130207062,3.74333930015564,0.01917476020753,1.56487345695496,2.81922245025635,-12.6979522705078,-15.3078498840332,-16.6127986907959,46.2871017456055,46.5097618103027,37.9169731140137,-26.1015872955322,-41.5992546081543,-53.440975189209,13.4482307434082,18.3635272979736,24.8805446624756,5.47226333618164,6.22753620147705,7.02701711654663,1.47166287899017,2.15662789344788,2.82241821289063,-16.7347717285156,-16.7587394714355,-15.9960107803345,38.1539993286133,35.101390838623,32.6209983825684,-58.0569953918457,-59.2612800598145,-60.1208000183105,22.4576110839844,21.5933055877686,19.5606269836426,7.4669713973999,5.75296068191528,4.04800510406494,1.28790473937988,-0.06817692518234,0.85061365365982,-15.6242341995239,-14.0135536193848,-10.8081731796265,29.846118927002,5.94959115982056,-11.0827598571777,-64.1574249267578,-62.1534767150879,-53.682788848877,16.3212738037109,9.88326454162598,7.42441940307617,3.01363325119019,3.03760170936584,3.71564245223999,1.85888648033142,1.73052215576172,0.69455242156982,-6.39478254318237,-2.40536713600159,2.03199195861816,-22.345085144043,-22.1415767669678,-9.04050540924072,-41.7453002929688,-32.7861976623535,-18.3659210205078,10.6278610229492,11.0252990722656,5.08528423309326,3.78701519966125,3.69273924827576,3.88235640525818,0.51505535840988,0.31638354063034,-0.51984906196594,2.59072303771973,2.3371901512146,1.23677206039429,-4.42448472976685,-0.70389527082443,1.70946002006531,-12.1697273254395,-6.80910968780518,-2.15478157997131,2.41335535049438,1.6711528301239,2.51151752471924,3.21496820449829,1.85089695453644,0.52837115526199,-1.45834708213806,-1.63731145858765,-1.29642689228058,-0.78456729650497,-0.80693781375885,-0.5182511806488,-3.72537779808044,-6.81150388717651,-8.16183376312256,2.68150591850281,4.19224739074707,4.40533113479614,-2.2864625453949,-2.25054955482483,0.6033388376236,SWING_RIGHT
-0.02450108155608,-0.05645901709795,-0.30200245976448,0.15393070876598,0.22636869549751,0.47670584917068,1.32199323177338,1.38803958892822,1.41467118263245,-1.80283391475677,-1.25456166267395,-1.86508309841156,-0.23942017555237,-0.3447650372982,-1.19231247901917,9.61750793457031,8.81066226959229,7.96311473846436,-0.32224249839783,-0.48629322648048,-0.83996105194092,0.40266996622086,0.32597091794014,0.26365295052528,1.733717918396,2.165682554245,2.45490193367004,-1.86508309841156,-2.41335535049438,-1.24019646644592,-1.19231247901917,-1.63045132160187,-1.83156430721283,7.96311473846436,6.17704057693481,5.17387008666992,-1.73691368103027,-1.6953684091568,-1.04608964920044,-0.78509992361069,-1.60428822040558,-1.89297497272491,3.18301010131836,3.70339179039001,3.52709054946899,-0.61530983448029,2.9161376953125,10.2998561859131,-1.68551802635193,-0.91458505392075,0.34237083792686,5.3175220489502,11.3556985855103,15.7514533996582,0.81332939863205,1.35981011390686,1.11479926109314,-2.58805990219116,-3.01096987724304,-2.36541962623596,0.61838603019714,-2.55503678321838,-4.16837978363037,22.2205867767334,28.8644962310791,34.8978843688965,4.93684387207031,4.85783529281616,4.53701210021973,18.9022216796875,16.5630874633789,14.5615348815918,0.18695391714573,-0.324373036623,-0.64395236968994,-1.0444917678833,-0.70893347263336,-0.26578348875046,-9.44250392913818,-12.6137962341309,-15.1730947494507,47.5512390136719,50.453010559082,47.017333984375,-5.216965675354,-19.0554504394531,-30.1860942840576,8.78672027587891,6.66306352615356,7.7069354057312,-2.48153352737427,-3.44719576835632,-1.77313268184662,-0.23116238415241,1.51959979534149,2.87994241714478,-17.4527606964111,-17.4527606964111,-16.3331680297852,50.797779083252,50.797779083252,30.2579212188721,-52.5503349304199,-52.5503349304199,-48.8488960266113,0.34955343604088,0.34955343604088,16.6420955657959,1.44396591186523,3.6820867061615,2.20509743690491,2.2173478603363,-0.680703997612,-1.40987753868103,-14.6654958724976,-13.5602836608887,-12.6931581497192,30.2579212188721,27.8804779052734,18.1025581359863,-48.8488960266113,-41.9655685424805,-40.742130279541,16.6420955657959,6.26562595367432,5.35104084014893,0.81705784797668,0.356330960989,1.62612617015839,-1.56167769432068,-1.19735729694366,-0.51771855354309,-11.0558471679688,-8.51093006134033,-5.73165559768677,7.10838460922241,-0.52911859750748,-0.52911859750748,-37.4381332397461,-37.8068389892578,-37.8068389892578,10.251971244812,16.3476085662842,16.3476085662842,3.82536458969116,5.1585431098938,5.30714750289917,0.49534797668457,1.76993691921234,2.48046827316284,-2.75530648231506,-0.38722363114357,0.92411690950394,-11.5831480026245,-7.5273699760437,-3.49792861938477,-31.5460014343262,-25.0194072723389,-17.9086284637451,24.1383419036865,16.6971626281738,9.53849983215332,4.79848384857178,3.89886784553528,2.68926000595093,2.6328010559082,2.28978586196899,1.48391342163086,1.53504610061646,1.65275776386261,1.29110050201416,-1.1372457742691,0.02633621916175,0.61052143573761,-10.9869918823242,-5.24569606781006,-0.59855043888092,4.97754526138306,1.94648599624634,0.25857377052307,SWING_RIGHT
