gyro_x_0,gyro_y_0,gyro_z_0,acc_x_0,acc_y_0,acc_z_0,gyro_x_1,gyro_y_1,gyro_z_1,acc_x_1,acc_y_1,acc_z_1,gyro_x_2,gyro_y_2,gyro_z_2,acc_x_2,acc_y_2,acc_z_2,gyro_x_3,gyro_y_3,gyro_z_3,acc_x_3,acc_y_3,acc_z_3,gyro_x_4,gyro_y_4,gyro_z_4,acc_x_4,acc_y_4,acc_z_4,gyro_x_5,gyro_y_5,gyro_z_5,acc_x_5,acc_y_5,acc_z_5,gyro_x_6,gyro_y_6,gyro_z_6,acc_x_6,acc_y_6,acc_z_6,gyro_x_7,gyro_y_7,gyro_z_7,acc_x_7,acc_y_7,acc_z_7,gyro_x_8,gyro_y_8,gyro_z_8,acc_x_8,acc_y_8,acc_z_8,gyro_x_9,gyro_y_9,gyro_z_9,acc_x_9,acc_y_9,acc_z_9,gyro_x_10,gyro_y_10,gyro_z_10,acc_x_10,acc_y_10,acc_z_10,gyro_x_11,gyro_y_11,gyro_z_11,acc_x_11,acc_y_11,acc_z_11,gyro_x_12,gyro_y_12,gyro_z_12,acc_x_12,acc_y_12,acc_z_12,gyro_x_13,gyro_y_13,gyro_z_13,acc_x_13,acc_y_13,acc_z_13,gyro_x_14,gyro_y_14,gyro_z_14,acc_x_14,acc_y_14,acc_z_14,gyro_x_15,gyro_y_15,gyro_z_15,acc_x_15,acc_y_15,acc_z_15,gyro_x_16,gyro_y_16,gyro_z_16,acc_x_16,acc_y_16,acc_z_16,gyro_x_17,gyro_y_17,gyro_z_17,acc_x_17,acc_y_17,acc_z_17,gyro_x_18,gyro_y_18,gyro_z_18,acc_x_18,acc_y_18,acc_z_18,gyro_x_19,gyro_y_19,gyro_z_19,acc_x_19,acc_y_19,acc_z_19,gyro_x_20,gyro_y_20,gyro_z_20,acc_x_20,acc_y_20,acc_z_20,gyro_x_21,gyro_y_21,gyro_z_21,acc_x_21,acc_y_21,acc_z_21,gyro_x_22,gyro_y_22,gyro_z_22,acc_x_22,acc_y_22,acc_z_22,gyro_x_23,gyro_y_23,gyro_z_23,acc_x_23,acc_y_23,acc_z_23,gyro_x_24,gyro_y_24,gyro_z_24,acc_x_24,acc_y_24,acc_z_24,gyro_x_25,gyro_y_25,gyro_z_25,acc_x_25,acc_y_25,acc_z_25,gyro_x_26,gyro_y_26,gyro_z_26,acc_x_26,acc_y_26,acc_z_26,gyro_x_27,gyro_y_27,gyro_z_27,acc_x_27,acc_y_27,acc_z_27,gyro_x_28,gyro_y_28,gyro_z_28,acc_x_28,acc_y_28,acc_z_28,gyro_x_29,gyro_y_29,gyro_z_29,acc_x_29,acc_y_29,acc_z_29,motion_type
0.16967499256134,-0.18369999527931,-0.39008748531342,0.0472999997437,0.47519999742508,0.61668747663498,0.33921250700951,0.27004998922348,0.20941250026226,0.23400001227856,0.02295000106096,-0.550950050354,4.73895025253296,4.61205005645752,4.19505023956299,7.5400505065918,7.58100032806396,8.19900035858154,-0.36877501010895,-0.45292499661446,-0.61888748407364,0.49004998803139,0.20061250030994,0.14946250617504,0.21889999508858,0.35089999437332,0.41690000891685,-0.87600004673004,-1.16400003433228,-1.03200006484985,3.99405026435852,3.89595007896423,3.99900007247925,8.14095020294189,7.62405014038086,8.11005020141602,-0.68062502145767,-0.47093749046326,-0.62314999103546,0.03671250119805,0.01649999991059,0.12608750164509,0.41799998283386,0.66907501220703,0.85318750143051,-1.37505006790161,-1.66695010662079,-0.9700500369072,3.54900026321411,3.07005023956299,3.27105021476746,9.69495010375977,9.5779504776001,8.84295082092285,-0.9285374879837,-1.24574995040894,-1.30322504043579,0.09844999760389,-0.40177500247955,-1.48087501525879,1.01598751544952,1.32467496395111,1.79932498931885,-0.24705001711845,1.23705005645752,5.49105024337769,2.99295020103455,2.24595022201538,1.90605008602142,8.21295070648193,8.94600009918213,10.9240503311157,-1.02231252193451,-0.81262499094009,-1.1339625120163,-2.37269997596741,-2.37159991264343,-1.74473750591278,1.97491252422333,1.23103749752045,-0.26001250743866,12.4819507598877,18.2470512390137,20.131950378418,3.52995014190674,6.01995038986206,5.87700033187866,12.1669502258301,11.2500009536743,11.7259502410889,-0.69877499341965,0.56663751602173,1.27215003967285,-0.89017498493195,-0.65284997224808,-0.37083750963211,-2.74917507171631,-4.03369998931885,-5.42781257629395,22.8090019226074,23.4580516815186,21.5610008239746,0.82605004310608,-1.80795013904572,-3.63105010986328,19.1290512084961,16.6789512634277,12.9859504699707,0.862399995327,0.58038747310638,0.40479999780655,0.69437497854233,1.32219994068146,1.69042503833771,-7.56896257400513,-8.28726291656494,-8.9832878112793,15.9360008239746,13.7389507293701,13.7389507293701,-9.52995014190674,-11.5699501037598,-13.2150001525879,8.824049949646,7.58100032806396,6.16305017471313,0.24736249446869,-0.04317500069737,-0.18796250224113,1.91606247425079,1.86504995822906,0.74648749828339,-9.94537448883057,-10.0879621505737,-9.0131254196167,12.0649509429932,-2.59605002403259,-4.27500009536743,-17.1529502868652,-21.5740509033203,-19.4520015716553,4.26405000686646,1.71000003814697,1.26300001144409,-0.50613749027252,-0.61998748779297,-0.5625125169754,-0.35488748550415,-0.79970002174377,-0.69437497854233,-8.04883766174316,-7.28474998474121,-6.5610876083374,-4.42605018615723,-5.23095035552979,-7.63995027542114,-18.1249504089355,-16.6189498901367,-16.1370010375977,4.19895029067993,6.7350001335144,8.05005073547363,-0.34430000185966,0.40479999780655,0.93486249446869,-0.4507249891758,-1.25950002670288,-1.52446246147156,-5.5980372428894,-3.44932508468628,-2.29157495498657,-9.24000072479248,-12.1740007400513,-12.76305103302,-15.586950302124,-12.9040508270264,-11.2849502563477,7.92495059967041,10.4590501785278,11.7049503326416,SWING_RIGHT
0.08456250280142,0.02598750032485,-0.30717501044273,-0.09418749809265,0.0622874982655,0.12828749418259,1.07140004634857,1.08198750019073,1.37995004653931,0.34605002403259,0.41100001335144,-1.46805012226105,1.56300008296967,1.90095007419586,2.10405015945435,9.69105052947998,9.3390007019043,9.36705017089844,-0.42734998464584,-0.51892501115799,-0.58272498846054,0.02186249941587,-0.33261248469353,-0.95837497711182,1.7939624786377,2.17703747749329,2.3069748878479,-1.00800001621246,1.40700006484985,4.84200000762939,2.10195016860962,2.33400011062622,3.36705017089844,9.48000049591064,9.55905055999756,11.1180009841919,-0.60403752326965,-0.27197501063347,-0.06875000149012,-1.15527498722076,-1.6053124666214,-1.86821246147156,2.12698745727539,2.30793738365173,2.16645002365112,5.72295045852661,9.04305076599121,15.282000541687,2.99295020103455,2.65500020980835,4.70100021362305,12.1099510192871,12.9210004806519,13.9540510177612,0.06641250103712,0.4974749982357,1.06040000915527,-1.34571254253387,-0.75185000896454,-0.83063751459122,1.26719999313354,-0.19181250035763,-1.68918752670288,19.8870010375977,21.6979503631592,24.070951461792,6.15405035018921,6.17100048065186,5.31105041503906,15.538950920105,15.0510005950928,13.5270004272461,1.42862498760223,0.98903751373291,0.54532498121262,-1.0008624792099,-0.61036247014999,-0.42088750004768,-3.2386748790741,-6.08217477798462,-7.46363735198975,25.498950958252,27.3220520019531,27.6979503631592,3.08895015716553,-3.26700019836426,-7.00500011444092,12.0229501724243,8.3929500579834,9.92805004119873,0.53680002689362,0.22178749740124,-0.21023750305176,-0.09212499856949,0.42721250653267,0.96579998731613,-8.82901287078857,-10.4710378646851,-10.5742998123169,26.0670013427734,19.2670516967773,15.5209503173828,-12.576000213623,-22.6330509185791,-24.4960517883301,9.19995021820068,4.9680004119873,4.57500028610229,-0.44123750925064,-0.32518750429153,0.44206249713898,1.45529997348785,1.56708753108978,0.83586251735687,-10.449725151062,-10.4656753540039,-10.3252878189087,13.4209508895874,12.1390504837036,5.17695045471191,-24.4000511169434,-23.5950012207031,-24.855001449585,4.48605012893677,4.58205032348633,4.27500009536743,0.52607500553131,0.41868749260902,-0.26881250739098,0.72421246767044,0.67526251077652,-0.03781250119209,-9.99748706817627,-8.96513748168945,-4.75626230239868,-0.58905005455017,-8.7180004119873,-15.7950010299683,-25.0710010528564,-23.4900016784668,-17.6059513092041,3.70095014572144,4.31400012969971,4.15095043182373,-0.78278750181198,-0.92014998197556,0.1387374997139,-0.41978749632835,-0.49651250243187,-0.81784999370575,-2.78533744812012,-1.41143751144409,-0.19085000455379,-14.1880502700806,-11.3190002441406,-8.37795066833496,-15.586950302124,-13.7449502944946,-10.2240009307861,6.47895050048828,9.07695007324219,10.407000541687,0.75075000524521,1.12310004234314,1.27531254291534,-1.29882502555847,-1.68093752861023,-1.75119996070862,0.1891999989748,0.58822500705719,1.03097498416901,-7.89405059814453,-7.52295017242432,-5.91795015335083,-8.27505016326904,-6.21495008468628,-4.47600030899048,10.1239500045776,10.2940502166748,10.0860004425049,SWING_RIGHT
-0.15702499449253,-0.47519999742508,-0.45608749985695,-0.50819998979568,-1.40002501010895,-1.40855002403259,0.87449997663498,1.28631246089935,1.70568752288818,-2.4210000038147,-2.19105005264282,-0.79695004224777,0.13605000078678,0.58799999952316,1.07205009460449,7.63995027542114,9.91605091094971,10.9069509506226,-0.34430000185966,0.26441249251366,0.47079998254776,-1.08927500247955,-0.48262500762939,-0.73383748531342,2.11323738098145,1.98440003395081,0.99893748760223,1.98495006561279,12.1350002288818,15.7080011367798,1.78605008125305,5.61300039291382,6.89205026626587,12.046950340271,12.4069509506226,12.1260004043579,0.67622500658035,0.72407501935959,0.77206248044968,-1.32013750076294,-1.10948753356934,-0.85717499256134,-1.34433746337891,-3.98681259155273,-4.92016267776489,20.248950958252,21.0439510345459,18.8809509277344,6.56400012969971,2.05695009231567,-0.38505002856255,13.6450510025024,13.3360509872437,13.4170503616333,0.96566247940063,0.92317497730255,0.53570002317429,-0.66563749313354,-0.56457501649857,-0.46983748674393,-5.49903726577759,-5.84388732910156,-6.45039987564087,17.0520000457764,18.5170516967773,24.9649505615234,-2.54805016517639,-3.74805021286011,-4.54995012283325,11.4270009994507,9.17295074462891,8.39700031280518,-0.14533749222755,-0.57846248149872,-0.20597499608994,0.09624999761581,1.23708748817444,2.04696249961853,-7.93182516098022,-9.67175006866455,-10.8839502334595,27.7810516357422,24.3250503540039,22.6459503173828,-9.0100507736206,-14.9419507980347,-19.6200008392334,9.54495048522949,11.3839502334595,10.8469505310059,1.66705000400543,2.28951239585876,2.39277505874634,0.78374999761581,-0.49224999547005,-1.23818755149841,-12.512225151062,-11.9257869720459,-10.5806245803833,12.2380504608154,5.05695009231567,0.78195005655289,-29.7480010986328,-28.4670009613037,-24.2880020141602,8.30895042419434,8.29905033111572,6.99105024337769,1.71490001678467,0.49637499451637,-0.47740000486374,-0.91038751602173,0.14423750340939,0.78595000505447,-9.0684003829956,-7.88823747634888,-7.0219874382019,0.03705000132322,-0.99105006456375,-4.23405027389526,-20.9779510498047,-18.75,-17.5549507141113,4.26405000686646,3.11400008201599,4.61100006103516,-0.75515002012253,-0.35076248645782,0.42611250281334,0.49431249499321,-0.40493750572205,-1.25633752346039,-6.07048749923706,-5.00417518615723,-3.87928748130798,-7.17105054855347,-9.15795040130615,-10.8490505218506,-16.9849510192871,-16.1880016326904,-15.4450511932373,7.51605033874512,10.5820503234863,12.6889505386353,1.19982504844666,1.77869999408722,2.08518743515015,-1.4968249797821,-1.09243750572205,-0.50709998607635,-2.65980005264282,-1.47523748874664,-0.42281249165535,-11.6299505233765,-11.0980501174927,-10.0060501098633,-14.4199504852295,-13.0120506286621,-10.8949508666992,13.6350002288818,12.6079502105713,10.9699506759644,2.25554990768433,2.00323748588562,1.44457495212555,-0.42941248416901,-0.68585002422333,-0.7902125120163,1.05751252174377,1.51827502250671,1.86628746986389,-7.91805028915405,-6.95505046844482,-5.32905006408691,-5.1870002746582,-3.02205014228821,-1.18995010852814,7.78200054168701,6.51000022888184,5.83905029296875,SWING_RIGHT
-0.3103374838829,-0.47519999742508,-0.95411247014999,-0.80396246910095,-0.77522498369217,-0.5295125246048,0.46694999933243,0.2774749994278,0.98628747463226,1.30395007133484,-0.50505000352859,-1.94895005226135,3.72105026245117,3.23505020141602,2.04900002479553,9.48900032043457,9.59700012207031,8.84295082092285,-1.111687541008,-1.13616251945496,-1.06273746490479,-0.99563747644424,-1.73951244354248,-2.07047510147095,1.50562500953674,1.68217504024506,1.67791247367859,0.67005002498627,3.1800000667572,5.30895042419434,2.25300002098084,2.89500021934509,3.25905013084412,9.05100059509277,10.3420505523682,12.9070510864258,-0.68062502145767,0.06751249730587,0.80176252126694,-1.81389999389648,-1.17754995822906,-0.90406250953674,1.57684993743896,1.21714997291565,0.28173750638962,8.26905059814453,12.4819507598877,17.6770515441895,3.26595020294189,4.18095016479492,5.57205009460449,15.6780004501343,16.2700500488281,14.6389503479004,0.86996251344681,0.60486251115799,0.59537500143051,-1.1669625043869,-0.89980000257492,0.1898874938488,-3.06308746337891,-4.5667872428894,-5.85873746871948,23.8920001983643,25.0939502716064,28.9980010986328,3.64200019836426,0.54105001688004,-1.13700008392334,13.7239503860474,16.0349998474121,17.3239517211914,0.92949998378754,1.2667875289917,2.20329999923706,2.75041246414185,2.9973623752594,2.55351257324219,-9.78243732452393,-11.5862998962402,-12.4387998580933,33.271053314209,28.4640007019043,25.5400505065918,-12.0109510421753,-20.1390018463135,-25.7940006256104,11.1610507965088,10.7970008850098,10.0570507049561,3.26218748092651,3.62614989280701,2.03843760490417,1.67557501792908,0.45925000309944,-0.69973748922348,-12.9868745803833,-13.5178995132446,-12.6015996932983,24.3610515594482,20.9509506225586,5.26095008850098,-30.0550518035889,-32.6149520874023,-28.4790019989014,6.89295053482056,3.70095014572144,4.39499998092651,1.23282504081726,0.81564998626709,0.35488748550415,-0.35062500834465,0.01429999992251,-0.34746250510216,-10.902099609375,-9.32277488708496,-6.41217517852783,1.91805005073547,-1.0200001001358,-8.778000831604,-25.8370513916016,-24.5820007324219,-23.3389511108398,5.45400047302246,6.0930004119873,6.86700010299683,0.08552499860525,0.21546250581741,0.84328746795654,-0.7401624917984,-1.06686246395111,-1.12653744220734,-4.7647876739502,-2.87045001983643,-0.76656252145767,-12.4350004196167,-15.271050453186,-15.3229503631592,-22.2520503997803,-20.3719501495361,-17.076000213623,9.73095035552978,12.9670505523682,14.4690008163452,1.63074994087219,1.95002496242523,1.58290004730225,-0.81578749418259,-0.34003749489784,0.06118749827147,1.14372503757477,2.38878750801086,2.92201256752014,-11.367000579834,-6.37995052337646,-2.72100019454956,-12.8080501556396,-8.64600086212158,-4.75395011901855,12.1620006561279,8.04300022125244,5.58600044250488,0.91245001554489,-0.06022499874234,-0.33261248469353,0.13887499272823,-0.51768749952316,-0.52415001392365,2.88158750534058,1.89818751811981,1.38104999065399,-0.60795003175735,-0.39705002307892,-0.45495003461838,-1.43700003623962,1.43595004081726,1.89900004863739,5.09205007553101,7.42005014419556,8.04495048522949,SWING_RIGHT
-0.30497500300407,-0.1560624986887,-0.09528750181198,-0.23993749916553,-0.59647500514984,-0.92001247406006,0.35722500085831,0.77123749256134,0.96387499570847,-2.9650502204895,-2.38095021247864,1.24005007743835,2.70795011520386,2.94300007820129,3.95295023918152,9.32700061798096,8.73300075531006,9.55200004577637,-0.04207500070333,-0.38582500815392,-0.52318751811981,-0.87106251716614,-0.56883752346039,-0.85827499628067,0.62755000591278,0.64143747091293,1.24698746204376,1.56795012950897,-3.23595023155212,-2.5770001411438,4.19295024871826,3.69705009460449,4.11600017547607,9.24495029449463,7.95705032348633,8.44799995422363,-0.60720002651215,-0.6572499871254,-0.74126249551773,-1.21591246128082,-1.02863752841949,-0.51878750324249,1.7577999830246,1.7077499628067,1.56296253204346,1.45305001735687,2.99505019187927,0.89700001478195,5.296950340271,5.68995046615601,5.02395009994507,10.2409505844116,11.1469507217407,10.8280506134033,-0.74552500247955,-0.7540500164032,-0.88068747520447,-0.46557500958443,-0.73053747415543,-0.78801250457764,1.9152375459671,2.40267491340637,2.22708749771118,0.59805005788803,5.52000045776367,7.94100046157837,4.26705026626587,5.27295017242432,5.62500047683716,10.2850503921509,10.0020008087158,10.3110008239746,-0.8817874789238,-0.67526251077652,-0.69547498226166,-0.94448751211166,-1.32659995555878,-1.10728752613068,1.86628746986389,1.51304996013641,-0.25464999675751,9.3880500793457,19.7580013275146,34.3530006408691,4.90905046463013,6.92100048065186,9.29400062561035,10.9380006790161,11.8290004730225,12.0660009384155,-1.27132499217987,-1.28081250190735,1.83521246910095,-0.33261248469353,0.20061250030994,1.72246253490448,-3.86333751678467,-6.6452374458313,-8.28520011901855,35.3779525756836,25.4869518280029,30.3490505218506,2.96205019950867,-4.07805013656616,-9.54195022583008,14.4900007247925,21.3640518188477,13.5180006027222,2.32154989242554,2.15022492408752,1.42436254024506,1.50851249694824,0.92001247406006,0.91891247034073,-9.97823715209961,-11.3404502868652,-12.2748994827271,29.0290508270264,26.0400009155273,21.564001083374,-15.5149507522583,-20.1540012359619,-26.7229518890381,7.8870005607605,6.7350001335144,3.6889500617981,0.72517502307892,0.26647499203682,0.31872498989105,1.20945000648499,1.49036252498627,1.60325002670288,-12.3844871520996,-12.4920120239258,-11.8672122955322,20.0790004730225,13.7299509048462,5.92200040817261,-27.1500015258789,-27.3840007781982,-26.0620517730713,4.125,6.21300029754639,8.50695037841797,0.82733750343323,2.18735003471375,2.30133748054504,1.51387500762939,0.87106251716614,0.26977500319481,-10.554087638855,-8.37979984283447,-7.05595016479492,1.72800004482269,-3.8970000743866,-9.38100051879883,-23.8159503936768,-23.7780017852783,-22.9939517974854,9.99705028533936,7.29300022125244,5.08005046844482,1.36578750610352,0.87202501296997,0.52731251716614,-0.76353746652603,-0.81578749418259,-0.60390001535416,-3.15136241912842,-1.32632493972778,0.08277499675751,-12.8010005950928,-11.2420501708984,-8.96895027160645,-19.0759506225586,-16.7029514312744,-14.1180009841919,6.41205024719238,7.51395034790039,8.50005054473877,SWING_RIGHT
-0.22412499785423,-0.67003750801086,-1.11058747768402,-0.42941248416901,-0.16871249675751,-0.01869999989867,0.49665001034737,0.87449997663498,1.06603753566742,0.30300000309944,2.71500015258789,2.77500009536743,3.57000017166138,3.4699501991272,2.99100017547607,9.43395042419434,8.65605068206787,8.47395038604736,-1.37871253490448,-1.38833749294281,-0.690249979496,-0.24639999866486,-0.61036247014999,-0.88591247797012,1.43962502479553,1.80785000324249,0.80739998817444,3.67995023727417,6.87495040893555,17.2890014648438,2.32695007324219,2.29800009727478,6.73905038833618,9.2790002822876,10.2100505828857,14.2819509506226,0.01003750041127,0.18026250600815,-0.13997499644756,-0.45182499289513,0.30167499184608,1.06053745746613,-0.80588752031326,-3.76653742790222,-6.97399997711182,17.7610511779785,17.7010517120361,19.1110515594482,6.1279501914978,3.15105009078979,-2.23200011253357,13.3930501937866,8.84505081176758,10.7560501098633,0.19304999709129,0.26867499947548,-0.19965000450611,1.12323749065399,-0.13351249694824,-0.81042498350143,-8.839599609375,-12.0577878952026,-12.6739253997803,19.5330009460449,16.0339508056641,11.8380002975464,-6.39405012130737,-19.2100505828857,-23.9380512237549,8.35395050048828,3.51600027084351,3.75105023384094,-0.79447501897812,-2.46427488327026,-1.89378750324249,-1.06686246395111,-0.72847497463226,-1.45956254005432,-12.3822870254517,-10.2029123306274,-6.79635000228882,6.27195024490356,-1.96395003795624,-13.0360507965088,-24.9630012512207,-23.2579517364502,-18.6570014953613,4.02195024490356,5.45100021362305,16.8570003509521,-0.57639998197556,1.11251246929169,0.51768749952316,-1.40744996070862,0.10271249711514,0.37083750963211,-4.39766263961792,-0.52071249485016,0.78196251392365,-13.8570003509521,-6.39000034332275,-2.33295011520386,-16.3000507354736,-10.8799505233765,-5.27400016784668,18.6000003814697,11.2710008621216,8.87400054931641,0.22288750112057,0.16114999353886,-0.43161249160767,0.34856250882149,0.42625001072884,0.29961249232292,1.01818752288818,1.03097498416901,0.20611250400543,-2.20305013656616,1.48395001888275,0.33705002069473,-3.3600001335144,-1.03005003929138,-1.03005003929138,9.9660005569458,8.80695056915283,9.00300025939941,-0.48166251182556,-0.25396248698235,-0.27939999103546,0.08566249907017,0.38362500071526,0.46777498722076,0.00398749997839,0.05403750017285,0.02309999987483,-1.37205004692078,-1.03500008583069,-1.29795002937317,-1.81500005722046,-1.87500011920929,-1.95600008964539,10.5049505233765,9.77205085754394,9.74100017547607,0.04619999974966,0.04193750023842,0.01539999991655,-0.02928750030696,0.17393749952316,0.0930875018239,0.09652499854565,0.37317499518394,0.52222502231598,-2.17005014419556,-2.52405023574829,-1.46595001220703,-2.04495000839233,-1.95600008964539,-1.3860000371933,9.74595069885254,8.98200035095215,8.62695026397705,-0.17297500371933,-0.28792500495911,-0.30071249604225,-0.10161250084639,0.00481249997392,0.13667500019073,0.43285000324249,0.27101248502731,0.21889999508858,-0.22995001077652,-0.8479500412941,-1.14000010490417,-0.72795003652573,-0.50295001268387,-0.67995005846024,9.11100006103516,9.85305023193359,10.1269502639771,SWING_RIGHT
-0.10284999758005,-0.06984999775887,-0.12512500584126,0.03781250119209,-0.1047749966383,-0.01017499994487,0.21257500350475,0.24021250009537,0.30621248483658,0.57600003480911,0.57405000925064,0.65805006027222,3.93195009231567,3.87705016136169,3.80505013465881,8.88105010986328,9.08700084686279,9.03404998779297,-0.14849999547005,0.06215000152588,0.24310000240803,0.00371249997988,-0.25272500514984,-0.09528750181198,0.35089999437332,0.33274999260902,0.05719999969006,0.79395002126694,2.38695001602173,2.47095012664795,3.77400016784668,4.23105001449585,4.57905006408691,9.3550500869751,9.94200038909912,9.52095031738281,0.15262499451637,-0.15070000290871,-0.02296249940991,0.28682500123978,0.5048999786377,0.05898749828339,-0.0961124971509,-0.0961124971509,0.07631249725819,1.63005006313324,0.6889500617981,0.79200005531311,4.39695024490356,3.58695006370544,3.66600012779236,8.74695014953613,8.70105075836182,9.32895088195801,-0.00384999997914,-0.07411249727011,-0.13158750534058,-0.02612499892712,0.18782499432564,0.56993746757507,0.21779999136925,0.4838624894619,0.26152500510216,1.09095001220703,4.88700008392334,6.87495040893555,3.49095010757446,4.76100015640259,5.36205005645752,9.45105075836182,10.7920503616333,10.1740503311157,-0.00164999999106,0.39957499504089,-0.39338749647141,-0.77426248788834,-1.61177504062653,-0.29425001144409,-1.31037497520447,-5.55018758773804,-7.40286254882813,19.5019512176514,24.0400505065918,29.4030017852783,9.74205017089844,5.64405012130737,3.27795004844666,12.5340003967285,11.5870504379272,9.29805088043213,-2.03005003929138,-1.72576248645782,-0.28586250543594,1.90753746032715,4.34032487869263,4.30306243896484,-13.319899559021,-14.2894124984741,-13.6252870559692,30.8110523223877,13.81605052948,9.25305080413818,-18.0319499969482,-27.3319511413574,-27.1450519561768,7.20900011062622,8.79705047607422,9.78900051116943,3.04837489128113,3.94652509689331,3.37081241607666,1.24671244621277,0.06324999779463,0.52085000276566,-10.8711624145508,-6.73887491226196,-4.9594874382019,-4.45695018768311,-7.97100019454956,-10.2120008468628,-28.267951965332,-24.0150012969971,-21.0949516296387,9.5110502243042,6.0930004119873,5.08005046844482,2.48861241340637,2.47252488136292,1.63941252231598,0.79117500782013,0.47409999370575,-0.1538625061512,-1.26995003223419,0.34869998693466,1.89076244831085,-13.0170001983643,-10.150050163269,-4.8139500617981,-14.439001083374,-10.5280504226685,-3.682950258255,6.44100046157837,5.00100040435791,2.79300022125244,0.8401250243187,-0.04001250118017,-1.38187503814697,-0.19318750500679,-0.12182500213385,-0.15482500195503,1.93448746204376,1.59280002117157,0.63085001707077,-2.97405004501343,-2.12205004692078,-3.34095025062561,-0.76905006170273,0.88305002450943,0.24795001745224,3.07800006866455,3.62595009803772,7.69800043106079,-1.45323753356934,-1.39039993286133,-1.18401253223419,-0.13351249694824,-0.06764999777079,-0.08882500231266,0.32532501220703,0.28380000591278,0.23058749735355,-4.14300012588501,-3.58305025100708,-3.78600025177002,-1.39800012111664,-2.0310001373291,-2.51505017280579,10.0309505462646,10.7590503692627,11.7409505844116,SWING_RIGHT
-0.01663750037551,-0.20927499234676,-0.64762496948242,0.23787499964237,0.63800001144409,1.58936250209808,-0.01938750036061,0.01457499992102,0.04757500067353,1.12005007266998,0.88800007104874,0.37500002980232,3.5029501914978,3.59205007553101,3.4980001449585,9.77400016784668,10.150050163269,10.3879508972168,-1.09037494659424,-1.17548751831055,-0.00494999997318,2.49081254005432,2.47059988975525,-0.79447501897812,0.10615000128746,0.21779999136925,0.44137498736382,-0.19095000624657,-0.01200000010431,6.22395038604736,3.29205012321472,2.84895014762878,4.08300018310547,10.6290006637573,10.5889501571655,13.2019510269165,0.85181248188019,1.28287494182587,1.16792500019073,-2.23217487335205,-2.57702493667603,-2.20137500762939,-0.10133749991655,-1.12406253814697,-2.16919994354248,10.9990501403809,13.9429502487183,15.5809507369995,6.26505041122437,6.40605020523071,5.01705026626587,14.2699508666992,13.5109510421753,13.2520503997803,0.98477500677109,0.97528749704361,1.09766244888306,-1.64257502555847,-1.70651245117188,-2.30353736877441,-3.15672492980957,-5.67572498321533,-7.30179977416992,16.627950668335,18.6640510559082,20.2009506225586,3.53205013275146,0.66705000400543,-1.80600011348724,12.8419504165649,10.9600505828857,11.4079504013062,0.40163749456406,-0.73383748531342,-1.74267494678497,-1.63308751583099,-0.39861249923706,0.73369997739792,-10.5199871063232,-11.5682878494263,-12.7186126708984,18.775951385498,19.4080505371094,17.7889499664307,-12.7290010452271,-17.6610012054443,-23.1880512237549,6.08895015716553,3.68595027923584,3.17400026321411,-2.13015007972717,-1.08185005187988,0.06008749827743,1.24561250209808,0.19098749756813,-0.25808748602867,-13.4732122421265,-11.8013496398926,-9.6962251663208,11.9650506973267,-5.33100032806396,-11.3190002441406,-28.0740013122559,-24.8340015411377,-23.2650012969971,4.49295043945313,12.4950008392334,14.0160007476807,0.95081251859665,1.34241247177124,1.42436254024506,-0.22935000061989,-0.05486249923706,0.43477499485016,-7.17832517623901,-4.87217473983765,-3.10777497291565,-13.2520503997803,-11.6350507736206,-10.3390502929688,-20.6569519042969,-18.2209510803223,-16.2810001373291,12.8040008544922,11.7190504074097,10.3420505523682,1.42546248435974,1.50741243362427,1.58083748817444,0.74758750200272,0.50393748283386,0.06118749827147,-1.74129998683929,-0.65587496757507,0.25299999117851,-9.84105014801025,-9.56295013427734,-8.59095001220703,-13.8169507980347,-10.9930505752563,-7.96605014801025,9.03404998779297,8.20095062255859,6.98700046539307,1.4030499458313,0.23883749544621,-0.48908749222755,-0.26124998927116,-0.15702499449253,-0.08030000329018,0.93307501077652,1.52157497406006,1.44815003871918,-7.24995040893555,-3.72405028343201,-2.91000008583069,-5.139000415802,-1.36995005607605,-0.78795003890991,5.87100028991699,4.61295032501221,5.10405015945435,-1.33086252212524,-1.40112495422363,-1.40002501010895,-0.36767500638962,-0.36451250314713,-0.20597499608994,1.2277375459671,1.15114998817444,0.9872499704361,-3.17100024223328,-2.3970000743866,-2.20995020866394,-0.46695002913475,-0.69195002317429,-0.91005003452301,8.4190502166748,9.43395042419434,10.1599502563477,SWING_RIGHT
-0.02089999988675,0.01113750040531,-0.0622874982655,-0.02502499893308,0.00687499996275,0.05059999972582,0.12952500581741,0.1104125007987,0.08799999952316,1.28295004367828,1.22295010089874,1.0480500459671,2.83305025100708,2.87100005149841,2.7679500579834,9.7170000076294,9.27600002288818,9.40605068206787,-0.01443750038743,0.01746249943972,-0.01759999990463,0.00481249997392,-0.02502499893308,-0.02708750031888,0.14767499268055,0.20184999704361,0.19662499427795,0.82095003128052,1.02195000648499,1.27605009078979,2.58795022964478,2.77305006980896,3.00300025939941,9.59505081176758,9.37695026397705,9.32895088195801,-0.03781250119209,0.04839999973774,0.03877500072122,-0.15056249499321,-0.29851248860359,-0.27939999103546,0.16252499818802,0.23911249637604,0.14973749220371,1.06005001068115,1.60095012187958,2.94000005722046,2.77995014190674,2.83500003814697,3.25200009346008,9.60705089569092,9.64500045776367,9.35295009613037,-0.04001250118017,0.03657500073314,0.14946250617504,-0.21656249463558,-0.34209999442101,-0.47093749046326,0.02846249938011,0.08483749628067,0.11673749983311,2.82795023918152,3.550950050354,5.94795036315918,2.96205019950867,2.82495021820068,3.73095011711121,9.52095031738281,10.0450506210327,10.1430006027222,0.20693749189377,0.04509999975562,-0.17091250419617,-0.62411248683929,-0.37413749098778,0.26551249623299,-0.89746248722076,-1.75092494487762,-3.24926257133484,11.3350505828857,14.9370002746582,21.856050491333,5.76900005340576,6.93795013427734,8.59695053100586,10.3210506439209,10.8109502792358,11.0340003967285,-0.42308750748634,-0.94888746738434,-1.2138500213623,0.75185000896454,0.66453748941422,0.4687374830246,-5.73952484130859,-7.85523748397827,-8.1298246383667,24.3280506134033,16.6660499572754,12.9060001373291,5.3449501991272,-2.77095007896423,-3.70500016212463,8.7610502243042,8.75699996948242,13.627950668335,-0.68488746881485,-0.083599999547,0.12594999372959,0.34952500462532,0.26234999299049,0.42198750376701,-8.11483764648438,-9.2652997970581,-11.7416753768921,18.2850017547607,21.5299510955811,15.1810503005981,-2.60595011711121,-5.87205028533936,-16.7940006256104,14.7820510864258,12.4590005874634,10.1149501800537,0.776187479496,1.14867496490479,0.89113748073578,0.55715000629425,0.37936249375343,0.35062500834465,-10.3039751052856,-8.43411254882813,-7.2263126373291,-1.72200012207031,-0.08595000207424,1.24905002117157,-18.6900005340576,-16.5280513763428,-15.1429510116577,11.1400508880615,8.49105072021484,6.13395023345947,0.28462499380112,0.48138749599457,1.11251246929169,0.48152500391006,0.26757499575615,-0.12828749418259,-6.45149993896484,-4.55620002746582,-3.6536500453949,-1.70295011997223,-4.80195045471191,-5.43705034255981,-14.1640510559082,-11.9200506210327,-10.5640506744385,6.81900024414063,9.58005046844482,9.84405040740967,1.88622498512268,1.59458744525909,1.17218744754791,-0.80396246910095,-0.63800001144409,-0.35062500834465,-2.11805009841919,-1.57643747329712,-0.97721248865128,-4.64400005340576,-5.53005027770996,-6.2989501953125,-7.6230001449585,-6.47805023193359,-5.42205047607422,7.64295053482056,7.27200031280518,7.48005056381226,SWING_RIGHT
-0.35076248645782,-0.11976250261068,0.1142624989152,0.8731250166893,0.82747501134872,0.65821248292923,0.72971248626709,0.82238751649857,0.90749996900558,1.33995008468628,1.25700008869171,1.11300003528595,3.23505020141602,3.15300011634827,3.09405016899109,11.5950002670288,11.2519502639771,10.3590002059937,0.2058375030756,0.12925000488758,0.16651250422001,0.54752498865128,0.21546250581741,-0.17613749206066,0.99054998159409,1.25014996528625,1.39590001106262,0.80400002002716,0.93795001506805,1.68495011329651,2.90700006484985,2.50905013084412,2.25495004653931,9.28605079650879,8.83305072784424,9.21900081634522,0.93802499771118,1.64037501811981,1.9852249622345,-2.38754987716675,-3.93813753128052,-4.38721227645874,1.26499998569489,0.46694999933243,-0.64735001325607,10.0200004577637,14.9610004425049,19.8850517272949,4.30305004119873,5.62305021286011,7.11705017089844,11.6590509414673,12.9739503860474,12.3490505218506,1.58083748817444,0.73259997367859,-0.0867625027895,-3.33684992790222,-1.50314998626709,0.16114999353886,-2.19683742523193,-4.25397491455078,-6.18970012664795,25.1350517272949,25.5160503387451,25.2810020446777,8.5090503692627,5.57205009460449,1.77600014209747,10.7400007247925,9.06105041503906,7.94700050354004,-0.39228749275208,-0.38266250491142,-0.70826250314713,0.78058749437332,0.02076249942183,-2.70050001144409,-8.12020015716553,-10.010274887085,-13.4497003555298,24.1939506530762,23.4660015106201,26.5309505462646,-2.01900005340576,-7.06500053405762,-19.1290512084961,6.41895008087158,4.71405029296875,6.73995018005371,-1.42353749275208,-2.49617505073547,-3.20072507858276,-2.60466241836548,-0.87738752365112,0.99027496576309,-14.8927621841431,-15.2142372131348,-13.9871873855591,23.9179515838623,11.4810009002686,1.80300009250641,-28.7500514984131,-33.693000793457,-28.0170021057129,5.37705039978027,4.19204998016357,6.96495056152344,-1.94383752346039,-0.99137496948242,0.03877500072122,0.18150000274181,-0.59647500514984,-0.6678375005722,-9.71437454223633,-6.83567476272583,-4.5115122795105,-12.6889505386353,-11.9850006103516,-9.7140007019043,-24.445951461792,-21.4900512695313,-19.9980010986328,11.8890008926392,13.9369506835938,13.51305103302,0.66769999265671,1.49558746814728,1.90107500553131,-0.02186249941587,0.75927501916885,0.46351251006126,-2.87787508964539,-0.19827499985695,0.97446250915527,-9.58500003814697,-10.7419500350952,-8.49000072479248,-18.2209510803223,-12.41100025177,-8.86605072021484,11.8750505447388,9.88500022888184,7.33905029296875,1.92665004730225,1.59788751602173,0.39214998483658,0.16761249303818,-0.01017499994487,-0.21972499787807,1.72906243801117,1.96418750286102,1.42793750762939,-5.3100004196167,-3.01800012588501,-0.55305004119873,-5.6380500793457,-2.97705006599426,1.09095001220703,5.28900003433228,4.03605031967163,4.37100028991699,-0.24323749542236,-0.9147874712944,-1.03716254234314,-0.20693749189377,-0.10587500035763,-0.10381250083447,0.84892499446869,0.23168750107288,0.05926249921322,-1.61400008201599,-3.3270001411438,-3.07005023956299,1.14600002765656,0.28695002198219,-0.46395000815392,5.73900032043457,8.14800071716309,8.66100025177002,SWING_RIGHT
-0.11879999935627,-0.08470000326633,-0.09528750181198,0.04523750022054,0.07397499680519,0.12718750536442,0.0369874984026,0.07741250097752,0.0709500014782,-0.47595003247261,-0.23205001652241,-0.24195000529289,3.41700005531311,3.58200025558472,3.55605006217957,9.78405094146728,9.72705078125,9.65895080566406,-0.06242499873042,-0.02722499892116,-0.04537500068545,0.16335000097752,0.20061250030994,0.23993749916553,0.10615000128746,0.17641249299049,0.22110000252724,-0.64905005693436,-0.57900005578995,-0.47205001115799,3.22095012664795,3.25905013084412,3.3550500869751,9.61605072021484,9.19500064849854,8.65605068206787,-0.11769999563694,-0.259187489748,-0.31996250152588,0.23251250386238,0.07081250101328,-0.02502499893308,0.2231625020504,0.24021250009537,0.2923249900341,-0.51705002784729,-1.18500006198883,-1.66395008563995,3.29700016975403,3.03600025177002,2.87595009803772,8.30400085449219,8.21505069732666,8.2369499206543,-0.54546248912811,-0.72214996814728,-0.66357499361038,-0.00907499995083,0.05156249925494,0.07933750003576,0.61476248502731,1.44484996795654,1.65880000591278,-2.51205015182495,-0.06000000238419,4.08300018310547,1.86300003528595,2.19300007820129,4.14000034332275,8.90505027770996,10.6200008392334,11.0149507522583,-0.82967501878738,-1.11801254749298,-1.03716254234314,-0.2239875048399,-1.35959994792938,-2.75151252746582,0.67650002241135,0.00288749998435,-1.15816247463226,12.5659503936768,18.8530502319336,29.6370010375977,6.85395050048828,7.28505039215088,9.61995029449463,8.86005020141602,10.9669504165649,17.0310001373291,-0.1922249943018,0.12498749792576,0.23993749916553,-1.07648754119873,2.74408745765686,2.61415004730225,-6.53235006332397,-11.1244373321533,-13.0102500915527,38.7720031738281,35.7259521484375,31.2040519714355,2.60295009613037,-13.6249504089355,-24.9130516052246,21.177001953125,9.57300090789795,8.11500072479248,0.88371247053146,2.14692497253418,1.34667503833771,1.45309996604919,-0.62741249799728,-0.65284997224808,-14.0839872360229,-13.5316495895386,-11.9130001068115,25.5349521636963,11.4660005569458,5.37405014038086,-32.332950592041,-36.8110504150391,-31.7290515899658,10.0669507980347,4.89795017242432,1.78005003929138,-0.11769999563694,-2.25885009765625,-2.31426239013672,0.16541250050068,1.46066248416901,1.27118754386902,-10.1580877304077,-8.53201198577881,-8.04141235351563,3.43095016479492,0.48105001449585,-9.67305088043213,-28.3519515991211,-29.0899505615234,-29.6719512939453,1.02105009555817,3.76500010490417,11.1540002822876,-0.97652500867844,1.42546248435974,3.4154999256134,0.80079996585846,0.12402500212193,0.36877501010895,-6.08011245727539,-2.46070003509521,3.17212510108948,-24.0220508575439,-27.8920516967773,-5.72895050048828,-26.4910507202148,-21.9790515899658,-10.9620008468628,19.066951751709,18.9310512542725,5.09205007553101,2.58115005493164,0.62837499380112,-0.02612499892712,0.96896249055862,0.8369625210762,-0.09955000132322,3.65199995040894,2.45588755607605,1.01818752288818,0.81600004434586,0.99105006456375,1.38300001621246,-5.87505006790161,1.4389500617981,2.19495010375977,2.16795015335083,3.62400007247925,5.26500034332275,SWING_RIGHT
-0.29218751192093,-0.37729999423027,-0.34759998321533,0.1229249984026,0.08030000329018,0.06324999779463,0.1199000030756,0.11467500030994,0.2072124928236,1.10295009613037,0.56700003147125,0.12795001268387,3.85305023193359,3.56295013427734,3.27105021476746,8.75400066375732,9.44595050811768,9.99195003509522,-0.28270000219345,-0.26675000786781,-0.29754999279976,0.11123749613762,-0.01649999991059,-0.00591249996796,0.37963750958443,0.40617498755455,0.37221249938011,0.52395004034042,1.23000001907349,0.48105001449585,3.31605005264282,3.74700021743774,3.29205012321472,9.81300067901611,9.63105010986328,9.4750509262085,-0.43807500600815,-0.62961250543594,-0.52098751068115,0.17503750324249,-0.02502499893308,-0.35392498970032,0.7627124786377,1.27668750286102,1.59926247596741,-0.18705001473427,0.12600000202656,0.55500000715256,2.77995014190674,2.53605008125305,2.34195017814636,9.1399507522583,9.75300025939941,11.2110004425049,0.03877500072122,0.28984999656677,0.80492502450943,-0.2441999912262,0.03135000169277,-0.37509998679161,2.21003746986389,2.04091238975525,1.58743751049042,6.34095048904419,9.82095050811768,14.7049503326416,3.65205025672913,4.4520001411438,6.00105047225952,13.1659507751465,13.8079509735107,13.4479503631592,1.44773745536804,0.85607498884201,0.03767500072718,-1.84483754634857,-1.9629499912262,-1.02849996089935,-1.27737498283386,-3.44300007820129,-5.15638732910156,27.6780014038086,27.4890022277832,27.961051940918,9.10500049591064,5.3929500579834,2.30805015563965,9.52305030822754,9.95400047302246,12.8640003204346,-0.3103374838829,-0.23787499964237,-0.13997499644756,0.48262500762939,1.64683747291565,1.85858750343323,-6.91556262969971,-9.15145015716553,-11.2106494903564,31.0309505462646,30.8899517059326,26.3110504150391,-0.54300004243851,-6.85005044937134,-15.1819505691528,13.5709505081177,9.94695091247559,6.57495021820068,0.05582499876618,0.65491247177124,1.10398745536804,1.26582503318787,0.67306250333786,0.1409374922514,-12.4994373321533,-13.1858377456665,-13.2049503326416,22.9429512023926,17.6839504241943,12.2419509887695,-23.1049518585205,-27.72705078125,-29.2290019989014,7.45605039596558,7.63800048828125,4.87695026397705,0.86776250600815,0.22068749368191,-0.53267496824265,-0.28572499752045,-0.45814999938011,-0.24956250190735,-12.5919752120972,-11.376612663269,-9.89106273651123,6.62895011901855,2.47995018959045,-0.60300004482269,-28.6320018768311,-26.5960521697998,-24.5269508361816,3.12600016593933,2.956050157547,3.49695014953613,-1.22333753108978,-1.61287498474121,-1.47564995288849,0.24736249446869,0.81138747930527,0.99233746528625,-8.50121212005615,-7.32201242446899,-6.23864984512329,-2.97900009155273,-5.99895048141479,-10.7890501022339,-23.6029510498047,-23.2650012969971,-23.3490009307861,4.80000019073486,6.52395009994507,9.57600021362305,-0.63703751564026,0.69753748178482,1.91606247425079,0.61888748407364,-0.07397499680519,-0.49114999175072,-4.7412748336792,-2.58637499809265,-0.20143750309944,-16.5229511260986,-19.7470512390137,-17.2800006866455,-22.3669509887695,-19.7610015869141,-16.1089515686035,12.5140504837036,13.4940004348755,10.8070507049561,SWING_RIGHT
0.022824998945,0.00467499997467,-0.06875000149012,-0.14739999175072,-0.28998750448227,-0.97006249427795,0.51906251907349,0.66481250524521,1.34062504768372,0.38505002856255,-0.11205000430346,-0.01200000010431,3.22995018959045,2.84505009651184,2.74905014038086,8.81895065307617,8.60100078582764,8.6220006942749,0.0536249987781,0.29521250724792,0.36437499523163,-1.33718752861023,-1.37555003166199,-0.98491251468658,1.60668754577637,1.72370004653931,1.8130749464035,1.1010000705719,1.65405011177063,1.64205002784729,2.94000005722046,2.99100017547607,2.88300013542175,9.77400016784668,9.9060001373291,8.95500087738037,0.14630000293255,-0.46667498350143,-0.52208751440048,-0.34430000185966,0.70289999246597,0.74222499132156,1.95896244049072,2.57290005683899,3.00396251678467,1.45995008945465,1.75005006790161,2.65005016326904,2.53095006942749,1.37895011901855,0.81600004434586,8.23905086517334,8.84505081176758,8.24595069885254,-0.54656249284744,-0.41772499680519,0.22921249270439,0.36134999990463,-0.57626247406006,-1.76288747787476,3.35940003395081,3.16992497444153,1.95249998569489,6.99300050735474,15.4639511108398,24.3760509490967,1.66395008563995,3.75705027580261,7.76895046234131,7.71495056152344,9.86100006103516,11.2350006103516,0.60706251859665,-0.22948749363422,-1.27654993534088,-2.27149987220764,-1.92884993553162,-1.14674997329712,-0.29507499933243,-2.58843755722046,-4.46256256103516,28.0039520263672,28.6650009155273,31.0459518432617,9.37604999542236,6.32205009460449,3.132000207901,7.75995016098022,6.85695028305054,11.4439506530762,-1.48307502269745,-0.76051247119904,-0.65834999084473,0.01429999992251,2.22158741950989,2.34492492675781,-6.38549995422363,-10.2656126022339,-12.0928497314453,31.6450519561768,30.1960506439209,28.5550518035889,-0.15495000779629,-11.0119504928589,-18.7980003356934,14.4450006484985,8.55300045013428,4.71600008010864,-0.75515002012253,-0.27087500691414,0.07067500054836,1.78626251220703,2.00763750076294,1.7714124917984,-13.684962272644,-13.378475189209,-12.7558746337891,15.892050743103,11.778000831604,4.36995029449463,-28.8210010528564,-28.4530506134033,-27.79905128479,6.33000040054321,4.764000415802,1.67700004577637,0.11219999939203,0.12388750165701,-0.16445000469685,0.73053747415543,-0.14313749969006,-0.28146249055862,-11.3469123840332,-9.54731273651123,-7.84135007858276,-1.24305009841919,-4.171950340271,-6.33195018768311,-24.6160507202148,-21.4620018005371,-19.359001159668,2.89095020294189,3.83205008506775,3.9019501209259,-0.75295001268387,-1.09147500991821,-0.65614998340607,0.23993749916553,0.75501251220703,0.65078747272491,-6.31317520141602,-4.96801233291626,-3.70589995384216,-8.13105010986328,-9.63300037384033,-12.5640001296997,-18.223051071167,-17.3010005950928,-16.231050491333,4.82895040512085,7.5400505065918,10.0450506210327,0.31542500853539,1.30088746547699,1.77347493171692,0.0472999997437,-0.56347501277924,-0.80616247653961,-2.21595001220703,-0.56003749370575,0.80533748865128,-14.7940511703491,-13.5169506072998,-9.61800003051758,-14.437050819397,-11.9560508728027,-8.97405052185059,11.002950668335,9.60900020599365,6.94095039367676,SWING_RIGHT
0.06531249731779,0.13131250441074,0.09831249713898,0.05156249925494,-0.01333750039339,-0.00687499996275,0.41580000519753,0.41690000891685,0.43491250276566,2.15505003929138,2.24100017547607,2.44395017623901,4.92795038223267,5.01900005340576,5.09805011749268,8.65395069122314,8.2900505065918,8.22705078125,0.06215000152588,0.05788749828935,-0.01237499993294,-0.00687499996275,0.01856249943376,-0.24639999866486,0.46901249885559,0.41799998283386,0.14547500014305,3.10800004005432,4.07100009918213,4.15005016326904,5.43600034713745,5.87400007247925,4.90395021438599,8.49795055389404,8.35905075073242,8.49300003051758,0.31858751177788,0.90282499790192,0.54422497749329,-1.08074998855591,-1.91716253757477,-1.9852249622345,0.28283751010895,0.32326251268387,-1.31353747844696,5.76600027084351,10.5760507583618,19.7770500183105,4.92600011825562,6.85905027389526,9.33000087738037,9.89400005340576,9.04200077056885,6.17205047607422,-0.168850004673,-0.4657124876976,-0.4794625043869,-1.59362494945526,-1.23186254501343,-1.0839124917984,-2.53838753700256,-4.09639978408813,-5.94921255111694,23.6790008544922,26.4570007324219,25.7650508880615,8.37495040893555,7.11495018005371,3.35700011253357,8.16495037078857,9.85095024108887,9.97095012664795,-0.5986750125885,-0.79667496681213,-0.80519998073578,-0.859375,-0.41662499308586,-0.05376249924302,-7.52743768692017,-8.92471218109131,-10.8860120773315,24.4909515380859,26.8639507293701,32.623950958252,-0.61305004358292,-4.03305006027222,-10.6000509262085,10.1119508743286,10.7680501937866,11.1180009841919,-0.17723749577999,0.66233748197556,1.3029500246048,-0.04839999973774,0.84342497587204,1.09876251220703,-14.3798875808716,-12.7729253768921,-10.8455877304077,11.8210506439209,2.18805003166199,1.35900008678436,-34.7179527282715,-29.7220516204834,-23.9740505218506,14.19105052948,11.5039501190186,5.72700023651123,0.99756246805191,0.16857500374317,-0.07301250100136,0.60706251859665,0.030387500301,-0.28256249427795,-9.80375003814697,-8.98218727111816,-7.75197505950928,-1.00800001621246,-5.51595020294189,-10.1929502487183,-21.9289512634277,-21.5239505767822,-20.9250011444092,2.48595023155212,5.10900020599365,8.35200023651123,0.30799999833107,0.7209125161171,1.06988751888275,-0.50077497959137,-0.96689999103546,-1.28713750839233,-6.13648748397827,-4.81483745574951,-3.79307508468628,-12.2670001983643,-12.7150506973267,-13.3189506530762,-18.2980499267578,-16.2690010070801,-15.1339511871338,8.98200035095215,9.8100004196167,10.7830505371094,1.32426249980927,1.2476749420166,0.8816499710083,-1.24891245365143,-1.14248752593994,-1.06796252727509,-2.80981254577637,-2.04778742790222,-1.53065001964569,-12.3799505233765,-10.2510004043579,-8.75594997406006,-13.642050743103,-12.2809505462646,-10.8589506149292,9.6709508895874,8.08095073699951,7.44195032119751,0.45704999566078,0.30593749880791,0.41662499308586,-0.99989998340607,-0.76573747396469,-0.17297500371933,-1.08790004253387,-0.47176250815392,0.94572502374649,-9.04605007171631,-9.52005004882812,-6.09795045852661,-9.56100082397461,-8.52405071258545,-4.91400003433228,8.83800029754639,10.3420505523682,8.16300010681152,SWING_RIGHT
0.00467499997467,-0.01663750037551,-0.07301250100136,0.05898749828339,0.10051249712706,0.20693749189377,0.81276249885559,0.80739998817444,0.84686249494553,1.35000002384186,1.32405006885529,1.24695003032684,5.59605026245117,5.50305032730103,5.17995023727417,8.02605056762695,7.91100025177002,7.7790002822876,-0.11976250261068,-0.1017500013113,-0.09858749806881,0.25162500143051,0.19744999706745,0.171875,0.96813750267029,1.05118751525879,0.98202496767044,1.79505014419556,2.89500021934509,4.07295036315918,5.08095026016235,5.62800025939941,6.49500036239624,7.95195055007935,7.98795032501221,6.93405055999756,-0.29644998908043,-0.56883752346039,-0.53171247243881,0.07081250101328,-0.4794625043869,-1.27338755130768,0.84039998054504,0.75844997167587,0.51686251163483,5.87205028533936,9.69195079803467,14.9560508728027,7.20600032806396,7.35000038146973,8.65694999694824,4.84800004959106,4.9699501991272,6.73995018005371,-0.35282498598099,-0.48372501134872,-0.89141249656677,-1.69372498989105,-1.74803745746613,-1.44251251220703,-0.28022500872612,-1.71682500839233,-3.52274990081787,20.6610012054443,25.276050567627,26.0380516052246,10.0800008773804,9.49305057525635,6.38205051422119,7.25505018234253,7.50195026397705,9.04905033111572,-1.30432498455048,-1.369225025177,-0.52841252088547,-0.58052498102188,0.28572499752045,0.09102500230074,-5.23723745346069,-6.83251237869263,-9.95170021057129,25.1299514770508,24.631950378418,27.4560012817383,2.82495021820068,-1.08195006847382,-7.8120002746582,11.3359508514404,13.7089509963989,11.0410509109497,-0.52745002508163,-0.35928750038147,0.47299998998642,-0.10271249711514,-0.39008748531342,-1.16792500019073,-12.0364751815796,-13.0219373703003,-12.1141624450684,23.5159511566162,11.4040508270264,4.02495002746582,-17.8999500274658,-25.1910018920898,-21.4500007629395,10.7400007247925,14.1979503631592,15.9540004730225,1.3199999332428,1.46794998645782,0.95397502183914,-1.71393752098084,-1.65330004692078,-1.33608746528625,-10.649787902832,-9.69952487945557,-9.3110876083374,3.66795015335083,5.05305004119873,5.35005044937134,-17.650951385498,-16.2330017089844,-16.6210498809814,13.314001083374,9.38205051422119,6.35700035095215,0.18342499434948,-0.17627499997616,0.8124874830246,-1.04554998874664,-0.6348375082016,-0.4687374830246,-9.0194501876831,-8.08087539672852,-5.15322494506836,0.57195001840591,-6.0949501991272,-9.5779504776001,-18.5400009155273,-17.2870502471924,-14.0370006561279,7.5949501991272,11.203950881958,11.3860502243042,1.02740001678467,0.69217497110367,0.08978749811649,-0.43903750181198,-0.40810000896454,-0.26771250367165,-4.00702476501465,-3.35362505912781,-3.00987505912781,-7.65000057220459,-6.16200017929077,-6.6340503692627,-12.6840009689331,-11.7739505767822,-11.6280002593994,8.5890007019043,7.31700038909912,7.83000040054321,-0.42198750376701,-0.63813751935959,-0.55935001373291,-0.02392499893904,0.25382500886917,0.34209999442101,-2.57564997673035,-1.91166245937347,-1.11237502098084,-8.14995002746582,-9.22995090484619,-9.21795082092285,-11.6440505981445,-10.8730506896973,-9.73095035552978,9.28605079650879,10.3879508972168,10.7899503707886,SWING_RIGHT
-0.13048750162125,-0.05706249922514,0.00783750042319,0.37619999051094,0.23251250386238,0.14630000293255,0.8318749666214,0.93940001726151,0.95961248874664,0.21495001018047,0.92100006341934,1.31205010414124,3.82395029067993,3.91995024681091,4.01999998092651,9.28305053710938,9.62100028991699,9.71895027160644,0.03877500072122,0.13447499275208,0.70276248455048,0.11866249889135,0.10587500035763,-0.20597499608994,0.93830001354218,0.95851248502731,1.20656251907349,1.18005001544952,0.80595004558563,0.67905002832413,3.98505020141602,3.69195008277893,3.56295013427734,10.0710000991821,10.5889501571655,10.2970504760742,0.82733750343323,0.29315000772476,-0.06984999775887,-0.13777500391006,0.73479998111725,1.17961251735687,1.33952498435974,1.3087249994278,1.11608743667603,1.41195011138916,4.00395011901855,4.8469500541687,3.89400029182434,5.51295042037964,5.8690505027771,9.20400047302246,8.45205020904541,8.51895046234131,-0.21023750305176,0.31968748569489,0.61132502555847,1.16682493686676,-0.35392498970032,-0.86996251344681,1.00746250152588,0.35296249389648,-1.03688752651215,5.95605039596558,16.2569999694824,18.9220504760742,6.29100036621094,10.7670001983643,11.028000831604,9.05595016479492,10.0999507904053,10.6560001373291,0.65807497501373,0.58038747310638,0.54422497749329,-0.87642496824265,-0.75927501916885,-0.56141251325607,-2.5086874961853,-3.61968755722046,-4.67211246490479,19.3459510803223,19.9110012054443,23.4940509796143,8.94705009460449,7.59600019454956,6.93795013427734,10.7970008850098,11.5639505386353,11.6590509414673,0.44426250457764,-0.28586250543594,-0.41249999403954,-0.26551249623299,-0.2771999835968,-0.15798750519753,-6.34933757781982,-9.32483768463135,-9.84953784942627,25.1560516357422,17.5380001068115,13.7539510726929,3.28995013237,-8.81805038452148,-13.1560506820679,9.99000072479248,9.0730504989624,9.62400054931641,-0.2411749958992,-0.31569999456406,-0.61572498083115,0.15056249499321,0.07713750004768,-0.14313749969006,-9.96022510528564,-9.3461503982544,-8.9673376083374,9.66495037078857,4.79595041275024,3.99195027351379,-15.7609510421753,-17.3419513702393,-17.3089504241943,8.02095031738281,4.8070502281189,5.53500032424927,-0.74236249923706,-0.63910001516342,-0.37207499146461,-0.0930875018239,0.10903749614954,0.41662499308586,-8.73950004577637,-8.72258758544922,-8.25109958648682,3.66795015335083,2.5860002040863,-3.82500028610229,-17.5429515838623,-18.106050491333,-19.8259506225586,6.64905023574829,6.75195026397705,8.63400077819824,-0.00068749999627,1.54027497768402,1.9351749420166,0.52415001392365,0.0686125010252,-0.11976250261068,-7.32737493515015,-3.98571252822876,-2.26806259155273,-8.671950340271,-14.1739511489868,-11.0790004730225,-19.6459503173828,-18.6070499420166,-17.5120506286621,10.7659502029419,11.5249509811401,8.7450008392334,1.67653751373291,1.0008624792099,0.40700000524521,-0.09528750181198,-0.01113750040531,0.16335000097752,-1.12626254558563,-0.38554999232292,0.34553748369217,-8.45400047302246,-8.39400005340576,-9.44595050811768,-16.0750503540039,-13.9320011138916,-11.5050001144409,6.46005010604858,6.87195014953613,8.625,SWING_RIGHT
-0.01237499993294,0.2419999986887,0.33673748373985,-0.03891250118613,-0.13887499272823,-0.51768749952316,0.66165000200272,0.29658749699593,0.30511251091957,2.41305017471313,2.03700017929077,1.38300001621246,4.15904998779297,4.43505001068115,4.52100038528442,9.92505073547363,8.93400001525879,7.72005033493042,0.23347499966621,-0.06764999777079,-0.21133749186993,-1.05407500267029,-1.52446246147156,-1.76495003700256,0.50737500190735,0.88728749752045,1.11814999580383,1.52505004405975,3.37395024299622,11.7370510101318,4.75800037384033,5.08905029296875,6.77205038070679,7.26405048370361,8.14095020294189,12.0109510421753,-0.14011250436306,-0.0591249987483,0.20693749189377,-1.3946624994278,-1.32013750076294,-1.65962493419647,0.4988499879837,-0.43559998273849,-2.87691259384155,15.3130502700806,18.5729999542236,21.211950302124,7.4650502204895,8.20905017852783,6.96900033950806,12.1909503936768,12.5910005569458,13.0699510574341,0.23993749916553,0.31116250157356,0.34306249022484,-1.36372494697571,-0.77096247673035,-0.51246249675751,-3.9028000831604,-4.78609991073608,-5.86189985275269,21.5160007476807,23.4100513458252,25.9990520477295,5.40000009536743,3.63705015182495,1.28100001811981,13.9870510101318,13.1779508590698,11.8699502944946,0.2909500002861,0.23567499220371,0.21546250581741,-0.66467499732971,-0.71568751335144,-0.14203749597073,-7.18162488937378,-9.16849994659424,-9.80691242218018,26.8350009918213,24.1410007476807,22.3540515899658,-2.84295010566711,-13.3690509796143,-19.1220016479492,11.3340005874634,11.731050491333,9.65205001831055,0.25588750839233,0.81454998254776,0.94751250743866,0.06008749827743,-0.92537498474121,-1.76288747787476,-10.6625747680664,-10.697774887085,-10.1336126327515,15.9760503768921,11.2920007705688,8.15700054168701,-26.3280010223389,-26.920051574707,-25.9570503234863,9.12495040893555,8.93400001525879,7.14000034332275,-0.79557502269745,-0.99137496948242,-0.31776249408722,-0.79131251573563,-0.51878750324249,-0.52525001764297,-9.90591239929199,-8.27241230010986,-6.17058753967285,4.93995046615601,-10.135950088501,-13.1370010375977,-28.7400016784668,-24.6349506378174,-20.4480018615723,6.85695028305054,13.5940504074097,14.506950378418,0.35804998874664,1.16036248207092,1.25619995594025,-0.22935000061989,0.43477499485016,0.54436248540878,-4.0644998550415,-1.64450001716614,-1.29016244411469,-12.1500005722046,-6.81795024871826,-6.81795024871826,-16.7100009918213,-12.0280504226685,-10.5090007781982,13.2379503250122,9.15705013275146,8.33700084686279,1.40098750591278,1.46052503585815,1.10288751125336,0.35708749294281,-0.84026247262955,-0.99563747644424,-1.02189993858337,0.08799999952316,0.7265499830246,-7.98705053329468,-8.41604995727539,-6.91005039215088,-9.18195056915283,-6.72000026702881,-5.37405014038086,7.80105018615723,6.93405055999756,7.12605047225952,0.52401250600815,-0.35502499341965,-0.3092375099659,-0.61352497339249,0.13461250066757,-0.01759999990463,1.18525004386902,1.45131254196167,1.5193749666214,-4.80195045471191,-3.83205008506775,-3.26895022392273,-4.25100040435791,-2.46900010108948,-1.79100012779236,7.61400032043457,9.55905055999756,10.252950668335,SWING_RIGHT
-0.23375000059605,-0.28792500495911,-0.41139999032021,-0.52305001020432,-0.66563749313354,-0.6678375005722,0.16788749396801,0.21999999880791,-0.23870000243187,3.25905013084412,5.43105030059814,8.92995071411133,4.20300006866455,4.62600040435791,5.23995018005371,9.68805027008057,10.4260501861572,12.7609510421753,-0.14753749966621,0.35158750414848,0.83476251363754,-0.93389999866486,-1.11581254005432,-1.34255003929138,-0.57282501459122,-0.93994998931885,-1.97862493991852,10.3530006408691,11.8420505523682,17.4040508270264,5.56800031661987,5.54400014877319,5.92695045471191,14.5000505447388,14.4160509109497,10.4470500946045,0.54958748817444,0.19415000081062,0.08882500231266,-1.23186254501343,-1.02217495441437,-0.79447501897812,-2.83538746833801,-3.64416241645813,-4.06876230239868,18.5170516967773,16.9390506744385,15.8419504165649,4.95705032348633,2.55000019073486,0.51705002784729,9.66900062561035,10.0350008010864,10.4809503555298,0.24516250193119,0.50063747167587,0.64638751745224,-0.64652502536774,-1.037024974823,-1.70967495441437,-4.24228763580322,-4.31777477264404,-4.58809995651245,15.8659505844116,16.9339504241943,21.5299510955811,-0.38505002856255,-0.78795003890991,-0.52695000171661,9.70995044708252,8.83305072784424,8.27505016326904,-0.28476250171661,-1.00526249408722,-1.52240002155304,-1.97353744506836,-1.53725004196167,-0.73383748531342,-6.84736251831055,-7.75403738021851,-8.31283760070801,23.1160507202148,21.2790012359619,20.4550514221191,-7.90800046920776,-12.9760503768921,-17.239049911499,8.12895011901855,9.55200004577637,11.437050819397,-1.52129995822906,-0.91258752346039,-0.21559999883175,0.60183751583099,1.95126247406006,0.64116251468658,-8.96829986572266,-9.67931270599365,-8.82681274414063,18.8410511016846,12.9439506530762,1.93005013465881,-21.5140514373779,-24.6490516662598,-23.6170501708984,12.046950340271,8.39700031280518,2.07000017166138,-0.58382499217987,-1.02011251449585,-1.31064999103546,-0.70826250314713,-0.50929999351501,0.59441250562668,-7.81261253356934,-7.29863739013672,-7.3358998298645,1.80495011806488,2.49705004692078,-1.28100001811981,-20.2879505157471,-20.2639503479004,-20.3569507598877,5.13795042037964,6.96495056152344,7.73400020599365,-0.67856252193451,-0.44976249337196,-0.32835000753403,0.39214998483658,-0.09418749809265,-0.07823749631643,-5.93106269836426,-4.42956256866455,-3.15782499313354,-10.7509508132935,-11.3740501403809,-10.3579502105713,-18.3310508728027,-15.538950920105,-13.2349510192871,7.77000045776367,8.65395069122314,9.27405071258545,0.15056249499321,0.49953749775887,0.67938750982285,0.19208750128746,-0.04743750020862,-0.39531248807907,-1.77003753185272,-1.28163754940033,-0.78251248598099,-9.28500080108643,-9.01995086669922,-8.87805080413818,-10.7509508132935,-10.0609502792358,-8.84205055236816,9.43905067443848,8.51895046234131,7.8870005607605,0.44742500782013,0.18246249854565,-0.1017500013113,-0.54436248540878,-0.26661249995232,0.11646249890327,0.18067499995232,0.5626500248909,0.7148625254631,-7.59900045394897,-5.84400033950806,-4.89300012588501,-6.51900053024292,-5.44800043106079,-4.20795011520386,8.14305019378662,8.36100006103516,8.3569507598877,SWING_RIGHT
0.02598750032485,0.14519999921322,0.26537498831749,-0.09528750181198,0.02186249941587,0.41346248984337,0.53817498683929,0.59358751773834,0.71802496910095,1.14195001125336,1.11495006084442,1.3090500831604,2.8090500831604,2.87805008888245,2.91900014877319,10.9380006790161,10.8040504455566,9.30705070495606,0.26963749527931,0.2579500079155,0.25272500514984,0.36767500638962,0.21972499787807,0.13461250066757,0.70523750782013,0.68612498044968,0.74360001087189,1.23300004005432,0.66000002622604,0.43500003218651,2.98800015449524,3.331050157547,3.63705015182495,8.75895023345947,8.67495059967041,8.85705089569092,0.21642500162125,0.1175625026226,0.04839999973774,0.10161250084639,-0.01443750038743,-0.18892499804497,0.85002499818802,0.80739998817444,0.80533748865128,0.78195005655289,0.74595004320145,1.03395009040833,4.15500020980835,4.57605028152466,4.75605010986328,8.05995082855225,8.20095062255859,8.62005043029785,-0.00384999997914,-0.08786249905825,-0.31556248664856,-0.26867499947548,-0.13255000114441,0.1409374922514,0.82018750905991,0.7541875243187,0.56691247224808,2.30295014381409,3.50505018234253,5.77605009078979,5.08905029296875,5.26095008850098,6.17805051803589,9.08895015716553,9.43005084991455,9.42495059967041,-0.41992500424385,-0.38802498579025,0.29727500677109,-0.00054999999702,-0.23141250014305,-0.96359997987747,0.39985001087189,-0.11316250264645,-1.40291249752045,8.60700035095215,11.8110008239746,16.3669509887695,7.3279504776001,8.42505073547363,9.12195014953613,10.0639505386353,11.8050003051758,13.0510501861572,0.66343748569489,0.80602496862411,0.55811250209808,-1.36276245117188,-1.64367496967316,-1.74267494678497,-2.37022495269775,-4.01348733901978,-5.38724994659424,21.3769512176514,21.4849510192871,18.481050491333,9.87900066375732,7.55595016479492,2.93805003166199,12.1860008239746,10.5000009536743,9.75795078277588,0.19098749756813,0.06215000152588,0.02598750032485,-1.67351245880127,-1.37981247901917,-0.89443749189377,-5.98221254348755,-6.28127479553223,-6.68992519378662,17.0470504760742,17.2549514770508,17.5639514923096,-0.33300000429153,-2.34195017814636,-5.01000022888184,10.9909505844116,11.2759504318237,10.4710502624512,-0.36245000362396,-0.6540874838829,-0.80836248397827,-0.17723749577999,0.10587500035763,0.49857500195503,-7.61791229248047,-8.1222620010376,-8.57353782653809,18.0550518035889,16.9369506835938,14.5129508972168,-10.0800008773804,-12.7800006866455,-15.9120006561279,8.02395057678223,7.89900016784668,7.3080005645752,-0.86583751440048,-0.81578749418259,-0.53171247243881,0.76037502288818,0.79543751478195,0.65394997596741,-8.79174995422363,-8.68312454223633,-8.4660120010376,11.2920007705688,8.47305011749268,7.5120005607605,-18.1950016021729,-18.7770004272461,-19.3230018615723,6.77295017242432,7.01295042037964,6.67305040359497,-0.2230249941349,-0.2549250125885,-0.13584999740124,0.33783748745918,-0.11123749613762,-0.66357499361038,-8.41499996185303,-8.30747509002686,-7.07836246490479,6.42000007629395,2.18099999427795,-10.1740503311157,-21.4830017089844,-23.1070518493652,-19.6870517730713,5.0440502166748,6.20595026016235,12.1669502258301,SWING_RIGHT
-0.28902500867844,-0.01979999989271,-0.11879999935627,0.21546250581741,0.03451250120997,0.15482500195503,0.31253749132156,0.26785001158714,0.24241249263287,0.72000002861023,0.94800007343292,0.70605003833771,4.08494997024536,4.56405019760132,4.20705032348633,9.34095001220703,8.73495006561279,8.3569507598877,-0.24543750286102,-0.29438748955727,-0.29328748583794,0.19841249287128,0.38788750767708,0.36877501010895,0.29136249423027,0.08910000324249,0.08373750001192,1.1539500951767,0.67500001192093,-0.13605000078678,4.59105014801025,4.42005014419556,3.65595006942749,8.96505069732666,9.07005023956299,8.91000080108643,-0.19744999706745,-0.03575000166893,-0.00591249996796,0.04949999973178,-0.19855000078678,-0.10697499662638,0.24557499587536,0.2774749994278,0.14437499642372,0.61695003509521,1.62105011940002,1.63500010967255,3.92505025863647,4.546950340271,4.48995018005371,9.5179500579834,9.73605060577393,9.07005023956299,-0.16871249675751,-0.29961249232292,-0.24433749914169,0.12498749792576,0.2261874973774,0.14849999547005,0.08167500048876,0.15936249494553,0.21037499606609,1.35495007038116,1.77900004386902,3.18195009231567,4.06800031661987,4.15200042724609,4.86105012893677,8.94300079345703,9.66195011138916,9.82500076293945,-0.11453749984503,-0.19855000078678,-0.47850000858307,-0.18466250598431,-1.65110003948212,-2.17689990997314,0.06572499871254,-0.66536247730255,-1.12310004234314,5.30895042419434,10.91100025177,14.803050994873,5.5489501953125,6.15000009536743,6.90900039672852,8.94105052947998,8.625,10.7659502029419,-0.57956248521805,-0.44549998641014,-0.17723749577999,-1.07648754119873,1.01901245117188,1.01791250705719,-3.06515002250671,-7.54654979705811,-8.63527488708496,29.7450008392334,25.2259521484375,19.6500015258789,8.88000011444092,-3.82005023956299,-9.43605041503906,15.1630506515503,11.6569509506226,11.0290508270264,0.81138747930527,0.86776250600815,0.52291250228882,-0.07933750003576,-0.53899997472763,-0.93596249818802,-9.50578784942627,-10.0197620391846,-10.4465627670288,16.1200504302979,14.5540504455566,10.4560508728027,-15.151050567627,-19.3159503936768,-23.8159503936768,8.64900016784668,6.55800008773804,6.34695053100586,0.08346249908209,0.21009999513626,0.36657500267029,-1.08281254768372,-1.10948753356934,-0.69863748550415,-10.2772998809814,-8.08720016479492,-6.77710008621216,4.34400033950806,-3.88905024528503,-4.69695043563843,-24.2280006408691,-17.5939502716064,-15.1630506515503,8.5290002822876,11.8560009002686,11.3100004196167,0.38774999976158,0.34842500090599,-0.07933750003576,-0.25176250934601,0.03781250119209,0.00481249997392,-5.75657510757446,-5.13301229476929,-5.02864980697632,-4.74900007247925,-3.62595009803772,-6.54105043411255,-14.53005027771,-15.1990509033203,-16.570951461792,10.7920503616333,9.64995002746582,10.1310005187988,-0.04427500069141,0.35585001111031,0.90818750858307,-0.19951249659061,-0.5378999710083,-0.8124874830246,-4.7519998550415,-3.93786239624023,-2.54484987258911,-9.87900066375732,-13.4620504379272,-14.6260509490967,-16.3579502105713,-14.4799509048462,-11.5099506378174,11.9299507141113,13.2540006637573,13.2900009155273,SWING_RIGHT
0.05678749829531,-0.0314874984324,0.21972499787807,0.20597499608994,0.13034999370575,-0.12498749792576,0.94366252422333,0.96387499570847,1.0032000541687,0.99105006456375,0.99795007705688,2.62200021743774,4.19505023956299,4.0969500541687,4.82805013656616,8.60100078582764,9.25695037841797,9.96795082092285,0.26014998555183,0.05156249925494,-0.16775000095367,0.07507500052452,0.42515000700951,0.42198750376701,0.80217498540878,0.60211247205734,0.62328749895096,2.80395007133484,2.11395001411438,2.02305006980896,4.92300033569336,4.41600036621094,4.18305015563965,8.99400043487549,8.20305061340332,9.39795017242432,0.00041249999776,0.1142624989152,0.08126249909401,0.20693749189377,-0.09955000132322,-0.20267499983311,0.58286249637604,0.23485000431538,0.12526249885559,2.67405009269714,3.14100003242493,3.51495027542114,4.62405014038086,4.63095045089722,4.82805013656616,9.25500011444092,8.53605079650879,8.74200057983398,0.05898749828339,0.0472999997437,0.08552499860525,-0.28256249427795,-0.38898751139641,-0.73383748531342,0.00288749998435,-0.17696249485016,-0.49623748660088,4.32495021820068,5.2630500793457,9.05505084991455,5.41395044326782,5.88105010986328,6.52800035476685,8.91495037078857,9.15705013275146,10.0980005264282,0.08456250280142,0.1175625026226,0.23347499966621,-0.76353746652603,-0.6571124792099,-0.44426250457764,-0.86556249856949,-1.64656245708466,-3.58558750152588,12.7960510253906,15.7459506988525,18.6850509643555,7.54800033569336,7.59600019454956,4.80600023269653,10.9500007629395,11.5060501098633,11.5800008773804,0.89223748445511,1.37321245670319,1.57657504081726,-1.45749998092651,-2.21828746795654,-2.68771243095398,-6.81546258926392,-9.36100006103516,-11.2191753387451,29.238000869751,28.723051071167,25.0530014038086,2.28600001335144,-5.37405014038086,-13.44105052948,13.2210006713867,13.1989507675171,12.4350004196167,0.57722496986389,-0.61792498826981,-1.46492505073547,-2.68125009536743,-1.81389999389648,-0.93059998750687,-12.064112663269,-11.5586624145508,-10.874324798584,15.4060506820679,11.15505027771,5.02605009078979,-21.5550003051758,-21.9000015258789,-21.5839519500732,8.53095054626465,8.22705078125,9.97095012664795,-1.53312504291534,-0.60513746738434,-0.16018749773502,-0.5986750125885,-1.08501243591309,-0.98917502164841,-9.80168724060059,-7.39543724060059,-6.30038738250732,0.02100000157952,-4.35900020599365,-5.78595018386841,-20.275951385498,-17.7780017852783,-16.6399517059326,11.0320501327515,13.0360507965088,12.6840009689331,0.0015124999918,0.04303750023246,0.05898749828339,-0.21340000629425,-0.19951249659061,-0.30071249604225,-4.59772491455078,-4.09007501602173,-3.6313750743866,-5.73405027389526,-6.05895042419434,-8.11695003509521,-16.4580001831055,-16.3960514068604,-16.0200004577637,10.6770000457764,10.372950553894,11.0080509185791,0.09941250085831,0.60060000419617,0.71128749847412,-0.16981250047684,0.55811250209808,0.73589998483658,-2.84061241149902,-0.31748750805855,0.74992501735687,-11.3070001602173,-11.2729501724243,-8.24100017547607,-14.824951171875,-10.3150501251221,-7.7359504699707,12.5890502929688,11.1709508895874,8.91495037078857,SWING_RIGHT
0.14519999921322,0.05156249925494,-0.09006249904633,0.10051249712706,0.16761249303818,0.20171250402927,0.3935250043869,0.31790000200272,0.30305001139641,1.125,1.15605008602142,1.11300003528595,3.87000012397766,3.55605006217957,3.45300006866455,9.03000068664551,8.50005054473877,9.11805057525635,-0.0496375001967,0.0536249987781,0.03024999983609,0.12072499841452,0.04839999973774,-0.00797499995679,0.31363749504089,0.2923249900341,0.35199999809265,1.2280501127243,1.13700008392334,1.31400001049042,3.67995023727417,3.57000017166138,3.31905007362366,9.60195064544678,9.07695007324219,9.0730504989624,0.03451250120997,-0.01127499993891,-0.29438748955727,-0.16335000097752,-0.09955000132322,0.01003750041127,0.49032500386238,0.21147499978542,-0.10037499666214,2.54505014419556,5.4190502166748,7.98195028305054,3.88905024528503,5.11005020141602,6.02805042266846,9.88905048370361,9.89400005340576,10.687050819397,-0.30813750624657,0.09941250085831,0.64322501420975,-0.42405000329018,-1.2754499912262,-2.05548739433289,-0.45265001058578,-0.92716246843338,-2.02014994621277,10.8649501800537,16.5820503234863,23.8420505523682,6.88500022888184,8.09700012207031,9.0169506072998,12.4980001449585,13.7070007324219,15.0120010375977,1.10508751869202,0.96566247940063,0.9922000169754,-2.14596247673035,-2.01079988479614,-2.57592487335205,-5.86093759536743,-7.33163738250732,-8.62468719482422,26.4400520324707,25.9230003356934,25.1110515594482,2.22405004501343,-2.65095019340515,-7.39605045318604,13.7290506362915,12.9790506362915,14.6119508743286,1.23282504081726,0.76340001821518,0.44206249713898,-3.41453742980957,-1.71077501773834,-0.33261248469353,-9.71121215820312,-10.8158874511719,-10.7263746261597,24.105001449585,16.0600509643555,9.51195049285889,-11.6800508499146,-20.1180000305176,-21.2269515991211,15.8029508590698,12.3079509735107,8.30400085449219,-0.62424999475479,-1.07332503795624,-0.8232125043869,0.09624999761581,-0.50819998979568,-1.15101253986359,-9.43662452697754,-8.83753776550293,-8.18303775787354,1.81005012989044,0.27495002746582,-5.42700004577637,-20.439001083374,-20.3569507598877,-19.689001083374,2.79795002937317,5.87100028991699,11.9370002746582,0.23347499966621,1.46258747577667,0.94008749723434,-1.63514995574951,-1.96501243114471,-1.64257502555847,-6.93247509002686,-4.38061237335205,-3.72611236572266,-9.85305023193359,-9.88200092315674,-8.97900009155273,-16.9680004119873,-12.1590003967285,-11.3470506668091,14.2890005111694,9.9060001373291,8.5890007019043,-0.0346499979496,-0.91588747501373,-0.90846252441406,-0.99343746900558,-0.30387499928474,0.15908749401569,-3.35995006561279,-3.04397487640381,-1.56791245937347,-8.64600086212158,-10.0249500274658,-12.7840509414673,-11.7499504089355,-12.3150005340576,-10.4130001068115,8.83095073699951,10.85205078125,13.7190008163452,-0.45402500033379,-0.07933750003576,0.09295000135899,0.18892499804497,0.33261248469353,0.46557500958443,-0.47286251187325,0.54133749008179,1.22141253948212,-11.9650506973267,-9.43605041503906,-7.15605020523071,-8.24595069885254,-6.00600051879883,-4.45005035400391,13.0840501785278,11.167950630188,9.31695079803467,SWING_RIGHT
0.1898874938488,0.12594999372959,0.1387374997139,-0.08882500231266,-0.02186249941587,-0.00054999999702,0.39242500066757,0.34347498416901,0.2923249900341,4.01295042037964,4.79595041275024,7.32300043106079,4.4040002822876,4.51395034790039,5.296950340271,10.0980005264282,10.5220508575439,11.0920505523682,0.31432500481606,0.49953749775887,0.46117499470711,-0.19744999706745,-0.59111249446869,-0.88068747520447,-0.04922499880195,-0.72393751144409,-1.45832502841949,10.5880508422852,12.2140502929688,14.0200510025024,6.81495046615601,7.11195039749146,5.95095014572144,10.9840507507324,10.4809503555298,10.2150001525879,0.3740000128746,0.74112498760223,1.39562499523163,-1.31903743743896,-2.11089992523193,-2.85587501525879,-2.19793748855591,-2.9546000957489,-3.82827496528625,16.2709503173828,19.2499504089355,22.5840015411377,4.01100015640259,2.36100006103516,1.87905013561249,12.2629508972168,14.8350009918213,15.0750007629395,1.80427503585815,1.77237498760223,1.06576251983643,-3.24431252479553,-3.0685875415802,-2.52271246910095,-4.96691226959229,-6.33022499084473,-7.9030876159668,24.7800006866455,25.9200019836426,25.3380012512207,1.18995010852814,-1.42200005054474,-6.11205005645752,13.8910503387451,10.8570003509521,7.46805047988892,-0.20817500352859,-1.35107493400574,-1.60971248149872,-1.96831250190735,-1.62662494182587,-1.75972497463226,-9.52489948272705,-10.8850498199463,-11.7832002639771,22.4380512237549,17.8560009002686,12.6379508972168,-12.5779504776001,-18.9490509033203,-23.8090515136719,6.7900505065918,9.61905002593994,14.6530504226685,-0.72324997186661,0.67196249961853,0.13447499275208,-2.2375373840332,-2.1012749671936,-1.80124998092651,-12.0023746490479,-10.1921873092651,-8.63527488708496,7.40700054168701,-4.59600019454956,-7.74495029449463,-26.5770015716553,-24.1800003051758,-19.5840015411377,16.8900012969971,10.1239500045776,9.20205020904541,-0.52002501487732,-0.59551250934601,-0.0527999997139,-1.47124993801117,-1.03606247901917,-0.38046249747276,-7.2294750213623,-5.98221254348755,-4.87863731384277,-9.79800033569336,-11.0340003967285,-11.8620004653931,-16.6789512634277,-15.6780004501343,-15.1000509262085,11.9160003662109,15.657000541687,15.1560010910034,0.40383750200272,0.2239875048399,0.03657500073314,0.01539999991655,0.01539999991655,0.24639999866486,-3.04287505149841,-2.10952496528625,-1.07937502861023,-12.7249507904053,-12.9670505523682,-11.9800510406494,-11.9460000991821,-9.58005046844482,-7.39095020294189,10.8810005187988,10.5259504318237,9.61200046539307,-0.5157625079155,-0.65834999084473,-0.69341248273849,0.92537498474121,1.0147500038147,0.80616247653961,0.61696249246597,1.23199999332428,1.72259998321533,-9.17295074462891,-8.11200046539307,-6.81105041503906,-3.76005029678345,-2.31300020217896,-0.80400002002716,7.96395015716553,7.46100044250488,7.17300033569336,-0.71252501010895,-0.73383748531342,-0.74236249923706,0.5656750202179,0.43573749065399,0.30483749508858,2.02386260032654,2.0685498714447,1.8992874622345,-5.23095035552979,-3.77205014228821,-3.1800000667572,0.32295000553131,0.91905003786087,1.48200011253357,7.17600011825562,7.17600011825562,7.56105041503906,SWING_RIGHT
-0.1134374961257,-0.24433749914169,-0.34113749861717,0.10051249712706,0.11329999566078,0.26757499575615,0.33701249957085,0.30621248483658,0.36574998497963,0.76800000667572,0.51900005340576,0.31005001068115,3.84105014801025,3.61095023155212,3.39795017242432,8.40195083618164,8.83305072784424,8.75895023345947,-0.42625001072884,-0.4433000087738,-0.41359999775887,0.32298749685287,0.24213749170303,0.08992499858141,0.47011250257492,0.53707498311996,0.51590001583099,0.58095002174377,1.14600002765656,1.60395002365112,3.40305018424988,3.63000011444092,3.9340500831604,8.89995002746582,9.10095024108887,9.44595050811768,-0.3134999871254,-0.18259999155998,-0.12402500212193,-0.05692499876022,-0.13887499272823,-0.2080374956131,0.43395000696182,0.40727499127388,0.50311249494553,1.72395002841949,1.75200009346008,2.53500008583069,3.93705010414124,3.86505007743835,4.05194997787476,9.90105056762695,9.89400005340576,10.0120506286621,-0.09858749806881,-0.00494999997318,0.1047749966383,-0.26441249251366,-0.29315000772476,-0.28256249427795,0.62658751010895,0.50943750143051,0.09762500226498,4.83495044708252,7.9549503326416,10.5660009384155,5.04105043411255,6.24300050735474,6.95205020904541,10.8829507827759,11.6190004348755,11.9200506210327,0.18452499806881,0.20693749189377,-0.08896250277758,-0.34856250882149,-0.46983748674393,-0.36877501010895,-0.49829998612404,-1.42312502861023,-2.83634996414185,13.4329509735107,18.0460510253906,21.4420509338379,7.45695018768311,8.08695030212402,7.63005018234253,11.8270502090454,10.3560009002686,9.08205032348633,-0.65931248664856,-0.84246248006821,-0.21876250207424,0.06751249730587,0.76889997720718,1.04445004463196,-4.4050874710083,-5.89599990844727,-6.59202480316162,22.666051864624,18.5200500488281,13.381950378418,5.38095045089722,0.25095000863075,-3.48405027389526,11.28600025177,15.0220508575439,15.8509511947632,0.69849997758865,1.18703746795654,1.26788747310638,0.75721251964569,0.40067499876022,0.09844999760389,-6.63024997711182,-7.24322509765625,-8.42668724060059,14.6880006790161,17.0110511779785,13.7970008850098,-4.25804996490479,-6.02100038528442,-10.9879503250122,13.627950668335,11.0250005722046,11.9299507141113,2.40019989013672,2.28524994850159,1.41583752632141,-0.46557500958443,-0.67210000753403,-0.87532502412796,-9.58883762359619,-10.3879871368408,-10.8222122192383,12.0840005874634,10.9950008392334,4.32705020904541,-15.6100511550903,-17.9070014953613,-20.7480010986328,9.83205032348633,5.17095041275024,5.16600036621094,0.71032500267029,0.55494999885559,1.455162525177,-1.09353744983673,-1.43824994564056,-0.04317500069737,-10.1155996322632,-8.66401290893555,-5.60339975357056,-2.72100019454956,-7.44105052947998,-4.65105009078979,-19.1890506744385,-16.6309509277344,-14.7480010986328,7.53495025634766,12.8760004043579,8.78505039215088,1.42862498760223,1.19556248188019,0.4101625084877,-0.23361249268055,-0.89347499608994,-0.693274974823,-4.89568758010864,-4.33482503890991,-2.7586624622345,-5.28105020523071,-7.40505027770996,-11.8789501190186,-14.5039510726929,-14.2069511413574,-13.4190006256104,7.14495038986206,7.80600023269653,11.8440008163452,SWING_RIGHT
-0.26455000042915,-0.3134999871254,-0.18479999899864,0.65078747272491,0.35914999246597,-0.00687499996275,0.10188750177622,0.13695000112057,0.19552500545979,-0.05700000375509,-0.1410000026226,-0.12705001235008,4.01595020294189,3.56295013427734,3.29505014419556,7.62405014038086,8.61300086975098,9.16095066070557,-0.10917499661446,-0.19855000078678,-0.34650000929832,-0.12498749792576,0.06118749827147,0.30387499928474,0.27637499570847,0.33921250700951,0.44673749804497,0.25800001621246,0.33195000886917,0.4570500254631,3.31605005264282,3.26595020294189,3.35700011253357,9.1399507522583,9.17295074462891,9.65895080566406,-0.38582500815392,-0.30813750624657,-0.05706249922514,0.35914999246597,0.02186249941587,-1.27008748054504,0.58712500333786,0.67443752288818,0.72448748350143,1.16295003890991,2.21895003318787,5.53605031967163,4.00395011901855,4.72500038146973,4.67204999923706,9.92805004119873,9.97095012664795,11.2330503463745,0.06531249731779,0.61984997987747,0.70179998874664,-1.77663743495941,-2.36417508125305,-2.14596247673035,0.84782499074936,-0.18012499809265,-1.5827624797821,9.62895011901856,20.0740509033203,22.5030002593994,4.63095045089722,5.80200004577637,4.78500032424927,12.526050567627,13.7860507965088,14.2080011367798,0.62191247940063,0.63359999656677,0.81028747558594,-1.37871253490448,-0.49431249499321,-0.28998750448227,-3.16304993629456,-4.83821249008179,-6.45149993896484,24.28005027771,24.3850517272949,23.812952041626,3.10305023193359,-0.0259500015527,-3.90105009078979,15.0150003433228,14.2120504379272,14.7970504760742,2.7259373664856,3.62188744544983,3.20897507667542,-2.39813756942749,-3.75938749313354,-3.76351237297058,-10.3666753768921,-13.2060499191284,-14.4863128662109,30.598051071167,26.1169509887695,13.4929504394531,-10.4299507141113,-21.1069507598877,-30.4450511932373,19.1749515533447,16.4350509643555,14.4420003890991,2.36403751373291,1.62648749351501,0.91135001182556,-2.43223738670349,-1.00402498245239,-1.31587493419647,-13.378475189209,-10.5720996856689,-8.11909961700439,-2.00205016136169,-9.24900054931641,-5.53200006484985,-30.42405128479,-21.4140014648438,-16.2600002288818,11.5519504547119,6.22995042800903,4.38105010986328,0.18342499434948,-0.95314997434616,-1.26279997825623,-2.48434996604919,-2.27906250953674,-1.60325002670288,-7.07836246490479,-6.88682508468628,-6.5962872505188,-2.05695009231567,-2.9719500541687,-8.16195011138916,-15.0880508422852,-14.7100505828857,-14.53005027771,6.81705045700073,9.68100070953369,12.5410509109497,-0.88494998216629,-0.02406249940395,0.55384999513626,-0.84342497587204,-0.27939999103546,-0.31239998340607,-5.6469874382019,-4.23376226425171,-2.95129990577698,-13.2040510177612,-14.320050239563,-11.7210006713867,-12.9880504608154,-10.7410507202148,-9.16095066070557,14.9479503631592,12.9570007324219,9.82005023956299,0.57832497358322,0.22605000436306,-0.21243749558926,-0.58162498474121,-0.61668747663498,-0.34113749861717,-2.16919994354248,-1.79671251773834,-1.50397503376007,-9.26400089263916,-8.4660005569458,-8.76600074768066,-8.07600021362305,-7.52700042724609,-6.97200012207031,8.10795021057129,7.97805023193359,8.69700050354004,SWING_RIGHT
-0.10064999759197,-0.34650000929832,-0.02089999988675,0.52415001392365,0.81564998626709,0.48372501134872,1.20326244831085,1.44595003128052,1.5916999578476,-0.16995000839233,-0.591000020504,-0.07905000448227,2.93595004081726,2.53095006942749,2.87100005149841,8.9239501953125,10.6729507446289,10.8570003509521,0.33880001306534,0.44426250457764,0.23141250014305,0.08772499859333,-0.07603749632835,0.02392499893904,1.57052505016327,1.24272501468658,0.88412499427795,1.51800012588501,2.23605012893677,1.39305007457733,3.84600019454956,4.49505043029785,4.21905040740967,10.1029500961304,8.96295070648193,8.5290002822876,-0.16554999351501,-0.06132499873638,0.12815000116825,0.39957499504089,0.41772499680519,0.02502499893308,0.80739998817444,0.81386250257492,0.59138751029968,0.86595004796982,1.0069500207901,1.66095006465912,3.97995018959045,4.11195039749146,4.4320502281189,10.0140008926392,9.79395008087158,8.61795043945313,0.00893750041723,-0.20597499608994,-0.3092375099659,-0.13777500391006,-0.35708749294281,-0.97528749704361,0.45306250452995,0.53074997663498,0.88192498683929,1.40295004844666,1.45995008945465,5.11005020141602,4.38000011444092,4.2529501914978,4.97895002365112,8.53395080566406,9.15900039672852,11.2710008621216,-0.26881250739098,-0.39971250295639,-0.21023750305176,-1.38820004463196,-0.37619999051094,-0.02818750031292,0.79145002365112,-1.80097496509552,-2.54375004768372,12.271050453186,15.0060005187988,16.1080513000488,7.7160005569458,5.80500030517578,3.64200019836426,13.606050491333,16.0879516601563,17.625,1.26046252250671,1.8819625377655,2.24166250228882,-0.08249999582767,-0.90186250209808,-2.33117508888245,-5.3191876411438,-8.04787540435791,-10.0805377960205,28.7989521026611,26.8039512634277,20.7520503997803,1.69995009899139,-6.27705049514771,-14.202000617981,17.1730499267578,14.2669506072998,14.7900009155273,2.44062495231628,1.78722500801086,1.82338750362396,-3.07284998893738,-1.05723750591278,-0.1229249984026,-10.9445877075195,-11.9215250015259,-11.2468128204346,19.9980010986328,11.0899505615234,3.85305023193359,-17.7709503173828,-24.3240013122559,-23.3920516967773,15.3210010528564,12.6919507980347,9.41295051574707,1.97766244411469,1.87343752384186,1.56378746032715,-0.43999999761581,-1.41597497463226,-2.1012749671936,-10.0464372634888,-8.81196212768555,-7.6764874458313,-0.18405000865459,-2.65800023078919,-2.94300007820129,-21.1500015258789,-18.3840007781982,-15.4480504989624,7.08495044708252,7.36305046081543,9.15705013275146,0.9784500002861,0.68365001678467,0.35158750414848,-1.18291246891022,-0.05692499876022,0.62411248683929,-6.1620626449585,-5.41928768157959,-4.36246252059937,-4.86705017089844,-6.40200042724609,-5.17800045013428,-12.5400009155273,-11.367000579834,-10.7989501953125,11.6830501556396,10.8259506225586,8.94795036315918,0.38568750023842,0.34732499718666,0.01319999992847,0.0930875018239,-0.20171250402927,0.71995002031326,-4.34224987030029,-4.35820007324219,-3.37163758277893,-5.25195026397705,-6.72300052642822,-12.01305103302,-11.4889507293701,-11.9170503616333,-11.3860502243042,9.24000072479248,9.78194999694824,10.2289505004883,SWING_RIGHT
-0.09432499855757,0.17283749580383,0.15578749775887,0.12718750536442,-0.11550000309944,-0.18246249854565,0.71912497282028,0.44247499108315,0.44247499108315,1.38300001621246,0.77505004405975,0.67905002832413,3.34305024147034,3.28005003929138,3.27600026130676,10.7419500350952,9.83895015716553,9.86505031585693,0.09941250085831,0.08126249909401,0.10051249712706,-0.12402500212193,0.01333750039339,0.07823749631643,0.47863748669624,0.41373750567436,0.2743124961853,1.16805005073547,1.53000009059906,1.26105010509491,3.57495021820068,3.7020001411438,3.48405027389526,10.2409505844116,10.2409505844116,9.92805004119873,0.23031249642372,0.31542500853539,0.19841249287128,-0.09212499856949,-0.05692499876022,0.11550000309944,0.19552500545979,0.18493749201298,0.12746250629425,1.00005006790161,1.07700002193451,1.26405000686646,3.50100016593933,3.60900020599365,3.7350001335144,10.2100505828857,9.75,9.3720006942749,0.20473749935627,0.31542500853539,0.35268750786781,0.07603749632835,-0.0196624994278,-0.0686125010252,0.14341250061989,0.14657500386238,0.10078749805689,1.60395002365112,2.28405022621155,3.12495017051697,4.01805019378662,4.36094999313354,4.62900018692017,9.85095024108887,9.74805068969727,9.56595039367676,0.29411250352859,0.65174996852875,1.12846255302429,-0.14630000293255,-0.50819998979568,-0.65078747272491,0.08277499675751,-0.4100250005722,-1.18799996376038,5.10300016403198,13.7470502853394,18.1579513549805,5.05005025863647,6.51795053482056,7.46700048446655,10.3999500274658,14.4540004730225,16.7659511566162,1.86284995079041,2.23423743247986,1.41583752632141,-0.86047500371933,-0.72311252355576,-0.73053747415543,-2.31701254844666,-5.32455015182495,-6.68992519378662,21.8370018005371,22.0930519104004,21.1039505004883,7.50795030593872,1.92705011367798,-2.66295003890991,17.2590007781982,8.68905067443848,8.62005043029785,0.79860001802444,1.3136750459671,1.82228744029999,-0.74126249551773,-1.42656254768372,-2.26311254501343,-7.94667482376099,-9.18114948272705,-9.33556270599365,17.7919502258301,9.86205005645752,5.17500019073486,-8.35095024108887,-16.0099506378174,-18.1710014343262,11.203950881958,14.028000831604,14.1619510650635,2.21402502059937,2.36829996109009,2.19903755187988,-3.19632506370544,-3.77740001678467,-3.95298743247986,-8.99071216583252,-8.28726291656494,-7.55823755264282,1.16295003890991,-0.84495002031326,-1.83705008029938,-17.6700000762939,-15.7609510421753,-13.3060503005981,14.1480007171631,13.5870008468628,11.8990507125854,1.63721251487732,0.68571251630783,-0.58588749170303,-3.90623736381531,-3.28900003433228,-2.03417491912842,-6.95378732681274,-6.45149993896484,-6.11847496032715,-2.26095008850098,-1.83705008029938,-1.84200012683868,-11.2300500869751,-10.3800001144409,-10.9380006790161,10.8229503631592,9.43005084991455,9.70995044708252,-1.5054874420166,-0.98505002260208,-0.55508750677109,-0.76353746652603,0.23471249639988,-0.18892499804497,-5.94921255111694,-5.32345008850098,-4.78499984741211,-3.64005017280579,-8.19795036315918,-9.13395023345947,-11.9530506134033,-13.4860506057739,-13.6900510787964,12.1909503936768,12.5310001373291,10.9380006790161,SWING_RIGHT
0.03341250121593,0.05472499877214,0.04083750024438,0.00591249996796,0.06655000150204,0.04303750023246,0.16678750514984,0.09446249902248,0.0082499999553,1.86705005168915,1.89105010032654,1.42200005054474,4.8469500541687,4.84200000762939,4.5949501991272,9.29505062103272,8.91495037078857,8.65605068206787,0.02598750032485,0.03135000169277,0.02914999984205,-0.02818750031292,0.01856249943376,0.0196624994278,0.00934999994934,0.09968750178814,0.15289999544621,1.08900010585785,1.06995010375977,0.74400001764297,4.44705009460449,4.58100032806396,4.5949501991272,8.78999996185303,8.84505081176758,8.86695003509521,0.0749375000596,0.17710000276566,0.22178749740124,-0.10807500034571,-0.27087500691414,-0.22824999690056,0.30195000767708,0.51796251535416,0.69781249761581,0.8400000333786,1.46505010128021,2.6620500087738,4.71000003814697,4.93095016479492,5.19900035858154,9.22395038604736,9.48495006561279,9.51300048828125,-0.11879999935627,-0.05486249923706,0.3452624976635,0.65821248292923,0.61668747663498,0.25588750839233,1.04362499713898,1.62896251678467,1.90781247615814,2.55900001525879,5.21100044250488,13.4659509658813,4.85895013809204,4.82805013656616,7.4089503288269,9.9660005569458,10.8040504455566,10.3950004577637,0.7070249915123,0.39091250300407,0.21958750486374,-1.00512504577637,-2.06717491149902,-2.79083752632141,-1.38380002975464,-3.19508743286133,-4.38693761825562,21.5089511871338,20.8930511474609,22.0120506286621,9.2989501953125,6.03000020980835,4.20300006866455,6.95595026016235,8.51700019836426,11.953950881958,0.54216247797012,0.28242498636246,-0.45718750357628,-2.98031258583069,-3.3411123752594,-3.53471255302429,-7.37522506713867,-8.95565032958984,-9.8410120010376,25.8840007781982,23.7120018005371,20.2510509490967,-1.94205009937286,-8.32500076293945,-13.2679510116577,11.4460506439209,9.91305065155029,12.7870502471924,-0.94146251678467,-1.01378750801086,-1.08721244335175,-2.81434988975525,-1.27654993534088,0.09844999760389,-10.0762748718262,-10.0230627059937,-10.0273246765137,16.8979511260986,14.403000831604,12.0199508666992,-15.748950958252,-17.0929508209229,-18.2310009002686,15.6330003738403,13.9420509338379,10.0570507049561,-1.29470002651215,-1.13506245613098,-0.54766249656677,0.84232497215271,1.04032504558563,0.69437497854233,-10.0273246765137,-9.72716236114502,-9.23656272888184,7.59900045394897,3.38100004196167,0.89700001478195,-19.4020500183105,-19.1550006866455,-18.7120513916016,8.88300037384033,9.46095085144043,8.61795043945313,0.26647499203682,0.65271252393723,0.91987496614456,-0.44852501153946,-0.75185000896454,-0.82637500762939,-8.01061248779297,-6.91020011901855,-5.77788734436035,-6.62505054473877,-9.11805057525635,-9.24495029449463,-19.3159503936768,-19.0660514831543,-18.65505027771,9.9330005645752,10.5499505996704,9.51300048828125,0.54628747701645,0.28242498636246,0.12388750165701,-0.58272498846054,-0.40700000524521,-0.23567499220371,-4.37634992599487,-3.71016240119934,-2.8726499080658,-10.0519504547119,-11.2710008621216,-12.4639501571655,-17.6700000762939,-16.489049911499,-14.53005027771,9.1830005645752,9.75300025939941,10.150050163269,SWING_RIGHT
0.00261249998584,0.04936249926686,-0.01663750037551,-0.01649999991059,0.02186249941587,0.16651250422001,0.15936249494553,0.10504999756813,0.07204999774694,2.29395008087158,2.24595022201538,1.53705012798309,4.35795021057129,4.2940502166748,3.76905012130737,9.72195053100586,9.52305030822754,9.11805057525635,-0.01333750039339,0.07177499681711,0.1409374922514,0.15482500195503,0.12608750164509,0.10807500034571,0.14121249318123,0.20295000076294,0.24447499215603,1.57305002212524,1.55595004558563,1.55595004558563,3.76395010948181,3.89400029182434,4.03200006484985,9.44895076751709,9.36495018005371,8.90295028686523,0.13131250441074,0.04826249927282,-0.06764999777079,0.0867625027895,-0.08249999582767,-0.53157502412796,0.28380000591278,0.36368748545647,0.27857500314713,1.87005007266998,3.79305028915405,10.6810503005981,4.3289999961853,5.31900024414063,8.52300071716309,8.45700073242188,7.90395021438599,8.85705089569092,-0.11659999936819,-0.47203749418259,-0.45086249709129,-0.72531247138977,-0.55715000629425,-0.27939999103546,-0.68997502326965,-3.22698760032654,-4.19649982452393,17.7030010223389,19.9620018005371,26.5860004425049,11.4019508361816,8.12100028991699,7.97895050048828,9.78194999694824,12.1120510101318,14.5170011520386,-0.2389750033617,0.37922498583794,1.0954624414444,0.19415000081062,-0.25808748602867,-1.57231247425079,-6.113112449646,-9.00886249542236,-9.54195022583008,28.9500007629395,21.5950508117676,21.6169509887695,4.16400003433228,-8.50200080871582,-13.2270002365112,14.1960010528564,15.058051109314,15.9970502853394,1.52968752384186,2.50126242637634,2.59283757209778,-2.74615001678467,-2.43223738670349,-2.35564994812012,-9.97837448120117,-10.897837638855,-10.6402997970581,22.0309505462646,14.5699510574341,9.01395034790039,-16.5060005187988,-21.7680015563965,-21.7540512084961,17.6659507751465,13.8559503555298,9.14205074310303,2.10649991035461,1.33498752117157,-0.17833749949932,-2.54182505607605,-2.79839992523193,-2.76966238021851,-9.96654987335205,-9.18761253356934,-7.46996259689331,4.96605014801025,2.0350501537323,-0.63900005817413,-19.7110500335693,-18.0919513702393,-15.1960506439209,6.94800043106079,7.07295036315918,9.84405040740967,-0.89347499608994,-1.64491248130798,-2.68455004692078,-2.09591245651245,-1.1061874628067,0.39957499504089,-6.80267477035522,-6.2716498374939,-5.61508750915527,-1.59705007076263,-1.69605004787445,-2.99595022201538,-14.3550004959106,-15.2080507278442,-18.3460502624512,10.171950340271,10.243950843811,11.1730508804321,-2.54732489585876,-1.67461252212524,-0.4475624859333,0.26344999670982,-0.21230000257492,-0.36134999990463,-5.25745010375977,-4.38377475738525,-2.89712500572205,-6.12405014038086,-10.1620502471924,-12.9930009841919,-18.844051361084,-18.0150012969971,-15.9240007400513,14.8260011672974,17.7330017089844,17.7469501495361,1.1253000497818,1.11361253261566,0.99866247177124,0.26661249995232,0.52305001020432,0.75295001268387,0.60843747854233,1.82159996032715,2.46015000343323,-10.9210500717163,-7.6230001449585,-4.65105009078979,-10.2340507507324,-7.35000038146973,-4.72800016403198,11.4799509048462,9.70995044708252,9.18795013427734,SWING_RIGHT
0.61132502555847,0.66233748197556,0.61558747291565,-0.69863748550415,-0.23787499964237,-0.93279999494553,-4.33688735961914,-5.00527477264404,-7.33163738250732,15.2869510650635,18.6439514160156,16.5990009307861,4.0090503692627,3.04800009727478,-5.43600034713745,13.7410507202148,12.1099510192871,13.8460502624512,0.94971251487732,1.59458744525909,1.97243750095367,-1.22223746776581,-1.18291246891022,-1.1892374753952,-7.97761249542236,-8.41390037536621,-8.87796211242676,14.3479509353638,13.1479501724243,10.0510501861572,-9.67605018615723,-12.7840509414673,-15.3540010452271,16.5690002441406,15.6450004577637,12.8809509277344,1.7106374502182,1.42862498760223,1.31051254272461,-1.74267494678497,-1.69894993305206,-1.23392498493195,-8.91412448883057,-8.50973701477051,-7.82539987564087,4.11600017547607,1.11795008182526,-1.34295010566711,-15.4570503234863,-14.0970010757446,-12.1399507522583,10.8469505310059,11.5279502868652,11.2690505981445,1.29346251487732,0.70179998874664,0.10683749616146,-0.78595000505447,-0.5986750125885,-0.50929999351501,-7.07836246490479,-6.46854972839355,-6.65156269073486,-1.49700009822845,1.24005007743835,2.23095011711121,-10.6669502258301,-11.4670505523682,-13.6320009231567,9.33600044250488,6.07695007324219,5.74095010757446,-0.48908749222755,-0.74236249923706,-0.4507249891758,-0.15702499449253,0.23883749544621,-0.06435000151396,-7.03051233291626,-7.22521257400513,-6.66971254348755,1.38795006275177,-3.08505010604858,-9.49095058441162,-17.0449504852295,-19.5889511108398,-19.840051651001,6.67995023727417,8.31599998474121,10.4640007019043,0.12072499841452,0.53143751621246,0.49843749403954,-0.8124874830246,-0.75185000896454,-0.01443750038743,-5.28082513809204,-3.54942488670349,-1.81156253814697,-13.0500001907349,-14.1450004577637,-13.4170503616333,-18.7290000915527,-17.2849502563477,-14.881950378418,12.5790004730225,12.0379505157471,10.1290502548218,0.0749375000596,-0.04111250117421,-0.030387500301,0.33041250705719,0.26331248879433,0.21436250209808,0.57969999313354,1.24698746204376,1.82050001621246,-9.89805030822754,-9.31395053863525,-8.42805004119873,-9.40305042266846,-7.13895034790039,-5.09400033950806,8.78505039215088,9.08505058288574,9.40095043182373,0.08868750184774,0.23883749544621,0.23567499220371,0.22824999690056,0.25382500886917,0.14946250617504,2.25582504272461,2.46015000343323,2.51020002365112,-6.56895017623901,-4.74195003509521,-3.36195015907288,-2.95500016212463,-1.13505005836487,-0.04995000362396,9.33405017852783,8.13899993896484,6.88800048828125,0.02172499895096,-0.47533750534058,-0.56993746757507,-0.02818750031292,-0.12718750536442,-0.07823749631643,2.49521255493164,2.25898742675781,1.94191253185272,-2.45700001716614,-1.4389500617981,-0.98700004816055,0.49695003032684,1.4719500541687,1.94895005226135,6.52005052566528,7.94205045700073,8.7180004119873,-0.52002501487732,-0.39434999227524,-0.37097498774529,-0.08882500231266,-0.06008749827743,-0.16445000469685,1.52363753318787,0.64569997787476,0.36258751153946,-0.67005002498627,-1.95195007324219,-2.66100001335144,1.89900004863739,1.62105011940002,1.23300004005432,9.27600002288818,9.22605037689209,10.0620002746582,SWING_RIGHT
-0.21876250207424,-0.13681249320507,-0.07301250100136,0.23361249268055,0.12498749792576,0.01003750041127,0.46694999933243,0.56484997272491,0.59675002098083,0.35595002770424,0.61905002593994,0.90195006132126,3.78795027732849,3.97305011749268,4.08000040054321,9.14700031280518,9.1830005645752,8.824049949646,-0.14753749966621,-0.13584999740124,-0.04427500069141,0.00797499995679,-0.0591249987483,-0.07177499681711,0.56801247596741,0.78828752040863,0.97350001335144,0.76305001974106,0.58095002174377,1.62300002574921,3.91995024681091,3.56295013427734,4.15500020980835,9.05400085449219,10.0710000991821,9.73605060577393,-0.19648750126362,-1.0095249414444,-0.66467499732971,0.16018749773502,0.20693749189377,-0.45278748869896,0.93623751401901,0.01031249947846,-0.13653749227524,3.74295020103455,4.88505029678345,6.05100011825562,5.26395034790039,5.338050365448,4.96395015716553,8.57505035400391,10.81605052948,13.6810503005981,0.34732499718666,0.43463748693466,0.52291250228882,-0.78374999761581,-0.50077497959137,-0.32615000009537,-0.90694999694824,-2.38631248474121,-3.98475003242493,17.4160499572754,21.1590003967285,19.6980018615723,7.84800052642822,7.47405052185059,4.70100021362305,13.8150005340576,13.8960008621216,15.0049505233765,0.95287501811981,1.77443754673004,1.5552624464035,-0.55494999885559,-1.68410003185272,-2.38754987716675,-5.02974987030029,-7.54654979705811,-9.57384967803955,18.5610008239746,27.2299518585205,25.2859516143799,2.02305006980896,-1.71000003814697,-9.26400089263916,15.657000541687,12.6889505386353,15.9850511550903,1.74570000171661,2.35977506637573,2.1235499382019,-2.5972375869751,-2.04379987716675,-2.0873875617981,-10.7966375350952,-11.3107500076294,-11.3702878952026,21.3120002746582,18.9750003814697,9.77595043182373,-15.4090509414673,-19.8349514007568,-23.8180503845215,20.1330013275146,16.7970008850098,10.3800001144409,1.53188753128052,0.99549996852875,0.79433751106262,-2.17153739929199,-1.724524974823,-1.39782500267029,-10.7690000534058,-10.1028127670288,-9.25993728637695,7.31595039367676,3.4789502620697,-0.85695004463196,-22.7740516662598,-22.2109508514404,-20.0220012664795,10.1839504241943,10.4790000915527,9.85095024108887,0.50269997119904,-0.10917499661446,-0.72105002403259,-2.50139999389648,-2.56629991531372,-1.73414993286133,-7.57748746871948,-6.87926244735718,-6.03652477264404,-4.04295015335083,-5.76705026626587,-8.27205085754395,-17.8279514312744,-17.6869506835938,-18.4150505065918,8.73705005645752,10.3210506439209,12.2700004577637,-0.9978374838829,-0.75515002012253,-0.10064999759197,-0.60720002651215,-0.05266249924898,-0.11866249889135,-4.91699981689453,-3.51216244697571,-2.06909990310669,-11.4100503921509,-12.9810009002686,-12.4399509429932,-18.2980499267578,-17.5240516662598,-15.997950553894,13.5540008544922,14.6269502639771,14.4660005569458,0.50063747167587,0.86570000648499,1.10302495956421,-0.21340000629425,0.08030000329018,0.39008748531342,-0.81331247091293,0.2253624945879,1.06287503242493,-11.2350006103516,-10.0009508132935,-9.07200050354004,-13.8070507049561,-11.2470006942749,-8.62905025482178,13.6999502182007,12.4740009307861,10.6390504837036,SWING_RIGHT
-0.05059999972582,-0.03258749842644,0.01636249944568,0.18466250598431,0.16967499256134,0.16445000469685,0.42212501168251,0.48069998621941,0.47437500953674,1.13895010948181,1.46505010128021,1.74300003051758,3.63000011444092,3.82605028152466,4.02495002746582,9.11595058441162,9.37005043029785,9.34095001220703,0.03767500072718,0.02804999984801,0.02488750033081,0.18466250598431,0.15702499449253,0.09735000133514,0.42006251215935,0.39448750019073,0.39985001087189,1.6519501209259,1.58700013160706,1.74705004692078,4.00605010986328,3.94395017623901,4.15904998779297,9.08205032348633,8.99595069885254,9.18795013427734,0.03657500073314,0.01209999993443,0.03657500073314,0.08030000329018,0.08772499859333,-0.0867625027895,0.37317499518394,0.2774749994278,0.04124999791384,2.15505003929138,2.55495023727417,2.98095011711121,4.53795003890991,4.70504999160767,4.92300033569336,9.15195083618164,9.08505058288574,9.14700031280518,0.05472499877214,0.04619999974966,0.23141250014305,-0.20267499983311,-0.34540000557899,-0.48468750715256,-0.02474999986589,-0.05142499879003,-0.64515000581741,3.6780002117157,5.38305044174194,10.5400505065918,5.08395004272461,5.58405017852783,7.29195022583008,9.1230001449585,9.69795036315918,11.1250505447388,0.30057498812675,0.31226250529289,0.28132501244545,-0.43477499485016,-0.54972499608994,-0.78911250829697,-1.24327504634857,-1.86161243915558,-2.54168748855591,12.1470003128052,14.1750011444092,16.4959506988525,6.92295026779175,6.21705007553101,5.57205009460449,10.9770002365112,11.0730009078979,11.3070001602173,0.45911249518394,0.76876246929169,0.73686248064041,-1.57231247425079,-1.5361499786377,-1.54261243343353,-4.2007622718811,-5.29471254348755,-6.53455018997192,19.9780502319336,20.9530506134033,20.7949504852295,3.56100010871887,0.31095001101494,-3.93495011329651,14.0470504760742,12.4690504074097,9.79095077514648,0.3091000020504,-0.12086249887943,-0.36355000734329,-1.79478752613068,-2.03953742980957,-2.21512508392334,-7.76682472229004,-8.73743724822998,-9.41531276702881,18.5989513397217,16.0650005340576,13.2169504165649,-8.1070499420166,-11.9820003509521,-15.1650009155273,9.19995021820068,9.89205074310303,11.0749502182007,-0.35296249389648,-0.0591249987483,0.3994374871254,-2.34602499008179,-2.39813756942749,-2.06401252746582,-9.79948711395264,-9.78463745117188,-9.18967533111572,9.52905082702637,4.4850001335144,0.34395000338554,-17.5960502624512,-18.3720016479492,-17.15505027771,12.5929508209229,14.5690507888794,13.1389503479004,0.49527499079704,0.2727999985218,0.21216249465942,-1.74693751335144,-1.91606247425079,-2.07570004463196,-8.32452487945557,-7.64018726348877,-7.07836246490479,-0.99105006456375,-2.2129499912262,-4.27005004882813,-15.7009506225586,-13.993950843811,-12.5299501419067,10.4620504379272,11.28600025177,13.3999509811401,0.28874999284744,0.11110000312328,-0.34966251254082,-1.73621249198914,-1.19776248931885,-0.76147496700287,-6.41960000991821,-5.75877475738525,-5.16271257400513,-5.09895038604736,-5.33595037460327,-5.17800045013428,-12.0160503387451,-11.2680006027222,-10.6020002365112,12.5770502090454,10.5840005874634,9.43005084991455,SWING_RIGHT
-0.01127499993891,0.11219999939203,0.1387374997139,0.08139999955893,0.00907499995083,0.07507500052452,-0.19827499985695,-0.1545500010252,-0.08964999765158,1.11000001430511,0.6889500617981,0.51900005340576,4.14705038070679,4.17600011825562,4.16700029373169,9.44204998016357,9.37005043029785,8.93895053863525,0.08868750184774,-0.02516249939799,-0.08153750002384,0.15166249871254,0.171875,0.08249999582767,-0.03327500075102,-0.0109999999404,0.0082499999553,0.47805002331734,0.36300000548363,0.00900000054389,4.30800008773804,4.2480001449585,4.01805019378662,8.38500022888184,8.30205059051514,8.62695026397705,-0.030387500301,-0.07507500052452,-0.18479999899864,0.00054999999702,0.16128750145435,0.28462499380112,0.22962500154972,0.34773749113083,0.37001249194145,-0.12000000476837,0.44505003094673,0.89505004882813,4.01999998092651,4.28894996643066,4.44405031204224,8.93595027923584,8.51700019836426,8.08800029754639,-0.31776249408722,-0.3783999979496,-0.42528748512268,0.28366249799728,0.18039999902248,0.04839999973774,0.32958748936653,0.37963750958443,0.64679998159409,0.7579500079155,0.34605002403259,1.53405010700226,4.50195026397705,4.54995012283325,5.2300500869751,8.35395050048828,8.87595081329346,9.46995067596436,-0.53913748264313,-0.63813751935959,-0.34113749861717,0.00261249998584,0.08882500231266,-0.15166249871254,0.88618749380112,0.10298749804497,-0.70908749103546,6.72195053100586,19.5659999847412,30.928050994873,7.30395030975342,13.0279502868652,15.6700506210327,10.8330001831055,16.6549510955811,21.7230014801025,0.43889999389648,1.42326247692108,2.13730001449585,0.2549250125885,1.10522496700287,1.2615624666214,-3.06844997406006,-6.68029975891113,-9.36429977416992,40.3789520263672,37.2250518798828,27.1249504089355,14.3860502243042,4.11899995803833,-8.61705017089844,24.5970020294189,20.3770503997803,17.4600009918213,2.86426258087158,3.34097504615784,3.0685875415802,0.74552500247955,0.28146249055862,0.31020000576973,-10.3582878112793,-10.7509870529175,-11.1042251586914,21.8130016326904,20.9749507904053,8.91795063018799,-17.1820507049561,-23.1450004577637,-30.5479507446289,15.7759504318237,13.0360507965088,10.8949508666992,3.03228759765625,3.13555002212524,3.12702488899231,0.53047502040863,0.62314999103546,0.37303748726845,-9.93258762359619,-8.5479621887207,-7.9552001953125,3.67305016517639,4.55895042419434,5.84505033493042,-26.3430004119873,-21.8089504241943,-19.8139514923096,9.97800064086914,7.55895042419434,5.33895015716553,3.03022503852844,2.93232488632202,2.03417491912842,-0.42625001072884,-1.60105001926422,-2.63229990005493,-8.06066226959229,-8.1787748336792,-7.37206268310547,3.51000022888184,-0.48600003123283,-8.46405029296875,-19.9020004272461,-20.0290508270264,-18.8389511108398,5.2219500541687,5.95005035400391,8.83305072784424,1.46794998645782,1.21783745288849,0.87518751621246,-2.19711256027222,-1.39892494678497,-0.23361249268055,-6.35896253585815,-5.00307512283325,-2.44584989547729,-12.4639501571655,-14.3359508514404,-11.2759504318237,-17.3830509185791,-15.3330011367798,-13.6680002212524,11.5560007095337,12.5689506530762,8.55495071411133,SWING_RIGHT
-0.40177500247955,-0.27417498826981,-0.08263749629259,0.07713750004768,-0.1537249982357,-0.42734998464584,0.00082499999553,0.15619999170303,0.24873749911785,0.27000001072884,1.33995008468628,3.59595012664795,3.9100501537323,4.17900037765503,5.05005025863647,9.15705013275146,10.0140008926392,10.4140501022339,0.12925000488758,0.27926251292229,0.47079998254776,-0.68268752098083,-0.54862499237061,-0.57736247777939,-0.13653749227524,-0.76752501726151,-1.5966500043869,10.7959508895874,13.782000541687,15.9120006561279,8.0580005645752,8.62095069885254,8.41095066070557,12.6510009765625,13.2640504837036,13.711950302124,0.7400249838829,1.06466245651245,0.75817501544952,-0.79227501153946,-0.54752498865128,-0.43999999761581,-2.48627495765686,-4.36782503128052,-4.84343767166138,17.1619510650635,14.4940509796143,14.1700506210327,7.45305013656616,2.64300012588501,0.50894999504089,14.3490009307861,10.7110500335693,10.1959505081177,0.54848748445511,0.61984997987747,0.4974749982357,-0.64542502164841,-0.59537500143051,-0.44110000133514,-5.18718767166138,-7.98820018768311,-9.66336250305176,18.2110500335693,23.6599502563477,21.9450016021729,0.28905001282692,-7.53405046463013,-13.3330507278442,11.7240009307861,10.6410007476807,9.11100006103516,0.29837501049042,-0.32518750429153,-0.38582500815392,-0.40067499876022,-0.11013749986887,-0.48468750715256,-10.8987998962402,-12.1332750320435,-12.3036375045776,19.159049987793,13.4089508056641,9.76395034790039,-19.2580509185791,-28.6470012664795,-31.4130020141602,7.5949501991272,5.5900502204895,6.78495025634766,-0.26991251111031,-0.28159999847412,0.28352499008179,-0.98285001516342,-0.64762496948242,1.92142498493195,-11.9066753387451,-10.754150390625,-7.05924987792969,4.44195032119751,-2.24205017089844,-15.0210008621216,-32.7400512695313,-31.2160511016846,-25.2150020599365,8.54594993591309,10.9960508346558,12.0739507675171,1.02849996089935,1.53505003452301,1.58070003986359,2.10237503051758,1.15513753890991,0.03244999796152,-4.93391227722168,-3.48136258125305,-2.58637499809265,-14.8129510879517,-12.775050163269,-13.1490001678467,-22.5730514526367,-20.9179515838623,-18.8680515289307,8.80905055999756,6.06195020675659,5.92095041275024,1.3338874578476,0.83366250991821,0.45374998450279,-0.50709998607635,0.03877500072122,0.45498749613762,-1.66581249237061,1.04266250133514,2.36431241035461,-14.6550006866455,-13.8340511322021,-9.64200019836426,-16.6240501403809,-11.3070001602173,-8.62905025482178,7.72005033493042,7.9830002784729,6.08100032806396,-0.62218749523163,-0.91162496805191,-1.07126247882843,0.49224999547005,0.18892499804497,0.09418749809265,3.47324991226196,3.33808755874634,2.95927500724792,-2.70405006408691,-0.75000005960464,-0.16500000655651,-3.87195014953613,-1.83000004291534,-0.43095001578331,5.17095041275024,5.95695018768311,6.57705020904541,-1.19900000095367,-1.11058747768402,-0.98188751935959,0.2239875048399,-0.01539999991655,-0.14946250617504,2.54209995269775,1.98660004138947,1.57574999332428,-0.62700003385544,-0.57495003938675,0.16695000231266,0.03000000119209,0.54300004243851,0.67200005054474,7.08495044708252,8.25795078277588,8.74005031585693,SWING_RIGHT
-0.07191249728203,-0.02199999988079,-0.030387500301,0.00907499995083,-0.04949999973178,-0.29644998908043,0.24337500333786,0.22742499411106,0.46158748865128,1.00005006790161,1.11000001430511,3.61095023155212,4.22399997711182,3.95805025100708,4.80105018615723,9.44400024414062,8.93100070953369,10.0020008087158,0.00041249999776,-0.0772750005126,-0.21779999136925,0.02818750031292,0.60183751583099,0.86886250972748,0.30195000767708,0.10504999756813,0.23704999685287,3.71400022506714,2.33895015716553,2.25495004653931,5.57505035400391,4.76100015640259,4.12604999542236,10.078950881958,9.22800064086914,9.17805004119873,-0.09748750180006,0.23567499220371,0.56333750486374,0.08882500231266,-0.89017498493195,-1.97147500514984,0.28173750638962,-0.05032499879599,-0.59839999675751,5.56800031661987,8.14004993438721,12.8440504074097,4.91895008087158,5.05800008773804,5.89305019378662,10.3129501342773,10.7440509796143,10.9699506759644,0.33673748373985,-0.168850004673,-0.63703751564026,-2.32375001907349,-1.76715004444122,-1.70747494697571,-3.22162508964539,-4.39862489700317,-5.43303728103638,16.6330509185791,16.3039512634277,18.9199504852295,5.09805011749268,2.33700013160706,1.00305008888245,11.401050567627,10.2289505004883,10.2270002365112,-0.83077502250671,-0.79667496681213,-0.60087502002716,-2.24276256561279,-2.9132125377655,-3.17405009269714,-6.96973752975464,-8.79807472229004,-9.95912456512451,22.4260501861572,21.178050994873,19.0279502868652,-1.36005008220673,-7.70895051956177,-12.69105052948,11.2429504394531,12.7350006103516,14.1310510635376,-0.40191251039505,-0.35186249017715,-0.49128749966621,-2.7259373664856,-1.87247502803802,-0.77948749065399,-10.5507869720459,-10.9957370758057,-10.7636375427246,18.3690013885498,14.1390008926392,10.6090507507324,-15.6079511642456,-18.5320510864258,-18.8170509338379,14.1649503707886,13.1920509338379,10.921950340271,-0.92441248893738,-1.34584999084473,-1.33732497692108,0.59331250190735,2.05232501029968,2.67492508888245,-10.2613496780396,-9.83991241455078,-9.2621374130249,8.83005046844482,5.11200046539307,1.07205009460449,-18.316951751709,-17.9500503540039,-17.1600017547607,8.9170503616333,7.44195032119751,6.86700010299683,-0.75088751316071,0.24832500517368,1.05820000171661,1.79588747024536,-0.28366249799728,-2.00021243095398,-8.61616230010986,-8.09572505950928,-7.99136257171631,-1.49700009822845,-0.78300005197525,0.79395002126694,-15.7369508743286,-14.8939504623413,-16.0339508056641,7.94700050354004,9.93000030517578,10.8190507888794,1.00182497501373,0.4101625084877,0.1142624989152,-1.68726253509521,0.01759999990463,0.91465002298355,-8.01693725585938,-7.27842473983765,-5.72357511520386,-2.3689501285553,-7.9200005531311,-11.6899509429932,-18.6829509735107,-20.0719509124756,-19.0399513244629,10.2990007400513,9.34095001220703,8.92200088500977,0.21106250584126,-0.14107500016689,-0.5380374789238,0.01429999992251,0.42198750376701,1.02533745765686,-2.42989993095398,-1.24973750114441,-0.34292501211166,-10.7890501022339,-9.63495063781738,-9.21405029296875,-15.5239505767822,-13.678050994873,-11.9290504455566,8.62695026397705,8.1670503616333,8.3929500579834,SWING_RIGHT
0.03973750025034,0.01746249943972,0.01526249945164,-0.00687499996275,0.00687499996275,0.00907499995083,0.10931249707937,0.13062499463558,0.18163749575615,1.44600009918213,1.25400006771088,1.27995002269745,4.36500024795532,4.25505018234253,4.28894996643066,8.81205081939697,8.86005020141602,8.92905044555664,0.05788749828935,0.08552499860525,0.24626250565052,-0.02076249942183,-0.11329999566078,-0.32092499732971,0.25409999489784,0.26262500882149,0.3466374874115,1.41195011138916,0.92805004119873,0.50894999504089,4.56405019760132,4.17105007171631,3.75495028495789,8.97705078125,9.36705017089844,9.89400005340576,0.35268750786781,0.17393749952316,0.07809999585152,-0.00164999999106,0.33687499165535,0.38678750395775,0.68296247720718,0.63827496767044,0.37221249938011,2.72700023651123,4.91595029830933,6.73905038833618,4.56900024414063,5.59200048446655,6.43005037307739,8.83800029754639,8.75205039978027,8.69895076751709,0.05788749828935,-0.45925000309944,-0.70840001106262,0.16541250050068,-0.54436248540878,-0.91891247034073,-0.07053750008345,-1.83603751659393,-2.57248759269714,9.87105083465576,14.9419507980347,17.5399513244629,7.84500026702881,7.69905042648315,7.3690505027771,7.75995016098022,6.46500015258789,9.7600507736206,-0.10711249709129,0.10051249712706,0.37496250867844,-0.67210000753403,-1.01048743724823,-1.56282496452332,-5.08722496032715,-7.04742479324341,-7.51684999465942,21.6169509887695,15.7180509567261,19.6480503082275,4.78500032424927,-3.21105003356934,-3.36195015907288,12.0739507675171,13.3000507354736,16.734001159668,0.73576247692108,-0.88824999332428,-0.93610000610352,-0.08456250280142,1.17328751087189,1.10192501544952,-11.4298248291016,-11.6980876922607,-10.1155996322632,27.457950592041,3.12705016136169,2.0590500831604,-15.5940008163452,-21.8569507598877,-19.3540515899658,9.66405010223389,6.40905046463013,8.07600021362305,0.1568875014782,1.14977502822876,1.3668874502182,0.59963750839233,0.21656249463558,0.0686125010252,-8.23198699951172,-6.88888740539551,-6.18860006332397,-0.26295000314713,-3.94005012512207,-5.73600006103516,-16.2930011749268,-16.4370002746582,-15.9100503921509,9.4079999923706,8.31795024871826,8.30595016479492,1.26046252250671,0.83902502059937,0.29411250352859,0.43999999761581,0.40603750944138,0.32931250333786,-4.71679973602295,-3.79637503623962,-2.8118748664856,-8.00895023345947,-9.03404998779297,-9.96105003356934,-16.9729499816895,-17.1389999389648,-16.6020011901855,6.05700016021729,5.21205043792725,6.3400502204895,-0.04647500067949,0.38885000348091,0.6347000002861,0.53047502040863,0.61036247014999,0.18672500550747,-1.85418748855591,-0.0449624992907,0.69354999065399,-10.78005027771,-10.4659509658813,-9.00495052337646,-15.703950881958,-12.256950378418,-9.84795093536377,7.99500036239624,7.22100019454956,5.81805038452148,0.32504999637604,-0.4657124876976,-0.6434999704361,-0.27513748407364,-0.06008749827743,-0.06655000150204,1.65343749523163,1.88759994506836,1.45447504520416,-6.33705043792725,-1.66005003452301,-0.58905005455017,-5.82405042648315,-2.07105016708374,-0.47895002365112,4.8550500869751,6.0600004196167,8.44799995422363,SWING_RIGHT
0.52827501296997,0.60060000419617,0.55701249837875,-0.56141251325607,-0.43051248788834,-0.20377500355244,-1.07414996623993,-1.76577496528625,-2.4065248966217,10.1800508499146,10.7290506362915,11.3040008544922,5.99400043487549,5.06505012512207,3.22500014305115,13.0290002822876,12.4350004196167,12.0709505081177,0.56663751602173,0.71665000915527,1.06136250495911,-0.31556248664856,-0.63167500495911,-0.58052498102188,-2.90345001220703,-3.47063755989075,-4.41141223907471,12.7720508575439,15.2869510650635,17.5519504547119,2.19300007820129,2.17905020713806,0.90195006132126,12.4759502410889,14.1670503616333,13.8870010375977,1.32219994068146,1.26568746566772,0.51342499256134,-0.32931250333786,-0.49321249127388,-1.04554998874664,-5.67682504653931,-6.96024990081787,-8.35326290130615,18.1650009155273,15.961950302124,10.9660501480103,-2.57895016670227,-7.06305027008057,-13.4500503540039,11.0850009918213,9.03000068664551,9.40305042266846,0.18342499434948,0.08662500232458,0.31748750805855,-0.85194998979568,-0.48798748850822,0.33041250705719,-8.5905876159668,-8.60970020294189,-8.70759963989258,8.72895050048828,7.52400016784668,3.38595008850098,-15.2110509872437,-15.8950510025024,-16.818000793457,10.4590501785278,10.8210000991821,8.91495037078857,0.50696247816086,0.78581249713898,1.35616254806519,0.08992499858141,-0.7870500087738,-1.93847501277924,-8.65974998474121,-8.56295013427734,-8.62784957885742,0.96000003814697,-0.0430500023067,-1.0150500535965,-16.5970516204834,-16.3170013427734,-16.9680004119873,8.34495067596436,10.3279504776001,14.7180004119873,2.15435004234314,1.80427503585815,0.79323750734329,-2.54608750343323,-0.30167499184608,0.32931250333786,-8.57670021057129,-6.30574989318848,-4.83601236343384,-4.39499998092651,-10.3920001983643,-10.452000617981,-19.5120010375977,-18.9349517822266,-16.9609508514404,16.5910511016846,8.26605033874512,5.84400033950806,-0.75831252336502,-0.82431250810623,-0.37633749842644,-0.36451250314713,0.16018749773502,0.84122496843338,-2.4554750919342,-1.17727494239807,0.17215000092983,-11.9269504547119,-12.9760503768921,-10.9549503326416,-11.7400503158569,-9.56505012512207,-8.23095035552979,10.9140005111694,13.6140003204346,11.2450504302979,-0.08470000326633,-0.5986750125885,-0.85098749399185,0.97006249427795,0.23567499220371,0.17929999530315,1.23309993743896,2.26324987411499,2.50909996032715,-7.80000019073486,-3.99195027351379,-3.21195006370544,-6.56700038909912,-3.46305012702942,-1.93305003643036,7.29600048065186,6.63000011444092,7.97100019454956,-1.05847501754761,-1.39576244354248,-1.24574995040894,0.5293750166893,0.64432501792908,0.21230000257492,2.64742493629456,2.16108751296997,1.75559997558594,-1.37205004692078,0.12600000202656,-0.34995001554489,-0.78495001792908,0.86595004796982,1.35000002384186,7.87995052337646,8.76600074768066,10.1700000762939,-0.9179499745369,-0.54449999332428,0.03121249936521,-0.1229249984026,-0.23251250386238,-0.46351251006126,1.40126252174377,1.02987504005432,0.41373750567436,-0.49995002150536,-0.59895002841949,-2.75205016136169,1.40805006027222,1.16805005073547,1.03200006484985,11.2999505996704,11.60205078125,11.167950630188,SWING_RIGHT
