gyro_x_0,gyro_y_0,gyro_z_0,acc_x_0,acc_y_0,acc_z_0,gyro_x_1,gyro_y_1,gyro_z_1,acc_x_1,acc_y_1,acc_z_1,gyro_x_2,gyro_y_2,gyro_z_2,acc_x_2,acc_y_2,acc_z_2,gyro_x_3,gyro_y_3,gyro_z_3,acc_x_3,acc_y_3,acc_z_3,gyro_x_4,gyro_y_4,gyro_z_4,acc_x_4,acc_y_4,acc_z_4,gyro_x_5,gyro_y_5,gyro_z_5,acc_x_5,acc_y_5,acc_z_5,gyro_x_6,gyro_y_6,gyro_z_6,acc_x_6,acc_y_6,acc_z_6,gyro_x_7,gyro_y_7,gyro_z_7,acc_x_7,acc_y_7,acc_z_7,gyro_x_8,gyro_y_8,gyro_z_8,acc_x_8,acc_y_8,acc_z_8,gyro_x_9,gyro_y_9,gyro_z_9,acc_x_9,acc_y_9,acc_z_9,gyro_x_10,gyro_y_10,gyro_z_10,acc_x_10,acc_y_10,acc_z_10,gyro_x_11,gyro_y_11,gyro_z_11,acc_x_11,acc_y_11,acc_z_11,gyro_x_12,gyro_y_12,gyro_z_12,acc_x_12,acc_y_12,acc_z_12,gyro_x_13,gyro_y_13,gyro_z_13,acc_x_13,acc_y_13,acc_z_13,gyro_x_14,gyro_y_14,gyro_z_14,acc_x_14,acc_y_14,acc_z_14,gyro_x_15,gyro_y_15,gyro_z_15,acc_x_15,acc_y_15,acc_z_15,gyro_x_16,gyro_y_16,gyro_z_16,acc_x_16,acc_y_16,acc_z_16,gyro_x_17,gyro_y_17,gyro_z_17,acc_x_17,acc_y_17,acc_z_17,gyro_x_18,gyro_y_18,gyro_z_18,acc_x_18,acc_y_18,acc_z_18,gyro_x_19,gyro_y_19,gyro_z_19,acc_x_19,acc_y_19,acc_z_19,gyro_x_20,gyro_y_20,gyro_z_20,acc_x_20,acc_y_20,acc_z_20,gyro_x_21,gyro_y_21,gyro_z_21,acc_x_21,acc_y_21,acc_z_21,gyro_x_22,gyro_y_22,gyro_z_22,acc_x_22,acc_y_22,acc_z_22,gyro_x_23,gyro_y_23,gyro_z_23,acc_x_23,acc_y_23,acc_z_23,gyro_x_24,gyro_y_24,gyro_z_24,acc_x_24,acc_y_24,acc_z_24,gyro_x_25,gyro_y_25,gyro_z_25,acc_x_25,acc_y_25,acc_z_25,gyro_x_26,gyro_y_26,gyro_z_26,acc_x_26,acc_y_26,acc_z_26,gyro_x_27,gyro_y_27,gyro_z_27,acc_x_27,acc_y_27,acc_z_27,gyro_x_28,gyro_y_28,gyro_z_28,acc_x_28,acc_y_28,acc_z_28,gyro_x_29,gyro_y_29,gyro_z_29,acc_x_29,acc_y_29,acc_z_29,motion_type
0.100405998528,0.19629800319672,0.26427999138832,-0.11636400222778,-0.27382200956345,-0.37867501378059,0.35907500982285,0.22753900289536,0.14028799533844,0.43099999427795,0.82300001382828,0.90200001001358,4.61999988555908,4.85500001907349,4.85500001907349,8.81400012969971,8.9709997177124,9.04899978637695,0.32403498888016,0.38819399476051,0.45592498779297,-0.4589270055294,-0.57727301120758,-0.84686297178268,0.07105699926615,-0.02199999988079,-0.17328999936581,1.37199997901917,2.23499989509583,3.01999998092651,5.16900014877319,5.56099987030029,5.875,8.9709997177124,9.20600032806396,9.59799957275391,0.51277500391006,0.51309901475906,0.40875399112701,-1.25682902336121,-1.88841199874878,-3.07877802848816,-0.35408300161362,-0.52256602048874,-0.57597297430038,4.27500009536743,6.70699977874756,-0.74500000476837,6.11100006103516,6.81699991226196,1.24600005149841,9.59799957275391,8.81400012969971,9.1269998550415,-0.00457700015977,-2.2752320766449,-7.02978610992432,-2.03978490829468,4.05884885787964,7.45332717895508,-0.10809099674225,2.87841701507568,5.43953084945679,-25.6159992218018,-36.3639984130859,-33.6969985961914,-11.2270002365112,-22.8390007019043,-34.3720016479492,14.1490001678467,19.3269996643066,10.1470003128052,-9.48788642883301,-9.6528787612915,-8.6338586807251,7.23288011550903,5.87002277374268,4.06547212600708,4.20274305343628,2.32667708396912,0.7615180015564,-15.1809997558594,2.62800002098084,15.5729999542236,-38.5299987792969,-39.6279983520508,-39.8639984130859,7.95100021362305,16.1100006103516,19.6410007476807,-7.48729991912842,-6.58194398880005,-4.45725011825562,2.31505107879639,-0.13435800373554,-6.23348379135132,-0.60063397884369,-2.21192407608032,-3.97485709190369,32.4410018920898,38.1679992675781,37.8540000915527,-38.2159996032715,-27.7029991149902,-0.94900000095367,20.503999710083,8.57800006866455,-4.60099983215332,-1.7856570482254,1.07879996299744,3.65588188171387,-8.907790184021,-10.3587532043457,-9.83114528656006,-3.63736295700073,-2.89426589012146,-2.7412109375,33.9309997558594,21.5349998474121,18.0049991607666,0.22599999606609,-2.91100001335144,-2.28299999237061,-1.93400001525879,4.65500020980835,8.3430004119873,4.02920913696289,4.29811096191406,5.54676008224487,-6.12906217575073,-3.93900489807129,-2.35633301734924,-3.03910493850708,-1.90092194080353,0.12673899531364,13.5329999923706,12.121000289917,10.2379999160767,-2.12599992752075,-2.75399994850159,-3.30299997329712,9.75500011444092,10.1470003128052,11.1669998168945,7.45539093017578,9.3886079788208,8.43611812591553,-1.58144903182983,-1.11170399188995,-0.88775599002838,2.4439709186554,5.07306623458862,5.65176391601563,10.3950004577637,11.1789999008179,8.66899967193604,-2.28299999237061,-1.49899995326996,-5.81400012969971,10.9320001602173,10.3830003738403,7.79400014877319,5.75051879882813,3.32163095474243,1.03913104534149,-0.49252599477768,-0.18138200044632,0.22025099396706,4.34841823577881,3.00950503349304,1.86668598651886,6.78599977493286,4.58900022506714,4.58900022506714,-6.59800004959106,-6.67700004577637,-6.67700004577637,6.85200023651123,5.98899984359741,5.98899984359741,SWING_LEFT
0.1058330014348,0.00138999999035,-0.03902500122786,-0.3432599902153,-0.27765101194382,-0.33441999554634,-0.42595800757408,-0.2851380109787,-0.26039099693298,-1.05900001525879,-1.13699996471405,-1.05900001525879,3.12899994850159,3.12899994850159,3.20799994468689,9.75500011444092,9.83399963378906,9.59799957275391,-0.02892599999905,0.05439899861813,0.12498500198126,-0.45510500669479,-0.74581998586655,-0.71612799167633,-0.31595999002457,-0.50762397050858,-0.55726301670074,-0.58799999952316,-0.98000001907349,-0.58799999952316,3.44300007820129,3.05100011825562,3.05100011825562,9.44099998474121,8.73499965667725,8.89200019836426,0.20334300398827,0.20800000429153,0.11315400153399,-0.67337399721146,-0.59431099891663,-0.44880101084709,-0.59915101528168,-0.55488502979279,-0.44759500026703,-0.98000001907349,-2.31399989128113,-4.03999996185303,2.57999992370605,1.7960000038147,0.61900001764297,9.36299991607666,10.0690002441406,10.6180000305176,-0.72347402572632,-2.40518999099731,-5.79686594009399,0.53746598958969,2.33192110061646,4.72435712814331,0.21764400601387,1.41914105415344,3.02158808708191,-12.121000289917,-30.7150001525879,-37.2270011901855,-5.2649998664856,-17.503999710083,-28.8799991607666,12.5799999237061,13.5209999084473,11.0100002288818,-7.9200439453125,-8.34549808502197,-7.83559799194336,5.16110801696777,4.29000997543335,2.88927006721497,2.68550896644592,1.23992705345154,-0.37994599342346,-31.5779991149902,-1.76499998569489,12.9049997329712,-34.4500007629395,-39.2360000610351,-39.7849998474121,8.57800006866455,10.9320001602173,14.6979999542236,-7.04783916473389,-6.19946098327637,-5.40944719314575,1.46575999259949,-0.20911100506783,-2.35477900505066,-1.82477200031281,-3.28060698509216,-4.70368099212646,29.5380001068115,37.3839988708496,39.3450012207031,-39.9420013427734,-29.8209991455078,-20.0139999389648,18.6989994049072,14.0699996948242,-1.69799995422363,-4.62642002105713,-2.99054288864136,0.03504699841142,-4.87775897979736,-7.41625022888184,-10.3166437149048,-5.73299121856689,-5.65391397476196,-4.07531976699829,39.3450012207031,36.2070007324219,32.2050018310547,-13.5019998550415,-7.46099996566772,-4.16599988937378,-6.24900007247925,-0.52200001478195,5.12599992752075,2.80174708366394,4.4450249671936,4.84090900421143,-11.0649070739746,-10.3498058319092,-8.86285495758057,-3.02512288093567,-2.78758192062378,-2.88458704948425,28.7530002593994,27.0270004272461,24.4379997253418,-2.28299999237061,-1.49899995326996,-3.93099999427795,7.55800008773804,7.08799982070923,4.42000007629395,4.66790199279785,4.36072587966919,4.18537187576294,-6.89321088790894,-4.44650983810425,-3.46057200431824,-2.61310505867004,-1.55321395397186,-0.66867101192474,20.0450000762939,16.6709995269775,15.1020002365112,-6.28399991989136,-7.22599983215332,-8.24600028991699,4.18499994277954,5.67500019073486,6.53800010681152,3.98264002799988,3.71177005767822,3.33479499816895,-2.88731288909912,-2.52065491676331,-2.27263998985291,0.28620898723602,1.33894801139832,2.32077789306641,14.003999710083,13.6110000610352,11.4930000305176,-9.89299964904785,-12.168999671936,-15.9350004196167,6.61700010299683,5.0479998588562,4.02799987792969,SWING_LEFT
1.58686995506287,1.34317994117737,1.18849694728851,-0.7272139787674,-0.8619139790535,-0.8897460103035,-2.75448298454285,-2.30952191352844,-2.00049996376038,0.03900000080466,0.50900000333786,0.43099999427795,1.95200002193451,2.10899996757507,1.95200002193451,9.52000045776367,10.1470003128052,10.1470003128052,1.00601303577423,0.82108497619629,0.50936698913574,-0.83613699674606,-0.75419002771378,-0.55232101678848,-1.60209500789642,-1.24923896789551,-0.67042297124863,0.50900000333786,0.35199999809265,1.2940000295639,2.03099989891052,2.03099989891052,2.26600003242493,10.2259998321533,10.3830003738403,10.3830003738403,0.39370700716972,0.31600400805473,0.25776800513268,-0.53988999128342,-0.60711598396301,-0.63612401485443,-0.53632497787476,-0.50014501810074,-0.46445700526237,1.60800004005432,1.05799996852875,-0.58799999952316,2.34500002861023,1.95200002193451,0.54000002145767,10.3039999008179,10.0690002441406,10.4610004425049,0.19577799737453,-0.87935000658035,-4.43406581878662,-0.43269500136375,1.00776696205139,3.95226788520813,-0.34805598855019,1.18673396110535,5.22156715393066,-6.86499977111816,-26.32200050354,-33.1469993591309,-3.61700010299683,-17.8169994354248,-23.7019996643066,11.8730001449585,13.0500001907349,12.1090002059937,-7.85447597503662,-8.41488170623779,-7.23942089080811,4.92492723464966,3.48666405677795,2.24979400634766,6.28460597991943,2.73525905609131,0.86839497089386,-30.7940006256104,4.82399988174438,18.1620006561279,-36.6469993591309,-39.7849998474121,-39.9420013427734,3.79200005531311,15.326000213623,14.8549995422363,-6.24684906005859,-5.42545604705811,-4.60578393936157,1.09112596511841,-0.6201040148735,-2.87363195419312,-0.8640810251236,-2.89427590370178,-4.58060789108276,33.8530006408691,38.4819984436035,39.6590003967285,-38.6080017089844,-25.42799949646,-14.2869997024536,14.1490001678467,4.42000007629395,-4.05200004577637,-3.26390290260315,-1.15143704414368,1.66339194774628,-5.50749111175537,-7.98684787750244,-9.97716045379639,-5.45571088790894,-5.22984504699707,-4.1791729927063,38.1679992675781,35.5009994506836,32.6759986877441,-8.32400035858154,-5.2649998664856,-4.79400014877319,-1.69799995422363,4.34200000762939,8.10799980163574,3.5305700302124,4.4629430770874,4.67180490493774,-9.57531356811523,-8.29320430755615,-6.56664991378784,-3.71222996711731,-3.56502199172974,-3.28900599479675,23.4179992675781,20.2019996643066,17.613000869751,-3.61700010299683,-2.28299999237061,-1.26300001144409,11.8730001449585,8.81400012969971,5.59700012207031,4.78112411499023,5.07647180557251,5.94766616821289,-4.79944705963135,-3.43894910812378,-2.62023591995239,-2.62915110588074,-1.60797905921936,-0.17913800477982,13.5329999923706,10.5520000457764,8.19799995422363,-2.12599992752075,-2.59699988365173,-2.51900005340576,4.81199979782104,6.14599990844727,7.55800008773804,6.9306321144104,8.31095218658447,8.51044940948486,-2.31524991989136,-2.35620999336243,-2.14441204071045,1.22637903690338,2.99796199798584,4.91577816009521,4.90299987792969,1.05799996852875,-1.52999997138977,-3.53800010681152,-5.5,-6.20599985122681,7.16599988937378,6.14599990844727,4.9689998626709,SWING_LEFT
-0.15277400612831,-0.13075099885464,-0.12055099755526,-0.1706719994545,-0.39952999353409,-0.68753397464752,0.00249100010842,-0.14932499825954,-0.41803601384163,1.37199997901917,1.60800004005432,2.31399989128113,2.42300009727478,2.57999992370605,2.65899991989136,10.6180000305176,10.6180000305176,11.0100002288818,-0.03563300147653,0.02175699919462,-0.0397959984839,-0.97707998752594,-1.64939999580383,-1.88800203800201,-0.77772098779678,-1.52571296691895,-1.72930800914764,5.05999994277954,5.53000020980835,1.9210000038147,3.36500000953674,3.36500000953674,1.40299999713898,11.7950000762939,11.3240003585815,10.3039999008179,-0.09168499708176,-0.14171199500561,-0.35188600420952,-1.67454695701599,-1.41755199432373,-1.2474479675293,-1.4783890247345,-1.19213402271271,-0.8439159989357,2.0,3.17700004577637,-3.96199989318848,1.08899998664856,1.32500004768372,-1.10599994659424,10.7749996185303,11.08899974823,10.1470003128052,-0.6829439997673,-3.06125211715698,-6.75410985946655,-0.05546899884939,4.57796621322632,6.79655790328979,0.3911269903183,5.4258599281311,6.25567197799683,-25.6159992218018,-36.443000793457,-38.0120010375977,-12.4040002822876,-22.3680000305176,-33.6660003662109,7.71500015258789,11.9519996643066,10.8540000915527,-7.74510288238525,-7.24603796005249,-6.4041600227356,6.73569107055664,5.85704183578491,4.78344011306763,4.40641498565674,2.46475291252136,0.67788898944855,-33.382999420166,-5.76599979400635,17.7700004577637,-36.8040008544922,-39.5499992370605,-39.8639984130859,10.8540000915527,13.28600025177,11.4029998779297,-5.69622993469238,-5.19228601455688,-5.12033176422119,3.47849988937378,1.52084803581238,-0.72076398134232,-1.24147701263428,-3.40499591827393,-5.16626977920532,34.4809989929199,38.6389999389649,39.6590003967285,-39.9420013427734,-32.0960006713867,-19.7000007629395,10.4610004425049,2.06599998474121,-3.89499998092651,-4.55510187149048,-2.65702104568481,0.34982800483704,-4.00378179550171,-7.69604778289795,-10.3189210891724,-6.09709215164185,-5.90577077865601,-4.96626901626587,38.8740005493164,34.3240013122559,26.9489994049072,-10.28600025177,-4.48000001907349,-1.18499994277954,-3.50300002098084,0.26199999451637,4.73400020599365,2.63089108467102,3.65749788284302,4.01818704605103,-10.4454536437988,-9.11267375946045,-7.18130588531494,-4.29166793823242,-4.26796293258667,-4.3254771232605,19.9659996032715,13.2980003356934,7.57000017166138,0.38299998641014,0.14800000190735,-0.87099999189377,7.24499988555908,6.77400016784668,7.08799982070923,4.27408504486084,5.75356817245483,10.9740314483643,-5.05717992782593,-3.20924496650696,-2.41828298568726,-3.8626549243927,-2.33003711700439,2.6757709980011,4.51000022888184,1.37199997901917,0.03900000080466,-1.73399996757507,-3.14599990844727,-3.61700010299683,8.5,10.3039999008179,12.6579999923706,12.4250516891479,9.78555297851562,7.7018837928772,-1.4855250120163,0.03291599825025,0.94541800022125,7.84380578994751,9.48838233947754,9.6663007736206,0.90200001001358,2.31399989128113,2.39199995994568,-2.67499995231628,-1.26300001144409,-1.34200000762939,13.128999710083,13.0500001907349,11.3240003585815,SWING_LEFT
0.44767099618912,0.86284399032593,1.47332501411438,1.17403304576874,0.74120497703552,-0.29218098521233,-2.30526208877563,-2.67598509788513,-3.74311494827271,-0.74500000476837,1.84300005435944,2.86299991607666,0.93300002813339,2.34500002861023,3.05100011825562,10.3830003738403,10.6180000305176,11.3240003585815,1.78408300876617,1.77437996864319,1.62835597991943,-1.23903596401215,-1.69928896427155,-2.18795299530029,-4.77782583236694,-5.10472393035889,-5.17808485031128,2.39199995994568,3.33400011062622,4.43200016021729,3.20799994468689,3.59999990463257,4.69799995422363,13.28600025177,13.6780004501343,11.8730001449585,1.51844203472137,1.52637004852295,1.64534795284271,-2.80638003349304,-3.05737900733948,-2.30152988433838,-5.26401805877686,-5.06131219863892,-4.29616403579712,3.96099996566772,-0.82400000095367,-2.0,5.9539999961853,6.26800012588501,5.71799993515015,11.246000289917,11.08899974823,8.81400012969971,1.9342999458313,2.13001298904419,2.36251592636108,-1.39543104171753,-1.12844300270081,-0.18216300010681,-3.66688990592957,-3.3932740688324,-2.82742190361023,-0.03900000080466,-2.86299991607666,-10.5520000457764,5.6399998664856,4.54099988937378,-0.32199999690056,7.71500015258789,7.63700008392334,10.0690002441406,1.52109396457672,-2.12903690338135,-5.54914999008179,3.06209301948547,7.0816011428833,7.83532094955444,-0.36499500274658,3.28183007240295,3.08597707748413,-20.7509994506836,-28.4400005340576,-33.7750015258789,-8.48099994659424,-15.3070001602173,-26.0550003051758,9.83399963378906,10.8540000915527,5.36199998855591,-7.28948593139648,-7.5428729057312,-6.89837980270386,7.47636890411377,6.70142793655396,5.32209777832031,1.411700963974,-0.16592200100422,-1.41903698444366,-35.1870002746582,-18.632999420166,3.25500011444092,-33.0379981994629,-39.0789985656738,-39.7070007324219,4.81199979782104,7.87200021743774,7.24499988555908,-6.36129283905029,-5.96563720703125,-4.9119668006897,3.87529301643372,2.25172591209412,-2.34453392028809,-2.69293308258057,-4.10178709030151,-6.13432693481445,12.5129995346069,28.8320007324219,29.3810005187988,-39.8639984130859,-29.1940002441406,-31.3120002746582,6.61700010299683,7.79400014877319,15.168999671936,-3.34202790260315,-1.2223219871521,0.97654801607132,-5.77698802947998,-9.01164627075195,-10.561427116394,-5.97112798690796,-4.69086599349976,-3.25413608551025,31.7350006103516,30.2439994812012,26.2430000305176,-22.681999206543,-12.2469997406006,-5.34299993515015,13.128999710083,6.30299997329712,2.6159999370575,2.57726693153381,3.23087692260742,3.61520600318909,-10.2885341644287,-9.18776702880859,-7.89804697036743,-2.54179406166077,-1.99237895011902,-1.83603501319885,17.8479995727539,10.1590003967285,6.31500005722046,-3.14599990844727,-2.83200001716614,-2.83200001716614,2.30200004577637,4.10599994659424,6.30299997329712,3.56950998306274,22.5952377319336,15.4530344009399,-6.46571779251099,-12.6028537750244,-9.44543266296387,-2.28976798057556,12.1931209564209,12.0486001968384,6.00099992752075,1.13699996471405,0.98000001907349,-2.83200001716614,-6.12799978256226,-5.81400012969971,6.46000003814697,9.59799957275391,10.1470003128052,SWING_LEFT
1.45665097236633,1.54496502876282,1.67181694507599,1.46336102485657,1.19633996486664,0.93448597192764,-3.235671043396,-2.87506699562073,-2.71575689315796,-1.45099997520447,-0.98000001907349,-0.43099999427795,-0.55699998140335,-0.24300000071526,0.14800000190735,7.71500015258789,7.71500015258789,8.57800006866455,1.85413599014282,2.13474988937378,2.17076396942139,0.4363340139389,-0.28685998916626,-0.76253700256348,-2.87876892089844,-3.16556692123413,-3.12351202964783,0.1169999986887,0.74500000476837,2.23499989509583,0.38299998641014,0.85399997234344,2.34500002861023,9.83399963378906,11.0100002288818,13.2069997787476,2.26035690307617,2.38893008232117,2.50610399246216,-1.38607501983643,-2.08169198036194,-2.58662700653076,-3.21976804733276,-3.39567899703979,-3.4872899055481,4.90299987792969,6.78599977493286,6.47200012207031,4.85500001907349,7.60099983215332,10.4259996414185,16.738000869751,19.2479991912842,21.9939994812012,2.6015419960022,2.48654389381409,2.10954189300537,-2.66794109344482,-2.51312708854675,-2.15008211135864,-3.39956593513489,-3.16161608695984,-2.76300406455994,6.70699977874756,5.29500007629395,2.78399991989136,11.1319999694824,7.83699989318848,2.97199988365173,25.5249996185303,25.2889995574951,23.4850006103516,1.53944504261017,0.57645601034164,-1.70175194740295,-1.58079600334167,-0.12606899440289,2.85850691795349,-2.21471905708313,-1.08191001415253,1.2800190448761,-8.98299980163574,-29.617000579834,-37.3839988708496,-8.24600028991699,-25.2709999084473,-31.2329998016357,19.4050006866455,4.10599994659424,-23.9799995422363,-6.57214021682739,-10.781792640686,-10.6431274414063,6.35888910293579,8.74037933349609,8.87655544281006,3.46891689300537,2.36362910270691,0.92311602830887,-37.5410003662109,-30.7940006256104,-17.5349998474121,-36.9609985351563,-39.2360000610351,-39.7849998474121,-34.6500015258789,-24.8430004119873,-8.21000003814697,-9.13714599609375,-7.60587978363037,-6.08523321151733,7.85181283950806,6.58253908157349,5.33206176757813,-0.05486600100994,-1.39934802055359,-3.03026700019836,10.081000328064,24.4379997253418,19.8880004882813,-39.9420013427734,-26.9969997406006,-19.8570003509521,6.85200023651123,16.3449993133545,20.0330009460449,-3.98484897613525,0.81667000055313,2.49019503593445,3.04570889472961,-3.57990097999573,-5.80251502990723,-4.83135080337524,-6.02383613586426,-5.00988817214966,12.0419998168945,14.16100025177,19.8880004882813,-22.2110004425049,-21.6620006561279,-14.9930000305176,18.4640007019043,18.7779998779297,18.8560009002686,3.8947548866272,4.38721179962158,4.62830781936646,-7.88458299636841,-7.89532709121704,-7.7624101638794,-2.66903305053711,-1.10771596431732,0.01651199907064,22.7910003662109,19.9659996032715,15.3369998931885,-7.38299989700317,-5.02899980545044,-5.7350001335144,17.5219993591309,16.5809993743896,15.0120000839233,4.95417976379395,5.24191617965698,5.23854494094849,-7.29020118713379,-6.54635190963745,-5.68670797348022,0.46835601329803,0.40071699023247,0.13052000105381,11.96399974823,8.59000015258789,5.60900020599365,-4.79400014877319,-3.30299997329712,-2.51900005340576,10.7749996185303,7.63700008392334,7.79400014877319,SWING_LEFT
0.75366002321243,1.02617394924164,1.35147798061371,0.15177200734615,-0.23889900743961,-0.78853499889374,-2.25239109992981,-2.4910581111908,-2.8964159488678,-0.90200001001358,-0.43099999427795,2.0,-0.87099999189377,-0.71399998664856,0.54000002145767,10.3830003738403,11.08899974823,13.7559995651245,1.49443602561951,1.71712696552277,1.79343497753143,-1.29170298576355,-1.91174399852753,-2.30575799942017,-3.15100407600403,-3.48357701301575,-3.50978708267212,4.11800003051758,4.58900022506714,3.25500011444092,2.18799996376038,3.05100011825562,2.26600003242493,16.0319995880127,19.6410007476807,22.1509990692139,1.66804504394531,1.37755799293518,1.01304697990417,-2.25074791908264,-1.83012104034424,-1.19912505149841,-3.12786793708801,-2.44476699829102,-1.62988805770874,0.90200001001358,-2.0789999961853,-4.11899995803833,0.30500000715256,-1.57700002193451,-1.96899998188019,23.25,20.8169994354248,17.6009998321533,0.65825200080872,-0.23391899466515,-6.55701112747192,-0.44338798522949,1.28211295604706,5.78415489196777,-0.83013099431992,0.85670799016953,3.66130304336548,-16.6720008850098,-34.1669998168945,-33.0690002441406,-7.14699983596802,-22.3680000305176,-37.2750015258789,14.3059997558594,0.18400000035763,-2.56100010871887,-7.55824518203735,-6.93833923339844,-5.82933521270752,6.2219500541687,5.66534805297852,4.7230920791626,2.32122898101807,0.92976599931717,-0.58596497774124,-22.7910003662109,-13.3760004043579,19.181999206543,-39.3139991760254,-39.6279983520508,-39.9420013427734,6.93100023269653,12.9720001220703,8.9709997177124,-5.05048990249634,-4.2793140411377,-3.3830349445343,3.83998703956604,2.21353697776794,-0.60391598939896,-2.54928588867188,-4.79635286331177,-6.43233919143677,33.6959991455078,38.4819984436035,39.6590003967285,-39.9420013427734,-31.3899993896484,-9.42300033569336,8.26399993896484,9.83399963378906,-16.9190006256104,-3.03300404548645,4.60101890563965,4.98141193389893,-4.66504096984863,-15.5166521072388,-12.8277378082275,-7.1719651222229,-1.87748003005981,-1.80576705932617,35.1870002746582,15.0240001678467,11.8070001602173,-1.34200000762939,-9.3439998626709,-2.44000005722046,-2.40499997138977,10.1470003128052,7.79400014877319,5.04743099212646,4.80621576309204,7.35500812530518,-10.2407169342041,-8.10968589782715,-5.86624097824097,-2.16908097267151,-2.62735891342163,1.01199197769165,9.68900012969971,2.07800006866455,-3.8050000667572,-0.63599997758865,-3.93099999427795,-8.16699981689453,6.22499990463257,9.36299991607666,12.1870002746582,9.28536605834961,8.60112571716309,6.24611520767212,-5.90713500976563,-4.48540306091309,-2.73978090286255,6.27622509002686,10.3930006027222,11.2232236862183,-5.4520001411438,-4.58900022506714,-3.25600004196167,-8.71700000762939,-7.38299989700317,-5.7350001335144,11.3240003585815,9.67700004577637,7.63700008392334,2.79127502441406,1.88588500022888,2.67466306686401,-1.01173496246338,-0.74835902452469,-1.65647804737091,10.3823480606079,7.21105194091797,5.27319002151489,-0.35299998521805,5.37400007247925,6.23699998855591,-3.53800010681152,-1.18499994277954,-0.32199999690056,7.16599988937378,9.52000045776367,8.6569995880127,SWING_LEFT
0.15129199624062,0.28480699658394,0.52981597185135,0.62457299232483,0.30303999781609,-0.20917999744415,-0.98187601566315,-1.15791702270508,-1.57951295375824,-0.58799999952316,-0.50999999046326,-0.03900000080466,-0.47900000214577,-0.40000000596046,-0.00800000037998,9.59799957275391,9.59799957275391,9.99100017547607,0.70789402723312,0.85329902172089,0.76186698675156,-0.63438999652863,-1.00727999210358,-1.74582505226135,-1.93618905544281,-2.21014404296875,-2.59479904174805,1.52900004386902,3.17700004577637,5.9229998588562,0.46200001239777,0.93300002813339,1.16799998283386,11.6379995346069,13.9130001068115,17.757999420166,0.67695999145508,0.5569069981575,0.40399599075317,-2.07411599159241,-2.16361904144287,-1.89517104625702,-2.65505290031433,-2.50516510009766,-2.02846789360046,6.00099992752075,3.09800004959106,-1.68700003623962,1.08899998664856,-0.00800000037998,0.46200001239777,19.1700000762939,16.6590003967285,16.5809993743896,0.64114099740982,1.09421002864838,1.14825701713562,-0.3739530146122,0.40519100427628,4.51675176620483,-0.52165502309799,0.04329900071025,3.68163990974426,-3.25600004196167,-16.201000213623,-34.0890007019043,5.6399998664856,4.07100009918213,-1.81200003623962,11.08899974823,1.04700005054474,-5.07200002670288,-1.62060797214508,-3.38375806808472,-3.85208892822266,9.21504783630371,10.4214668273926,9.04828929901123,5.64128684997559,3.43446111679077,0.35242599248886,-38.4819984436035,-36.5209999084473,-10.1599998474121,-12.4820003509521,-21.8969993591309,-37.6669998168945,-0.12899999320507,4.10599994659424,29.6049995422363,-3.34505295753479,-2.94599890708923,-3.21296405792236,6.36533117294312,3.33532404899597,1.1560070514679,-2.24915504455566,-4.51148080825806,-6.15670490264893,13.6110000610352,25.3010005950928,29.6159992218018,-39.3930015563965,-39.7849998474121,-32.9589996337891,36.5089988708496,19.0130004882813,2.92899990081787,-3.87689900398254,-4.31549787521362,-2.51479506492615,-1.54051899909973,-6.25997495651245,-12.3231592178345,-6.91620111465454,-5.57017993927002,-2.14102292060852,32.2840003967285,30.4009990692139,27.2630004882813,-16.6410007476807,-6.20599985122681,-4.08799982070923,-5.54300022125244,-7.11199998855591,-2.64000010490417,0.2527439892292,1.25329303741455,1.23124098777771,-14.8830451965332,-13.9132528305054,-8.27381134033203,-0.53187102079391,-1.53060495853424,-3.31379890441895,27.2630004882813,24.0459995269775,7.96299982070923,-4.08799982070923,-5.2649998664856,-7.06899976730347,-2.64000010490417,4.5770001411438,9.59799957275391,1.6277619600296,3.45099091529846,6.15963411331177,-5.57070207595825,-3.80884099006653,-3.23149490356445,-2.54688692092896,-0.12777499854565,3.71066188812256,4.51000022888184,0.98000001907349,-0.74500000476837,-5.89200019836426,-4.71500015258789,-3.93099999427795,8.26399993896484,8.42099952697754,9.44099998474121,7.17597818374634,6.40736389160156,5.63647794723511,-2.76999497413635,-1.86475205421448,-1.16655898094177,7.08416223526001,8.41287899017334,8.79432964324951,-0.27399998903275,0.98000001907349,2.07800006866455,-3.53800010681152,-3.53800010681152,-3.14599990844727,9.99100017547607,9.91199970245361,9.67700004577637,SWING_LEFT
1.38487899303436,1.15909600257874,0.97079402208328,-0.20933599770069,-0.16716299951077,-0.17718100547791,-2.5946900844574,-2.33833503723145,-2.10099101066589,-1.2940000295639,-0.74500000476837,-0.50999999046326,-0.24300000071526,0.22599999606609,0.77600002288818,10.539999961853,10.3039999008179,9.59799957275391,0.82647800445557,0.69080501794815,0.55736702680588,-0.20018200576305,-0.19126699864864,-0.17619299888611,-1.89354598522186,-1.68644797801971,-1.50844204425812,-0.35299998521805,-0.195999994874,0.43099999427795,0.69700002670288,0.54000002145767,1.08899998664856,9.91199970245361,10.7749996185303,11.1669998168945,0.48649001121521,0.99531400203705,1.49152100086212,-0.25802299380302,-1.06994199752808,-2.16061401367188,-1.476557970047,-2.11937594413757,-3.20407009124756,3.01999998092651,7.88399982452393,7.09999990463257,3.44300007820129,7.91499996185303,11.0530004501343,13.128999710083,18.2280006408691,22.3080005645752,1.77376401424408,1.95706403255463,2.11700201034546,-2.62045788764954,-2.66898703575134,-2.66691899299622,-3.75633192062378,-3.90065693855286,-3.96562910079956,5.60900020599365,4.03999996185303,-0.50999999046326,12.8579998016357,12.7790002822876,11.3669996261597,22.9360008239746,18.0709991455078,8.57800006866455,2.41294097900391,3.12722611427307,1.90393602848053,-2.46303391456604,-0.64307701587677,8.08921146392822,-3.89360499382019,-2.58698892593384,5.96530723571777,-13.0629997253418,-30.0879993438721,-37.5410003662109,5.2480001449585,-8.63799953460693,-29.1940002441406,-1.77699995040894,-10.3290004730225,-4.99399995803833,-5.71912288665771,-8.19701290130615,-7.80749988555908,12.0261640548706,10.9655208587646,9.28777313232422,3.91703009605408,-0.35589900612831,-2.44181108474731,-38.5610008239746,-26.0860004425049,-10.1599998474121,-37.2750015258789,-39.3139991760254,-39.7849998474121,5.28299999237061,2.38000011444092,-0.99199998378754,-6.8139009475708,-5.68253803253174,-4.36730194091797,7.58764410018921,5.00765991210938,-0.19803200662136,-3.73928999900818,-4.57572984695435,-5.64235210418701,1.60800004005432,6.62900018692017,20.7509994506836,-39.9420013427734,-39.9420013427734,-35.8619995117188,15.7180004119873,21.4449996948242,0.65399998426437,-4.56049823760986,-3.7839949131012,-1.58533096313477,-3.28830695152283,-7.58332586288452,-11.2626218795776,-5.75645923614502,-4.80814504623413,-2.86615204811096,26.556999206543,28.9099998474121,30.0869998931885,-29.7430000305176,-25.6630001068115,-9.8149995803833,4.81199979782104,7.79400014877319,9.75500011444092,0.11481799930334,1.39059996604919,2.42287802696228,-11.5822906494141,-10.9936304092407,-9.14937019348144,-2.57293796539307,-3.00478005409241,-3.47078895568848,27.8899993896484,18.7889995574951,8.11900043487549,-1.34200000762939,-0.55699998140335,-4.48000001907349,7.24499988555908,7.08799982070923,7.79400014877319,3.1707329750061,3.59087896347046,3.98961710929871,-7.02334022521973,-5.23064708709717,-4.05107498168945,-3.47870588302612,-2.83748292922974,-1.20173001289368,-0.50999999046326,-5.2960000038147,-5.5310001373291,-8.8730001449585,-9.97200012207031,-9.02999973297119,7.32299995422363,5.36199998855591,6.06799983978271,SWING_LEFT
0.49692100286484,0.41968500614166,0.3920019865036,-0.13666999340057,-0.26386299729347,-0.42567199468613,-2.12010097503662,-2.06720209121704,-2.05407094955444,1.37199997901917,1.68599998950958,2.07800006866455,0.46200001239777,0.61900001764297,0.69700002670288,9.36299991607666,10.8540000915527,12.2659997940063,0.43137601017952,0.43149900436401,0.40977799892426,-0.67230099439621,-0.70619398355484,-0.77884298563004,-2.14876294136047,-2.04619097709656,-1.95097005367279,2.62800002098084,2.23499989509583,1.9210000038147,1.16799998283386,0.77600002288818,0.61900001764297,12.9720001220703,13.2069997787476,13.6780004501343,0.33854600787163,0.44704899191856,0.71932798624039,-0.69920402765274,-0.59882897138596,-0.65420401096344,-1.68455398082733,-1.45289099216461,-1.45105695724487,2.31399989128113,3.56900000572205,4.19700002670288,2.26600003242493,4.54099988937378,5.71799993515015,14.3839998245239,15.2469997406006,16.1889991760254,1.12486398220062,1.59187197685242,2.16268801689148,-0.77242600917816,-0.84439301490784,-0.75141102075577,-1.62940299510956,-1.9166020154953,-2.20938801765442,4.51000022888184,0.90200001001358,-6.47200012207031,8.69999980926514,10.7399997711182,12.4659996032715,16.423999786377,12.5010004043579,1.59599995613098,3.39824295043945,4.68718576431274,-1.58719301223755,-0.23237100243568,7.51601123809814,14.0077753067017,-2.52108311653137,6.16653203964233,8.33189487457275,-22.3990001678467,-34.3240013122559,-37.3059997558594,8.07199954986572,-7.06899976730347,-29.3509998321533,-10.956000328064,-8.99499988555908,11.246000289917,-4.82567119598389,-5.35808420181274,-5.26709222793579,11.6575193405151,8.52492904663086,7.49118995666504,1.58802902698517,-1.69030094146729,-3.59052610397339,-31.4209995269775,-23.261999130249,-18.7110004425049,-35.0779991149902,-37.9809989929199,-39.4710006713867,27.1720008850098,1.8309999704361,-26.4120006561279,-4.81243991851807,-4.19842386245728,-3.9061439037323,7.30039596557617,5.42037200927734,2.84500288963318,-4.89183282852173,-5.72587776184082,-6.43737077713013,-13.8470001220703,8.51200008392334,23.4179992675781,-39.7070007324219,-39.9420013427734,-39.9420013427734,-18.6450004577637,12.8929996490479,10.4610004425049,-4.24013376235962,-5.19382286071777,-5.26600503921509,0.81021898984909,-0.65328502655029,-7.03689908981323,-7.1902961730957,-7.90107297897339,-7.22982120513916,28.4400005340576,29.6949996948242,29.8519992828369,-35.3919982910156,-28.6439990997314,-20.7199993133545,-2.16899991035461,-2.875,2.92899990081787,-1.93824195861816,0.59240001440048,1.91586697101593,-13.1195573806763,-12.8962631225586,-11.9421710968018,-4.94969987869263,-4.29439496994019,-4.12590408325195,29.2240009307861,26.7140007019043,21.1429996490479,-13.5019998550415,-8.01000022888184,-4.63700008392334,6.77400016784668,7.79400014877319,7.00899982452393,2.62807703018188,3.55525708198547,5.0716381072998,-10.2837791442871,-8.23496627807617,-6.78465604782104,-4.09563207626343,-3.75670695304871,-2.7055549621582,15.4940004348755,9.60999965667725,6.55000019073486,-2.98900008201599,-3.7739999294281,-4.63700008392334,7.63700008392334,8.6569995880127,8.42099952697754,SWING_LEFT
0.99716901779175,0.84031802415848,0.75008797645569,0.19680100679398,-0.14239400625229,-0.28140199184418,-2.35037207603455,-2.17247104644775,-2.04648804664612,-0.27399998903275,0.1169999986887,2.0,0.14800000190735,0.22599999606609,1.16799998283386,9.44099998474121,10.6969995498657,11.1669998168945,0.8347259759903,0.96111297607422,0.95048499107361,-0.70499700307846,-1.39702498912811,-1.87897300720215,-2.19033098220825,-2.63950705528259,-2.92930889129639,4.03999996185303,5.13800001144409,5.29500007629395,1.95200002193451,2.65899991989136,2.89400005340576,12.1090002059937,12.2659997940063,11.9519996643066,0.99518501758575,1.20517897605896,1.45711696147919,-2.29548001289368,-2.6906840801239,-2.77585697174072,-3.17998290061951,-3.50980710983276,-3.66868090629578,5.60900020599365,5.8439998626709,5.37400007247925,5.71799993515015,8.30700016021729,9.79800033569336,11.5600004196167,16.0319995880127,16.423999786377,1.67156302928925,1.94454503059387,2.24403309822083,-2.5978569984436,-2.4464099407196,-2.23278307914734,-3.66456007957459,-3.82015895843506,-4.04811191558838,4.51000022888184,2.0,-4.19700002670288,10.8179998397827,10.2690000534058,7.67999982833862,12.1090002059937,7.79400014877319,4.73400020599365,2.68973088264465,3.60766696929932,-1.01436805725098,-1.29459095001221,2.68572902679443,12.279806137085,-3.84320306777954,-0.93734902143478,7.73380994796753,-14.4750003814697,-30.3229999542236,-36.5989990234375,2.34500002861023,-10.6000003814697,-24.9570007324219,0.02700000070035,-0.12899999320507,9.52000045776367,-6.77761077880859,-7.87058687210083,-7.42021417617798,11.8743324279785,9.20119285583496,7.24724292755127,3.26175308227539,-0.02438700012863,-1.81587994098663,-31.3430004119873,-22.6340007781982,-11.0229997634888,-35.8619995117188,-38.9220008850098,-39.7070007324219,17.8360004425049,11.0100002288818,0.96799999475479,-6.71949005126953,-5.06460905075073,-4.64402723312378,5.89047908782959,2.3860969543457,0.78038197755814,-3.0793149471283,-4.65685701370239,-5.16530609130859,-1.68700003623962,9.13899993896484,14.710000038147,-39.8639984130859,-33.2729988098145,-28.4090003967285,6.38199996948242,10.3039999008179,9.75500011444092,-4.46810817718506,-3.83737993240356,-2.19327211380005,-0.86735302209854,-3.34176993370056,-6.24091720581055,-5.44753503799438,-5.3529372215271,-4.4669041633606,21.0650005340576,23.8110008239746,24.0459995269775,-22.681999206543,-18.9160003662109,-17.6609992980957,10.539999961853,12.2659997940063,12.2659997940063,-0.38875699043274,1.1674530506134,2.42320799827576,-8.40481567382813,-9.14102935791016,-8.76310253143311,-3.29431796073914,-2.80542898178101,-2.56954908370972,24.0459995269775,21.8490009307861,19.2600002288818,-13.3450002670288,-8.79500007629395,-4.16599988937378,8.42099952697754,8.9709997177124,10.539999961853,3.25311708450317,3.7979850769043,4.4107837677002,-7.59553289413452,-5.00341796875,-4.00903415679932,-2.56653308868408,-2.22248601913452,-1.29122996330261,15.0240001678467,3.7260000705719,-0.195999994874,-1.73399996757507,-2.98900008201599,-5.02899980545044,9.99100017547607,8.81400012969971,8.10799980163574,SWING_LEFT
0.68325501680374,0.70322197675705,0.84398597478867,-0.0074410000816,-0.27060601115227,-0.7597079873085,-2.20030808448792,-2.26822400093079,-2.54635310173035,0.66600000858307,0.98000001907349,2.39199995994568,0.14800000190735,0.30500000715256,0.85399997234344,10.7749996185303,11.246000289917,11.9519996643066,0.91020399332047,0.85094898939133,0.72239297628403,-1.20399796962738,-1.63587403297424,-1.82796895503998,-2.7308828830719,-2.86290192604065,-2.75064396858215,3.01999998092651,4.74599981307983,1.2940000295639,0.93300002813339,1.08899998664856,0.54000002145767,12.2659997940063,14.0699996948242,14.3839998245239,0.61919701099396,0.79899901151657,1.15569996833801,-1.49008905887604,-0.81449598073959,-0.09260399639606,-2.20511507987976,-1.52939605712891,-0.93776601552963,-0.74500000476837,-3.17700004577637,-3.33400011062622,0.93300002813339,4.69799995422363,6.97399997711182,14.0699996948242,15.4820003509521,14.8549995422363,1.59263396263123,2.12981700897217,2.49553298950195,0.57836699485779,1.38862800598145,2.86208009719849,-0.47534400224686,0.06218000128865,1.46068704128265,-4.03999996185303,-7.33500003814697,-12.0430002212524,8.85700035095215,8.14999961853027,6.26800012588501,12.2659997940063,8.10799980163574,1.20299994945526,2.16858601570129,-2.0925989151001,-4.36394691467285,5.21505784988403,10.5961532592773,11.6717367172241,4.22588491439819,7.92733383178711,3.55894994735718,-19.4179992675781,-29.8519992828369,-31.4209995269775,2.73699998855591,-11.6979999542236,-30.3700008392334,-7.66099977493286,-10.4860000610352,1.36000001430511,-4.81710577011108,-4.1901969909668,-3.48060607910156,9.84514713287354,7.02951812744141,5.22415399551392,-1.13942801952362,-3.69887590408325,-5.0679087638855,-27.2630004882813,-18.3190002441406,-4.03999996185303,-37.5880012512207,-39.3930015563965,-39.7849998474121,16.3449993133545,9.99100017547607,-3.89499998092651,-3.02800107002258,-2.60820198059082,-2.56958293914795,4.17984485626221,0.67206102609634,-2.45702600479126,-6.14381790161133,-7.62271595001221,-7.7748818397522,7.96299982070923,28.0470008850098,33.6180000305176,-39.9420013427734,-34.6069984436035,-22.996000289917,-3.18899989128113,20.6609992980957,17.2870006561279,-2.49057197570801,-1.18248295783997,1.09077501296997,-6.03675889968872,-10.4517478942871,-11.3579711914063,-7.46292304992676,-5.96190118789673,-4.56247520446777,33.4609985351563,29.4599990844727,24.4379997253418,-16.5620002746582,-11.3059997558594,-6.91200017929077,11.0100002288818,9.1269998550415,8.26399993896484,2.72333598136902,3.70495510101318,3.93406009674072,-10.1871614456177,-8.9295654296875,-7.58116579055786,-3.86094188690186,-3.68039488792419,-3.79053497314453,20.6720008850098,16.3570003509521,9.2180004119873,-2.98900008201599,-1.41999995708466,-2.91100001335144,8.81400012969971,9.28400039672852,8.6569995880127,3.71178889274597,4.36507701873779,8.11314487457275,-6.09060478210449,-4.71923685073853,-5.0197172164917,-3.46806693077087,-2.05870699882507,2.82050490379334,3.01999998092651,-0.1169999986887,-0.58799999952316,-4.32299995422363,-4.87200021743774,-4.55800008773804,9.99100017547607,9.83399963378906,8.57800006866455,SWING_LEFT
0.04533499851823,0.17008499801159,0.32298499345779,-0.01008499972522,-0.0578970015049,-0.10265000164509,-1.43453001976013,-1.35195398330688,-1.25784301757813,-0.66699999570847,-0.74500000476837,1.45099997520447,0.30500000715256,0.46200001239777,1.48199999332428,9.44099998474121,9.36299991607666,11.08899974823,0.51978898048401,0.84362399578094,1.03395795822144,-0.32902801036835,-1.0324159860611,-1.52653801441193,-1.29703605175018,-1.71663594245911,-2.01676797866821,3.41199994087219,5.21700000762939,7.88399982452393,3.12899994850159,4.61999988555908,6.89499998092651,13.7559995651245,15.4040002822876,16.738000869751,1.26287305355072,1.39576005935669,1.39345800876617,-2.22452902793884,-2.72850704193115,-2.62022089958191,-2.55353307723999,-2.98018789291382,-2.91508102416992,8.35499954223633,6.07999992370605,5.21700000762939,8.69999980926514,8.69999980926514,8.54300022125244,17.9150009155273,19.9540004730225,20.2679996490479,1.34631097316742,1.24875295162201,1.02938103675842,-2.26463389396667,-2.02676892280579,-1.72274494171143,-2.65737009048462,-2.47951292991638,-2.22553896903992,6.00099992752075,5.29500007629395,1.37199997901917,8.30700016021729,6.11100006103516,0.93300002813339,17.757999420166,14.6979999542236,11.4809999465942,0.72970300912857,-0.00045500000124,-2.12569308280945,-0.95988297462463,0.61100399494171,2.96299290657043,-1.58497798442841,-0.18215399980545,1.81062495708466,-6.0019998550415,-14.710000038147,-31.1079998016357,-6.12799978256226,-15.3070001602173,-26.6049995422363,7.79400014877319,3.16499996185303,-7.50400018692017,-7.81642818450928,-10.4784069061279,-9.38424396514893,7.29953479766846,10.0896835327148,9.89088153839111,3.02147793769836,1.04495704174042,-0.26055100560188,-37.148998260498,-31.7350006103516,-20.7509994506836,-34.2929992675781,-38.5299987792969,-39.6279983520508,-15.8210000991821,-11.9759998321533,-2.79699993133545,-7.73229503631592,-6.20683002471924,-4.9459171295166,8.57862377166748,7.02325391769409,5.61395311355591,-1.04048597812653,-1.80754995346069,-2.70818495750427,-7.41400003433228,-0.98000001907349,15.4160003662109,-39.8639984130859,-39.9420013427734,-39.9420013427734,5.75400018692017,6.85200023651123,7.95100021362305,-3.94141793251038,-2.8969509601593,-1.69717299938202,3.89024591445923,1.21389496326447,-2.08489108085632,-4.04769611358643,-5.5388879776001,-6.26781797409058,25.1439990997314,31.4209995269775,30.3229999542236,-39.9420013427734,-35.6269989013672,-23.7800006866455,13.835000038147,18.306999206543,14.1490001678467,-0.45058500766754,0.83144599199295,2.75739002227783,-5.10170984268188,-7.34789323806763,-9.80240631103516,-5.97314977645874,-5.04250192642212,-3.18662595748901,27.9689998626709,27.9689998626709,26.7140007019043,-18.367000579834,-16.9540004730225,-11.3059997558594,10.6969995498657,10.6969995498657,16.5020008087158,4.07610416412354,4.84442090988159,5.07265996932983,-9.38973522186279,-8.23361778259277,-7.03564405441284,-2.29647898674011,-1.78295600414276,-1.52809000015259,23.0259990692139,18.0049991607666,12.5129995346069,-8.32400035858154,-6.59800004959106,-5.10799980163574,17.2870006561279,12.2659997940063,7.40100002288818,SWING_LEFT
0.09556800127029,0.10658399760723,0.10012199729681,-0.08653999865055,-0.06516700237989,0.03872700035572,-1.13569796085358,-1.03953099250793,-0.85687500238419,-0.58799999952316,-0.74500000476837,0.03900000080466,0.14800000190735,0.30500000715256,0.85399997234344,9.91199970245361,10.1470003128052,10.6969995498657,0.14036400616169,0.39680498838425,0.69882500171661,0.11700200289488,-0.19367900490761,-0.85805702209473,-0.70939499139786,-0.89002001285553,-1.43943798542023,1.37199997901917,3.56900000572205,5.37400007247925,1.7960000038147,2.97199988365173,4.30600023269653,11.4029998779297,13.128999710083,14.4619998931885,0.91247999668121,1.1430469751358,1.33005595207214,-1.49366402626038,-1.95815300941467,-2.20882701873779,-2.01085996627808,-2.48548293113709,-2.79329490661621,4.66699981689453,3.4909999370575,3.01999998092651,5.16900014877319,5.79699993133545,6.58099985122681,13.28600025177,12.4230003356934,12.9720001220703,1.47266399860382,1.48152899742126,1.71587896347046,-2.22691297531128,-1.84624898433685,-0.77478301525116,-2.86892604827881,-2.54990100860596,-1.83265805244446,0.98000001907349,-2.70600008964539,-7.88500022888184,5.71799993515015,4.46299982070923,1.87399995326996,11.6379995346069,10.4610004425049,8.81400012969971,1.69305098056793,0.30073699355125,-3.82365703582764,1.42776703834534,4.89118480682373,7.84277296066284,-0.06083500012755,2.88646101951599,3.71542811393738,-11.1009998321533,-28.3619995117188,-33.931999206543,-0.00800000037998,-14.7580003738403,-27.7029991149902,7.55800008773804,7.00899982452393,9.20600032806396,-6.59279108047485,-7.34273386001587,-7.20455408096313,8.20840740203857,7.63561105728149,6.80040979385376,1.58938705921173,-0.39347299933434,-1.87200605869293,-27.7339992523193,-17.3780002593994,-6.62900018692017,-36.0979995727539,-39.0009994506836,-39.7070007324219,1.75300002098084,-4.13100004196167,-0.20800000429153,-6.64910793304443,-6.02679777145386,-4.9659218788147,5.55480289459229,3.93679904937744,-0.47742500901222,-2.92739796638489,-3.82754492759705,-5.69737577438354,4.82399988174438,9.92399978637695,28.3610000610352,-39.8639984130859,-39.9420013427734,-23.5450000762939,5.75400018692017,8.81400012969971,6.30299997329712,-4.10511493682861,-2.5798020362854,-0.47400200366974,-3.25766205787659,-5.9352970123291,-8.75956630706787,-6.12022113800049,-5.83224201202393,-4.66307401657104,27.4979991912842,26.7140007019043,27.2630004882813,-19.4650001525879,-17.1900005340576,-14.2080001831055,2.06599998474121,4.81199979782104,8.57800006866455,1.27456700801849,2.54452991485596,3.00149893760681,-9.20956420898438,-8.83246517181396,-7.62486219406128,-4.04276609420776,-3.7992639541626,-3.86964297294617,26.3999996185303,22.3199996948242,17.4559993743896,-9.02999973297119,-3.61700010299683,-0.94900000095367,9.20600032806396,8.6569995880127,9.04899978637695,3.10889101028442,3.22144198417664,3.28127598762512,-5.91023921966553,-4.08768320083618,-2.55904197692871,-3.74127697944641,-3.50110292434692,-3.0677330493927,11.3360004425049,4.66699981689453,1.76499998569489,-0.63599997758865,-2.91100001335144,-4.16599988937378,9.28400039672852,8.26399993896484,7.55800008773804,SWING_LEFT
-0.06095999851823,0.00368100008927,0.07810500264168,-0.01504299975932,-0.15817900002003,-0.27435800433159,-0.30600500106812,-0.41588100790977,-0.48927000164986,0.19499999284744,0.58799999952316,0.66600000858307,-0.55699998140335,-0.24300000071526,-0.08600000292063,10.3039999008179,10.2259998321533,10.3039999008179,0.1212489977479,0.12498600035906,0.14938700199127,-0.29026401042938,-0.27496901154518,-0.38592100143433,-0.47277998924255,-0.4382129907608,-0.53271400928497,0.74500000476837,0.74500000476837,4.66699981689453,0.07000000029802,0.07000000029802,1.63900005817413,10.3039999008179,10.3039999008179,13.6780004501343,0.43797099590302,0.58561998605728,0.59128099679947,-1.09794104099274,-1.68026196956635,-2.23396301269531,-1.2236670255661,-1.83188796043396,-2.42765092849731,6.70699977874756,6.70699977874756,12.6700000762939,2.42300009727478,2.42300009727478,4.85500001907349,15.4040002822876,15.4040002822876,18.2280006408691,0.51198202371597,0.44796699285507,0.52852100133896,-2.84722089767456,-3.06489992141724,-2.76693105697632,-3.00396203994751,-3.10596704483032,-2.80801296234131,12.5129995346069,8.35499954223633,2.70600008964539,5.48299980163574,5.56099987030029,5.32600021362305,19.2479991912842,17.4440002441406,14.8549995422363,0.70611202716827,1.18339002132416,1.6141129732132,-2.09374690055847,-0.83642101287842,1.61322498321533,-2.23629903793335,-1.28052604198456,1.00650298595428,-5.37400007247925,-14.6319999694824,-30.7150001525879,2.97199988365173,-1.96899998188019,-17.1110000610352,9.1269998550415,1.9099999666214,-4.20900011062622,-7.0546669960022,-7.50344276428223,-6.68718814849854,10.5397939682007,9.70041370391846,8.13273143768311,4.2648720741272,1.93941903114319,0.23020699620247,-35.5009994506836,-30.3229999542236,-8.82600021362305,-36.8819999694824,-38.451000213623,-39.7849998474121,9.99100017547607,12.5799999237061,10.6969995498657,-5.7053108215332,-4.93613195419312,-4.42772006988525,6.52656412124634,5.00870609283447,3.07310009002686,-1.27609503269196,-2.69379711151123,-4.10103988647461,6.07999992370605,18.3190002441406,26.3999996185303,-39.9420013427734,-39.9420013427734,-39.9420013427734,4.89099979400635,3.63599991798401,13.28600025177,-3.98036694526672,-3.49141693115234,-2.58348488807678,0.32888400554657,-3.02866506576538,-6.34406185150146,-5.2184739112854,-5.7329888343811,-5.52022409439087,33.068000793457,31.8129997253418,29.5380001068115,-29.5860004425049,-18.5240001678467,-16.7189998626709,14.0699996948242,3.87100005149841,2.06599998474121,-1.02623403072357,1.01139402389526,2.43516898155212,-8.51220321655273,-9.46374988555908,-8.56557846069336,-4.81443500518799,-3.83296394348145,-3.36515188217163,25.6940002441406,23.3400001525879,19.1030006408691,-12.326000213623,-8.5600004196167,-5.5,6.38199996948242,9.91199970245361,8.81400012969971,3.18488311767578,3.29167294502258,3.74677610397339,-7.54909801483154,-6.34724092483521,-4.86151123046875,-3.33094501495361,-3.19105792045593,-2.28783392906189,14.4739999771118,9.92399978637695,5.68699979782104,-4.24499988555908,-4.24499988555908,-4.79400014877319,8.0290002822876,9.36299991607666,10.1470003128052,SWING_LEFT
0.66816902160645,0.99804401397705,1.16265594959259,-1.61260199546814,-2.29146099090576,-2.68647694587708,-2.09242606163025,-2.76895189285278,-3.21217608451843,7.33500003814697,8.66899967193604,8.59000015258789,5.56099987030029,7.13100004196167,7.99399995803833,13.6780004501343,16.8159999847412,18.5419998168945,1.2245090007782,1.28824996948242,1.39676201343536,-2.78613090515137,-2.69934391975403,-2.55052590370178,-3.39006495475769,-3.42513203620911,-3.50213694572449,7.09999990463257,5.29500007629395,4.11800003051758,8.22900009155273,9.17000007629394,9.5629997253418,16.8159999847412,13.5989999771118,11.4809999465942,1.55693805217743,1.80808901786804,2.1465950012207,-2.18903207778931,-0.97095197439194,1.57106900215149,-3.44098091125488,-2.54350090026855,-0.25468799471855,-2.54999995231628,-8.82600021362305,-15.6520004272461,5.6399998664856,-0.16500000655651,-6.59800004959106,8.18599987030029,5.51900005340576,4.02799987792969,1.02968204021454,-4.71390104293823,-8.7780933380127,6.44887781143188,10.0601453781128,10.2498073577881,4.80603790283203,5.76543092727661,2.29556393623352,-23.4190006256104,-29.6949996948242,-30.2450008392334,-15.8559999465942,-28.4090003967285,-36.8040008544922,0.81099998950958,0.18400000035763,1.20299994945526,-8.92037868499756,-6.58198881149292,-5.58920192718506,8.85449886322021,6.11407899856567,4.89275884628296,-0.03394300118089,-2.24117088317871,-3.15339303016663,-25.5370006561279,-2.0,12.5129995346069,-39.1580009460449,-39.9420013427734,-39.9420013427734,2.77300000190735,1.20299994945526,5.51900005340576,-4.84150314331055,-4.2306170463562,-3.51400399208069,3.31275010108948,1.06162297725677,-1.9037070274353,-4.15136814117432,-5.15448808670044,-5.8097939491272,23.4969997406006,26.8700008392334,29.4599990844727,-39.9420013427734,-35.3919982910156,-17.3470001220703,12.7360000610352,15.168999671936,5.67500019073486,-2.55844211578369,-0.70117598772049,1.53618502616882,-5.10798311233521,-8.02432727813721,-9.11783981323242,-6.0157618522644,-5.43777704238892,-4.29524898529053,28.2040004730225,23.9680004119873,21.2999992370605,-15.5419998168945,-14.3649997711182,-12.7180004119873,4.81199979782104,14.4619998931885,17.9150009155273,3.03429794311523,3.92248797416687,4.14780282974243,-8.39082336425781,-7.46538686752319,-6.5198450088501,-3.42673492431641,-2.83100605010986,-2.16067600250244,19.0249996185303,15.4160003662109,11.7279996871948,-10.3640003204346,-7.93200016021729,-5.65700006484985,14.3059997558594,9.20600032806396,7.32299995422363,4.48448610305786,5.43692111968994,7.16440486907959,-5.49947786331177,-4.82318210601807,-5.30646514892578,-0.97848701477051,0.97285801172256,3.61298608779907,10.3159999847412,6.55000019073486,2.47099995613098,-4.71500015258789,-3.22499990463257,-3.61700010299683,7.16599988937378,8.0290002822876,7.71500015258789,8.51158237457275,8.94157695770264,8.08231925964355,-5.7022271156311,-5.21367597579956,-3.78107595443726,6.10713911056519,8.26350879669189,8.6992244720459,1.76499998569489,2.0,3.56900000572205,-3.06800007820129,-2.44000005722046,-0.47900000214577,7.95100021362305,8.10799980163574,8.81400012969971,SWING_LEFT
0.30673599243164,0.27770799398422,0.6646980047226,-2.38079690933228,-2.02701592445374,-1.25249195098877,-2.7594940662384,-2.4033670425415,-1.85041797161102,2.86299991607666,0.50900000333786,-0.90200001001358,1.71700000762939,3.5220000743866,4.07100009918213,13.0500001907349,15.326000213623,15.7959995269775,1.05496096611023,1.37699699401855,1.70694398880005,-0.08911900222301,1.1029200553894,2.21145796775818,-0.80597698688507,0.26869800686836,1.16151404380798,-3.17700004577637,-3.09899997711182,-4.35400009155273,4.54099988937378,4.77699995040894,4.61999988555908,13.0500001907349,11.3240003585815,8.9709997177124,1.84691596031189,1.39162397384644,-0.28152000904083,3.19705891609192,4.6132550239563,6.53319501876831,1.95333695411682,3.26790690422058,4.37102699279785,-9.06099987030029,-15.4160003662109,-24.125,2.03099989891052,-2.12599992752075,-10.9130001068115,6.38199996948242,4.34200000762939,4.65500020980835,-3.07344007492065,-4.97759819030762,-5.34564399719238,8.02740001678467,8.10092830657959,7.12347221374512,3.22021293640137,0.49932301044464,-1.73967397212982,-32.3629989624023,-30.4799995422363,-26.3999996185303,-23.8589992523193,-35.3129997253418,-37.6669998168945,7.32299995422363,8.73499965667725,7.71500015258789,-5.00060319900513,-4.4616961479187,-4.0783371925354,6.07563495635986,4.88628578186035,3.58519411087036,-3.14681005477905,-4.11447191238403,-4.9861741065979,-14.8669996261597,4.82399988174438,19.8880004882813,-39.3930015563965,-39.8639984130859,-39.9420013427734,7.79400014877319,7.63700008392334,8.81400012969971,-3.96004509925842,-3.87747001647949,-3.29524302482605,1.94058299064636,-0.87129199504852,-4.7905158996582,-5.93395900726318,-6.71362018585205,-6.61148500442505,33.9309997558594,36.9129981994629,29.1459999084473,-35.2350006103516,-24.878999710083,-14.9930000305176,16.5020008087158,16.8950004577637,9.28400039672852,-1.74757695198059,0.31794801354408,1.97895896434784,-8.06905555725098,-9.77586364746094,-9.22666454315186,-5.64976787567139,-4.1752290725708,-3.17346405982971,24.3600006103516,22.0849990844727,20.7509994506836,-17.9740009307861,-17.0330009460449,-12.2469997406006,13.5209999084473,19.9540004730225,17.3649997711182,3.09516906738281,3.5490300655365,3.56467199325562,-8.00326538085938,-6.86980009078979,-5.73983812332153,-2.48904204368591,-2.03393197059631,-1.23479795455933,19.4169998168945,14.3170003890991,9.06099987030029,-9.6579999923706,-2.20499992370605,-1.41999995708466,13.3640003204346,6.93100023269653,7.16599988937378,3.94070100784302,4.72723817825317,6.55160188674927,-4.71498680114746,-4.10237598419189,-4.42538404464722,-0.33391401171684,0.65851002931595,2.84024691581726,3.56900000572205,1.52900004386902,-0.58799999952316,-2.36199998855591,-2.98900008201599,-3.85199999809265,7.00899982452393,7.55800008773804,8.9709997177124,9.91206741333008,8.91493606567383,5.71991920471191,-5.6284818649292,-4.29175996780396,-1.78842794895172,8.12061786651611,10.8041515350342,10.4959621429443,-1.21599996089935,-1.05900001525879,0.43099999427795,-3.93099999427795,-3.7739999294281,-2.36199998855591,8.73499965667725,8.18599987030029,9.04899978637695,SWING_LEFT
0.82839298248291,1.14783501625061,1.18324303627014,-1.13379502296448,-2.15918493270874,-3.11619305610657,-1.78488099575043,-2.91927695274353,-3.93758010864258,8.98200035095215,11.1789999008179,10.3950004577637,6.03200006484985,7.44399976730347,6.65999984741211,13.835000038147,15.5609998703003,16.3449993133545,0.96104001998901,0.70148897171021,0.53457200527191,-3.58005094528198,-3.50367307662964,-2.98879408836365,-4.24492979049683,-3.935142993927,-3.21570706367493,8.27600002288818,6.23699998855591,2.0,5.01200008392334,3.75699996948242,0.69700002670288,15.9530000686646,16.1100006103516,15.7959995269775,0.4522559940815,0.17141099274158,-0.95775598287582,-1.85134899616241,-0.12921600043774,2.28085207939148,-1.8884220123291,0.05199800059199,2.69637703895569,-3.41300010681152,-12.1999998092651,-24.5170001983643,-4.08799982070923,-10.4429998397827,-14.2080001831055,13.9919996261597,11.5600004196167,7.79400014877319,-3.44974708557129,-6.46161079406738,-7.77332496643066,5.19716215133667,7.33712482452393,8.33073711395264,4.94186019897461,4.78485202789307,2.99099206924438,-31.2639999389648,-33.3040008544922,-33.3040008544922,-22.132999420166,-32.4889984130859,-36.2550010681152,1.125,-3.34599995613098,-2.01200008392334,-7.20397806167603,-6.07724094390869,-5.2387490272522,8.07373142242432,6.93523406982422,5.67039203643799,1.43144094944,0.28121599555016,-0.93280202150345,-20.9869995117188,-3.41300010681152,14.7880001068115,-39.4710006713867,-39.8639984130859,-39.9420013427734,10.1470003128052,8.42099952697754,7.08799982070923,-4.7404580116272,-4.09950590133667,-3.25741505622864,4.1273398399353,1.89696800708771,-0.67047697305679,-2.55052900314331,-4.25498485565186,-5.49282217025757,28.4400005340576,31.8920001983643,28.0470008850098,-39.9420013427734,-26.1340007781982,-19.2299995422363,14.3839998245239,11.08899974823,6.77400016784668,-2.30982398986816,-0.99393600225449,1.14880800247192,-3.46540999412537,-5.62263488769531,-7.49473285675049,-6.05977487564087,-5.8618631362915,-4.57184982299805,25.5370006561279,25.3010005950928,23.1049995422363,-19.9360008239746,-16.5620002746582,-12.0900001525879,12.6579999923706,19.9540004730225,17.6790008544922,2.79873394966125,3.83128690719604,4.1674919128418,-7.56827878952026,-6.49311017990112,-5.48440217971802,-3.42462301254272,-2.29952597618103,-1.61316704750061,19.496000289917,16.2000007629395,12.7480001449585,-8.32400035858154,-4.63700008392334,-2.51900005340576,11.1669998168945,8.81400012969971,8.5,4.44765996932983,4.92990922927856,9.6272497177124,-4.50903415679932,-3.46301794052124,-5.36911678314209,-1.08222794532776,0.0481720007956,5.5351390838623,8.98200035095215,2.62800002098084,1.13699996471405,-2.04800009727478,-3.7739999294281,-4.08799982070923,8.57800006866455,9.04899978637695,9.44099998474121,12.669041633606,9.68825531005859,6.72442293167114,-6.52116584777832,-4.39095306396484,-2.11468100547791,11.3878870010376,11.1956949234009,9.9375810623169,0.43099999427795,0.35199999809265,-0.35299998521805,-3.6949999332428,-3.14599990844727,-3.06800007820129,9.99100017547607,10.6180000305176,9.91199970245361,SWING_LEFT
1.47532999515533,1.34674394130707,1.31156301498413,-1.31691598892212,-1.071702003479,-0.59249401092529,-1.29689395427704,-1.10474801063538,-0.8211709856987,2.47099995613098,1.76499998569489,-0.43099999427795,4.93400001525879,4.93400001525879,3.5220000743866,11.9519996643066,10.539999961853,7.79400014877319,1.23694002628326,0.91280698776245,0.30991798639297,0.07525599747896,0.69788098335266,1.49636197090149,-0.34347298741341,0.01085499953479,0.3592129945755,-2.0,-2.94199991226196,-6.62900018692017,1.32500004768372,0.14800000190735,-2.91100001335144,6.77400016784668,6.77400016784668,7.40100002288818,-0.82972198724747,-2.98889088630676,-5.09321117401123,2.87470602989197,4.78974485397339,6.18813610076904,1.14248394966125,1.77670395374298,1.28777205944061,-8.43400001525879,-15.3380002975464,-18.7110004425049,-4.40100002288818,-9.26599979400635,-12.0120000839233,7.87200021743774,8.0290002822876,7.16599988937378,-6.19476318359375,-6.44418811798096,-6.1837329864502,6.80769681930542,6.93010187149048,6.31932401657104,0.23969599604607,-0.74129998683929,-1.61660301685333,-26.556999206543,-24.2029991149902,-13.8470001220703,-20.7199993133545,-32.5670013427734,-38.1380004882813,3.40000009536743,0.26199999451637,2.69400000572205,-5.73797798156738,-5.22337293624878,-4.76724195480347,5.22907781600952,3.93694591522217,2.49477100372314,-2.47014188766479,-3.30781292915344,-4.29310083389282,-1.76499998569489,11.6499996185303,23.7320003509521,-39.4710006713867,-39.8639984130859,-39.9420013427734,7.48000001907349,9.67700004577637,14.8549995422363,-4.22662115097046,-3.2507688999176,-1.90102696418762,0.53538197278976,-2.13312792778015,-4.69100713729858,-5.36395883560181,-6.0670862197876,-6.03290176391602,31.3419990539551,33.3819999694824,29.1459999084473,-35.7840003967285,-23.6229991912842,-18.4449996948242,20.9740009307861,17.5219993591309,9.20600032806396,-0.58575701713562,0.92799299955368,2.58585691452026,-6.27268981933594,-7.98700618743896,-8.80537700653076,-5.55126905441284,-4.30726003646851,-2.91098499298096,25.9290008544922,24.2029991149902,21.5349998474121,-16.1700000762939,-12.6389999389648,-9.57999992370606,7.71500015258789,10.9320001602173,11.7950000762939,3.74911999702454,4.27099323272705,4.24100017547607,-8.50058555603027,-7.86797904968262,-6.88333606719971,-2.02958297729492,-1.66281795501709,-1.36277496814728,18.2399997711182,15.2589998245239,11.3360004425049,-6.44099998474121,-3.6949999332428,-2.83200001716614,8.3430004119873,6.85200023651123,7.16599988937378,4.40339803695679,5.36069202423096,9.48061466217041,-5.62041997909546,-4.71070623397827,-5.71497011184692,-0.92557400465012,0.05620500072837,3.8769690990448,7.49200010299683,4.90299987792969,3.17700004577637,-2.51900005340576,-1.81200003623962,-1.49899995326996,8.18599987030029,8.9709997177124,8.9709997177124,14.7713060379028,12.9373474121094,9.48627281188965,-7.3473219871521,-5.36583089828491,-2.54695391654968,10.1961240768433,11.0142784118652,9.83429145812988,2.54900002479553,0.58799999952316,0.19499999284744,-1.26300001144409,-1.41999995708466,-1.34200000762939,9.04899978637695,9.44099998474121,9.36299991607666,SWING_LEFT
1.16916596889496,1.10327196121216,0.91406697034836,-1.96261703968048,-2.22219395637512,-2.27807998657227,-2.29534292221069,-2.61916708946228,-2.62115406990051,8.04100036621094,7.25600004196167,4.51000022888184,5.2480001449585,3.91400003433228,1.95200002193451,16.0319995880127,13.7559995651245,12.1870002746582,0.72725999355316,0.52256900072098,0.2452799975872,-1.8829540014267,-1.09372699260712,0.11427599936724,-2.12394189834595,-1.14924597740173,0.28946000337601,0.19499999284744,-3.64800000190735,-5.60900020599365,-0.32199999690056,-2.44000005722046,-4.00899982452393,12.4230003356934,13.2069997787476,12.9720001220703,-0.56754398345947,-2.45800089836121,-4.62318086624146,1.74788296222687,3.5237820148468,5.24740314483643,2.2303318977356,3.6391909122467,3.69920611381531,-11.0229997634888,-15.3380002975464,-21.693000793457,-9.57999992370606,-12.7959995269775,-16.7980003356934,9.20600032806396,6.14599990844727,3.63599991798401,-5.90357303619385,-6.19004487991333,-5.87313508987427,6.65534687042236,7.51298522949219,7.33823919296265,2.80802798271179,1.68179297447205,0.54998397827148,-31.5,-29.617000579834,-19.3390007019043,-24.9570007324219,-32.8810005187988,-38.2159996032715,1.98800003528595,1.8309999704361,1.43900001049042,-5.41124820709229,-4.84038209915161,-4.25118494033813,6.5491418838501,5.43148183822632,4.01746702194214,-0.51906800270081,-1.52280700206757,-2.66353797912598,-7.02199983596802,6.94299983978271,17.3770008087158,-39.5499992370605,-39.8639984130859,-39.9420013427734,3.71399998664856,8.57800006866455,14.6979999542236,-3.61861991882324,-2.86794400215149,-2.0543749332428,2.2786979675293,-0.00817499961704,-2.53943109512329,-3.91202688217163,-5.08418321609497,-5.71936416625977,24.2029991149902,28.6749992370605,26.2430000305176,-36.8819999694824,-24.7999992370605,-21.113000869751,20.3470001220703,14.4619998931885,7.32299995422363,-1.04388701915741,0.43150898814201,2.05720901489258,-4.65334415435791,-6.90395784378052,-8.21257209777832,-5.63479709625244,-4.59759187698364,-3.34679102897644,25.3010005950928,25.3010005950928,25.3799991607666,-19.6219997406006,-19.6219997406006,-12.7959995269775,9.04899978637695,9.04899978637695,12.8929996490479,3.23293995857239,3.83531093597412,3.96367597579956,-8.2664041519165,-7.74156999588013,-6.61473989486694,-2.63702988624573,-2.53344297409058,-2.30850791931152,22.8689994812012,18.3190002441406,12.5909996032715,-5.5,-2.91100001335144,-2.20499992370605,9.52000045776367,9.1269998550415,9.28400039672852,4.17266893386841,6.21698617935181,12.1035652160645,-5.1696891784668,-3.49547004699707,-5.53045177459717,-2.01546907424927,0.46292200684547,7.91774606704712,6.55000019073486,0.50900000333786,-0.74500000476837,-2.98900008201599,-2.91100001335144,-3.14599990844727,9.99100017547607,11.6379995346069,10.6180000305176,11.3711996078491,7.9498291015625,4.08379602432251,-4.63455486297607,-2.35570907592773,0.38089001178741,11.3032026290894,11.1498403549194,8.83400344848633,-1.76499998569489,-1.45099997520447,1.9210000038147,-3.6949999332428,-3.06800007820129,-0.32199999690056,9.36299991607666,9.1269998550415,9.83399963378906,SWING_LEFT
0.06576000154018,0.07885400205851,0.22586500644684,-0.44343000650406,-0.41203999519348,-0.54641097784042,-1.10008895397186,-1.00095999240875,-1.06312298774719,1.13699996471405,2.31399989128113,1.68599998950958,1.16799998283386,1.95200002193451,2.18799996376038,10.3830003738403,11.246000289917,10.7749996185303,0.51477700471878,0.78405702114105,1.26567804813385,-0.83632302284241,-1.0175689458847,-1.41586899757385,-1.29610800743103,-1.49092602729797,-2.00497007369995,1.9210000038147,2.94099998474121,3.88299989700317,3.36500000953674,5.56099987030029,7.52299976348877,10.6180000305176,11.7950000762939,14.3839998245239,1.58304703235626,1.69941604137421,1.67846298217773,-1.75680100917816,-1.6827689409256,-1.38464200496674,-2.48109602928162,-2.56345200538635,-2.3723840713501,2.94099998474121,2.47099995613098,1.68599998950958,7.36600017547607,6.81699991226196,6.89499998092651,15.4820003509521,15.4820003509521,16.8159999847412,1.56742799282074,1.26639604568481,0.76744699478149,-1.04219305515289,-0.38833200931549,0.54111099243164,-2.04059791564941,-1.34744501113892,-0.35616600513458,-0.27399998903275,-1.52999997138977,-6.94299983978271,5.48299980163574,4.30600023269653,-2.12599992752075,17.9930000305176,17.1299991607666,11.0100002288818,-0.06905800104141,-1.70437502861023,-5.95849990844727,1.87774097919464,3.80589604377747,6.50360488891602,0.95344400405884,2.51164102554321,3.2488911151886,-9.68900012969971,-24.988000869751,-33.8530006408691,-4.40100002288818,-22.3680000305176,-35.1559982299805,7.79400014877319,-4.67999982833862,-0.60000002384186,-8.98256874084473,-8.84914398193359,-8.08615875244141,7.63022422790527,7.38768005371094,6.62273788452148,1.38964796066284,-0.04309200122952,-1.03073394298553,-34.9519996643066,-22.9479999542236,-3.09899997711182,-38.7649993896484,-39.6279983520508,-39.8639984130859,3.71399998664856,-1.07099997997284,-3.97399997711182,-7.32146787643433,-6.39827394485474,-4.33053922653198,5.47395706176758,3.75836801528931,-1.12601804733276,-2.00868010520935,-3.00624489784241,-5.21289491653442,5.60900020599365,21.2999992370605,34.2449989318848,-39.9420013427734,-39.9420013427734,-21.3479995727539,-1.07099997997284,13.128999710083,7.32299995422363,-3.360347032547,-1.39767599105835,0.84937697649002,-4.31812381744385,-6.92988920211792,-7.91756105422974,-6.15716600418091,-6.18571186065674,-5.34916877746582,34.3240013122559,29.3810005187988,28.4400005340576,-17.1900005340576,-14.2080001831055,-13.1890001296997,6.46000003814697,12.3439998626709,12.9720001220703,2.4315390586853,3.37806296348572,3.9554660320282,-7.86536121368408,-7.3952579498291,-6.63534021377563,-4.48247289657593,-3.95784306526184,-3.56103610992432,24.2029991149902,19.3390007019043,14.16100025177,-8.79500007629395,-5.10799980163574,-2.67499995231628,10.7749996185303,7.00899982452393,7.40100002288818,4.2042350769043,4.51629686355591,4.78073215484619,-5.42519187927246,-4.21323680877686,-3.19159293174744,-2.82806801795959,-1.85915100574493,-0.79147100448608,11.8070001602173,3.01999998092651,-1.37300002574921,-2.04800009727478,-3.7739999294281,-5.18599987030029,8.6569995880127,10.0690002441406,8.3430004119873,SWING_LEFT
0.09675300121307,0.13183499872684,0.23122499883175,-0.16329799592495,-0.28060099482536,-0.43011599779129,-0.30584600567818,-0.39155000448227,-0.5191770195961,1.13699996471405,1.37199997901917,1.84300005435944,0.46200001239777,0.93300002813339,2.18799996376038,10.4610004425049,10.6969995498657,11.5600004196167,0.58500200510025,0.94203197956085,1.28846299648285,-0.78347998857498,-1.30034399032593,-1.90826904773712,-0.89332699775696,-1.43102502822876,-2.10801792144775,3.96099996566772,6.94299983978271,6.23699998855591,3.83500003814697,6.42399978637695,7.60099983215332,12.8929996490479,15.0900001525879,15.168999671936,1.54303395748138,1.65342605113983,1.6363719701767,-2.19099688529968,-2.16962909698486,-2.10761308670044,-2.53242492675781,-2.6650230884552,-2.71040606498718,4.74599981307983,4.74599981307983,4.51000022888184,7.36600017547607,7.75799989700317,7.36600017547607,14.7760000228882,15.168999671936,13.5209999084473,1.46267795562744,1.48801803588867,1.50314700603485,-1.92992496490479,-1.45406794548035,-0.41150599718094,-2.59363603591919,-2.39659690856934,-1.66022002696991,1.60800004005432,-2.23600006103516,-8.82600021362305,5.9539999961853,2.73699998855591,-2.98900008201599,9.20600032806396,5.20499992370605,3.24300003051758,1.2360600233078,-2.55776691436768,-8.31917572021484,2.16873598098755,7.76273012161255,9.30087661743164,0.72347700595856,6.17479276657104,4.77045297622681,-22.7129993438721,-29.8519992828369,-26.7919998168945,-12.6389999389648,-22.996000289917,-30.6060009002686,2.06599998474121,5.44000005722046,7.79400014877319,-9.3715295791626,-8.64681053161621,-7.40957689285278,8.36221218109131,6.86350297927856,5.41893911361694,2.10319495201111,0.26966199278831,-0.90584599971771,-21.2220001220703,-15.1029996871948,-3.7260000705719,-37.2750015258789,-39.3139991760254,-39.7849998474121,7.71500015258789,7.63700008392334,5.83199977874756,-5.68017387390137,-5.09231615066528,-4.25990676879883,2.28986501693726,0.33407700061798,-1.7772730588913,-2.81401705741882,-3.55217695236206,-4.01668214797974,12.9049997329712,18.3969993591309,19.8090000152588,-33.6660003662109,-23.7800006866455,-15.5419998168945,8.6569995880127,13.0500001907349,11.6379995346069,-3.14609694480896,-1.73521196842194,-0.05736799910665,-3.90892601013184,-5.95026922225952,-6.97951984405518,-4.25496101379395,-4.1784930229187,-3.87955188751221,18.8680000305176,18.9459991455078,18.5540008544922,-13.6590003967285,-13.423999786377,-10.9919996261597,9.36299991607666,9.59799957275391,10.7749996185303,1.63524794578552,2.91756701469421,3.47707509994507,-7.07156610488892,-6.60260009765625,-5.9932599067688,-3.52014493942261,-3.17186188697815,-2.70277810096741,16.9850006103516,14.3170003890991,11.96399974823,-7.53999996185303,-4.48000001907349,-1.96899998188019,11.3240003585815,9.1269998550415,7.63700008392334,4.07326793670654,4.68300580978394,6.17982292175293,-4.47645807266235,-3.725182056427,-3.42376589775085,-1.62142097949982,-0.97924000024796,0.73277097940445,6.78599977493286,4.98099994659424,3.80399990081787,-1.34200000762939,-1.73399996757507,-1.89100003242493,7.08799982070923,8.18599987030029,9.1269998550415,SWING_LEFT
1.22311103343964,1.19317400455475,1.05860996246338,-1.82579398155212,-1.72923600673676,-1.55071604251862,-2.01395606994629,-1.97732901573181,-1.86373102664948,4.58900022506714,3.6470000743866,3.7260000705719,5.16900014877319,4.77699995040894,4.14900016784668,15.0120000839233,14.9329996109009,14.1490001678467,0.85813599824905,0.68441599607468,0.43468099832535,-1.35202705860138,-1.11630094051361,-0.22342500090599,-1.65194296836853,-1.36876702308655,-0.45532101392746,3.88299989700317,0.82300001382828,-5.21700000762939,3.5220000743866,1.7960000038147,-0.00800000037998,13.128999710083,13.2069997787476,12.8929996490479,0.13717700541019,-0.44173601269722,-1.41111195087433,1.28485095500946,2.99923706054688,4.74738311767578,0.91414999961853,2.37062406539917,3.57036304473877,-10.081000328064,-12.3570003509521,-13.4549999237061,-1.41999995708466,-2.44000005722046,-2.91100001335144,10.0690002441406,4.18499994277954,0.65399998426437,-3.34943604469299,-6.10470676422119,-5.63687896728516,6.93792486190796,8.01132297515869,6.65910482406616,4.27550792694092,1.15202605724335,-0.48124301433563,-23.261999130249,-30.7940006256104,-17.6919994354248,-13.2670001983643,-29.5069999694824,-38.5299987792969,2.06599998474121,15.168999671936,12.3439998626709,-5.10360622406006,-4.68090009689331,-4.27436017990112,5.32991695404053,4.0139741897583,2.38845705986023,-1.83762001991272,-3.02514505386353,-4.01910781860352,-3.01999998092651,10.3159999847412,18.8680000305176,-39.6279983520508,-39.8639984130859,-39.9420013427734,6.30299997329712,7.79400014877319,14.0699996948242,-3.89568710327148,-3.58958292007446,-2.94310688972473,0.41588199138641,-2.04564809799194,-5.05100393295288,-4.77729797363281,-5.25749206542969,-5.14471197128296,26.1639995574951,30.2439994812012,30.1660003662109,-34.7639999389648,-21.4260005950928,-17.2679996490479,18.4640007019043,16.1100006103516,13.5989999771118,0.48957198858261,2.19276809692383,3.29660892486572,-9.17162418365478,-9.2932596206665,-8.4767894744873,-3.34056401252747,-2.37816905975342,-2.03426194190979,22.7119998931885,19.8880004882813,18.0830001831055,-10.2069997787476,-8.48099994659424,-7.69700002670288,9.36299991607666,11.0100002288818,11.1669998168945,3.88331007957459,4.00951290130615,4.41412782669067,-7.45271921157837,-6.28714179992676,-5.21213006973267,-1.87000894546509,-1.33866000175476,-0.41231799125671,12.9049997329712,10.8649997711182,7.96299982070923,-5.18599987030029,-3.38199996948242,-3.06800007820129,10.3039999008179,10.1470003128052,9.36299991607666,5.60076999664307,8.687331199646,9.27054786682129,-4.5825400352478,-4.96089315414429,-4.76972007751465,1.26738905906677,5.64519309997559,7.75391101837158,6.39300012588501,3.09800004959106,1.60800004005432,-3.30299997329712,-3.85199999809265,-3.7739999294281,8.6569995880127,7.48000001907349,7.79400014877319,6.4416241645813,4.48359298706055,3.38176298141479,-2.48522591590881,-1.03670394420624,-0.06168099865317,8.05184745788574,7.13736391067505,6.34006500244141,0.35199999809265,0.35199999809265,1.9210000038147,-3.6949999332428,-3.6949999332428,-2.12599992752075,8.18599987030029,8.18599987030029,9.52000045776367,SWING_LEFT
0.46316599845886,0.56558102369308,0.95667600631714,-1.48298001289368,-1.19736695289612,-0.52476197481155,-1.59378397464752,-1.36050701141357,-0.92269200086594,1.13699996471405,0.03900000080466,-0.50999999046326,2.65899991989136,3.5220000743866,4.85500001907349,9.75500011444092,9.75500011444092,10.4610004425049,1.25807905197144,2.21885800361633,2.38860011100769,0.23501400649548,0.82541197538376,0.80774199962616,-0.3894650042057,-0.3593829870224,-0.75950998067856,0.27399998903275,-0.1169999986887,-1.68700003623962,6.34600019454956,8.07199954986572,8.38599967956543,10.6969995498657,12.3439998626709,13.9130001068115,2.23688197135925,2.06018900871277,1.89833295345306,0.94707298278809,0.51144200563431,0.11065600067377,-0.79505401849747,-1.16698503494263,-1.4247339963913,-1.68700003623962,0.50900000333786,-2.62800002098084,8.38599967956543,8.54300022125244,6.34600019454956,13.9130001068115,9.44099998474121,6.77400016784668,1.85434103012085,1.11127495765686,-2.02548289299011,0.48330798745155,3.06707692146301,7.39834499359131,-1.17203497886658,0.66773998737335,3.04857206344604,-10.7869997024536,-22.7910003662109,-23.8110008239746,1.08899998664856,-7.38299989700317,-15.9350004196167,4.65500020980835,3.32200002670288,7.40100002288818,-5.6398458480835,-7.29052591323853,-7.438392162323,8.27477264404297,6.93053579330444,5.33625411987305,1.41455101966858,-1.08476495742798,-2.58102297782898,-14.710000038147,-10.8660001754761,-16.201000213623,-21.8190002441406,-23.9370002746582,-28.4869995117188,11.8730001449585,13.128999710083,9.99100017547607,-6.96734523773193,-6.4444899559021,-5.51094818115234,4.28364276885986,3.51373791694641,1.12571799755096,-3.20967602729797,-3.51139497756958,-4.11437892913818,-20.6730003356934,-13.6899995803833,6.78599977493286,-35.7050018310547,-38.8440017700195,-35.1559982299805,4.02799987792969,1.98800003528595,7.87200021743774,-5.17961883544922,-4.98828077316284,-4.80619812011719,0.00593499979004,-1.10200500488281,-3.06504106521606,-4.0374641418457,-4.00339794158936,-4.07687711715698,14.003999710083,18.5540008544922,23.6539993286133,-32.2529983520508,-29.2719993591309,-24.1720008850098,4.9689998626709,2.14499998092651,4.42000007629395,-3.79483294487,-1.80069804191589,0.2046619951725,-6.16689109802246,-8.63334846496582,-9.64554309844971,-4.12587976455688,-3.97451496124268,-3.80107808113098,26.7919998168945,27.1840000152588,25.6940002441406,-17.5820007324219,-13.1099996566772,-9.26599979400635,7.40100002288818,9.36299991607666,8.73499965667725,1.88021802902222,3.20934295654297,4.22607612609863,-9.59573745727539,-8.61148643493652,-7.26757097244263,-3.560702085495,-3.28839898109436,-2.88458609580994,24.0459995269775,16.4360008239746,11.3360004425049,-7.38299989700317,-5.10799980163574,-5.5,9.44099998474121,9.59799957275391,8.42099952697754,4.99702978134155,5.96706914901733,7.93617820739746,-6.14249277114868,-5.56394815444946,-5.78214311599731,-2.08014988899231,-0.60425698757172,2.09287810325623,7.57000017166138,4.90299987792969,3.4909999370575,-5.4210000038147,-5.10799980163574,-4.32299995422363,7.55800008773804,8.0290002822876,8.5,SWING_LEFT
0.50370401144028,0.58846497535706,0.5441489815712,-0.99816399812698,-1.47087895870209,-1.53563499450684,-1.38006103038788,-1.77187299728394,-1.76290702819824,3.4909999370575,3.01999998092651,-0.195999994874,1.71700000762939,1.95200002193451,1.16799998283386,11.4809999465942,10.8540000915527,10.3039999008179,0.56480598449707,0.65952098369598,0.81974202394485,-1.27775502204895,-0.61133897304535,0.41846799850464,-1.49258005619049,-0.865827023983,0.06078699976206,-2.23600006103516,-2.31399989128113,-2.47099995613098,1.32500004768372,2.18799996376038,3.67799997329712,11.4029998779297,12.1090002059937,11.3240003585815,0.99116599559784,1.1869649887085,1.36990201473236,1.19643199443817,2.11509490013123,2.74795794487,0.74005597829819,1.4950350522995,1.80928802490234,-2.86299991607666,-3.4909999370575,-2.86299991607666,4.38500022888184,6.03200006484985,7.36600017547607,10.7749996185303,10.7749996185303,11.0100002288818,1.8549610376358,3.16524791717529,3.2695209980011,2.49744009971619,0.47216999530792,-0.31839001178741,1.12981200218201,-1.60141098499298,-2.51982092857361,-1.52999997138977,-1.2940000295639,-7.02199983596802,8.22900009155273,5.09100008010864,0.69700002670288,10.539999961853,6.14599990844727,5.67500019073486,2.50969791412354,-0.33006298542023,-5.1191201210022,0.74468302726746,4.90453290939331,7.65777683258057,-1.75607097148895,1.08615005016327,0.96907901763916,-17.8479995727539,-23.4969997406006,-21.693000793457,-5.57800006866455,-9.8149995803833,-24.4860000610352,3.40000009536743,2.92899990081787,3.87100005149841,-7.55644178390503,-7.87814807891846,-7.28831720352173,7.22983598709106,5.55186700820923,3.96794509887695,-1.63649296760559,-3.47518110275269,-4.24933290481567,-12.6700000762939,-12.6700000762939,-4.98199987411499,-31.7830009460449,-31.7830009460449,-32.3320007324219,7.08799982070923,7.08799982070923,8.6569995880127,-6.50864601135254,-5.82623815536499,-5.31729412078857,2.78524208068848,1.5403059720993,0.16220200061798,-4.56306314468384,-4.89568996429443,-5.23189306259155,2.54900002479553,4.58900022506714,3.4909999370575,-24.1720008850098,-17.9740009307861,-14.7580003738403,3.16499996185303,0.73299998044968,0.49700000882149,-4.76781511306763,-4.13691186904907,-3.35816192626953,-1.10221600532532,-2.00459003448486,-3.10469508171082,-5.19201612472534,-4.8298487663269,-4.34493780136108,3.09800004959106,4.19700002670288,6.47200012207031,-15.0719995498657,-16.7980003356934,-17.6609992980957,2.92899990081787,8.10799980163574,15.7959995269775,-1.78191602230072,0.05416600033641,1.5234409570694,-4.67053604125977,-5.2806921005249,-5.18472194671631,-3.48802304267883,-2.38748288154602,-1.46287703514099,8.27600002288818,10.1590003967285,10.8649997711182,-18.1310005187988,-16.0130004882813,-14.3649997711182,18.621000289917,19.0130004882813,18.9340000152588,2.55238604545593,3.14444398880005,3.54979491233826,-4.9714298248291,-4.92018890380859,-4.99777889251709,-0.86024302244186,-0.52315098047256,-0.29659900069237,12.9840002059937,13.5329999923706,11.8850002288818,-9.26599979400635,-6.67700004577637,-4.87200021743774,13.835000038147,11.3240003585815,11.08899974823,SWING_LEFT
1.28296196460724,1.37264800071716,1.29663300514221,-1.53189694881439,-1.59980702400208,-1.51317095756531,-2.33323788642883,-2.61598300933838,-2.55663394927979,4.66699981689453,5.37400007247925,5.76599979400635,4.61999988555908,5.2480001449585,3.99200010299683,15.7959995269775,18.2280006408691,16.9729995727539,0.95352298021317,0.85100197792053,0.48981800675392,-1.57939994335175,-1.73521399497986,-1.70073902606964,-2.39614391326904,-2.41647100448608,-1.94613301753998,4.82399988174438,4.98099994659424,1.52900004386902,3.28600001335144,0.85399997234344,-5.02899980545044,10.3830003738403,7.48000001907349,6.14599990844727,-0.30718401074409,-1.86122095584869,-5.68682479858398,-1.2695529460907,-0.58379799127579,1.58113503456116,-0.71874099969864,0.9311820268631,3.34466195106506,1.52900004386902,-6.39400005340576,-25.5370006561279,-5.02899980545044,-13.7379999160767,-28.4869995117188,6.14599990844727,2.22300004959106,2.06599998474121,-9.68234252929688,-9.03301906585693,-7.30458879470825,5.41646909713745,7.19268608093262,6.99256181716919,3.79989910125732,2.90917801856995,2.03050208091736,-36.3639984130859,-31.9710006713867,-16.75,-37.1180000305176,-39.2360000610351,-39.7849998474121,6.06799983978271,8.6569995880127,7.08799982070923,-5.90201282501221,-4.93651676177979,-4.17829513549805,6.18853616714478,5.33044910430908,4.10885810852051,0.99931699037552,-0.17852200567722,-1.59016501903534,0.35199999809265,16.9069995880127,30.9500007629395,-39.9420013427734,-39.9420013427734,-39.9420013427734,1.36000001430511,4.34200000762939,15.0900001525879,-3.49134707450867,-1.55030000209808,-0.1530620008707,2.08071708679199,-4.20836877822876,-6.42474985122681,-3.30102896690369,-5.43868112564087,-5.15291023254395,35.5009994506836,35.9710006713867,32.3619995117188,-39.9420013427734,-21.6620006561279,-19.386999130249,21.5240001678467,7.16599988937378,12.9720001220703,1.79380798339844,3.32813405990601,4.16639184951782,-7.66080284118652,-7.72146320343018,-7.37143087387085,-4.0505747795105,-2.8865659236908,-2.05797290802002,29.4599990844727,25.3010005950928,20.3589992523193,-15.3070001602173,-11.1490001678467,-7.69700002670288,16.1889991760254,12.0299997329712,6.14599990844727,4.43514204025269,4.35886478424072,4.69522094726563,-7.06863117218018,-6.25487184524536,-5.06367492675781,-1.69974899291992,-1.14174795150757,-0.43972998857498,14.003999710083,10.0019998550415,8.51200008392334,-5.89200019836426,-4.16599988937378,-3.46000003814697,4.10599994659424,8.10799980163574,10.3039999008179,5.34587812423706,6.70444679260254,9.24148464202881,-4.18550491333008,-3.96976590156555,-4.42483186721802,0.38087299466133,2.07550597190857,6.02121591567993,3.25500011444092,-0.66699999570847,-1.76499998569489,-3.38199996948242,-4.48000001907349,-4.63700008392334,11.4029998779297,10.8540000915527,10.2259998321533,9.04162693023682,7.56446886062622,4.69635820388794,-3.42762088775635,-1.89451694488525,0.02104399912059,9.14912796020508,10.1575689315796,8.509108543396,-0.98000001907349,-0.35299998521805,1.9210000038147,-3.61700010299683,-2.91100001335144,-0.87099999189377,9.28400039672852,9.04899978637695,9.20600032806396,SWING_LEFT
-0.12272900342941,0.33689600229263,0.5076180100441,0.21263299882412,-0.53133600950241,-0.8561310172081,-0.14321100711823,-1.23171496391296,-1.67704904079437,0.35199999809265,1.9210000038147,2.70600008964539,-0.87099999189377,-0.32199999690056,-0.00800000037998,10.2259998321533,11.5600004196167,12.1870002746582,0.72272700071335,0.88280099630356,1.0460250377655,-1.33660995960236,-1.708624958992,-1.90153503417969,-2.34776210784912,-2.87204194068909,-3.20190691947937,4.74599981307983,4.90299987792969,3.80399990081787,1.40299999713898,2.50200009346008,3.75699996948242,14.0699996948242,15.4040002822876,16.6590003967285,1.2184339761734,1.36911594867706,1.38448095321655,-1.81711995601654,-1.76372098922729,-2.01907110214233,-3.22145009040833,-3.31058192253113,-3.70394706726074,5.13800001144409,9.76700019836426,10.8649997711182,5.32600021362305,7.67999982833862,6.42399978637695,19.2479991912842,21.367000579834,21.6019992828369,1.20184004306793,0.92947202920914,0.59189999103546,-2.08729004859924,-1.6674610376358,-0.88713401556015,-3.65530705451965,-2.91988205909729,-1.70922696590424,6.39300012588501,0.66600000858307,-4.51100015640259,1.87399995326996,-2.36199998855591,-6.67700004577637,19.1700000762939,16.423999786377,14.1490001678467,0.04518900066614,-1.37871503829956,-5.88290214538574,0.02930800057948,1.42466497421265,3.67490792274475,-0.12475000321865,2.76519298553467,6.75971412658691,-13.0629997253418,-29.2250003814697,-37.3059997558594,-16.3269996643066,-27.6240005493164,-34.6069984436035,7.00899982452393,-6.4060001373291,-6.56300020217896,-9.69876098632812,-9.85734176635742,-8.2397403717041,5.35102415084839,5.63328981399536,4.82149410247803,6.69032382965088,5.15782880783081,2.9899480342865,-33.7750015258789,-22.242000579834,-7.17799997329712,-38.6080017089844,-39.6279983520508,-39.8639984130859,-4.67999982833862,-2.71799993515015,1.125,-6.96512222290039,-5.56479978561401,-4.16161489486694,4.08069181442261,2.98971104621887,1.51779401302338,1.62767696380615,0.06539800018072,-1.74439203739166,6.86399984359741,16.5139999389648,22.9479999542236,-39.9420013427734,-38.7649993896484,-31.2329998016357,7.08799982070923,11.08899974823,9.83399963378906,-3.05044293403625,-2.11980891227722,-0.72972202301025,-0.16272799670696,-2.09962201118469,-4.33819007873535,-3.4620258808136,-4.71370077133179,-5.33454513549805,26.1639995574951,26.7919998168945,26.3999996185303,-24.1720008850098,-20.8770008087158,-17.6609992980957,5.75400018692017,8.73499965667725,14.3839998245239,1.01085996627808,2.55365395545959,3.50730490684509,-5.97104120254517,-6.95743703842163,-6.81268501281738,-5.01967287063599,-4.19738101959229,-3.67906999588013,26.3999996185303,21.2999992370605,18.7110004425049,-17.6609992980957,-9.97200012207031,-5.34299993515015,14.3839998245239,11.9519996643066,9.59799957275391,4.03491115570068,4.31024980545044,4.19820022583008,-6.06011009216309,-4.92941188812256,-3.06522393226624,-3.25764608383179,-2.76436305046082,-1.929643034935,14.2390003204346,14.2390003204346,4.11800003051758,-3.06800007820129,-3.06800007820129,-3.46000003814697,7.63700008392334,7.63700008392334,9.44099998474121,SWING_LEFT
1.22412300109863,1.10028994083405,0.78715699911118,-2.12767004966736,-2.71433210372925,-2.81834292411804,-3.26567697525024,-4.02797317504883,-3.99569702148438,9.60999965667725,8.98200035095215,7.64900016784668,4.54099988937378,2.89400005340576,1.16799998283386,19.4839992523193,20.6609992980957,19.2479991912842,0.47696799039841,0.26936900615692,0.1526859998703,-2.55916595458984,-2.2457480430603,-1.93747699260712,-3.4538938999176,-2.9272289276123,-2.50311398506165,7.25600004196167,6.39300012588501,5.05999994277954,1.95200002193451,1.48199999332428,-0.55699998140335,17.4440002441406,14.1490001678467,7.24499988555908,-0.18348699808121,-0.70837301015854,-2.0933690071106,-1.85299003124237,-1.26162695884705,0.46073600649834,-2.01314401626587,-0.71420502662659,2.29298210144043,0.90200001001358,-10.7089996337891,-20.3589992523193,-5.4210000038147,-14.1300001144409,-19.4650001525879,3.71399998664856,4.10599994659424,3.94899988174438,-6.16210889816284,-8.61834907531738,-8.33911037445068,3.8643798828125,5.7634072303772,5.9846339225769,6.39178323745728,6.28959083557129,4.72605991363525,-37.3839988708496,-30.951000213623,-20.2019996643066,-34.7639999389648,-38.6870002746582,-39.6279983520508,6.77400016784668,3.94899988174438,-4.28700017929077,-7.33101415634155,-5.59244585037231,-4.63122510910034,5.77474880218506,5.19115018844604,4.38928985595703,3.09007811546326,0.94817698001862,-0.65518897771835,-8.19799995422363,6.23699998855591,6.23699998855591,-39.8639984130859,-39.9420013427734,-39.9420013427734,-4.75799989700317,3.24300003051758,3.24300003051758,-3.76861000061035,-2.99438309669495,-1.79439294338226,2.9334819316864,0.88425898551941,-1.78987598419189,-2.57241296768188,-4.43557500839233,-5.60988187789917,31.7350006103516,37.7760009765625,35.5009994506836,-37.3530006408691,-23.3090000152588,-14.7580003738403,18.7779998779297,16.9729995727539,8.0290002822876,-0.23942999541759,1.54643905162811,3.52594804763794,-4.34275913238525,-5.7765851020813,-7.13541221618652,-5.8325572013855,-5.38559722900391,-3.95546388626099,29.3810005187988,26.0069999694824,26.0069999694824,-15.8559999465942,-15.3850002288818,-15.3850002288818,10.2259998321533,16.0319995880127,16.0319995880127,4.5891637802124,5.13985204696655,5.11798810958862,-7.17005395889282,-6.64962387084961,-5.83298110961914,-2.983069896698,-2.27663493156433,-1.4758620262146,22.1630001068115,14.3170003890991,10.6300001144409,-12.0120000839233,-4.55800008773804,-2.20499992370605,16.8950004577637,8.6569995880127,8.0290002822876,5.30895280838013,7.66265201568604,10.6250410079956,-4.7885160446167,-4.46825122833252,-5.82491302490234,-0.33423501253128,3.07273101806641,7.25555801391602,6.31500005722046,0.98000001907349,0.1169999986887,-2.20499992370605,-3.30299997329712,-3.22499990463257,7.63700008392334,7.00899982452393,7.71500015258789,10.9748220443726,8.51239585876465,4.66494512557983,-5.60296201705933,-3.59781908988953,-0.44979301095009,10.3242177963257,10.6809043884277,8.6284351348877,-0.1169999986887,0.43099999427795,1.2940000295639,-2.98900008201599,-2.44000005722046,-1.41999995708466,8.42099952697754,9.36299991607666,9.75500011444092,SWING_LEFT
1.08818697929382,0.865473985672,0.59673297405243,-2.61177492141724,-3.17245888710022,-3.08944511413574,-3.98537111282349,-4.39248418807983,-3.96687889099121,11.2580003738403,8.98200035095215,7.41300010681152,3.5220000743866,1.63900005817413,1.48199999332428,17.6009998321533,18.306999206543,17.6009998321533,0.43392398953438,0.35911700129509,0.35148298740387,-2.76317405700684,-2.29181790351868,-1.47266399860382,-3.36394000053406,-2.71220302581787,-1.8284410238266,4.74599981307983,-0.27399998903275,-6.55100011825562,1.40299999713898,0.46200001239777,-1.02799999713898,13.9919996261597,9.20600032806396,7.79400014877319,0.36770099401474,0.03267500177026,-2.27112197875977,0.20644800364971,2.81675910949707,5.46521902084351,-0.08514600247145,3.32264399528503,7.29049301147461,-12.6700000762939,-18.94700050354,-26.2430000305176,-4.00899982452393,-8.8730001449585,-14.6009998321533,7.63700008392334,6.69500017166138,7.08799982070923,-5.53936576843262,-6.61564779281616,-6.07583379745483,7.15929889678955,7.30976676940918,6.45151615142822,7.59185600280762,5.30339479446411,2.83014893531799,-30.2450008392334,-25.2229995727539,-16.3579998016357,-24.7220001220703,-33.7439994812012,-38.3730010986328,7.95100021362305,9.91199970245361,10.3039999008179,-5.23515510559082,-4.50856685638428,-4.0246729850769,5.43749094009399,4.43581485748291,3.34801602363586,0.71874898672104,-1.03591597080231,-2.6196870803833,-5.13899993896484,7.72700023651123,17.298999786377,-39.5499992370605,-39.8639984130859,-39.9420013427734,9.04899978637695,7.63700008392334,8.57800006866455,-3.76431107521057,-3.37827897071838,-2.74212193489075,1.99411904811859,0.15595699846745,-1.97290301322937,-4.06152820587158,-5.1268138885498,-5.6384482383728,24.2029991149902,29.5380001068115,28.0470008850098,-39.0789985656738,-28.7229995727539,-19.8570003509521,14.0699996948242,14.8549995422363,5.12599992752075,-2.047602891922,-0.80940699577332,1.1187150478363,-3.84035706520081,-6.30060720443726,-8.13476371765137,-5.69836091995239,-4.96697616577148,-3.87974309921265,27.1060009002686,26.0069999694824,23.1830005645752,-16.9540004730225,-12.0120000839233,-7.85400009155273,1.98800003528595,6.53800010681152,10.6180000305176,2.79687404632568,3.86916208267212,4.0560998916626,-8.26772975921631,-7.53881120681763,-6.35417604446411,-3.17065596580505,-2.89297294616699,-2.61588501930237,18.8680000305176,13.1409997940063,6.86399984359741,-5.65700006484985,-5.02899980545044,-5.89200019836426,12.7360000610352,10.8540000915527,8.26399993896484,4.11034917831421,4.95455121994019,7.96067380905151,-4.80239009857178,-3.59357500076294,-4.51604604721069,-1.86639595031738,-0.25429800152779,4.11518383026123,1.84300005435944,0.58799999952316,0.27399998903275,-6.91200017929077,-6.83400011062622,-4.55800008773804,7.79400014877319,8.5,9.99100017547607,10.4871091842651,8.79697418212891,6.95251798629761,-6.78216314315796,-6.10813903808594,-4.85224008560181,10.0536022186279,11.5451431274414,11.657865524292,0.82300001382828,1.37199997901917,0.66600000858307,-3.61700010299683,-2.28299999237061,-2.59699988365173,10.1470003128052,9.83399963378906,8.73499965667725,SWING_LEFT
1.55436897277832,1.44607305526733,1.26001703739166,-2.67876696586609,-2.88790392875671,-2.96609902381897,-3.97568607330322,-4.16702508926392,-4.12994718551636,6.55000019073486,8.43299961090088,8.43299961090088,4.30600023269653,5.32600021362305,5.32600021362305,16.1100006103516,17.5219993591309,16.9729995727539,1.0811710357666,0.89662599563599,0.77008301019669,-2.7520489692688,-2.3042049407959,-1.80512797832489,-3.74050688743591,-3.02528095245361,-2.2969810962677,7.09999990463257,3.96099996566772,-0.82400000095367,3.99200010299683,1.32500004768372,-2.20499992370605,15.875,14.2270002365112,12.3439998626709,0.52766597270966,-0.05786300078034,-1.99550294876099,-0.7264249920845,0.72854101657867,2.96893692016602,-0.75737702846527,1.41690695285797,4.37295007705688,-6.15899991989136,-15.9659996032715,-28.6749992370605,-6.67700004577637,-13.8950004577637,-24.4080009460449,11.4029998779297,8.6569995880127,3.32200002670288,-6.1041522026062,-8.28061676025391,-7.94099283218384,5.42855978012085,6.6643967628479,6.61290216445923,5.93700313568115,4.62679719924927,2.9185209274292,-33.7750015258789,-28.753999710083,-24.3600006103516,-34.7639999389648,-38.6870002746582,-39.3139991760254,1.98800003528595,3.94899988174438,5.0479998588562,-6.92378807067871,-5.94403314590454,-5.11565685272217,5.99576187133789,5.19489479064941,4.0973219871521,1.43269598484039,0.04562800005078,-1.47738599777222,-4.98199987411499,10.9440002441406,23.9680004119873,-39.8639984130859,-39.9420013427734,-39.9420013427734,5.28299999237061,6.46000003814697,9.59799957275391,-4.3707480430603,-3.53022909164429,-2.46148800849915,2.50085401535034,0.28939700126648,-2.18389797210693,-3.2392361164093,-4.86372900009155,-5.70281505584717,32.8330001831055,34.951000213623,32.5979995727539,-39.5499992370605,-28.8799991607666,-22.8390007019043,15.4820003509521,15.6389999389648,7.55800008773804,-1.31679403781891,2.26733899116516,3.65143299102783,-4.41783094406128,-7.8077597618103,-7.83580017089844,-5.71777296066284,-3.51051092147827,-2.59200811386108,29.2240009307861,25.4580001831055,23.8110008239746,-20.0139999389648,-9.73700046539307,-7.53999996185303,8.9709997177124,12.4230003356934,11.6379995346069,4.42143583297729,4.52439785003662,4.56272506713867,-7.26329183578491,-6.4144492149353,-5.16732788085938,-2.1555290222168,-1.88929605484009,-1.53559994697571,16.9850006103516,11.7279996871948,7.02099990844727,-3.85199999809265,-3.53800010681152,-3.85199999809265,6.38199996948242,5.75400018692017,6.85200023651123,4.59854984283447,5.57123804092407,14.2125835418701,-3.97050404548645,-3.48131608963013,-7.79602098464966,-1.17379999160767,0.13172200322151,8.84801483154297,3.41199994087219,0.98000001907349,-0.195999994874,-4.32299995422363,-5.02899980545044,-5.10799980163574,8.42099952697754,9.75500011444092,9.83399963378906,12.4411191940308,8.67122936248779,6.10228300094604,-6.99381923675537,-4.50209712982178,-2.3589780330658,11.0324869155884,11.0615119934082,10.4184274673462,-0.50999999046326,-0.58799999952316,0.43099999427795,-5.02899980545044,-4.40100002288818,-3.14599990844727,9.44099998474121,9.1269998550415,9.44099998474121,SWING_LEFT
0.83049201965332,0.80840498209,0.99762898683548,-1.80104196071625,-1.87186098098755,-1.84922802448273,-2.39679002761841,-2.27923607826233,-2.22861003875732,4.35400009155273,3.88299989700317,3.6470000743866,2.34500002861023,4.54099988937378,6.34600019454956,13.3640003204346,12.9720001220703,13.5209999084473,1.29918301105499,1.6444890499115,2.04478311538696,-1.71684598922729,-1.26572299003601,-0.23223799467087,-2.20175504684448,-2.06939601898193,-1.55181002616882,0.82300001382828,-3.01999998092651,-7.41400003433228,6.89499998092651,6.73799991607666,5.2480001449585,13.0500001907349,11.4809999465942,6.93100023269653,2.47627806663513,2.22807288169861,-0.78971999883652,1.40469896793365,4.41697692871094,7.32447385787964,-0.44473600387573,2.68172788619995,6.1760721206665,-11.5719995498657,-15.6520004272461,-28.2830009460449,2.18799996376038,-5.34299993515015,-13.3450002670288,4.89099979400635,8.10799980163574,12.3439998626709,-4.75927400588989,-6.49457120895386,-6.81803321838379,8.28865242004395,7.51119995117188,6.20843076705933,5.43525218963623,2.66632890701294,0.0949530005455,-30.5580005645752,-24.2029991149902,-16.1219997406006,-24.2509994506836,-35.4700012207031,-38.8440017700195,13.128999710083,11.8730001449585,6.46000003814697,-6.42122316360474,-5.78965902328491,-5.22501087188721,5.01289796829224,3.8802170753479,2.7262270450592,-1.7277979850769,-3.04916906356812,-4.11747694015503,-5.68800020217896,8.19799995422363,24.5949993133545,-39.7070007324219,-39.8639984130859,-39.9420013427734,5.51900005340576,8.5,12.8929996490479,-4.96758794784546,-4.66222095489502,-3.88005399703979,1.02962505817413,-0.94638901948929,-3.34120488166809,-5.44631814956665,-6.25708103179932,-6.33343076705933,29.6949996948242,32.5190010070801,32.3619995117188,-36.8040008544922,-28.8799991607666,-20.9559993743896,11.9519996643066,12.5010004043579,10.6969995498657,-2.32147097587585,0.12110099941492,2.25611090660095,-6.18677186965942,-9.50101852416992,-10.4064693450928,-5.59464979171753,-3.72263097763062,-2.49584603309631,30.4009990692139,27.9689998626709,26.7140007019043,-15.3070001602173,-9.89299964904785,-7.22599983215332,7.40100002288818,7.87200021743774,8.9709997177124,3.78560090065002,4.63653182983398,4.93598222732544,-9.9459810256958,-8.56150913238525,-7.00878715515137,-1.80952799320221,-1.69621694087982,-1.72701704502106,20.5160007476807,15.1020002365112,9.68900012969971,-2.75399994850159,-1.18499994277954,-1.65600001811981,9.67700004577637,9.1269998550415,7.79400014877319,4.9517388343811,5.74973106384277,11.3689956665039,-5.49874210357666,-4.35528182983398,-5.59880876541138,-1.57495403289795,-0.39783701300621,5.74441719055176,3.56900000572205,-1.84300005435944,-4.19700002670288,-3.7739999294281,-6.36299991607666,-7.14699983596802,6.30299997329712,5.91099977493286,6.69500017166138,11.4725303649902,7.16739892959595,4.47951221466064,-5.6105899810791,-3.07262992858887,-1.01727294921875,9.98042011260986,10.4915761947632,10.5753583908081,-3.8050000667572,-0.27399998903275,0.90200001001358,-6.51999998092651,-3.38199996948242,-2.36199998855591,7.79400014877319,10.8540000915527,11.246000289917,SWING_LEFT
0.87705099582672,1.05825901031494,1.05055701732636,-1.67918598651886,-2.61205291748047,-3.51100993156433,-3.30119204521179,-4.19313621520996,-4.87785005569458,10.7089996337891,14.710000038147,11.7279996871948,7.20900011062622,10.0329999923706,8.14999961853027,17.9930000305176,18.7779998779297,18.7779998779297,0.92185801267624,0.87595599889755,0.79218000173569,-3.56216597557068,-2.87091994285584,-1.94174098968506,-4.64376783370972,-3.91916799545288,-2.97303295135498,6.70699977874756,4.82399988174438,2.0,6.58099985122681,5.6399998664856,2.10899996757507,21.2099990844727,22.1509990692139,18.9340000152588,0.62015599012375,0.41402399539948,-0.21394799649715,-1.11944997310638,0.07790800184011,2.44431900978088,-1.98162496089935,-0.74114400148392,1.72263503074646,-3.33400011062622,-6.23699998855591,-17.3780002593994,-2.12599992752075,-3.30299997329712,-10.835000038147,8.0290002822876,7.16599988937378,4.9689998626709,-2.40668606758118,-6.52572107315063,-8.41535663604736,5.20668077468872,7.22450494766235,7.65791511535645,4.85192203521729,5.78098297119141,4.00607204437256,-27.1060009002686,-30.5580005645752,-23.7329998016357,-20.4069995880127,-30.6840000152588,-37.3530006408691,2.92899990081787,6.46000003814697,10.8540000915527,-7.77510023117065,-6.46248722076416,-5.36836576461792,6.84089517593384,5.68533802032471,4.62169408798218,2.03753805160522,0.33672600984573,-1.24426102638245,-13.3760004043579,-1.13699996471405,10.6300001144409,-39.3139991760254,-39.7849998474121,-39.9420013427734,12.5799999237061,10.3039999008179,9.44099998474121,-4.54090690612793,-3.84280610084534,-3.21612000465393,3.46813988685608,1.92826998233795,0.1186769977212,-2.72502303123474,-4.04202604293823,-4.86272287368774,18.3190002441406,20.4370002746582,21.8490009307861,-39.9420013427734,-32.7239990234375,-25.8980007171631,12.2659997940063,13.9919996261597,10.539999961853,-1.86619901657104,-0.06954500079155,1.85496497154236,-3.89718890190125,-6.94578886032104,-8.21133422851563,-4.91122722625732,-3.56698203086853,-2.29340004920959,24.2029991149902,22.3199996948242,21.0650005340576,-15.6990003585815,-13.5019998550415,-11.4630002975464,11.6379995346069,14.7760000228882,14.6190004348755,3.35125088691711,4.22949886322021,4.79351806640625,-8.22213077545166,-7.53725290298462,-6.53257179260254,-1.4482409954071,-1.02965295314789,-0.69845801591873,19.2600002288818,16.8279991149902,14.8669996261597,-8.48099994659424,-5.65700006484985,-5.02899980545044,13.6780004501343,11.4029998779297,9.59799957275391,5.13177394866943,5.43571996688843,8.26345062255859,-5.57310009002686,-5.01614189147949,-6.05330276489258,-0.13372099399567,0.81267899274826,5.4348669052124,8.04100036621094,6.07999992370605,2.39199995994568,-4.87200021743774,-5.18599987030029,-4.71500015258789,6.22499990463257,5.83199977874756,7.79400014877319,9.33768844604492,8.1967887878418,6.42928695678711,-6.46629190444946,-5.53519010543823,-3.78644895553589,8.21176624298096,9.30120754241943,9.23195743560791,2.07800006866455,1.68599998950958,0.90200001001358,-3.46000003814697,-3.38199996948242,-3.61700010299683,8.89200019836426,8.5,8.42099952697754,SWING_LEFT
0.49994501471519,0.51079100370407,0.60143798589706,-2.33757710456848,-2.48367500305176,-2.30984592437744,-2.890291929245,-2.9268479347229,-2.76330494880676,5.29500007629395,4.27500009536743,4.27500009536743,3.12899994850159,3.99200010299683,5.09100008010864,14.5410003662109,15.4040002822876,15.4040002822876,0.75960797071457,1.27570402622223,1.67996394634247,-2.09821510314941,-1.5672470331192,-1.16916394233704,-2.62805390357971,-2.56602501869202,-2.5562379360199,4.19700002670288,2.31399989128113,-0.50999999046326,6.42399978637695,8.14999961853027,5.56099987030029,13.5209999084473,9.52000045776367,8.10799980163574,1.96902394294739,2.05808901786804,1.34870004653931,-0.56556701660156,0.67009198665619,3.53536200523376,-2.25096797943115,-1.27850294113159,1.48704898357391,-4.43200016021729,-9.8459997177124,-14.9460000991821,1.87399995326996,-3.30299997329712,-8.71700000762939,7.79400014877319,8.6569995880127,8.5,-1.78032600879669,-6.34732723236084,-8.44157695770264,6.71904516220093,7.62567377090454,6.62928009033203,4.76904487609863,4.31444978713989,1.82877898216248,-20.5939998626709,-23.9680004119873,-23.7329998016357,-18.2099990844727,-33.1160011291504,-38.2159996032715,7.79400014877319,12.1090002059937,14.8549995422363,-8.0776834487915,-6.89321422576904,-6.43093490600586,5.48636484146118,4.04709100723267,3.00783705711365,0.21991799771786,-1.63543903827667,-2.70798897743225,-22.7129993438721,8.59000015258789,25.4580001831055,-39.0789985656738,-39.9420013427734,-39.9420013427734,12.5799999237061,-2.71799993515015,13.4429998397827,-5.60722303390503,-4.36472511291504,-1.41146504878998,1.15628397464752,-1.31052803993225,-5.62306308746338,-3.86639094352722,-4.79811000823975,-5.60133695602417,36.3639984130859,37.9329986572266,28.0470008850098,-35.2350006103516,-19.3080005645752,-16.0909996032715,28.5849990844727,19.1700000762939,19.0130004882813,0.80173301696777,2.55250310897827,3.46888494491577,-6.40484094619751,-6.29854679107666,-5.89003086090088,-4.91707515716553,-3.7408299446106,-2.87575507164001,23.8110008239746,21.92799949646,19.0249996185303,-14.7580003738403,-9.89299964904785,-4.08799982070923,18.5419998168945,13.7559995651245,6.30299997329712,3.80902409553528,3.6547520160675,3.43257999420166,-5.7314658164978,-5.01553821563721,-3.93484807014465,-2.42469191551209,-1.93791496753693,-1.45898497104645,14.003999710083,8.11900043487549,4.66699981689453,-0.87099999189377,-0.55699998140335,-1.26300001144409,3.63599991798401,5.83199977874756,7.16599988937378,3.01268291473389,2.80814290046692,6.26332712173462,-2.78368806838989,-1.43215894699097,-1.22358298301697,-1.38698101043701,-1.32401096820831,2.60781192779541,-1.84300005435944,-1.2940000295639,-0.43099999427795,-2.83200001716614,-1.96899998188019,-0.94900000095367,10.1470003128052,10.2259998321533,9.28400039672852,12.3252410888672,8.60486030578613,6.35232305526733,-4.28165102005005,-2.24477005004883,-1.08429300785065,15.6795101165771,15.3705787658691,13.4271717071533,0.66600000858307,1.2940000295639,2.0,-0.71399998664856,-0.79299998283386,-0.87099999189377,10.539999961853,12.1870002746582,12.6579999923706,SWING_LEFT
0.5576239824295,0.75633102655411,1.41902005672455,0.10674899816513,0.06433200091124,-0.37840101122856,-0.23733800649643,-0.28519800305367,-0.87212699651718,-2.0,0.74500000476837,1.9210000038147,0.93300002813339,3.12899994850159,4.38500022888184,11.4809999465942,13.835000038147,15.326000213623,1.89420294761658,2.00400900840759,1.95156896114349,-0.87687200307846,-0.81618201732635,-0.55292499065399,-1.50534296035767,-1.4106559753418,-1.09516096115112,-0.82400000095367,-3.01999998092651,-3.25600004196167,3.44300007820129,2.81500005722046,2.89400005340576,14.1490001678467,14.1490001678467,14.7760000228882,1.87186694145203,1.50056195259094,1.20188701152802,-0.42204800248146,-0.36155399680138,-0.28191900253296,-0.94315099716187,-0.80459898710251,-0.7406240105629,-2.0,0.03900000080466,0.43099999427795,1.32500004768372,2.03099989891052,0.38299998641014,14.2270002365112,12.5010004043579,12.3439998626709,0.5191850066185,-0.6645439863205,-5.56925678253174,0.06290400028229,0.66429001092911,3.61899399757385,-0.50839000940323,-0.19683200120926,-0.02059900015593,-5.21700000762939,-18.3980007171631,-25.5370006561279,-6.04899978637695,-16.1700000762939,-37.4309997558594,10.6180000305176,10.3830003738403,1.75300002098084,-7.21577215194702,-7.91101789474487,-7.82321214675903,4.50986480712891,4.90822982788086,4.46425819396973,-0.51506197452545,-0.78344398736954,-1.33312201499939,-24.4389991760254,-9.14000034332275,8.35499954223633,-39.3139991760254,-39.7849998474121,-39.9420013427734,-9.54399967193604,-9.93599987030029,0.88999998569489,-5.97566509246826,-4.58053684234619,-2.92305493354797,0.67960298061371,-1.36415803432465,-3.57413792610169,-3.61955690383911,-4.77383422851563,-5.62322998046875,31.1070003509521,33.7750015258789,30.6359996795654,-34.9990005493164,-24.878999710083,-23.2310009002686,20.8959999084473,10.7749996185303,7.95100021362305,-0.93074101209641,0.87393701076508,2.64077401161194,-5.52863693237305,-6.82663917541504,-7.95044898986816,-5.48887014389038,-4.55129384994507,-3.44080209732056,29.6159992218018,30.7929992675781,30.7929992675781,-23.8589992523193,-19.1509990692139,-12.4820003509521,9.91199970245361,8.89200019836426,2.77300000190735,3.66181802749634,4.07040691375732,3.91222405433655,-8.47495746612549,-8.65568923950195,-7.64546585083008,-2.79872798919678,-2.86404395103455,-2.75253391265869,31.8920001983643,22.242000579834,22.242000579834,-3.93099999427795,-3.14599990844727,-3.14599990844727,-4.99399995803833,0.18400000035763,0.18400000035763,3.28878903388977,1.80165004730225,-0.98797601461411,-6.12169218063354,-4.2700891494751,-1.82331001758575,-2.80200695991516,-3.21744298934937,-3.75989294052124,7.33500003814697,2.78399991989136,0.66600000858307,-4.55800008773804,-4.71500015258789,-4.55800008773804,6.77400016784668,8.5,9.91199970245361,-3.46052002906799,12.3699541091919,8.81486415863037,1.28370201587677,-5.72144412994385,-3.28470706939697,-4.03837585449219,12.3192863464355,12.2237148284912,-1.37300002574921,-1.76499998569489,-0.27399998903275,-5.2649998664856,-4.87200021743774,-3.53800010681152,10.3039999008179,11.4809999465942,11.7950000762939,SWING_LEFT
1.11950099468231,1.23246896266937,1.16723001003265,-1.64730703830719,-2.04693794250488,-2.34427189826965,-2.69768190383911,-3.27497792243958,-3.55096793174744,6.23699998855591,7.64900016784668,8.11900043487549,4.54099988937378,5.16900014877319,5.09100008010864,16.1100006103516,16.9729995727539,16.423999786377,0.96099799871445,0.66209000349045,-0.01759500056505,-2.52707004547119,-2.55351805686951,-1.46831905841827,-3.51581311225891,-3.16745495796204,-1.06062304973602,10.0019998550415,6.47200012207031,-1.2940000295639,3.83500003814697,0.61900001764297,-7.53999996185303,15.4040002822876,14.3059997558594,13.9130001068115,-0.59285700321198,-1.48350703716278,-3.3529839515686,-0.4692989885807,0.5460410118103,1.65936195850372,0.68638801574707,2.43014597892761,4.31950521469116,-3.88299989700317,-8.04100036621094,-19.4179992675781,-9.3439998626709,-17.8169994354248,-30.3700008392334,12.6579999923706,13.6780004501343,11.0100002288818,-6.02701282501221,-7.24989795684814,-6.94891977310181,3.04750990867615,4.54892110824585,5.20451307296753,5.39376878738403,4.8303427696228,3.50684189796448,-27.3419990539551,-28.2049999237061,-14.4750003814697,-34.9990005493164,-39.3139991760254,-39.7849998474121,9.52000045776367,9.28400039672852,5.20499992370605,-6.29885005950928,-5.80289077758789,-5.38140821456909,5.09661817550659,4.60161781311035,3.78471207618713,2.02289795875549,0.52114200592041,-0.95816898345947,-6.39400005340576,18.7889995574951,32.9119987487793,-39.8639984130859,-39.9420013427734,-39.9420013427734,2.53699994087219,2.30200004577637,7.32299995422363,-4.86347484588623,-3.90961790084839,-2.55475497245789,2.38811898231506,0.09208299964666,-2.28279590606689,-2.74398398399353,-4.53265905380249,-5.50672006607056,38.2470016479492,39.5800018310547,37.8540000915527,-39.5499992370605,-27.0750007629395,-20.0139999389648,19.4839992523193,19.7980003356934,9.20600032806396,0.61873602867126,2.78749489784241,4.07249402999878,-5.42870187759399,-6.75664806365967,-6.54731178283691,-5.15376806259155,-4.16029977798462,-3.57770609855652,31.6560001373291,29.9300003051758,17.5340003967285,-3.7739999294281,-4.24499988555908,-5.2649998664856,3.00799989700317,7.55800008773804,9.67700004577637,4.48613786697388,3.79832291603088,2.63810896873474,-5.89563989639282,-4.84310102462769,-3.10716509819031,-3.37827610969543,-3.11081504821777,-2.92587208747864,14.2390003204346,5.8439998626709,3.25500011444092,-7.61800003051758,-6.91200017929077,-4.95100021362305,9.75500011444092,7.87200021743774,7.32299995422363,1.49017405509949,2.13796496391296,11.7233076095581,-1.00765800476074,0.48129799962044,-6.02842903137207,-2.35718202590942,-0.30791598558426,10.8692693710327,0.66600000858307,-1.52999997138977,-2.86299991607666,-4.55800008773804,-4.87200021743774,-4.95100021362305,8.3430004119873,9.52000045776367,11.08899974823,9.66251277923584,7.45158386230469,5.91673612594604,-6.01231479644775,-4.5942211151123,-3.13060688972473,13.1308517456055,13.2938022613525,12.126615524292,-3.01999998092651,-2.15700006484985,-0.58799999952316,-5.10799980163574,-4.16599988937378,-2.67499995231628,11.5600004196167,10.9320001602173,10.539999961853,SWING_LEFT
1.08110904693604,1.37834799289703,1.52290105819702,-1.05086195468903,-1.27291297912598,-2.04966592788696,-3.15343594551086,-3.6450629234314,-4.76415395736694,3.17700004577637,4.27500009536743,9.29599952697754,5.875,6.97399997711182,9.95499992370606,12.8149995803833,12.8929996490479,15.0120000839233,1.41499996185303,1.29607403278351,1.22705900669098,-2.79188990592957,-2.73033308982849,-2.16168904304504,-5.29137706756592,-4.79103517532349,-3.92326903343201,6.78599977493286,2.07800006866455,-1.13699996471405,7.75799989700317,5.6399998664856,3.36500000953674,13.9130001068115,11.5600004196167,11.6379995346069,1.22248005867004,0.1509869992733,-1.78480005264282,-1.15997695922852,1.81200802326202,3.84047698974609,-2.88740491867065,2.15036392211914,5.93862915039063,-0.58799999952316,-7.80600023269653,-10.3950004577637,0.22599999606609,-9.57999992370606,-15.2279996871948,13.4429998397827,15.875,21.9160003662109,-4.1935510635376,-5.80002212524414,-7.91567277908325,4.11716508865356,3.80600690841675,4.39699792861938,6.82192420959473,5.85482406616211,2.68688702583313,-15.7299995422363,-15.7299995422363,-17.8479995727539,-22.9169998168945,-22.9169998168945,-39.1580009460449,21.2880001068115,21.2880001068115,-0.60000002384186,-7.49755477905273,-6.84275007247925,-6.24123287200928,4.2132568359375,3.58466291427612,2.90614008903503,1.61471998691559,0.40179398655891,-0.90122902393341,-2.94199991226196,9.13899993896484,20.2019996643066,-39.7849998474121,-39.9420013427734,-39.9420013427734,6.53800010681152,7.55800008773804,7.24499988555908,-4.26889514923096,-2.80664610862732,-1.47466099262238,0.0458119995892,-1.82274496555328,-3.63674998283386,-3.6171760559082,-4.6897611618042,-5.16157913208008,27.7329998016357,33.9309997558594,34.0099983215332,-39.0009994506836,-22.4459991455078,-15.1499996185303,13.9919996261597,7.08799982070923,3.79200005531311,1.80354905128479,3.43728303909302,4.45259523391724,-7.14136409759521,-7.55528688430786,-7.37797212600708,-4.22890710830688,-3.45665693283081,-2.9792320728302,26.8700008392334,26.8700008392334,16.1219997406006,-8.71700000762939,-8.71700000762939,-6.04899978637695,7.87200021743774,7.87200021743774,7.16599988937378,4.70924377441406,4.24402284622192,4.85278606414795,-6.55695486068726,-3.85210490226746,-3.26631903648376,-2.7057569026947,-1.65606999397278,-0.12728899717331,12.0419998168945,4.82399988174438,3.17700004577637,-4.79400014877319,-4.55800008773804,-4.32299995422363,6.14599990844727,5.91099977493286,6.38199996948242,17.4680576324463,15.8906450271606,11.9108724594116,-10.1383590698242,-9.48210620880127,-6.72361898422241,9.34537696838379,10.8195629119873,10.1977338790894,2.31399989128113,1.84300005435944,2.0,-3.7739999294281,-3.30299997329712,-3.06800007820129,7.08799982070923,8.18599987030029,8.89200019836426,7.05516815185547,6.3215389251709,5.85107278823853,-1.9840190410614,-1.25409698486328,-0.80376499891281,8.16083335876465,7.14195585250854,6.09424209594727,3.09800004959106,3.25500011444092,3.25500011444092,-1.81200003623962,-1.34200000762939,-1.34200000762939,9.59799957275391,9.91199970245361,9.59799957275391,SWING_LEFT
0.2281170040369,0.1906870007515,0.19970600306988,-0.40995401144028,-0.40626698732376,-0.55216401815414,-0.80799901485443,-0.78073197603226,-0.92773002386093,0.66600000858307,1.9210000038147,4.11800003051758,-1.02799999713898,-0.40000000596046,0.85399997234344,10.3830003738403,10.539999961853,11.246000289917,0.49140200018883,0.69645297527313,0.75787997245789,-0.99528700113297,-1.52873301506042,-1.87532794475555,-1.63557696342468,-2.46623492240906,-2.97944188117981,6.39300012588501,6.94299983978271,6.70699977874756,2.34500002861023,2.57999992370605,2.03099989891052,13.128999710083,16.1889991760254,18.7779998779297,0.71798199415207,0.70653402805328,0.75552302598953,-1.94806396961212,-2.03676509857178,-2.14346694946289,-3.04891204833984,-3.15473008155823,-3.25484991073608,8.19799995422363,10.1590003967285,8.74699974060059,3.44300007820129,5.875,6.26800012588501,19.9540004730225,19.1700000762939,15.9530000686646,0.81371599435806,0.8125159740448,1.1621550321579,-2.00442910194397,-1.56868100166321,-0.76056599617004,-3.06069493293762,-2.52081704139709,-2.18768191337585,4.27500009536743,-1.92200005054474,-11.414999961853,5.01200008392334,4.77699995040894,2.34500002861023,12.3439998626709,9.20600032806396,7.08799982070923,1.69374096393585,1.21207404136658,-4.2802038192749,0.90621602535248,5.56121921539307,8.08767414093018,-1.24657201766968,5.26498413085938,9.52851963043213,-22.9479999542236,-27.2630004882813,-31.1079998016357,-5.97100019454956,-11.8549995422363,-27.7810001373291,8.10799980163574,10.4610004425049,13.3640003204346,-7.10621500015259,-7.54683303833008,-6.00340700149536,7.63113880157471,6.63770389556885,4.0836968421936,6.84482383728027,4.03438997268677,0.02299799956381,-26.2430000305176,-17.6919994354248,0.74500000476837,-36.3330001831055,-39.0789985656738,-39.9420013427734,8.3430004119873,9.04899978637695,7.48000001907349,-5.3804497718811,-5.01889419555664,-4.65475177764893,2.87640810012817,1.7885639667511,0.54208099842072,-1.49118101596832,-2.71490001678467,-3.69921398162842,7.80600023269653,13.3760004043579,18.1620006561279,-35.3129997253418,-29.6639995574951,-25.5849990844727,4.02799987792969,5.36199998855591,7.48000001907349,-3.96696591377258,-2.97074103355408,-1.57015597820282,-1.05931496620178,-2.9076030254364,-5.89718198776245,-4.4283881187439,-4.81517791748047,-4.45273494720459,22.3980007171631,25.0659999847412,23.6539993286133,-20.9559993743896,-14.4440002441406,-10.7559995651245,10.9320001602173,11.7950000762939,11.246000289917,0.43822100758553,2.17793703079224,3.70830106735229,-7.51144886016846,-7.56456422805786,-5.63785123825073,-3.96468591690064,-3.37811207771301,-2.29530811309814,19.496000289917,15.5729999542236,7.96299982070923,-9.97200012207031,-9.02999973297119,-7.38299989700317,10.9320001602173,10.3039999008179,11.7170000076294,3.98539996147156,4.6216402053833,6.58869886398315,-4.56607723236084,-4.06270217895508,-5.29144477844238,-1.48110294342041,0.30234798789024,4.19760322570801,6.55000019073486,2.62800002098084,1.52900004386902,-6.99100017547607,-6.28399991989136,-6.04899978637695,12.0299997329712,9.04899978637695,8.42099952697754,SWING_LEFT
