gyro_x_0,gyro_y_0,gyro_z_0,acc_x_0,acc_y_0,acc_z_0,gyro_x_1,gyro_y_1,gyro_z_1,acc_x_1,acc_y_1,acc_z_1,gyro_x_2,gyro_y_2,gyro_z_2,acc_x_2,acc_y_2,acc_z_2,gyro_x_3,gyro_y_3,gyro_z_3,acc_x_3,acc_y_3,acc_z_3,gyro_x_4,gyro_y_4,gyro_z_4,acc_x_4,acc_y_4,acc_z_4,gyro_x_5,gyro_y_5,gyro_z_5,acc_x_5,acc_y_5,acc_z_5,gyro_x_6,gyro_y_6,gyro_z_6,acc_x_6,acc_y_6,acc_z_6,gyro_x_7,gyro_y_7,gyro_z_7,acc_x_7,acc_y_7,acc_z_7,gyro_x_8,gyro_y_8,gyro_z_8,acc_x_8,acc_y_8,acc_z_8,gyro_x_9,gyro_y_9,gyro_z_9,acc_x_9,acc_y_9,acc_z_9,gyro_x_10,gyro_y_10,gyro_z_10,acc_x_10,acc_y_10,acc_z_10,gyro_x_11,gyro_y_11,gyro_z_11,acc_x_11,acc_y_11,acc_z_11,gyro_x_12,gyro_y_12,gyro_z_12,acc_x_12,acc_y_12,acc_z_12,gyro_x_13,gyro_y_13,gyro_z_13,acc_x_13,acc_y_13,acc_z_13,gyro_x_14,gyro_y_14,gyro_z_14,acc_x_14,acc_y_14,acc_z_14,gyro_x_15,gyro_y_15,gyro_z_15,acc_x_15,acc_y_15,acc_z_15,gyro_x_16,gyro_y_16,gyro_z_16,acc_x_16,acc_y_16,acc_z_16,gyro_x_17,gyro_y_17,gyro_z_17,acc_x_17,acc_y_17,acc_z_17,gyro_x_18,gyro_y_18,gyro_z_18,acc_x_18,acc_y_18,acc_z_18,gyro_x_19,gyro_y_19,gyro_z_19,acc_x_19,acc_y_19,acc_z_19,gyro_x_20,gyro_y_20,gyro_z_20,acc_x_20,acc_y_20,acc_z_20,gyro_x_21,gyro_y_21,gyro_z_21,acc_x_21,acc_y_21,acc_z_21,gyro_x_22,gyro_y_22,gyro_z_22,acc_x_22,acc_y_22,acc_z_22,gyro_x_23,gyro_y_23,gyro_z_23,acc_x_23,acc_y_23,acc_z_23,gyro_x_24,gyro_y_24,gyro_z_24,acc_x_24,acc_y_24,acc_z_24,gyro_x_25,gyro_y_25,gyro_z_25,acc_x_25,acc_y_25,acc_z_25,gyro_x_26,gyro_y_26,gyro_z_26,acc_x_26,acc_y_26,acc_z_26,gyro_x_27,gyro_y_27,gyro_z_27,acc_x_27,acc_y_27,acc_z_27,gyro_x_28,gyro_y_28,gyro_z_28,acc_x_28,acc_y_28,acc_z_28,gyro_x_29,gyro_y_29,gyro_z_29,acc_x_29,acc_y_29,acc_z_29,motion_type
0.00962499994785,0.04619999974966,-0.14038750529289,-0.05115000158548,-0.01663750037551,0.41222500801086,1.01172494888306,1.21247494220734,2.81215000152588,-1.57095003128052,-2.18204998970032,-2.52705001831055,1.7940000295639,1.71495008468628,1.56105005741119,11.2780504226685,11.5720500946045,10.207950592041,-1.26279997825623,-2.84982490539551,-2.68812489509583,2.03609991073608,3.66946244239807,3.3321750164032,11.4426126480103,18.7383632659912,15.710337638855,-2.44305014610291,-2.32500004768372,-2.83995008468628,1.55205011367798,2.2129499912262,1.84605014324188,8.48400020599365,7.66500043869019,8.27505016326904,-2.17868757247925,-1.60599994659424,-1.22595000267029,2.87209987640381,2.24193739891052,1.86326253414154,11.2017126083374,7.70879983901978,6.29117488861084,-3.49905014038086,-1.98495006561279,-2.41200017929077,1.71900010108948,2.59995007514954,2.90505003929138,9.24705028533936,8.52000045776367,8.92905044555664,-0.64776247739792,-0.86322498321533,-6.18323755264282,1.30569994449615,1.8130749464035,4.6895751953125,4.16171264648438,3.3130624294281,4.63553762435913,-9.11295032501221,-18.9270000457764,-35.1850509643555,1.24095010757446,-3.95895028114319,-30.9229507446289,11.0740509033203,12.702000617981,4.16205024719238,-11.8171625137329,-10.2957248687744,-7.60471248626709,3.01812505722046,-1.03400003910065,-2.06167507171631,7.62492513656616,2.86288738250732,-0.14753749966621,-21.1729507446289,32.4750022888184,46.444953918457,-45.6000022888184,-32.9010009765625,-18.5329513549805,5.88105010986328,25.4970016479492,1.14000010490417,-6.43403768539429,-3.42374992370605,-1.3359500169754,-3.01221251487732,-5.55403757095337,-6.03226232528687,-3.09141254425049,-8.57202529907227,-9.08228778839111,53.2789535522461,32.0560531616211,18.2020511627197,-5.83605051040649,4.69500017166138,1.35300004482269,-9.06300067901611,10.4280004501343,4.40100002288818,-6.45576238632202,-14.1524620056152,-4.46929979324341,-0.44838750362396,7.04426240921021,12.370325088501,-12.3616628646851,-10.4046249389648,-9.03966236114502,0.42705002427101,-12.6420001983643,-6.97995042800903,-3.36705017089844,-2.87895011901855,1.0150500535965,1.64805006980896,4.2529501914978,11.6110506057739,4.25081253051758,-6.30602502822876,-1.25592494010925,6.04463768005371,-10.9313879013062,-8.19596290588379,13.9156875610352,27.6666507720947,22.8618507385254,1.20300006866455,5.20095014572144,5.86395025253296,2.43795013427734,2.9719500541687,3.01695013046265,10.4250001907349,8.425950050354,8.40195083618164,0.6154500246048,1.65233743190765,1.34901249408722,-7.31279993057251,-5.56215000152588,-4.44812488555908,19.5310497283936,13.5191373825073,11.0528001785278,5.09595012664795,3.03900003433228,2.66100001335144,2.97405004501343,2.41395020484924,2.15505003929138,8.56995010375977,8.96700000762939,9.19200038909912,0.20143750309944,-0.22151249647141,-0.36891248822212,-2.08546257019043,-0.82994997501373,-0.52029997110367,7.17530012130737,4.64351224899292,3.8585250377655,3.06300020217896,3.47295022010803,3.58305025100708,2.10705018043518,1.59705007076263,1.44195008277893,9.89595031738281,9.42900085449219,9.30705070495606,SWING_LEFT
0.73356246948242,0.38609999418259,0.30414998531342,-2.3234748840332,-2.52133750915527,-2.56822490692139,-8.24697494506836,-8.43507480621338,-8.4071626663208,0.21600000560284,0.74100005626678,0.3120000064373,2.20500016212463,2.44500017166138,2.36100006103516,10.3390502929688,10.1809501647949,9.43695068359375,0.17393749952316,0.15743750333786,0.27486249804497,-2.52243757247925,-2.30999994277954,-2.00626254081726,-8.12556266784668,-7.86953735351563,-7.57858753204346,-0.66105002164841,-1.28895008563995,-1.29795002937317,2.28405022621155,2.22900009155273,2.43495011329651,8.54594993591309,7.98105049133301,8.23200035095215,0.40411248803139,0.54381251335144,0.65573751926422,-1.81101250648499,-1.52418744564056,-1.59678745269775,-7.36450004577637,-7.04811239242554,-6.87774991989136,-0.65700000524521,0.7620000243187,1.23405003547668,2.7679500579834,3.5440502166748,3.82905006408691,9.05295085906982,10.7970008850098,11.2420501708984,0.68529999256134,0.51823747158051,0.31459999084473,-1.98921251296997,-2.55461239814758,-3.19343757629395,-6.72388744354248,-6.60618734359741,-6.53413724899292,2.15295004844666,4.17600011825562,6.37695026397705,4.46805000305176,5.58105039596558,6.09405040740967,12.2550001144409,13.0279502868652,12.3240003585815,0.06599999964237,-0.21064999699593,-0.7178875207901,-3.87144994735718,-3.50075006484985,0.43009999394417,-6.52643728256226,-6.46112489700317,-5.27477502822876,0.84105002880096,-22.2960014343262,-60.3649520874023,2.51400017738342,-6.69795036315918,-20.1229515075684,11.8399505615234,15.939001083374,3.67605018615723,-4.45774984359741,-9.50675010681152,-10.117112159729,8.01281261444092,8.47151279449463,5.72673749923706,1.65783751010895,2.88488745689392,1.02987504005432,-47.5369529724121,-16.9189510345459,6.32895040512085,-46.0309524536133,-62.6760025024414,-51.7540512084961,-10.453950881958,11.7300004959106,30.5089511871338,-9.04763698577881,-7.98833751678467,-7.14725017547607,2.88172507286072,0.12966249883175,-3.16758751869202,0.20061250030994,-0.58134996891022,-1.60105001926422,40.0980033874512,51.964054107666,47.2660522460938,-31.4959506988525,-15.1879510879517,-6.20895051956177,24.3310508728027,14.2350006103516,5.7180004119873,-5.01352500915527,-2.57083749771118,-2.13606238365173,-5.81790018081665,-4.86186265945435,-2.78217506408691,-4.27955007553101,-7.58518743515015,-10.4656753540039,38.1490516662598,26.1010513305664,13.5259504318237,1.17105007171631,4.13505029678345,3.30000019073486,11.0650501251221,17.3899517059326,15.2449502944946,-2.32375001907349,-1.78708744049072,-0.82183748483658,-2.22406244277954,-1.83369994163513,-0.79997497797012,-11.1894750595093,-10.3963747024536,-9.13055038452148,1.81095004081726,-7.85100030899048,-13.2030010223389,1.0110000371933,-2.13195013999939,-3.8730001449585,9.23295021057129,3.1800000667572,1.6429500579834,0.67154997587204,1.8133499622345,-1.93283748626709,2.01740002632141,7.70247507095337,-1.63501250743866,-7.68611240386963,-5.7369122505188,25.0722999572754,-12.0439510345459,-7.17105054855347,-1.4800500869751,-3.66000008583069,-1.44000005722046,0.41700002551079,3.88905024528503,8.08605003356934,10.6410007476807,SWING_LEFT
2.03568744659424,1.83383750915527,1.64051246643066,-0.41951251029968,-0.77824997901917,-0.97088748216629,-7.80326223373413,-6.72828769683838,-5.80937480926514,-1.33695006370544,-1.12095010280609,-0.57795000076294,2.02305006980896,2.2870500087738,2.64795017242432,9.4819507598877,9.54900074005127,10.0159502029419,1.46052503585815,1.33223748207092,1.33402502536774,-1.22581243515015,-1.44168746471405,-1.67488753795624,-5.09299993515015,-4.61229991912842,-4.58768749237061,-0.58995002508163,-0.37605002522469,1.14105010032654,2.48595023155212,2.93100023269653,4.12604999542236,10.171950340271,10.1860504150391,10.6339502334595,1.64999997615814,1.09271252155304,0.76161247491837,-2.50648736953735,-4.41278743743896,-4.6157374382019,-6.21898746490479,-10.6057872772217,-11.3031873703003,2.81400012969971,3.1560001373291,4.49700021743774,5.24895048141479,3.40305018424988,3.11505007743835,11.3110504150391,12.0270004272461,12.1230001449585,-0.22013749182224,-2.04819989204407,-2.39662504196167,-5.20368766784668,-5.24906253814697,-4.78156232833862,-12.7206745147705,-13.9042749404907,-13.6496248245239,5.14605045318604,0.8890500664711,-13.5430507659912,0.99405002593994,-1.56000006198883,-4.71495008468628,10.0849504470825,7.28205013275146,4.67204999923706,-1.51139998435974,1.25881254673004,6.60783767700195,0.2938374876976,7.95506238937378,10.769962310791,-11.9879369735718,-12.7503747940063,-14.551212310791,-43.5450019836426,-60.8659515380859,-32.3500518798828,-15.0610504150391,-32.4319534301758,-59.7480010986328,1.02495002746582,-8.55795001983643,-3.08895015716553,7.77933740615845,8.52678775787354,5.1803126335144,10.7740879058838,10.6842994689941,7.92728757858276,-14.4480876922607,-14.2572374343872,-13.376275062561,2.83095002174377,18.9990005493164,33.5089530944824,-74.8230056762695,-48.9450035095215,-22.0000514984131,2.65395021438599,33.351001739502,28.4470520019531,-1.552649974823,-11.2003374099731,-5.97712516784668,1.65439999103546,-14.4571628570557,-14.7994003295898,-11.1309003829956,-1.71159994602203,-2.83249998092651,45.3559532165527,43.5960006713867,39.1519508361816,-8.34794998168945,-2.67300009727478,3.91305017471313,10.746000289917,10.0999507904053,17.2470016479492,-1.35465002059937,2.24083757400513,3.86870002746582,-14.3375377655029,-12.1288747787476,-10.6161003112793,-2.71851253509521,-3.0243124961853,-3.01839995384216,28.2390022277832,14.3070011138916,3.38895010948181,5.26500034332275,3.66405010223389,1.42995011806488,19.1530513763428,14.7139511108398,6.69495010375977,4.32973766326904,4.29206228256226,4.04689979553223,-8.99387454986572,-6.36240005493164,-2.95418739318848,-2.65319991111755,-1.88718748092651,-0.81331247091293,-5.95005035400391,-12.2590503692627,-11.5290002822876,-2.01495003700256,-4.27695035934448,-3.46605014801025,3.06105017662048,2.62200021743774,6.13005018234253,2.68125009536743,0.5791500210762,0.32284998893738,2.44090008735657,8.9076623916626,10.3310623168945,0.50214999914169,-0.33811250329018,-1.64106249809265,-6.87195014953613,-2.46405005455017,2.88600015640259,-1.21005010604858,0.23505000770092,1.58100008964539,10.3660507202148,12.0030002593994,11.1630001068115,SWING_LEFT
-0.97693747282028,-1.21206247806549,-1.41418755054474,1.13698744773865,0.98917502164841,0.80134999752045,-7.00452518463135,-6.86963748931885,-6.64757490158081,-2.25104999542236,-2.55795001983643,-2.23695015907288,2.21700000762939,2.25104999542236,2.33700013160706,-8.2630500793457,-8.54594993591309,-8.17995071411133,-1.55484998226166,-1.62139999866486,-1.5743750333786,0.65092498064041,0.40521249175072,0.169537499547,-6.30877494812012,-5.74323749542236,-5.02906227111816,-1.89000010490417,-2.22000002861023,-3.14205026626587,2.44695019721985,2.4019501209259,2.28900003433228,-8.15295028686523,-8.78295040130615,-8.7180004119873,-1.43233752250671,-1.25083744525909,-1.00705003738403,-0.06971249729395,-0.29081249237061,-0.42308750748634,-4.28229999542236,-3.54227495193481,-2.57771253585815,-3.68505024909973,-3.08400011062622,-3.87000012397766,2.37105011940002,2.70105004310608,2.77995014190674,-7.78200054168701,-7.80600023269653,-7.81305027008057,-0.80726248025894,-0.61654996871948,-0.28063750267029,-0.66605001688004,-1.47523748874664,-1.54288744926453,-1.75683748722076,-0.85071247816086,-0.24887499213219,-5.74395036697388,-3.19500017166138,-0.59400004148483,2.39505004882813,1.05599999427795,-0.82695001363754,-6.463050365448,-8.28705024719238,-9.41700077056885,0.34471249580383,0.83146250247955,1.14262497425079,-0.9121749997139,0.57681250572205,2.48723745346069,-0.41552498936653,-1.22471249103546,-2.93823742866516,2.03805017471313,6.74595022201538,28.0519504547119,-1.4190000295639,-1.63200008869171,-5.48400020599365,-10.3180503845215,-9.0799503326416,-17.5270500183105,3.23125004768372,6.24112510681152,7.4658374786377,6.31785011291504,6.97317504882813,6.08547496795654,-11.1647253036499,-12.5290002822876,-9.08077526092529,59.0370025634766,46.0620040893555,7.06605052947998,-13.6099510192871,-38.9509506225586,-67.5870056152344,-32.7379531860352,-10.4209508895874,9.05595016479492,8.19513702392578,6.90057516098022,4.46421241760254,4.65506267547607,3.11052489280701,1.56694996356964,-4.78898763656616,-1.60668754577637,0.61861246824265,-19.8780002593994,-27.5350513458252,-35.4029998779297,-49.1320533752441,-26.7169513702393,-15.0949506759644,-17.5530014038086,-49.1430015563965,-29.2090511322021,3.12303757667542,3.62752509117126,2.21883749961853,-0.15716250240803,-0.59056252241135,-1.79588747024536,4.88784980773926,6.26518726348877,9.19022464752197,-28.8540019989014,-31.1910018920898,-31.5330009460449,-10.3920001983643,0.71595001220703,5.73705005645752,4.9830002784729,-0.45105001330376,-10.8880500793457,0.2729375064373,-0.84727501869202,-6.10087490081787,-2.76924991607666,-4.3231372833252,-7.90858745574951,9.56793785095215,8.55456256866455,4.30704975128174,-19.8850517272949,-5.52405023574829,2.95995020866394,5.4810004234314,3.29205012321472,1.12095010280609,-1.83705008029938,3.07305026054382,-0.52305001020432,-13.1089744567871,-8.58426284790039,-4.10176229476929,-9.11845016479492,-5.89022493362427,-1.70293748378754,0.36217498779297,1.98398745059967,4.05886268615723,7.1980504989624,7.27200031280518,5.4810004234314,-0.34605002403259,-0.25500002503395,1.18995010852814,-3.49605011940002,-7.51605033874512,-12.0420007705688,SWING_LEFT
-0.36849999427795,-0.42913749814034,-0.4823499917984,-1.0592999458313,-1.05421245098114,-1.08157503604889,1.5749249458313,2.16878747940063,2.72538757324219,1.399050116539,1.39395010471344,1.57095003128052,2.21700000762939,2.31795001029968,2.43795013427734,-8.69204998016357,-8.36595058441162,-8.28705024719238,-0.57791250944138,-0.72820001840591,-0.81468749046326,-1.07992494106293,-0.99096250534058,-0.91286247968674,3.35898756980896,4.03232479095459,4.37538766860962,1.83495008945465,1.81305003166199,1.09005010128021,2.33700013160706,2.24400019645691,2.30400013923645,-8.56005001068115,-8.75400066375732,-8.97000026702881,-0.86638748645782,-0.83751249313354,-0.83283752202988,-1.01915001869202,-1.10989999771118,-1.20780003070831,4.71886253356934,4.73288726806641,4.86420011520386,0.72405004501343,0.60900002717972,-1.10205006599426,2.4190502166748,2.43495011329651,2.70300006866455,-9.10395050048828,-9.1230001449585,-8.62005043029785,-0.74566251039505,-0.56182497739792,0.00659999996424,-1.66017496585846,-3.43846249580383,-5.24617481231689,4.85086250305176,5.11444997787476,6.51323747634888,-6.64500045776367,-9.0169506072998,5.12700033187866,3.86700010299683,3.87705016136169,-0.4870500266552,-8.35395050048828,-9.36495018005371,-16.6410007476807,0.74621248245239,0.40782499313354,-0.25327500700951,-2.93961238861084,2.48709988594055,9.08146286010742,7.61117506027222,7.5295000076294,9.09700012207031,42.6619529724121,56.4390029907227,11.9200506210327,-8.50605010986328,-23.8840503692627,-47.4730529785156,-31.2390022277832,-0.32595002651215,-17.1460514068604,0.43834999203682,1.77993750572205,2.78368759155273,7.85936260223389,4.50092506408691,3.19055008888245,9.18280029296875,8.5296745300293,8.31146240234375,-23.2350006103516,-35.659049987793,-45.9420013427734,-34.4500503540039,-18.4830017089844,-13.5289506912231,-49.560001373291,-5.43105030059814,7.72500038146973,6.65651226043701,5.71821260452271,4.81909990310669,-1.25702500343323,-8.37388706207275,0.86171251535416,8.25728702545166,7.70288753509521,15.2068128585815,-38.659049987793,-31.1070022583008,-16.3889999389648,-0.52799999713898,0.37395000457764,0.69900006055832,-1.0110000371933,-3.72405028343201,-9.83205032348633,4.77812480926514,4.74443769454956,2.1735999584198,0.65188747644424,-1.46630001068115,-1.96157503128052,15.136137008667,13.1280870437622,11.1014747619629,-6.03900051116943,1.61505007743835,5.9650502204895,0.69000005722046,0.62505000829697,0.33105000853539,-10.8589506149292,-7.86795043945313,-9.5710506439209,-1.84552502632141,-3.82731246948242,-4.34953737258911,-0.35777500271797,4.01788759231567,9.33941268920898,9.03979969024658,6.54431247711182,5.34929990768433,8.79300022125244,8.18400001525879,5.83095026016235,0.30000001192093,0.87195003032684,0.93600004911423,-12.1489505767822,-12.3310508728027,-11.2990503311157,-3.81287503242493,-3.32433748245239,-2.67932510375977,10.8766622543335,9.93148708343506,7.87421226501465,6.17168760299683,6.87541246414185,5.9105749130249,2.84805011749268,0.11295000463724,-1.61205005645752,1.03500008583069,1.41795003414154,1.75095009803772,-10.5040502548218,-9.52005004882812,-8.45700073242188,SWING_LEFT
-1.22292494773865,-1.35643744468689,-1.38696253299713,-0.11068750172853,-0.51314997673035,-0.84823751449585,5.74695014953613,5.61385011672974,5.49078750610352,1.95495009422302,1.56000006198883,1.57605004310608,1.68300008773804,1.95600008964539,1.92795014381409,-8.03805065155029,-9.49605083465576,-8.90295028686523,-1.37940001487732,-1.38008749485016,-1.40002501010895,-1.20326244831085,-1.38545000553131,-1.45887494087219,5.50605010986328,5.82188749313354,6.14762496948242,1.33395004272461,1.18095004558563,1.42500007152557,1.71495008468628,1.85595011711121,1.87695014476776,-8.45700073242188,-9.07500076293945,-9.41295051574707,-1.37857496738434,-1.3330625295639,-1.12681245803833,-1.54096245765686,-1.63666248321533,-2.19051241874695,6.42702484130859,6.59656238555908,6.94361257553101,0.88695001602173,0.33105000853539,-5.72505044937134,1.94700014591217,2.03295016288757,3.41895008087158,-9.38895034790039,-9.25695037841797,-10.7440509796143,-0.81936252117157,-0.171187505126,0.87546247243881,-3.47434997558594,-4.65574979782104,-5.10647487640381,7.51987504959106,8.19087505340576,8.36701202392578,-8.49300003051758,-7.2940502166748,3.85605025291443,3.27105021476746,0.47400003671646,-1.92405009269714,-10.1520004272461,-10.1410503387451,-10.7770509719849,1.20518743991852,0.49994999170303,-0.6650875210762,-3.63673758506775,0.67732501029968,6.48862504959106,7.65049982070923,7.12456226348877,7.16347503662109,24.1759510040283,48.5329513549805,53.6809539794922,-2.46495008468628,-7.2199501991272,-20.2180519104004,-14.4240007400513,-8.70195007324219,7.69395017623901,-0.85318750143051,1.55966246128082,1.68134999275208,10.0164623260498,8.98768711090088,5.8099250793457,6.93384981155396,8.01185035705566,7.96743726730347,34.3639526367188,-24.9540004730225,-34.0980033874512,-49.2559509277344,-22.5739517211914,-7.39695024490356,9.29805088043213,-40.1740531921387,-26.2660503387451,2.60438752174377,4.73852491378784,1.85693752765656,2.86123752593994,-2.27053737640381,-8.52637481689453,8.25508785247803,8.70457458496094,8.55277538299561,-36.0709533691406,-33.0820503234863,-24.2160015106201,-6.05100011825562,-3.61395025253296,-1.3900500535965,-5.47395038604736,-5.69205045700073,-8.83800029754639,0.92221248149872,1.47702503204346,2.49122500419617,-7.10682487487793,-3.17308759689331,-2.54031252861023,10.1147747039795,12.8660125732422,11.74098777771,-13.689001083374,-6.42705011367798,-1.73400008678436,-0.0730499997735,1.07295000553131,1.5330001115799,-8.38304996490479,-7.62900018692017,-7.55895042419434,2.46152496337891,1.13011252880096,-1.01901245117188,-1.37623751163483,0.74786251783371,4.39367485046387,10.34494972229,9.07101249694824,7.77906227111816,2.62995004653931,6.0130500793457,6.3270001411438,0.91005003452301,-0.36300000548363,-0.88200002908707,-10.0090503692627,-10.452000617981,-8.79705047607422,-2.07336258888245,-2.32567501068115,-2.07061243057251,7.40506267547607,9.07403755187988,8.46944999694824,6.33764982223511,5.65042495727539,4.94752502441406,4.19099998474121,1.40400004386902,-0.87000006437302,0.02895000204444,1.02300000190735,1.20900011062622,-10.1410503387451,-10.4230508804321,-8.4859504699707,SWING_LEFT
-0.21147499978542,-0.262212485075,-0.2924624979496,-0.08552499860525,0.02516249939799,0.11673749983311,2.51171255111694,2.77158737182617,3.46527504920959,0.27600002288818,0.68595004081726,1.12604999542236,1.73400008678436,1.83405005931854,1.68795013427734,-8.27295017242432,-8.45700073242188,-8.44500064849854,-0.33412501215935,-0.36203750967979,-0.4643374979496,0.2073500007391,0.21394999325275,-0.12319999933243,4.30966234207153,4.84591245651245,6.68731260299683,1.24095010757446,0.966000020504,0.90300005674362,1.66200006008148,1.87005007266998,1.93995010852814,-8.39700031280518,-8.53395080566406,-8.80695056915283,-0.55907499790192,-0.64955002069473,-0.67636251449585,-0.46846249699593,-0.77577501535416,-1.07263743877411,7.84478759765625,8.74156284332275,9.25842475891113,0.98505002260208,0.74505001306534,-0.13005000352859,1.77705013751984,1.75995004177094,2.07600021362305,-8.81205081939697,-8.79705047607422,-9.21900081634522,-0.64130002260208,-0.60046249628067,-0.4811125099659,-1.38201248645782,-1.6747499704361,-2.02784991264343,9.4335994720459,9.40568733215332,9.3154878616333,-0.67095005512238,-0.40305000543594,-2.03805017471313,2.3779501914978,2.11005020141602,2.1979501247406,-9.23295021057129,-9.46305084228516,-11.0839509963989,-0.15138749778271,0.49142500758171,0.49266248941422,-2.67121243476868,-3.43708753585815,-1.71242499351501,9.28482532501221,8.7954626083374,8.54809951782227,-4.6429500579834,7.88295030593872,53.7960014343262,2.89305019378662,-1.66005003452301,-10.2769508361816,-11.3520002365112,-8.35905075073242,-14.2609510421753,-1.33952498435974,-2.56918740272522,-1.51552498340607,5.43578767776489,9.39221286773682,10.4527502059937,9.74091243743896,9.92502498626709,10.5674247741699,64.6590042114258,27.0349521636963,7.39005041122437,-26.6929512023926,-60.2650527954102,-57.0210037231445,7.99995040893555,13.7890510559082,-23.965051651001,-0.87202501296997,-0.67430001497269,-0.1915374994278,8.53022480010986,5.44293737411499,4.72284984588623,10.6484127044678,10.6339750289917,11.1057376861572,-25.0090503692627,-46.0120506286621,-51.1690521240234,-33.9210014343262,-25.2780017852783,-13.0330505371094,-53.7550506591797,-6.61605024337769,7.04700040817261,0.54009997844696,0.6183375120163,1.2500125169754,5.85048723220825,9.15804958343506,9.2131872177124,13.8143501281738,16.8056621551514,17.3799991607666,-43.8420028686523,-30.2430019378662,-13.9879503250122,-0.39105001091957,0.87195003032684,-0.38400000333786,-4.55895042419434,-6.57300043106079,-7.92300033569336,-2.94923758506775,-2.66667509078979,-3.0387499332428,-4.23183727264404,-6.25129985809326,-4.72711229324341,13.4123001098633,11.560037612915,10.0134372711182,-1.357950091362,6.84405040740967,12.0970506668091,-0.85305005311966,-1.31595003604889,-1.38300001621246,-8.70900058746338,-6.93495035171509,-8.31405067443848,-7.05031251907349,-8.06726264953613,-6.31963729858398,-2.75013756752014,3.29477500915527,9.39867496490478,5.8909125328064,-0.25203749537468,-2.96504998207092,13.4059505462646,10.3300504684448,5.90295028686523,-1.02795004844666,0.33795002102852,1.53000009059906,-9.64305019378662,-10.3990507125854,-11.2369508743286,SWING_LEFT
-0.15881249308586,-0.31542500853539,-0.44536250829697,-0.14918750524521,-0.24172499775887,-0.29878750443459,5.59074974060059,5.01655006408691,4.48250007629395,0.70695000886917,0.83895003795624,1.14495003223419,1.83195006847382,1.92795014381409,1.9039500951767,-8.62005043029785,-8.66805076599121,-8.6850004196167,-0.54009997844696,-0.65848749876022,-0.79433751106262,-0.38816249370575,-0.60554999113083,-0.90158748626709,4.34829998016357,5.10551261901855,6.23163747787476,1.12395000457764,0.77205002307892,0.57300001382828,1.91595005989075,2.0350501537323,2.17695021629334,-8.74905014038086,-8.67300033569336,-8.67795085906982,-0.9092875123024,-0.59262502193451,-0.52827501296997,-1.34763753414154,-2.45066237449646,-2.40831255912781,7.27732515335083,7.66521263122559,7.66947507858276,-1.65300011634827,1.02300000190735,8.76900005340576,2.82300019264221,2.53800010681152,0.72300004959106,-10.9830007553101,-8.78505039215088,-9.09899997711182,-0.78979998826981,-1.5135999917984,-3.30357503890991,-0.97240000963211,4.06120014190674,8.33621215820313,7.61296224594116,8.77868747711182,11.0538997650146,40.5550537109375,60.435001373291,27.9949512481689,-8.28105068206787,-31.5649509429932,-57.1500015258789,-13.8829507827759,6.11595010757446,1.20495009422302,-3.81342506408691,-2.5946249961853,-2.38287496566772,9.24495029449463,6.92051267623901,5.65001249313354,12.5624122619629,12.2256746292114,12.0194253921509,2.51700019836426,-17.0910015106201,-40.1860504150391,-44.5609512329102,-33.234001159668,-21.1330509185791,-38.860050201416,-26.4580516815186,10.3390502929688,-4.75351238250732,-7.02583742141724,-1.72727501392365,8.43246269226074,17.840763092041,6.52904987335205,13.5304126739502,15.9684247970581,17.8507995605469,-77.9680557250977,-42.3460502624512,-4.23405027389526,-0.67605000734329,-6.41805028915405,-3.81300020217896,6.15195035934448,-16.2150001525879,4.62195014953613,-2.31687498092651,-2.0153374671936,-1.88718748092651,-7.68680000305176,-8.20806217193604,-7.7726001739502,13.9526748657227,12.5453624725342,11.4032878875732,7.89000034332275,15.1300506591797,10.0380001068115,-3.35595011711121,1.34595000743866,3.28500008583069,-8.22300052642822,-6.63000011444092,-5.56995010375977,-6.347825050354,-8.20036220550537,-10.442850112915,-7.34827518463135,3.5341625213623,15.0187120437622,7.86458730697632,-0.69134998321533,8.16598701477051,10.6789503097534,9.47700023651123,5.46495008468628,2.35605001449585,2.06895017623901,2.4019501209259,-11.1079502105713,-12.3100509643555,-12.7600507736206,-8.1298246383667,-6.30299997329712,-4.18261241912842,9.52503776550293,6.42537498474121,3.64196252822876,6.70752477645874,4.33468770980835,1.18731248378754,0.97305005788803,-1.9780501127243,-3.13500022888184,2.75400018692017,2.31105017662048,2.21700000762939,-9.81705093383789,-7.17405033111572,-6.59700012207031,-2.91720008850098,-2.51570010185242,-2.53233742713928,1.40524995326996,-0.64913749694824,-2.29913759231567,-0.90777498483658,-2.08065009117126,-2.60177493095398,-3.51300024986267,-3.77895021438599,-3.40305018424988,2.44500017166138,3.04800009727478,3.43800020217896,-6.88395023345947,-7.47795057296753,-8.45700073242188,SWING_LEFT
-0.01333750039339,-0.03272499889135,0.09569999575615,-0.23264999687672,-0.29727500677109,-0.20322500169277,1.77883744239807,1.8547375202179,2.45093750953674,1.10699999332428,0.98700004816055,1.53795003890991,1.32705008983612,1.1779500246048,1.14705002307892,-8.92695045471191,-8.56695079803467,-9.5110502243042,0.29603749513626,0.31157499551773,0.14987500011921,0.03959999978542,0.20088750123978,0.21463750302792,3.13431239128113,3.95793747901917,4.76423740386963,2.10795021057129,1.90905010700226,1.77300012111664,1.10594999790192,1.37205004692078,1.60905003547668,-9.62805080413818,-9.6109504699707,-9.48900032043457,-0.06558749824762,-0.27610000967979,-0.57571250200272,0.02419999986887,-0.19483749568462,-0.55522501468658,5.50371265411377,6.1296124458313,7.41633749008179,1.54800009727478,0.98505002260208,0.54704999923706,1.53705012798309,1.63800013065338,1.8270001411438,-9.30000019073486,-9.20895004272461,-9.09705066680908,-0.862124979496,-1.10137498378754,-0.82857501506805,-0.89058750867844,-1.26898753643036,-2.65031242370605,8.15856266021729,8.69508743286133,8.97325038909912,0.25500002503395,-0.39300000667572,-4.77705001831055,1.87305009365082,1.92795014381409,3.21600008010864,-9.26895046234131,-9.59505081176758,-11.7690010070801,-0.44673749804497,0.00921249948442,0.33687499165535,-3.43282508850098,-4.00001239776611,-1.42381250858307,8.72258758544922,8.39739990234375,9.30022525787354,-5.91405010223389,-3.32595014572144,54.202953338623,3.04605007171631,1.44600009918213,-12.1260004043579,-11.2350006103516,-9.39795017242432,-8.84505081176758,-3.11451244354248,-7.44397497177124,-8.70388698577881,5.21386241912842,7.80738735198975,8.90944957733154,13.640549659729,15.8892250061035,16.2885246276855,52.6320037841797,19.9909515380859,-6.36900043487549,-27.7840518951416,-53.9230537414551,-37.9789505004883,3.1230001449585,0.20700001716614,-38.4960021972656,-7.37164974212646,-7.2040376663208,-9.04626274108887,7.08331251144409,5.82972478866577,8.8217248916626,15.6722497940063,15.361912727356,16.47043800354,-33.9589500427246,-41.6970024108887,-40.8040504455566,-11.9959506988525,-9.91095066070557,-0.78405004739761,-29.4600009918213,2.44800019264221,-3.64200019836426,-7.4053373336792,-2.8194375038147,-1.57602500915527,13.956524848938,12.4947624206543,4.15538740158081,18.6704368591309,19.4750881195068,18.1473865509033,-33.1470031738281,-19.5330009460449,-5.63700008392334,2.44200015068054,3.69900012016296,3.94605016708374,-4.34205007553101,-5.10495042800903,-6.83205032348633,-4.53653764724731,-13.4125747680664,-14.3200750350952,-2.53426241874695,-9.12738704681396,-1.00278747081757,15.0119752883911,7.87022495269775,-1.5966500043869,4.33004999160767,8.98905086517334,8.86395072937012,3.91695022583008,3.97695016860962,3.13005018234253,-7.5450005531311,-9.09195041656494,-8.57895088195801,-10.3269376754761,-7.82251262664795,-6.37463760375977,5.89008760452271,8.73743724822998,8.03164958953857,-1.06865000724792,1.82476246356964,2.68936252593994,5.58195018768311,2.64900016784668,-0.29295000433922,3.02205014228821,2.8090500831604,2.81805014610291,-7.29600048065186,-7.18605041503906,-6.95400047302246,SWING_LEFT
0.51919996738434,0.19772499799728,-0.0283249989152,0.32037499547005,0.11687500029802,-0.05004999786615,5.52997493743896,6.39196252822876,7.26948738098145,1.01805007457733,1.28700006008148,1.70100009441376,1.46100008487701,1.40295004844666,1.34295010566711,-9.06105041503906,-8.3299503326416,-8.5290002822876,-0.26138749718666,-0.52249997854233,-0.77206248044968,-0.22797499597073,-0.44728749990463,-0.74112498760223,8.37127494812012,9.62829971313477,10.7168874740601,1.7610000371933,1.51395010948181,1.26705002784729,1.43205010890961,1.61400008201599,1.83900010585785,-9.2790002822876,-9.89595031738281,-9.74805068969727,-0.98312497138977,-1.12860000133514,-0.90103751420975,-1.05256247520447,-1.32082498073578,-2.17662501335144,11.4050750732422,11.6265878677368,10.9712619781494,0.97800004482269,-0.12705001235008,-2.44800019264221,1.67100012302399,1.81500005722046,2.13795018196106,-8.91195011138916,-9.44595050811768,-11.0239505767822,-0.50765001773834,-0.04331250116229,0.46090000867844,-2.74504995346069,-3.3706750869751,-3.26906251907349,10.3254251480103,9.49355030059814,8.46876239776611,-4.79400014877319,-2.88795018196106,6.82905054092407,2.5860002040863,1.83900010585785,1.0110000371933,-11.4259510040283,-8.75400066375732,-8.94105052947998,0.2910875082016,-2.78781247138977,-4.68160009384155,-1.9901750087738,3.11781239509583,7.63482475280762,9.41283702850342,12.5207500457764,11.3474626541138,24.9589519500732,52.1340026855469,44.3569526672363,-1.56900012493134,-11.9010009765625,-34.8210029602051,-8.44799995422363,-0.71895003318787,11.4810009002686,5.21427488327026,7.11026239395142,7.46460008621216,6.87018728256226,1.77100002765656,-0.10449999570847,6.27990007400513,3.41467499732971,2.75659990310669,-6.69495010375977,-31.3440017700195,-43.1460037231445,-28.8139514923096,-24.7870502471924,-17.320951461792,-56.2039527893066,-32.0389518737793,-2.53395009040833,5.19337511062622,3.39556241035461,3.59191250801086,-7.01951265335083,-6.00916242599487,-3.62958741188049,5.94508743286133,8.71186256408691,11.9022750854492,-29.6610012054443,-19.6819515228271,-10.1479501724243,-4.78695011138916,0.25905001163483,4.389000415802,1.59795010089874,3.46005010604858,-6.87495040893555,5.80084991455078,5.7297625541687,3.23482489585876,-3.20361256599426,-2.29941248893738,-1.64573752880096,12.0011377334595,11.1944246292114,10.6888370513916,-3.34500026702881,0.70995002985001,4.71300029754639,6.27600049972534,6.35700035095215,4.83195018768311,-6.86805009841919,-9.56595039367676,-9.36705017089844,-2.62198758125305,-7.3830623626709,-6.46428728103638,-0.8927875161171,4.33619976043701,8.70457458496094,9.2633752822876,7.06983757019043,6.02731227874756,6.71895027160645,6.15705013275146,3.94395017623901,3.09600019454956,2.12595009803772,1.76700007915497,-7.96905040740967,-6.8580002784729,-7.70805025100708,-4.96127510070801,-3.26466250419617,-2.02839994430542,9.45504951477051,8.50093746185303,6.78686237335205,5.30062484741211,4.26648759841919,3.18133759498596,1.37805008888245,-1.87500011920929,-4.04505014419556,1.70700013637543,1.99500012397766,2.18400001525879,-8.36595058441162,-8.14395046234131,-8.21100044250488,SWING_LEFT
-1.50163745880127,-0.01017499994487,1.01626253128052,-0.2576749920845,-0.62768751382828,-0.47121250629425,2.8060998916626,1.58784997463226,-0.31075000762939,2.24700021743774,5.27805042266846,4.08105039596558,-1.20105004310608,1.0200001001358,0.07005000114441,-9.98505020141602,-10.1520004272461,-9.28605079650879,1.7467999458313,2.14499998092651,2.23492503166199,-0.3797749876976,-0.43298751115799,-0.36410000920296,-1.3556125164032,-2.26077508926392,-2.92490005493164,2.71800017356873,1.86795008182526,2.38800001144409,0.77100002765656,1.40805006027222,1.00604999065399,-9.8700008392334,-9.85995006561279,-9.46995067596436,2.19477510452271,1.91097497940063,1.40030002593994,-0.30524998903275,-0.14382499456406,-0.41346248984337,-3.16373753547669,-3.57445001602173,-3.49236249923706,2.61105012893677,2.15295004844666,1.8229501247406,1.07805001735687,1.24305009841919,1.56900012493134,-9.21900081634522,-8.824049949646,-9.32400035858154,1.05668747425079,0.78443747758865,0.60692501068115,-0.54243749380112,-0.54986250400543,-0.42047500610352,-3.38566255569458,-3.19976258277893,-2.91884994506836,1.78905010223389,1.8469500541687,2.12895011901855,1.62105011940002,1.83405005931854,1.58295011520386,-8.49105072021484,-8.66805076599121,-9.95895004272461,0.43230000138283,-1.128737449646,-2.81558752059937,-0.33811250329018,-0.98518747091293,-0.690249979496,-2.55268740653992,3.39473748207092,8.66332530975342,2.72805023193359,7.3609504699707,20.1460514068604,1.60395002365112,1.40595006942749,-2.61105012893677,-9.32895088195801,-11.2320003509521,-18.5089511871338,-2.67066240310669,-2.72717499732971,-3.33465003967285,3.21227502822876,4.82226228713989,4.50367498397827,9.33913707733154,9.08641242980957,9.61908721923828,23.7550506591797,16.3750514984131,-3.58500027656555,-15.399001121521,-16.5550498962402,-14.9560508728027,-3.23100018501282,-6.17100048065186,-12.1230001449585,-1.21797502040863,0.69891250133514,-2.85917496681213,3.85288739204407,2.86715006828308,-20.643424987793,9.94042491912842,11.264687538147,-3.04837489128113,-17.9980506896973,-27.3940505981445,-11.7010507583618,-10.4689502716064,-3.76695013046265,3.45795011520386,1.54005002975464,4.44705009460449,-0.12495000660419,-5.56269979476929,-6.32857513427734,-6.32857513427734,-18.6082878112793,-15.4346494674683,-15.4346494674683,-3.44767498970032,-3.35389995574951,-3.35389995574951,-10.9879503250122,-2.03805017471313,-2.03805017471313,-5.70195007324219,0.00300000002608,0.00300000002608,-8.17695045471191,-10.4809503555298,-10.4809503555298,-10.5884628295898,-4.32038736343384,-2.48682498931885,-7.87833738327026,3.81851243972778,5.41241264343262,-6.4096999168396,-5.24933767318726,-0.4464625120163,-0.51105004549026,3.49905014038086,2.37405014038086,3.98205018043518,3.18900012969971,2.62395024299622,-11.8789501190186,-12.7120504379272,-8.95305061340332,-1.89048743247986,-1.06617498397827,-1.10591244697571,4.11193752288818,1.30019998550415,-0.11632499843836,1.30336248874664,1.1258499622345,0.55866247415543,-1.76805007457733,-3.71895027160645,-3.74505019187927,2.79900002479553,3.11295008659363,2.86605024337769,-7.6360502243042,-7.60305023193359,-8.15100002288818,SWING_LEFT
-2.80403757095337,-1.17603754997253,0.89471250772476,-0.60486251115799,-0.78210002183914,-0.22068749368191,7.30633735656738,3.02101254463196,-2.71081256866455,3.30495023727417,2.4190502166748,2.04795002937317,1.2720000743866,1.32705008983612,1.42005002498627,-8.63895034790039,-9.23505020141602,-9.53205013275146,3.3177375793457,3.69338750839233,5.26735019683838,0.74676251411438,1.00100004673004,1.92830002307892,-9.87868785858154,-11.3096494674683,-16.8827991485596,1.88295006752014,1.53600001335144,1.25805008411407,1.39395010471344,1.42695009708405,1.44195008277893,-8.99100017547607,-9.07500076293945,-9.02505016326904,4.78156232833862,3.8643000125885,2.30216240882874,1.83342504501343,1.41157495975494,0.55068749189377,-16.4752502441406,-14.609375,-10.3725872039795,0.79605001211166,0.38895002007484,0.02505000121891,1.3819500207901,1.52805006504059,1.63605010509491,-9.32895088195801,-9.72900009155273,-10.0810508728027,1.24520003795624,0.85112500190735,0.55715000629425,-0.16651250422001,-0.40067499876022,-0.43285000324249,-6.74437475204468,-5.28632497787476,-4.07714986801147,-0.23295001685619,0.54195004701614,2.04299998283386,1.83195006847382,1.95405006408691,1.9780501127243,-8.32095050811768,-8.69895076751709,-9.43905067443848,0.52346247434616,1.65481245517731,4.17285013198853,0.90378749370575,3.13995003700256,6.21334981918335,-2.82713747024536,-2.74546241760254,-1.97518754005432,13.1310005187988,24.6280517578125,26.8980007171631,-0.98505002260208,-4.29195022583008,-25.957950592041,-13.818000793457,-13.3200006484985,2.84295010566711,6.0984001159668,5.61439990997314,5.10262489318848,4.63141250610352,1.83095002174377,-4.19828748703003,0.10738749802113,0.71458750963211,2.60809993743896,-3.42405009269714,-29.0310020446777,-22.8439502716064,-25.3950004577637,-12.8389501571655,-0.94695001840591,-34.5930023193359,-27.0420017242432,-0.12495000660419,0.41580000519753,-1.42133748531342,-1.80358743667603,-8.96073722839355,-8.82681274414063,-8.87810039520264,3.93236255645752,4.48882484436035,5.30914974212646,-12.6829509735107,-10.7389507293701,-8.59095001220703,-0.32400000095367,1.85805010795593,3.58200025558472,-12.2160005569458,-6.68595027923584,-5.34705018997192,-1.83672499656677,-2.72497487068176,-3.7844123840332,-8.0999870300293,-5.41461229324341,-2.77007508277893,5.48501253128052,4.36452484130859,3.06487488746643,-5.03595018386841,-0.82905006408691,-0.4120500087738,3.59205007553101,3.16995024681091,3.41895008087158,-3.28095006942749,-3.1039502620697,-4.87095022201538,-4.37249994277954,-5.34077501296997,-7.47326231002808,-1.24368751049042,0.19456249475479,3.82194995880127,2.75948739051819,2.57881259918213,-1.85542500019073,0.0730499997735,0.05295000225306,-0.36900001764297,3.45795011520386,3.28500008583069,2.99100017547607,-6.10095024108887,-8.49105072021484,-8.51504993438721,-6.64138746261597,-3.31072497367859,-2.33021259307861,6.04147481918335,4.26854991912842,2.64563751220703,-4.81965017318726,-3.36971259117126,-2.0732250213623,-1.03305006027222,-3.90105009078979,-4.44900035858154,2.92095017433167,3.86505007743835,4.05105018615723,-7.77000045776367,-9.43695068359375,-9.4150505065918,SWING_LEFT
0.99412500858307,0.96731251478195,0.90076249837875,0.97336250543594,1.43219995498657,1.29250001907349,0.53432500362396,0.88770002126694,1.76549994945526,1.1050500869751,-0.30495002865791,-0.5460000038147,0.63705003261566,1.42995011806488,1.40595006942749,-8.99100017547607,-9.77700042724609,-9.48405075073242,0.84356248378754,0.76958751678467,0.68035000562668,1.13409996032715,1.00705003738403,0.65009999275208,2.4256374835968,3.22767496109009,4.40082502365112,0.30705001950264,1.15200006961823,1.35405004024506,1.08000004291534,0.89100003242493,0.91695004701614,-9.2790002822876,-9.08895015716553,-9.28095054626465,0.5823125243187,0.4687374830246,0.07108750194311,0.17710000276566,-0.38802498579025,-1.68272495269775,6.08643770217896,8.53613758087158,14.5514869689941,0.41505002975464,-0.17805001139641,-1.66005003452301,1.2720000743866,1.58505010604858,1.80105006694794,-9.68100070953369,-9.71205043792725,-9.23295021057129,-0.11742500215769,0.16609999537468,0.56416249275208,-2.12024998664856,-2.6302375793457,-3.12592506408691,15.8886747360229,15.1680374145508,13.7040748596191,-1.2960000038147,-2.68905019760132,-5.83305025100708,1.84095013141632,1.92495012283325,2.38500022888184,-9.42000007629394,-9.67800045013428,-8.97000026702881,1.01915001869202,1.4025000333786,1.96886253356934,-3.67070007324219,-4.12389993667603,-3.97663736343384,11.8100128173828,9.69223785400391,9.80031204223633,-7.18605041503906,-3.92205023765564,10.1170501708984,2.00400018692017,0.74700003862381,-1.97895014286041,-7.60995054244995,-8.26800060272217,-17.0100002288818,3.55836248397827,-4.96828746795654,-5.05092477798462,-2.35730004310608,6.1327748298645,8.36687469482422,20.6797256469727,17.8634490966797,16.1585865020752,56.452953338623,24.4660511016846,17.215950012207,-8.26395034790039,-45.1720504760742,-44.6500511169434,-33.6000022888184,13.7130002975464,-20.2800006866455,-4.1325626373291,-2.93851256370544,-1.21797502040863,7.43022489547729,4.78403759002686,3.74329996109009,14.5249500274658,13.2488126754761,12.4034624099731,-7.77495050430298,-40.6080017089844,-39.4900512695313,-32.6740531921387,-16.7370014190674,-6.4150505065918,-54.7510528564453,-8.90700054168701,10.3030500411987,2.7607250213623,3.8284125328064,0.34127500653267,1.96239995956421,-3.14435005187988,-5.77981233596802,12.8682126998901,12.7810373306274,11.8559370040894,-30.7930507659912,-27.7650012969971,-15.493950843811,-3.67605018615723,1.30305004119873,0.85995006561279,-8.62305068969727,-29.0269508361816,-8.73495006561279,-0.73136252164841,-0.21642500162125,-2.99103736877441,-6.93398761749268,-7.69477510452271,-4.28642511367798,11.0981750488281,10.6261377334595,7.04192495346069,-8.56005001068115,-1.80300009250641,2.83305025100708,1.43700003623962,0.22095000743866,-1.87605011463165,-8.74905014038086,-12.3379507064819,-7.93095016479492,-4.72766256332397,-4.78142499923706,-3.46293759346008,-1.72012495994568,4.12293767929077,4.89211225509644,3.55272507667542,-3.534987449646,-3.84477496147156,9.17805004119873,-1.16895008087158,0.2569500207901,-1.19805002212524,-0.09195000678301,1.88700008392334,-5.39700031280518,-11.2870502471924,-10.7560501098633,SWING_LEFT
-0.60981249809265,-0.60678750276566,-0.58437502384186,-0.35571250319481,-0.1907124966383,-0.0141624994576,-1.03620004653931,-0.95081251859665,-0.7598249912262,-0.97500002384186,-0.63495004177094,-0.44100001454353,2.35095000267029,2.36595010757446,2.35905003547669,-9.16394996643066,-8.27505016326904,-7.6360502243042,-0.50214999914169,-0.39572501182556,-0.31776249408722,0.11976250261068,0.1205874979496,0.06352499872446,-0.56938749551773,-0.49445000290871,-0.40314999222755,-1.24095010757446,-2.01705002784729,-2.15295004844666,2.27505016326904,2.43495011329651,2.65995001792908,-7.37295055389404,-9.15900039672852,-9.91800022125244,-0.24584999680519,-0.11110000312328,0.50352501869202,-0.49527499079704,-1.18236243724823,-0.7236624956131,-0.45526251196861,-0.1134374961257,1.03757500648499,-3.75000023841858,0.8440500497818,0.8890500664711,2.31600022315979,1.3819500207901,1.21395003795624,-7.60305023193359,-11.3500509262085,-10.135950088501,1.1562374830246,1.24272501468658,1.00512504577637,-0.37331250309944,-0.32931250333786,0.13062499463558,4.44097518920898,6.72072505950928,9.41847515106201,1.43700003623962,2.50305008888245,2.91195011138916,0.86505001783371,0.85995006561279,0.74505001306534,-7.50900030136108,-9.48705005645752,-11.0050506591797,0.6210874915123,0.26193749904633,-0.06091250106692,0.27610000967979,0.10078749805689,0.08579999953508,10.3340873718262,10.0941495895386,9.57522487640381,2.09100008010864,2.72100019454956,13.53600025177,0.96300005912781,0.98700004816055,-1.14300000667572,-10.0260000228882,-10.0690507888794,-19.2169513702393,-0.45402500033379,-0.4779500067234,1.06727504730225,1.36826252937317,3.35967493057251,4.72009992599487,9.15846252441406,8.36151218414307,7.60567474365234,35.4550514221191,23.5099506378174,9.94695091247559,-9.90405082702637,-28.8430519104004,-31.6459522247314,-31.5169506072998,-9.18495082855225,3.59700012207031,2.69280004501343,1.67928743362427,3.84669995307922,3.46939992904663,1.73304998874664,1.04554998874664,6.71233749389648,7.44686269760132,13.8564252853394,-18.223051071167,-27.480001449585,-17.9479503631592,-4.35195016860962,-3.42000007629395,1.32000005245209,-30.0780010223389,-8.62695026397705,2.3929500579834,2.02413749694824,0.83943748474121,-0.19415000081062,-3.47407507896423,-4.89197492599487,-4.53488731384277,13.6904621124268,11.9200124740601,8.64723777770996,-16.2240009307861,-9.28095054626465,-1.54695010185242,2.83005023002625,3.06300020217896,3.14595007896423,-7.82505035400391,-7.66005039215088,-10.1640005111694,-4.89857482910156,-8.18991279602051,-8.53613758087158,-1.36702501773834,1.12323749065399,3.5011625289917,5.2167501449585,0.70840001106262,-2.3590874671936,0.53205001354218,2.2300500869751,1.69605004787445,3.12000012397766,3.20595026016235,3.39495015144348,-10.8229503631592,-11.7970504760742,-10.6720504760742,-5.57480001449585,-4.42969989776611,-3.60607504844666,5.90094995498657,5.49903726577759,4.43602514266968,-2.96394991874695,-1.87976253032684,-1.43797504901886,-0.49605002999306,-1.7700001001358,-3.85500025749207,3.72105026245117,3.83595013618469,4.15395021438599,-8.06895065307617,-8.19195079803467,-8.50995063781738,SWING_LEFT
-0.32243749499321,-0.32491248846054,-0.30882498621941,-0.93334996700287,-1.00842499732971,-1.08597505092621,7.04715013504028,6.12246227264404,5.67256259918213,0.04605000093579,-0.93900007009506,-0.42195001244545,1.43700003623962,1.62600004673004,1.56105005741119,-9.4150505065918,-8.73300075531006,-9.27405071258545,-0.25176250934601,-0.21862499415874,-0.17641249299049,-1.02877497673035,-0.93513751029968,-0.84603750705719,4.90696239471436,4.54437494277954,4.19828748703003,-0.13500000536442,-0.03900000080466,-0.53895002603531,1.49400007724762,1.44900012016296,1.47495007514954,-9.21900081634522,-9.36195087432861,-9.17805004119873,-0.12801249325275,-0.08566249907017,-0.04867500066757,-0.77027499675751,-0.70248746871948,-0.67031252384186,3.89331245422363,3.59947490692139,3.32447504997253,-0.99900007247925,-0.74805003404617,-0.75195002555847,1.57095003128052,1.62600004673004,1.68795013427734,-8.87595081329346,-9.13500022888184,-9.39600086212158,-0.01154999993742,0.02612499892712,0.04193750023842,-0.70166248083115,-0.86157500743866,-1.17411243915558,3.07408738136292,2.84501242637634,2.67575001716614,-1.69800007343292,-2.46705007553101,-1.05900001525879,1.932000041008,2.11005020141602,2.07105016708374,-9.31005001068115,-9.16394996643066,-9.77205085754394,0.30456250905991,2.2922625541687,5.96873760223389,1.42106246948242,5.01613759994507,5.9545750617981,1.89241254329681,-0.78966248035431,-2.96711254119873,40.9740028381348,33.9490509033203,13.6309509277344,-13.2199506759644,-34.0240516662598,-41.0820007324219,-31.7179508209229,-1.92105007171631,8.52195072174072,8.49791240692139,4.79902505874634,5.59088754653931,4.79558753967285,0.3634124994278,-1.57258749008179,-1.41295003890991,1.46712493896484,3.23207497596741,2.51205015182495,-35.2060508728027,-33.9300003051758,-34.8019523620605,-11.6089506149292,1.31505000591278,-46.2150039672851,8.48805046081543,25.3350009918213,5.80772495269775,0.84796249866486,-0.57254999876022,-6.6879997253418,-12.1750745773315,-8.0812873840332,3.90114998817444,2.09934997558594,5.40705013275146,-32.1940498352051,-19.7730007171631,-13.1809501647949,2.62005019187927,1.46295011043549,1.75305008888245,6.36705017089844,-14.1439504623413,-4.46595001220703,3.06638741493225,4.25617504119873,0.59592497348785,-6.37106227874756,-6.97620010375977,-5.63351249694824,9.02123737335205,8.69577503204346,7.7089376449585,-7.53795051574707,-0.53205001354218,4.11195039749146,2.61195015907288,2.0500500202179,1.6429500579834,-4.45905017852783,-6.83595037460327,-7.91100025177002,-1.4499374628067,-2.65292501449585,-2.08133745193481,-0.57365000247955,7.2806248664856,8.59801292419434,6.38371229171753,5.30213737487793,5.35686254501343,4.9350004196167,1.33395004272461,-0.15900000929832,2.02800011634827,2.65800023078919,2.25300002098084,-9.72900009155273,-11.97705078125,-9.78105068206787,-1.39411246776581,-1.01639997959137,-0.80121248960495,7.95547485351563,6.32884979248047,4.03163766860962,5.15129995346069,4.59525012969971,3.71126246452332,-0.60600000619888,-2.62695002555847,-4.4370002746582,2.20995020866394,2.77005004882813,3.34995007514954,-8.62305068969727,-8.3299503326416,-8.86005020141602,SWING_LEFT
0.4779500067234,0.44426250457764,0.39985001087189,-0.17874999344349,-0.26179999113083,-0.35640001296997,4.7247748374939,4.98134994506836,5.1900749206543,-0.38100001215935,-0.81705003976822,-0.48900002241135,0.96300005912781,1.13295006752014,1.03694999217987,-8.86005020141602,-9.42495059967041,-10.0969505310059,0.35337498784065,0.31473749876022,0.28764998912811,-0.43546250462532,-0.50338751077652,-0.60403752326965,5.43853759765625,5.7266001701355,6.02758741378784,0.16095000505447,-0.01305000018328,-0.30900001525879,0.85695004463196,0.83295005559921,0.94395005702972,-10.0380001068115,-9.37395000457764,-8.77095031738281,0.28613749146461,0.25121250748634,0.22769999504089,-0.73466247320175,-0.75129997730255,-0.72696250677109,6.37243747711182,6.65747499465942,6.81381225585938,-0.09405000507832,-0.06495000422001,-0.39105001091957,0.98700004816055,0.96495002508163,1.07504999637604,-9.10395050048828,-9.71895027160644,-9.32205009460449,0.16541250050068,0.14327499270439,0.10381250083447,-0.68901246786118,-0.73067498207092,-0.75542497634888,6.59504985809326,6.37422513961792,6.13923740386963,-0.52005004882813,-1.87995004653931,-3.40800023078919,1.1779500246048,1.42200005054474,1.76700007915497,-9.01500034332275,-8.69700050354004,-9.04905033111572,0.2035000026226,0.52731251716614,0.78017497062683,-1.67639994621277,-2.48393750190735,-2.4256374835968,6.62502479553223,7.32655000686646,7.46129989624023,-5.04300022125244,-2.22705006599426,12.5419502258301,1.88505005836487,1.03500008583069,-2.19900012016296,-8.80905055999756,-10.5859508514404,-23.7259502410889,0.64418751001358,1.025750041008,2.41161251068115,0.40878748893738,4.10327482223511,7.7138876914978,6.17292499542236,5.36607503890991,6.07763767242432,35.2660522460938,33.8179512023926,4.99095010757446,-12.4660501480103,-25.3930511474609,-19.135950088501,-32.6800498962402,-7.63800048828125,-8.15595054626465,2.14665007591248,1.91221249103546,6.0792875289917,7.06323766708374,4.50023746490479,-3.47737503051758,6.13758754730225,5.94385004043579,5.90672492980957,-15.0300006866455,-33.8989524841309,-27.6690006256104,-11.7520503997803,-5.4529504776001,1.2960000038147,-31.0279521942139,-17.2560005187988,7.31295013427734,2.33763742446899,0.9285374879837,6.51351261138916,-13.6554002761841,-10.031587600708,-4.35214996337891,1.69303750991821,6.88544988632202,13.0905494689941,-26.9149513244629,-20.2470016479492,-10.4160003662109,5.15805006027222,4.68105030059814,3.42195010185242,-2.04495000839233,-5.11995029449463,-6.63000011444092,7.10283756256104,2.92132496833801,1.08198750019073,-4.44496250152588,-2.21251249313354,1.60833752155304,11.7466249465942,9.06674957275391,8.65094947814941,-3.13695025444031,6.20400047302246,5.78805017471313,2.45400023460388,1.73895013332367,2.44200015068054,-8.36595058441162,-9.12105083465576,-11.1600008010864,0.27898749709129,0.50063747167587,0.36684998869896,6.10362482070923,8.56473731994629,7.38828754425049,8.75503730773926,10.0985498428345,9.66294956207275,3.38895010948181,0.48405003547668,-2.44995021820068,3.04605007171631,3.36900019645691,3.56295013427734,-11.2849502563477,-9.23805046081543,-7.59105014801025,SWING_LEFT
-0.07988750189543,-0.0417999997735,-0.01374999992549,-0.14066250622272,-0.14148749411106,-0.11673749983311,0.10023749619722,0.16568750143051,0.18493749201298,-2.20995020866394,-2.05995011329651,-2.04105019569397,2.75100016593933,2.62200021743774,2.62200021743774,-8.60805034637451,-8.52195072174072,-8.76405048370361,0.00659999996424,0.04221250116825,0.08703749626875,-0.08717499673367,-0.01581249944866,0.05142499879003,0.19566249847412,0.24365000426769,0.25368750095367,-2.19405007362366,-2.08605003356934,-1.99305009841919,2.67000007629395,2.66805005073547,2.63595008850098,-8.84505081176758,-8.60805034637451,-8.65095043182373,0.10298749804497,0.12333749979734,0.10917499661446,0.07796250283718,0.10766249895096,0.1024374961853,0.24791249632835,0.14932499825954,0.07562500238419,-2.11005020141602,-2.11995005607605,-2.23395013809204,2.58405017852783,2.5860002040863,2.59305024147034,-8.71605014801025,-8.43600082397461,-8.28000068664551,0.0867625027895,0.05609999969602,0.00536249997094,0.08016250282526,0.0559624992311,-0.02337500080466,0.03286249935627,0.00247499998659,-0.06132499873638,-2.43105006217957,-2.72805023193359,-2.55000019073486,2.64795017242432,2.71800017356873,2.61705017089844,-8.39505004882813,-8.35905075073242,-8.55495071411133,-0.05238749831915,-0.09198749810457,-0.69464999437332,-0.1915374994278,-0.39421248435974,-1.56200003623962,-0.19359999895096,-0.33770000934601,-0.82472497224808,-3.95805025100708,-10.9860000610352,-22.8040504455566,3.08400011062622,5.5620002746582,7.07100009918213,-8.01000022888184,-8.4529504776001,-7.73895025253296,-1.33155000209808,-1.29208743572235,-0.61971247196198,-3.49593758583069,-4.77344989776611,-5.34173727035522,-1.60269999504089,-2.12657499313354,-2.66956257820129,-25.6530017852783,-24.199951171875,-18.2470512390137,3.02400016784668,-4.88295030593872,-13.4260501861572,-5.84505033493042,-5.02200031280518,-5.3449501991272,0.34746250510216,1.23832499980927,1.82613754272461,-5.24122476577759,-4.45417499542236,-3.01963758468628,-3.33588743209839,-4.16349983215332,-5.28577518463135,-8.43600082397461,2.61795020103455,12.0799503326416,-18.610050201416,-16.9360504150391,-11.7810001373291,-7.87605047225952,-11.6779508590698,-14.3280010223389,0.14643749594688,-2.20357489585876,1.11993753910065,-1.53023743629456,-2.43581247329712,1.37032496929169,-8.668137550354,-13.5007123947144,-13.0304622650146,14.131950378418,16.3510513305664,18.7530002593994,-10.207950592041,-8.57700061798096,-5.99205017089844,-8.74005031585693,-3.4939501285553,-5.11500024795532,2.15311241149902,0.37083750963211,-0.83380001783371,8.10260009765625,9.38409996032715,8.54562473297119,-9.4980878829956,-8.06698703765869,-7.17969989776611,16.3489513397217,11.8690509796143,6.87195014953613,-3.48495006561279,-1.51695013046265,-0.18105000257492,-10.7989501953125,-11.4570007324219,-9.98205089569092,-1.50466251373291,-2.73391246795654,-5.83852481842041,7.42596244812012,6.17691230773926,3.425950050354,-5.92239999771118,-4.26813745498657,0.29067498445511,3.80505013465881,-0.55395001173019,-2.5860002040863,0.48900002241135,1.57095003128052,2.54505014419556,-8.98905086517334,-7.84905052185059,-9.89205074310303,SWING_LEFT
0.09515000134706,0.07548750191927,0.03891250118613,0.00398749997839,-0.04936249926686,-0.16609999537468,-0.19827499985695,-0.19373749196529,-0.1885125041008,-0.03600000217557,-0.1710000038147,-0.4200000166893,1.60200011730194,1.62795007228851,1.70700013637543,-9.32895088195801,-8.95995044708252,-8.97900009155273,-0.02007500082254,-0.07892499864101,-0.1567499935627,-0.26344999670982,-0.28462499380112,-0.48963749408722,-0.16266250610352,-0.11976250261068,-0.0417999997735,-0.56595003604889,-1.03305006027222,-2.98395013809204,1.72395002841949,1.8510000705719,2.11695003509521,-9.29805088043213,-9.12495040893555,-9.08205032348633,-0.18535000085831,-0.20762500166893,-0.14176249504089,-0.88302499055862,-1.32439994812012,-1.40236246585846,0.09858749806881,0.42308750748634,0.75611251592636,-3.0990002155304,-1.47105002403259,0.13005000352859,2.25795006752014,1.88205003738403,1.62405002117157,-9.03705024719238,-8.95095062255859,-8.75895023345947,-0.05747500061989,0.21958750486374,0.75033748149872,-1.21879994869232,-0.15565000474453,2.72043752670288,1.24203753471375,1.95854997634888,3.44685006141663,4.28400039672852,20.6320514678955,41.3359527587891,0.69195002317429,-2.65605020523071,-15.8149509429932,-11.8759508132935,-24.5610008239746,-27.8970012664795,0.06435000151396,-14.7349128723145,-15.5396995544434,5.31877517700195,2.40501236915588,4.47851228713989,8.65823745727539,26.9323997497559,22.6617870330811,38.1660003662109,17.0389499664307,7.38705015182495,-36.5670013427734,-43.0480537414551,-40.7280006408691,-2.35905003547669,3.41700005531311,-26.8909511566162,-14.1774873733521,-13.3867244720459,-10.098687171936,4.62962484359741,4.80534982681274,6.85877513885498,19.9827365875244,19.4526748657227,18.53857421875,-34.0470008850098,-50.6400032043457,-44.4360008239746,-27.3490505218506,-15.1090507507324,-6.11595010757446,-42.8509521484375,-1.64100003242493,14.3470506668091,-4.98231267929077,-2.16919994354248,-0.75831252336502,8.43823719024658,8.54699993133545,7.77383756637573,18.202112197876,18.6560001373291,18.0408248901367,-38.4190521240234,-29.1679515838623,-16.2220516204834,1.39395010471344,2.97900009155273,2.91405010223389,0.74295002222061,-2.86695003509521,-6.09195041656494,0.8927875161171,3.81548738479614,0.40672498941422,5.70033740997314,5.5164999961853,5.28893756866455,16.6065616607666,13.1034746170044,11.8702373504639,-3.38595008850098,7.88505029678345,11.8690509796143,2.46900010108948,0.61605000495911,0.23505000770092,-11.4379501342773,-12.6090002059937,-10.4850006103516,-5.4795126914978,-7.50255012512207,-6.65362501144409,6.88297510147095,11.6903877258301,13.6083745956421,9.14044952392578,5.37157487869263,3.30288743972778,11.1700506210327,8.34705066680908,4.11195039749146,1.03500008583069,1.67400002479553,1.89900004863739,-12.985050201416,-11.9550008773804,-9.29295063018799,-5.43001270294189,-4.46063756942749,-3.85261249542236,12.5780878067017,10.8249626159668,7.81687498092651,2.75948739051819,4.23431253433228,4.83147478103638,-0.02505000121891,-3.37905025482178,-5.91195011138916,2.06400012969971,2.30100011825562,2.61195015907288,-7.93800020217896,-7.33695030212402,-6.60405015945435,SWING_LEFT
0.06971249729395,0.06957499682903,0.06544999778271,-0.00481249997392,-0.04881250113249,-0.37578749656677,1.36730003356934,1.28053748607636,0.79474997520447,-0.13695000112057,-0.34995001554489,-0.28800001740456,1.15694999694824,1.20195007324219,1.13295006752014,-9.4819507598877,-9.12105083465576,-9.4680004119873,0.06159999966621,0.05788749828935,0.06173750013113,-0.45017498731613,-0.43587499856949,-0.41029998660088,0.72297501564026,0.78044998645782,0.86088746786118,-0.08205000311136,-0.08895000070333,-0.03900000080466,0.99195003509521,0.95100003480911,0.86205005645752,-9.48705005645752,-9.50100040435791,-9.58695030212402,0.09624999761581,0.19470000267029,0.23361249268055,-0.36726251244545,-0.3121249973774,-0.2231625020504,1.01048743724823,1.36028754711151,1.75367498397827,0.16395001113415,0.37395000457764,0.22305001318455,0.7620000243187,0.72105002403259,0.7950000166893,-9.57495021820068,-9.26400089263916,-9.14700031280518,0.2231625020504,0.20982499420643,0.15166249871254,-0.10917499661446,-0.10889999568462,-0.32065001130104,2.20288753509521,2.34286260604858,2.49947500228882,-0.26399999856949,-1.71000003814697,-5.02395009994507,0.92400002479553,1.357950091362,2.47605013847351,-9.46095085144043,-10.4760007858276,-12.2760009765625,-0.0671000033617,-0.19263750314713,0.09748750180006,-1.19432497024536,-1.94672501087189,-2.49342489242554,1.32866251468658,1.09271252155304,2.53288745880127,-6.68100023269653,-4.85595035552979,13.2510004043579,2.46600008010864,1.46100008487701,-4.37100028991699,-11.6730003356934,-9.31395053863525,-16.2720012664795,1.48046255111694,-0.51988750696182,-1.18442499637604,-0.8401250243187,5.11472511291504,9.39840030670166,11.6381378173828,12.4205121994019,10.4810752868652,48.4999504089355,42.9349517822266,0.12300000339746,-16.2270011901855,-26.4679508209229,-24.4180507659912,-18.8130016326904,5.59395027160645,-32.2009506225586,0.08139999955893,1.87481248378754,4.40811252593994,6.90772485733032,3.86897492408752,1.884850025177,9.09837532043457,8.08115005493164,7.60979986190796,-35.9359512329102,-34.9360504150391,-37.4230499267578,-17.2140007019043,-11.0749502182007,-4.63905000686646,-25.0399513244629,10.1550006866455,11.4930009841919,6.39966249465942,5.94206237792969,7.41413736343384,-0.87463748455048,1.02066254615784,0.70468747615814,11.4709377288818,16.5886878967285,14.8380374908447,-37.6050033569336,-28.6980018615723,-1.72200012207031,1.7700001001358,3.78600025177002,2.57400012016296,2.34195017814636,2.2300500869751,-11.4210004806519,6.27962493896484,3.47283744812012,-1.3362250328064,-0.66990000009537,0.29782500863075,10.133337020874,12.644775390625,11.5141124725342,11.3023624420166,9.43005084991455,12.5370006561279,7.80105018615723,1.5660001039505,1.06605005264282,1.44900012016296,-12.8029508590698,-11.0410509109497,-10.8799505233765,0.23113749921322,1.30748748779297,0.86006247997284,12.9546995162964,9.3142499923706,7.72695016860962,15.4833250045776,20.1317882537842,16.3883495330811,3.02205014228821,-0.6810000538826,-3.1470000743866,1.88205003738403,2.30400013923645,2.58900022506714,-8.87895011901855,-7.73400020599365,-6.97800016403198,SWING_LEFT
-0.09858749806881,-0.11632499843836,-0.11577499657869,-0.38953748345375,-0.38225001096725,-0.35502499341965,2.17923760414124,2.76815009117126,3.57678747177124,0.12795001268387,0.26700001955032,0.5869500041008,0.35895001888275,0.47205001115799,0.47400003671646,-8.47200012207031,-8.89500045776367,-9.14400005340576,-0.1229249984026,-0.2058375030756,-0.2745875120163,-0.22990000247955,-0.03341250121593,0.01924999989569,5.95979976654053,7.23758745193481,7.99466228485107,0.55200004577637,0.30300000309944,0.2790000140667,0.52200001478195,0.62295001745224,0.64695000648499,-9.09705066680908,-9.13005065917969,-9.25695037841797,-0.31116250157356,-0.35612499713898,-0.37014999985695,-0.04936249926686,-0.24708749353886,-0.3827999830246,8.32369995117188,8.16117477416992,7.8960747718811,0.17295001447201,-0.28305000066757,-0.72795003652573,0.6730500459671,0.8479500412941,1.04700005054474,-9.0130500793457,-9.0100507736206,-9.08700084686279,-0.23925000429153,-0.18012499809265,-0.07933750003576,-0.90516251325607,-0.98683750629425,-1.13258755207062,7.59453725814819,7.38512516021729,7.33438730239868,-0.48405003547668,-1.36800003051758,-2.2300500869751,0.85995006561279,1.0150500535965,1.29105007648468,-9.50100040435791,-9.73605060577393,-9.88905048370361,0.06008749827743,0.51631247997284,0.64391249418259,-1.36331248283386,-1.81279993057251,-1.66333746910095,7.47573757171631,7.89236259460449,7.69285011291504,-3.02505016326904,-0.83895003795624,4.91595029830933,1.23600006103516,0.36705002188683,-0.79800003767014,-9.69000053405762,-9.2160005569458,-12.4339504241943,0.45897498726845,2.11227488517761,3.99464988708496,3.8035249710083,8.25605010986328,9.81736278533936,4.08347511291504,1.75422501564026,2.0092875957489,53.2039527893066,38.8459510803223,19.4689502716064,-18.7080001831055,-34.6420516967773,-40.7280006408691,-4.36304998397827,16.4779510498047,-2.65395021438599,4.12967491149902,2.87649989128113,2.74725008010864,8.66208744049072,6.08093738555908,4.21162509918213,3.14050006866455,4.29536247253418,5.60903739929199,-7.9069504737854,-39.0559501647949,-39.1690521240234,-27.3370513916016,-13.1599502563477,-4.53600025177002,-35.8650016784668,-15.1729507446289,9.64695072174072,5.61192512512207,3.56386256217957,0.02516249939799,0.53817498683929,-8.43878746032715,-9.18348789215088,9.40527534484863,8.82598781585693,8.65961265563965,-31.359001159668,-23.484001159668,-13.1880006790161,-3.42000007629395,-4.01595020294189,-2.91300010681152,-1.64805006980896,-11.1769504547119,-13.2580509185791,-0.32683750987053,1.67942500114441,-0.40603750944138,-7.76984977722168,-1.46341252326965,1.80867493152618,9.42878723144531,9.29527473449707,7.70879983901978,-7.80405044555664,-0.07005000114441,3.48195028305054,-0.37695002555847,0.72105002403259,0.03105000220239,-15.9130506515503,-12.5560503005981,-10.6240501403809,-1.58867502212524,-2.10223746299744,-1.94218754768372,4.66125011444092,6.72017478942871,6.65513753890991,6.37779998779297,5.87221240997314,4.83284997940063,4.14300012588501,2.60805010795593,-1.47105002403259,-0.10905000567436,0.45000001788139,1.18095004558563,-8.89095020294189,-8.42100048065186,-6.77895021438599,SWING_LEFT
0.13323749601841,0.1032624989748,0.08139999955893,0.09322500228882,0.04633750021458,0.00508749997243,1.13740003108978,0.92124998569489,0.74181246757507,0.41700002551079,0.49200001358986,0.43200001120567,0.52905005216599,0.60405004024506,0.54900002479553,-9.34305000305176,-9.49605083465576,-9.39300060272217,0.05197500064969,0.01539999991655,-0.01814999990165,-0.00371249997988,-0.01223750039935,0.00618749996647,0.63937497138977,0.8896250128746,1.43715000152588,0.6690000295639,0.89895004034042,1.08495008945465,0.46995002031326,0.43095001578331,0.44100001454353,-9.09195041656494,-9.13500022888184,-9.13005065917969,-0.05527500063181,-0.10642500221729,-0.1385999917984,0.14547500014305,0.22646249830723,0.21848750114441,1.89282500743866,2.39703750610352,2.67533755302429,0.93195003271103,0.8479500412941,0.32895001769066,0.48900002241135,0.51495003700256,0.63705003261566,-9.09705066680908,-9.09705066680908,-9.33105087280273,-0.14409999549389,-0.15070000290871,-0.12911249697208,0.15317499637604,0.06764999777079,-0.06256250292063,2.675612449646,2.57166242599487,2.29886245727539,-0.13005000352859,-0.39300000667572,-1.21695005893707,0.85005003213882,0.92700004577637,1.26195001602173,-9.2790002822876,-9.55395030975342,-10.1929502487183,-0.23347499966621,-0.36877501010895,-0.39476248621941,-0.49555000662804,-0.98161250352859,-0.94861251115799,1.93929994106293,1.77993750572205,3.52068758010864,-1.79595005512238,1.78005003929138,18.2520008087158,1.71705007553101,1.47795009613037,-3.33195018768311,-10.2870006561279,-10.6909503936768,-19.4970016479492,-0.88481247425079,-2.07019996643066,-1.96350002288818,1.32618749141693,5.74695014953613,8.64971256256104,8.72492504119873,10.1699123382568,9.42809963226318,39.0490531921387,32.4630012512207,17.7109508514404,-14.2230005264282,-23.3070011138916,-23.2570514678955,-5.40705013275146,7.85205030441284,-5.98905038833618,-1.036749958992,-0.04743750020862,1.22361254692078,8.35477542877197,6.05000019073486,3.57898759841919,8.44896221160889,7.56593751907349,7.09513759613037,3.89595007896423,-14.8879508972168,-30.9400520324707,-19.9549503326416,-20.7979507446289,-16.2460498809814,-27.1420516967773,-27.1470012664795,-2.08905005455017,3.14998745918274,1.7491375207901,2.18501257896423,1.9875625371933,4.57434988021851,13.3688497543335,7.93044996261597,14.6557121276855,20.4528503417969,-35.4409523010254,-36.4660530090332,-26.002950668335,-4.32795000076294,1.41105008125305,3.29205012321472,3.99195027351379,-4.03005027770996,-7.97805023193359,4.14424991607666,4.32767486572266,2.76663756370544,10.6429128646851,6.95791244506836,3.48163747787476,18.9513492584229,16.2958126068115,14.0460376739502,-12.0460510253906,-1.89195013046265,4.7509503364563,1.57800006866455,1.1380500793457,0.73500001430511,-12.8680505752563,-12.8719501495361,-9.32595062255859,-1.3165625333786,-4.32217502593994,-5.29746246337891,1.86202502250671,3.56276249885559,11.0519752502441,11.9695119857788,9.3289623260498,5.37432479858398,7.53105020523071,7.45695018768311,1.9450501203537,0.53205001354218,0.95100003480911,1.95405006408691,-8.10494995117188,-8.29905033111572,-7.69800043106079,SWING_LEFT
-0.24626250565052,-0.37716248631477,-0.57296252250671,0.39737498760223,0.26523751020432,-0.08497499674559,8.61244964599609,9.05959987640381,9.22143745422363,0.86295002698898,0.57300001382828,0.34995001554489,0.82200002670288,0.8479500412941,0.8359500169754,-10.6120500564575,-10.1689500808716,-9.44400024414062,-0.63841247558594,-0.55426251888275,-0.45223748683929,-0.22508749365807,-0.72434997558594,-0.93774998188019,8.70883750915527,7.54764986038208,6.94099998474121,0.35505002737045,-0.1950000077486,-0.32595002651215,0.75705003738403,1.06800007820129,1.12095010280609,-8.90700054168701,-9.42000007629394,-9.32895088195801,-0.3962749838829,-0.32903748750687,-0.29603749513626,-1.01378750801086,-1.05366253852844,-1.07978749275208,6.40474987030029,5.54496240615845,5.16986227035522,-0.43905001878738,-0.62100005149841,-1.27005004882813,1.10895001888275,1.13505005836487,1.36995005607605,-9.39300060272217,-9.34605026245117,-9.45600032806396,-0.26399999856949,-0.22288750112057,-0.14107500016689,-1.19088745117188,-1.32976245880127,-1.5054874420166,4.8895001411438,4.74581241607666,4.68558740615845,-1.67895007133484,-2.42805004119873,-2.31105017662048,1.58100008964539,1.73895013332367,1.82205009460449,-9.66600036621094,-10.1119508743286,-9.78105068206787,-0.05087500065565,-0.01127499993891,-0.03135000169277,-1.62854993343353,-1.40648746490479,1.1310750246048,4.71528768539429,4.85663747787476,6.07268762588501,0.75495004653931,13.7029504776001,39.3270034790039,1.16400003433228,-2.36400008201599,-10.1650505065918,-7.78500032424927,-10.8439502716064,-9.80100059509277,-1.82888746261597,-4.88496255874634,-5.34311246871948,5.97836256027222,9.20631217956543,9.35219955444336,10.4952373504639,13.338324546814,12.9795875549316,41.7739524841309,24.6120014190674,9.98505020141602,-26.7019519805908,-31.8690013885498,-29.1559505462646,6.13500022888184,-3.75705027580261,-27.8370018005371,-4.51261234283447,-4.18440008163452,-4.89032506942749,7.42101240158081,5.68713760375977,12.3862752914429,12.2109622955322,12.4335746765137,17.3699626922607,-16.0780506134033,-37.0189514160156,-43.6939506530762,-25.9140014648438,-17.332950592041,-0.86100006103516,-31.252950668335,4.69095039367676,-2.31405019760132,-1.23461246490479,-0.92619997262955,-7.64073753356934,12.5545749664307,0.99164998531342,-13.5639619827271,19.106725692749,17.5305633544922,7.33204984664917,-28.3630504608154,-11.5579509735107,10.7970008850098,-0.0730499997735,-0.56400001049042,-1.44000005722046,-2.05695009231567,-9.72600078582764,-10.5259504318237,-8.27213764190674,-7.30757474899292,-5.5338249206543,-7.99961233139038,-0.9560375213623,6.64592504501343,3.00121259689331,-0.40273749828339,-1.81279993057251,13.8040504455566,11.9959506988525,7.28400039672852,-1.12200009822845,0.25605002045631,1.53000009059906,-9.99900054931641,-11.026050567627,-11.2900505065918,-5.12435007095337,-4.27404975891113,-3.93703746795654,8.36275005340576,5.47690010070801,2.49273753166199,-0.92702502012253,0.96854996681213,0.24227499961853,1.98105013370514,-5.82105016708374,-7.49205017089844,2.67195010185242,3.26400017738342,3.31605005264282,-11.1870002746582,-8.10105037689209,-7.15200042724609,SWING_LEFT
-0.49953749775887,-0.36437499523163,-0.26482498645782,-0.42611250281334,-0.66852498054504,-0.68626248836517,0.68351250886917,0.44577500224113,0.35076248645782,1.80105006694794,2.28495001792908,2.27505016326904,1.19700002670288,1.21395003795624,1.03694999217987,-9.42495059967041,-9.29505062103272,-9.16394996643066,-0.13447499275208,0.00921249948442,0.1047749966383,-0.66275000572205,-0.67320001125336,-0.7012500166893,0.3284874856472,0.32615000009537,0.29067498445511,1.71300005912781,1.40595006942749,1.5619500875473,1.09200000762939,1.09200000762939,1.18305003643036,-9.19695091247559,-9.06105041503906,-8.7450008392334,0.12416250258684,0.0954250022769,0.06256250292063,-0.68818747997284,-0.65958750247955,-0.69891250133514,0.23691250383854,0.12155000120401,0.00728749996051,1.44000005722046,1.41795003414154,0.38400000333786,1.36695003509521,1.23795008659363,1.46100008487701,-8.89305019378662,-9.421950340271,-8.7450008392334,0.02351249940693,-0.08167500048876,-0.23828749358654,-0.7343875169754,-0.72613751888275,-0.55494999885559,-0.0504624992609,-0.06489999592304,0.0054999999702,0.69000005722046,2.29200005531311,5.56500005722046,1.88505005836487,2.07105016708374,2.84895014762878,-8.61300086975098,-9.14895057678223,-10.10205078125,-0.53597497940063,-1.26568746566772,-1.70252501964569,0.18864999711514,2.21924996376038,5.15129995346069,0.36973750591278,1.08693754673004,1.78681254386902,17.1220512390137,42.6409530639649,59.1780014038086,5.99595022201538,7.31505012512207,-24.7030506134033,-11.5099506378174,-15.3000011444092,-12.292950630188,0.17861250042915,1.86436247825623,2.31522488594055,6.82343769073486,5.28879976272583,3.52041244506836,3.03613758087158,4.1267876625061,4.75034999847412,37.2010536193848,8.30895042419434,-2.87595009803772,-48.0540008544922,-41.7460517883301,-33.2890510559082,-36.0180015563965,-36.5710525512695,-6.73605012893677,2.06896257400513,1.28466248512268,0.55577498674393,3.17198753356934,4.19168758392334,6.52602481842041,5.65688753128052,7.89786243438721,11.2660627365112,-19.0380001068115,-32.1220512390137,-23.4360008239746,-29.4100513458252,-15.6070508956909,-14.3790006637573,18.3340511322021,20.9410514831543,9.68295001983643,1.44388747215271,4.0020751953125,5.27518749237061,7.78071260452271,6.71371269226074,4.38350009918213,13.4586372375488,13.023175239563,11.6483125686646,-9.17295074462891,-3.16095018386841,-2.9719500541687,-16.1669998168945,-9.40305042266846,-2.03895020484924,-1.20495009422302,-14.1840009689331,-16.0110015869141,4.00124979019165,0.78017497062683,-2.53769993782043,2.33406257629395,2.28923749923706,3.60043740272522,10.9814376831055,10.5011501312256,8.79491233825684,-6.25695037841797,-9.68505001068115,-11.062050819397,0.57495003938675,1.28805005550385,3.55305027961731,-11.3260507583618,-3.27405023574829,-0.09900000691414,-4.28229999542236,-3.30302500724792,-1.08185005187988,4.41072511672974,4.74993753433228,3.20319986343384,8.36563777923584,10.8158874511719,12.3435125350952,-7.92300033569336,-4.07295036315918,-2.54100012779236,5.05005025863647,5.19600009918213,4.66395044326782,-0.26399999856949,-5.60595035552979,-11.0500507354736,SWING_LEFT
-0.04702499881387,-0.04344999790192,-0.02268750034273,-0.83517497777939,-0.73026251792908,-0.62287497520447,0.3980624973774,0.40479999780655,0.45306250452995,0.18795001506805,0.20700001716614,-1.09005010128021,0.28995001316071,0.10305000841618,-0.32700002193451,-8.79300022125244,-9.36195087432861,-9.8700008392334,0.08524999767542,0.53913748264313,0.55041247606277,-0.62438750267029,-0.5876749753952,-0.44302499294281,0.42693749070168,0.5543999671936,0.76642501354218,-1.60200011730194,0.44400003552437,1.42500007152557,-0.77895003557205,-0.2119500041008,-0.09900000691414,-10.4730005264282,-9.48405075073242,-8.85494995117188,0.52222502231598,0.50572502613068,0.49197500944138,-0.3287625014782,-0.17091250419617,-0.10848750174046,0.95810002088547,1.24547493457794,1.3778874874115,-0.29505002498627,-1.67700004577637,-0.8770500421524,-0.58095002174377,-0.56595003604889,-0.3529500067234,-9.30000019073486,-9.58695030212402,-8.5890007019043,0.31941249966621,0.44398748874664,0.56801247596741,0.06242499873042,-0.5517874956131,-1.66622495651245,1.7462500333786,1.27201247215271,0.18823750317097,-3.39300012588501,-4.18800020217896,-0.99405002593994,-1.11900007724762,-1.29900002479553,-1.72005009651184,-8.02200031280518,-7.29795026779175,-8.19600009918213,0.60939997434616,-0.35708749294281,-2.25720000267029,-1.4161125421524,2.88997507095337,6.82673740386963,0.56361252069473,4.00702476501465,4.41704988479614,21.4230003356934,50.0130004882813,52.6099510192871,3.38295006752014,5.61195039749146,-33.5550003051758,-17.131950378418,-26.6520004272461,-20.836051940918,-0.60939997434616,0.95700001716614,1.36234998703003,8.17616271972656,6.4128623008728,5.22609996795654,5.07457494735718,5.79974985122681,6.42207479476929,20.719051361084,1.73895013332367,-4.41105031967163,-52.6129531860351,-47.4559516906738,-39.118953704834,-43.2130508422851,-28.6530017852783,1.42995011806488,0.55206251144409,1.14427495002747,5.86987495422363,6.81037473678589,8.94795036315918,7.00837516784668,9.32868766784668,12.1478500366211,12.3778877258301,-33.2310028076172,-31.3819522857666,-4.50705003738403,-13.6489505767822,-11.1540002822876,-6.45600032806396,16.9210510253906,8.43105030059814,-7.87605047225952,6.70573759078979,4.97048759460449,-1.04623746871948,3.96041250228882,1.60806250572205,3.42759990692139,11.2036371231079,11.0823621749878,9.45381259918213,0.7140000462532,-4.09995031356812,-13.3270502090454,-0.63105005025864,0.92700004577637,1.21200001239777,-11.6490001678467,-10.7650508880615,-0.78105002641678,-2.80376243591309,-2.72786259651184,-1.35066246986389,4.55578756332397,4.41608762741089,2.88901257514954,8.40523719787598,9.16478729248047,9.81612491607666,-11.7970504760742,-6.68295049667358,-2.08395004272461,3.10305023193359,4.11105012893677,5.00895023345947,0.14699999988079,-2.7610502243042,-7.29105043411255,-0.67925000190735,-0.65532499551773,-0.73425000905991,1.39122498035431,1.34791254997253,2.47059988975525,9.03333759307861,8.17574977874756,7.74399995803833,-1.33695006370544,-2.85705018043518,-2.52195000648499,5.20500040054321,5.08800029754639,5.00400018692017,-11.4670505523682,-12.0079507827759,-9.49395084381104,SWING_LEFT
0.35488748550415,0.30648750066757,0.31294998526573,0.57543748617172,0.41937500238419,0.21546250581741,3.20278739929199,2.93672490119934,2.63450002670288,-0.65895003080368,-0.33105000853539,0.30705001950264,-0.99195003509521,-0.80805003643036,-0.77400004863739,-9.1830005645752,-8.89305019378662,-8.99805068969727,0.34099999070168,0.3768875002861,0.37083750963211,-0.07947500050068,-0.45581248402596,-0.65009999275208,2.26448750495911,1.86931252479553,1.6131500005722,-0.52995002269745,-0.82395005226135,-0.30900001525879,-0.966000020504,-0.66000002622604,-0.87000006437302,-9.39600086212158,-9.07005023956299,-8.64405059814453,0.35254999995232,0.340725004673,0.38101249933243,-0.58451247215271,-0.49279999732971,-0.6375874876976,1.51373744010925,1.45158743858337,1.24588751792908,-0.88200002908707,-1.96095013618469,-1.75995004177094,-1.31805002689362,-1.37505006790161,-1.31805002689362,-8.91000080108643,-8.7810001373291,-8.06700038909912,0.43009999394417,0.52126252651215,0.67704999446869,-0.83668750524521,-0.81042498350143,-0.71431249380112,1.07360005378723,1.05435001850128,1.08253753185272,-0.8029500246048,-1.22205007076263,-1.05900001525879,-1.73505008220673,-2.15400004386902,-1.87605011463165,-8.60100078582764,-9.6540002822876,-9.23505020141602,0.76725000143051,0.67430001497269,-0.47657498717308,-0.61764997243881,0.7596874833107,4.63058757781982,1.10178744792938,1.70417499542236,2.39304995536804,4.98105001449585,24.8490009307861,54.586051940918,-1.46205008029938,0.45795002579689,-7.07895040512085,-9.87705039978027,-16.4280014038086,-27.0469512939453,-0.81633746623993,1.16764998435974,2.3452000617981,7.54256248474121,7.28585004806519,5.0320873260498,1.93283748626709,2.54704999923706,3.17790007591248,44.6689529418945,-0.4200000166893,-17.6580009460449,-46.0980033874512,-48.1549530029297,-38.0730018615723,-28.3950004577637,-35.6470527648926,-7.12395048141479,2.95446252822876,-1.79327499866486,0.28902500867844,3.95092487335205,13.3544120788574,17.793737411499,4.05391263961792,14.0254125595093,14.6605253219604,-21.385950088501,-20.7949504852295,-7.94505023956299,-20.998950958252,-7.76805019378662,-7.1980504989624,21.3049507141113,8.43105030059814,-7.67895030975342,5.91965007781982,-1.08377504348755,-5.67723751068115,11.5229120254517,7.62561225891113,10.0625247955322,11.901312828064,13.1538000106812,9.88927459716797,3.80100011825562,-6.24495029449463,-11.1390008926392,3.28005003929138,0.61305004358292,1.57800006866455,-19.3699512481689,-5.02605009078979,0.43605002760887,-4.27239990234375,-1.54824995994568,-1.52556252479553,7.4204626083374,0.92991250753403,1.68355000019073,10.1459875106812,7.22658729553223,5.34201240539551,-7.18095016479492,-0.45795002579689,-3.26595020294189,1.31700003147125,3.3139500617981,3.99405026435852,-4.73699998855591,-12.0919504165649,-8.20394992828369,-1.47647500038147,-1.17053747177124,-1.02918744087219,3.27566242218018,3.61418747901917,1.40208745002747,4.96663761138916,4.27913761138916,2.91499996185303,-4.52100038528442,-4.37700033187866,-2.71095013618469,3.90105009078979,3.37395024299622,3.50595021247864,-6.74805021286011,-8.42400074005127,-8.425950050354,SWING_LEFT
1.02808749675751,0.9840874671936,0.8955374956131,-0.3755125105381,0.03368749842048,0.54642498493195,0.46076250076294,0.94448751211166,1.83906245231628,1.2150000333786,1.27005004882813,-2.93100023269653,0.56100004911423,0.01905000023544,-0.22605000436306,-7.73400020599365,-8.89800071716309,-10.2049503326416,0.82101249694824,0.71431249380112,0.55096250772476,0.49321249127388,0.6679750084877,0.60651248693466,1.96239995956421,2.31879997253418,2.45231246948242,0.39600002765656,1.61505007743835,1.23405003547668,0.52005004882813,0.21600000560284,0.87195003032684,-8.87595081329346,-8.64405059814453,-9.54000091552734,0.0686125010252,-0.07686249911785,-0.06201250106096,1.11911249160767,1.28108751773834,0.99976247549057,3.18560004234314,3.37727499008179,3.06666254997253,0.36000001430511,-1.09500002861023,0.99000006914139,0.22800001502037,0.28800001740456,0.85695004463196,-9.98700046539307,-10.3780508041382,-8.99805068969727,-0.14341250061989,-0.16940000653267,-0.0504624992609,0.6180624961853,0.49307498335838,-0.31569999456406,2.55653738975525,2.34465003013611,1.34158754348755,-0.04605000093579,-1.54500007629395,0.68805003166199,0.42900002002716,0.33105000853539,0.54105001688004,-9.27600002288818,-9.82695007324219,-8.28705024719238,-0.08579999953508,-0.06572499871254,-0.6182000041008,-0.12113749980927,-0.12856249511242,1.75394999980927,1.41913747787476,1.36564993858337,2.75398755073547,-0.09405000507832,0.68595004081726,35.6950531005859,0.36195001006126,0.66405004262924,2.79000020027161,-9.04200077056885,-8.06505012512207,-17.6560516357422,-0.96043747663498,0.63442498445511,1.80056250095367,6.53551244735718,5.56159973144531,3.92933750152588,4.79476261138916,5.46562480926514,5.81803750991821,29.1850509643555,1.83495008945465,-10.2910509109497,-38.484001159668,-43.1200523376465,-39.4159507751465,-35.0410499572754,-34.8019523620605,-13.252950668335,-0.12856249511242,-2.72813749313354,0.66329997777939,5.52997493743896,11.2432374954224,13.15269947052,10.472825050354,15.5695371627808,15.6061124801636,-29.8120517730713,-27.2400016784668,-17.4739513397217,-11.4390001296997,-4.63905000686646,-6.57300043106079,21.609001159668,18.8959503173828,6.68595027923584,4.6668872833252,5.88555002212524,-2.41793751716614,11.1029872894287,3.94047498703003,4.82116270065308,14.0157871246338,11.7275123596191,10.7757377624512,-6.93900012969971,3.51600027084351,-3.37695026397705,-7.08600044250488,2.62200021743774,3.03900003433228,-6.37905025482178,-16.1719512939453,-4.9350004196167,-6.42963743209839,-5.93889999389648,-3.26108741760254,8.64888763427734,8.5229377746582,2.52573752403259,8.49034976959229,9.25842475891113,8.93805027008057,-7.01805019378662,-7.86795043945313,-2.92605018615723,3.39105010032654,3.67605018615723,4.86105012893677,-3.68595027923584,-4.4040002822876,-9.79605007171631,-2.52670001983643,-1.98453748226166,-1.51758754253387,0.70922499895096,1.46410000324249,1.91193747520447,6.78548765182495,5.59542512893677,4.85086250305176,-2.32500004768372,-4.02300024032593,-4.36800003051758,5.61195039749146,4.87695026397705,4.91595029830933,-9.10605049133301,-8.56005001068115,-7.80405044555664,SWING_LEFT
0.13213749229908,0.36588749289513,0.38596248626709,-0.38967499136925,-0.10367500036955,-0.07342500239611,1.2502875328064,1.724524974823,1.85019993782043,-0.19695000350475,0.77205002307892,-0.66600000858307,2.49300003051758,2.71095013618469,2.15505003929138,-9.3720006942749,-8.37105083465576,-8.70600032806396,0.4311999976635,0.52085000276566,0.46860000491142,-0.1740749925375,-0.3121249973774,-0.30071249604225,1.78914999961853,1.52693748474121,1.41006255149841,-1.30305004119873,0.91800004243851,1.18605005741119,1.99695014953613,2.34405016899109,1.97595012187958,-9.02205085754394,-8.40495014190674,-8.63505077362061,0.45031249523163,0.54766249656677,0.62562501430511,-0.24007499217987,-0.24488750100136,-0.23512500524521,1.33168745040894,1.21866250038147,1.14138746261597,-0.18300001323223,-0.38400000333786,0.12300000339746,1.45395004749298,1.43205010890961,1.36305010318756,-9.3550500869751,-9.62805080413818,-9.29295063018799,0.6404749751091,0.69946247339249,0.80849999189377,-0.19607499241829,-0.13763749599457,-0.16445000469685,1.09972500801086,1.08226251602173,1.02121245861053,-0.34800001978874,-1.21695005893707,-0.57495003938675,1.04700005054474,0.78105002641678,1.03005003929138,-9.1230001449585,-8.66100025177002,-7.92300033569336,0.83517497777939,0.74236249923706,0.24378749728203,-0.36245000362396,-0.32106250524521,1.3668874502182,0.84988749027252,0.81661248207092,1.65316247940063,1.51605010032654,9.51300048828125,34.873950958252,1.4389500617981,2.70300006866455,5.72505044937134,-7.42500019073486,-9.76500034332275,-19.4280014038086,0.1387374997139,1.62428748607636,2.41821241378784,6.89768743515015,5.28426265716553,3.57527494430542,3.42622494697571,3.84642505645752,4.47617483139038,25.1070003509521,1.53795003890991,-0.26595002412796,-30.7939510345459,-35.9490013122559,-31.0980014801025,-39.2260513305664,-32.6779518127441,-1.9039500951767,-1.48500001430511,-4.63388729095459,4.91988754272461,6.02511262893677,11.3517246246338,10.7017621994019,10.846549987793,16.4331741333008,14.711950302124,-36.1350021362305,-36.7170028686523,-1.5330001115799,-13.8660011291504,-10.5460500717163,-7.18395042419434,18.3889503479004,16.7490005493164,-7.33395051956177,1.56832504272461,-6.82426261901855,-10.3114004135132,3.07202506065369,7.91532516479492,9.66047477722168,12.1375370025635,8.46175003051758,6.8260498046875,1.44900012016296,-7.04505014419556,-9.8100004196167,3.43395018577576,3.20400023460388,4.06800031661987,-8.47200012207031,-5.11995029449463,-2.0789999961853,-6.69363737106323,-3.93566250801086,-2.17689990997314,9.33638763427734,4.81085014343262,-0.19387499988079,13.2244749069214,13.5425128936768,7.74482488632202,-8.23905086517334,-5.24895048141479,-3.66900014877319,4.30500030517578,4.60395002365112,5.20500040054321,-2.35005021095276,-7.42995023727417,-11.110050201416,-1.74363744258881,-1.51497495174408,-1.22924995422363,-0.43092501163483,0.29851248860359,1.06521248817444,6.03363752365112,5.55623769760132,5.22733736038208,-3.62100028991699,-4.28894996643066,-6.23505020141602,6.30195045471191,6.20595026016235,5.06895017623901,-8.64900016784668,-5.63400030136108,-6.03705024719238,SWING_LEFT
0.25286251306534,0.09831249713898,0.03189999982715,0.30992498993874,-0.00907499995083,-0.35241249203682,2.20426249504089,1.68423748016357,1.18263745307922,1.20495009422302,0.64500004053116,0.32205000519753,1.22100007534027,1.34100008010864,1.33395004272461,-8.84295082092285,-9.21195030212402,-9.07500076293945,-0.06448750197887,-0.17379999160767,-0.26551249623299,-0.57832497358322,-0.59606248140335,-0.51713746786118,0.82568746805191,0.69011247158051,0.66453748941422,0.87495005130768,1.48500001430511,1.09995007514954,1.47300004959106,1.54695010185242,1.357950091362,-8.87895011901855,-8.68200016021729,-8.97900009155273,-0.29644998908043,-0.2729375064373,-0.22412499785423,-0.49197500944138,-0.5380374789238,-0.53322499990463,0.57557499408722,0.4296875,0.27871251106262,0.20205001533031,0.26205000281334,0.39600002765656,1.357950091362,1.38705003261566,1.46805012226105,-9.42000007629394,-8.93100070953369,-8.4330005645752,-0.19978749752045,-0.16224999725819,-0.14217500388622,-0.46983748674393,-0.52497500181198,-0.6182000041008,0.2374625056982,0.06104999780655,-0.14519999921322,-0.12495000660419,-0.05595000088215,0.89400005340576,1.42200005054474,1.60200011730194,2.1979501247406,-8.29200077056885,-8.17500019073486,-7.28400039672852,-0.20143750309944,-1.41583752632141,-2.16260004043579,-0.53583747148514,0.25162500143051,1.46410000324249,-0.14478750526905,0.41538751125336,1.33210003376007,1.77300012111664,6.99495029449463,33.6049499511719,3.29505014419556,4.30500030517578,7.3560004234314,-6.06495046615601,-4.36094999313354,-11.2159509658813,-3.16140007972717,-2.03348755836487,1.55567502975464,5.15679979324341,6.46841239929199,3.17198753356934,3.71263742446899,5.04666233062744,5.29636240005493,56.8290023803711,33.6809997558594,12.6619510650635,-6.52605009078979,-27.0330009460449,-28.8310508728027,-23.1970520019531,-37.8400535583496,-6.64200019836426,0.87986248731613,-3.44203758239746,-8.1378002166748,3.15356254577637,5.02699995040894,9.08517456054688,6.49206256866455,10.4858875274658,14.908712387085,6.4699501991272,-24.6229515075684,-44.5579528808594,-31.5960006713867,-27.4519519805908,-17.7040500640869,14.1889505386353,20.191951751709,15.3940505981445,1.38929998874664,4.37483739852905,4.27047491073608,10.8935747146606,7.48646259307861,2.47912502288818,14.9500999450684,12.7239751815796,12.5798749923706,-9.89595031738281,-0.3529500067234,2.36205005645752,-10.8540000915527,-2.29995012283325,1.70505011081696,0.8770500421524,-6.64200019836426,-9.85605049133301,-0.96827501058578,-9.88583755493164,-8.78061199188232,0.28256249427795,7.57941246032715,8.47659969329834,11.6676998138428,8.01322460174561,11.1520748138428,-1.64805006980896,-3.5440502166748,-3.64005017280579,3.96300029754639,4.31700038909912,4.19700002670288,-7.47600030899048,-6.41700029373169,-8.8840503692627,-6.22558736801147,-4.58136224746704,-3.57005000114441,6.3014874458313,3.99217486381531,2.76815009117126,11.65931224823,9.94798755645752,8.07152462005615,-3.67605018615723,-3.67605018615723,-4.55505037307739,4.26195001602173,4.50600004196167,4.6690502166748,-9.91995048522949,-10.4970006942749,-9.69795036315918,SWING_LEFT
0.6289250254631,0.69244998693466,0.82568746805191,-1.39754998683929,-1.13492500782013,-0.03396249935031,-0.16926249861717,0.10037499666214,1.3996125459671,0.19995000958443,2.11005020141602,2.67495012283325,0.88395005464554,1.357950091362,0.90795004367828,-9.29295063018799,-9.34305000305176,-9.66600036621094,0.67333751916885,0.60747498273849,0.50531250238419,0.89883750677109,1.12612497806549,0.96648746728897,2.89423751831055,3.49442505836487,3.5100998878479,1.17900002002716,0.34605002403259,1.07805001735687,0.66405004262924,0.92700004577637,1.21395003795624,-10.5070505142212,-10.2169504165649,-9.25695037841797,0.39214998483658,0.19731250405312,0.24653749167919,0.80575001239777,0.50118750333786,-0.01842499896884,3.42484998703003,3.01867508888245,2.26132488250732,1.40595006942749,-0.23505000770092,0.3120000064373,1.11105000972748,0.93600004911423,1.09905004501343,-9.03000068664551,-10.2550506591797,-9.2160005569458,0.07658749818802,-0.01003750041127,-0.12443749606609,-0.2073500007391,-0.22783750295639,-0.54271250963211,1.77526247501373,1.61617493629456,1.06232500076294,0.53205001354218,-1.27395009994507,-1.63305008411407,1.59195005893707,1.45605003833771,1.60200011730194,-8.49300003051758,-8.69700050354004,-8.01000022888184,-0.27981248497963,-0.49073749780655,-2.14541244506836,-0.81674998998642,-0.92509996891022,2.8168249130249,0.63236248493195,0.40892499685287,3.33960008621216,-0.82200002670288,5.75400018692017,44.9509506225586,1.87695014476776,3.76200008392334,3.25905013084412,-6.49905014038086,-5.60805034637451,-20.8410015106201,-2.46221256256104,-1.06754994392395,0.61599999666214,5.79988765716553,6.50883769989014,4.64653730392456,4.79998731613159,5.81487512588501,6.18736267089844,55.6110038757324,17.3380508422852,-2.3449501991272,-22.3660507202148,-37.0770034790039,-38.7169532775879,-28.0950012207031,-42.4489517211914,-24.6760520935059,-0.13887499272823,-2.92627501487732,1.99732494354248,4.1504373550415,11.1909875869751,10.712212562561,9.16382503509522,16.4692001342773,16.3418750762939,-23.4409503936768,-30.9079513549805,-11.062050819397,-24.2410507202148,-14.3290510177612,-12.1380004882813,20.4570007324219,9.9660005569458,-0.12495000660419,5.04570007324219,3.29491257667542,0.10532499849796,7.55700016021729,0.98505002260208,1.39933753013611,14.0408124923706,12.0117244720459,11.0099000930786,2.5530002117157,2.81895017623901,-1.13295006752014,-4.79400014877319,3.91995024681091,4.55205011367798,-10.2360000610352,-8.87400054931641,-6.11595010757446,-4.42199993133545,-9.73156261444092,-8.47907447814941,4.96182489395142,8.26691246032715,8.68958759307861,8.30994987487793,6.62461233139038,10.9172248840332,-5.713050365448,-6.57495021820068,-4.74600028991699,4.04400014877319,4.00605010986328,4.08300018310547,-6.36495018005371,-6.22095012664795,-6.87195014953613,-5.76743745803833,-3.12056255340576,-2.47678756713867,5.44376230239868,1.60874998569489,1.40511250495911,12.6190624237061,7.96757507324219,6.39553737640381,-2.88795018196106,-2.20995020866394,-3.61800026893616,4.24995040893555,5.44695043563843,5.1340503692627,-9.79095077514648,-9.93195056915283,-8.22300052642822,SWING_LEFT
0.59661251306534,0.61311250925064,0.64418751001358,-0.19277499616146,-0.23306250572205,-0.22714999318123,1.09560000896454,0.90172499418259,0.90667498111725,-0.25905001163483,-0.50805002450943,-0.89400005340576,1.39095008373261,1.06800007820129,1.19700002670288,-9.54000091552734,-9.31695079803467,-9.13005065917969,0.61874997615814,0.56072497367859,0.55123752355576,-0.24584999680519,-0.23704999685287,-0.21779999136925,0.92413747310638,0.99027496576309,1.06136250495911,-0.5460000038147,-0.69495004415512,0.23100000619888,1.10895001888275,0.63000005483627,1.06605005264282,-9.13304996490478,-9.52995014190674,-9.95895004272461,0.45416250824928,0.37028750777245,0.31130000948906,0.01374999992549,0.20363749563694,0.13557499647141,1.45117497444153,1.7274124622345,1.66760003566742,0.93900007009506,-1.17599999904633,-0.61095005273819,1.16595005989075,1.09005010128021,1.52295005321503,-9.34995079040527,-9.36195087432861,-8.85000038146973,0.25286251306534,-0.01636249944568,-0.14561249315739,0.06723749637604,0.11673749983311,0.04303750023246,1.60888743400574,1.68795001506805,1.59389996528625,1.14300000667572,-0.26895001530647,0.67395001649857,1.65000009536743,1.49400007724762,1.73595011234283,-8.39700031280518,-9.10095024108887,-8.53605079650879,-0.27802500128746,-0.34608748555183,-0.27829998731613,-0.02804999984801,-0.03808749839664,-0.09253749996424,1.4415500164032,1.36647498607636,1.1368499994278,0.11595000326633,-1.22205007076263,16.4280014038086,1.71000003814697,1.48500001430511,2.73900008201599,-8.19900035858154,-8.33805084228516,-15.1540508270264,-1.37981247901917,1.25812494754791,-1.17081248760223,5.5031623840332,4.25108766555786,5.60257482528687,4.88977479934692,6.13868761062622,11.6587619781494,45.528003692627,-13.252950668335,-34.6630516052246,-24.328950881958,-31.7350521087646,-5.23995018005371,-28.8880519866943,-6.18795013427734,19.6750507354736,6.14239978790283,5.24287509918213,0.98477500677109,8.74376201629639,1.7850250005722,2.93301248550415,16.521312713623,13.5691871643066,12.735387802124,1.6030501127243,6.08895015716553,-1.00394999980927,-4.70595026016235,4.05404996871948,3.10305023193359,-15.3670511245728,-11.4480009078979,-8.11995029449463,-7.91133737564087,-6.63959980010986,-4.33097505569458,9.60121250152588,9.00858783721924,5.13961267471313,7.91394996643066,10.4475250244141,12.0033378601074,-10.8370504379272,-7.47600030899048,-4.32000017166138,2.51205015182495,3.25695013999939,3.39300012588501,-2.57895016670227,-3.87900018692017,-8.35395050048828,-1.86504995822906,-1.52625000476837,-1.29690003395081,-0.23127499222755,-0.19855000078678,2.11103749275208,7.00631237030029,5.65468740463257,4.98960018157959,-2.45205020904541,-2.13900017738342,-5.27295017242432,4.27605009078979,5.03505039215088,4.52295017242432,-10.4730005264282,-8.625,-8.12700080871582,-0.83558750152588,-0.99274998903275,-0.88536250591278,1.67268753051758,0.7567999958992,0.00687499996275,3.72776246070862,3.36971259117126,2.30917501449585,-4.00605010986328,-3.95100021362305,-4.32195043563843,4.90605020523071,5.01600027084351,4.03500032424927,-6.93900012969971,-7.23105049133301,-8.11995029449463,SWING_LEFT
0.64418751001358,0.23856249451637,0.21216249465942,3.15837502479553,2.22612500190735,1.30239999294281,10.3237752914429,8.3964376449585,6.57346248626709,1.09500002861023,2.00205016136169,1.00905001163483,1.98300004005432,1.95600008964539,2.24400019645691,-13.4419507980347,-11.3899507522583,-10.4610004425049,0.11481250077486,-0.05541250109673,-0.22013749182224,-0.37798750400543,-1.46231245994568,-1.41006255149841,3.5543749332428,1.59238743782043,1.33003747463226,-2.80695009231567,0.22605000436306,2.34195017814636,1.7700001001358,1.77705013751984,1.63095009326935,-8.63205051422119,-6.54000043869019,-7.70595026016235,-0.23828749358654,-0.02117500081658,0.29479998350143,-1.01323747634888,-0.86597502231598,-0.54449999332428,1.24231255054474,1.28053748607636,1.55471253395081,-0.6400500535965,-0.91005003452301,-0.4200000166893,0.81900006532669,0.46005001664162,0.18900001049042,-9.69300079345703,-9.78405094146728,-9.42495059967041,0.70523750782013,0.79887497425079,0.99879997968674,0.09844999760389,0.11412499845028,-0.27156248688698,2.19491243362427,2.1290500164032,1.46465003490448,0.78900003433228,0.08700000494719,-0.87405002117157,0.1489500105381,0.02895000204444,-0.22395001351833,-9.81495094299316,-9.84105014801025,-9.59205055236816,0.96332502365112,0.76683747768402,0.67347496747971,-0.39737498760223,-0.8318749666214,-1.35121250152588,0.85868752002716,0.12567499279976,-0.45484998822212,-1.7650500535965,-3.48195028305054,-5.713050365448,-0.20505000650883,-0.39105001091957,-0.71895003318787,-9.35295009613037,-8.2470006942749,-7.69095039367676,0.03396249935031,-0.16169999539852,0.73232501745224,1.73016250133514,7.77026224136353,4.75598764419556,1.74556243419647,4.08430004119873,6.47528743743896,63.3700523376465,-5.72295045852661,-25.6699504852295,5.39205026626587,-37.6350021362305,-6.63105010986328,-29.9170513153076,-42.6649513244629,13.9930505752563,1.29414999485016,1.29414999485016,7.51093769073486,13.2713623046875,13.2713623046875,8.49516201019287,18.081111907959,18.081111907959,14.3219995498657,-14.8189506530762,-14.8189506530762,7.5400505065918,-11.1250505447388,-11.1250505447388,0.70695000886917,-5.80005025863647,-5.80005025863647,-15.2670011520386,-0.007012499962,-4.1721625328064,-6.44723749160767,7.09156227111816,8.70856285095215,10.1604251861572,11.6192998886108,9.32167530059814,8.23707485198975,-1.85400009155273,-7.31295013427734,-10.9900503158569,0.56295001506805,0.93195003271103,1.23600006103516,-8.3899507522583,-3.27600026130676,-1.45905005931854,-5.50082492828369,-3.33753752708435,-1.85459995269775,9.58828735351562,5.21152496337891,1.10440003871918,10.4135627746582,10.3263874053955,8.48746204376221,-9.19005012512207,-5.04105043411255,-3.47700023651123,1.52505004405975,2.1739501953125,2.3730001449585,-2.79000020027161,-6.63795042037964,-10.9380006790161,-1.3417249917984,-1.26788747310638,-1.32990002632141,-0.34402498602867,0.97418749332428,1.94149994850159,6.87967491149902,5.00912475585938,4.6927375793457,-3.10605025291443,-5.27295017242432,-4.57800006866455,3.03105020523071,4.52505016326904,5.11905002593994,-11.3659505844116,-6.66600036621094,-4.4370002746582,SWING_LEFT
1.57258749008179,1.78103744983673,2.02991247177124,-0.23649999499321,-0.90117502212524,-1.54467499256134,-0.12691250443459,-0.41662499308586,-0.56278747320175,0.98700004816055,1.9450501203537,3.13995003700256,0.48600003123283,0.94095003604889,0.99405002593994,-8.44305038452148,-8.26800060272217,-7.57395029067993,2.04544997215271,1.88897502422333,1.80853748321533,-1.84483754634857,-1.8130749464035,-1.51689994335175,-0.79887497425079,-0.8896250128746,-0.30744999647141,4.25505018234253,2.28495001792908,-0.89805006980896,0.1540500074625,-1.06905007362366,-1.43505001068115,-7.78500032424927,-10.0540504455566,-11.2200002670288,1.8191249370575,1.39576244354248,0.58684998750687,-1.49751245975494,0.12388750165701,4.42859983444214,-0.17572499811649,0.90653747320175,1.91840004920959,7.62405014038086,40.2270011901855,38.8189506530762,-0.53295004367828,-1.88100004196167,-14.0560503005981,-9.02505016326904,-5.79495048522949,-18.034049987793,1.12983751296997,1.88828754425049,2.11103749275208,4.83147478103638,2.72359991073608,1.15101253986359,2.30174994468689,2.14389991760254,1.58372497558594,11.9220008850098,3.77895021438599,12.4390506744385,-17.4079513549805,-11.086950302124,-10.407000541687,-35.0359535217285,-32.6970024108887,-13.1670007705688,2.59765005111694,2.76196241378784,1.85350000858307,2.12313747406006,1.30982494354248,2.29900002479553,1.70926249027252,3.46939992904663,7.37921237945557,11.3140506744385,-11.8380002975464,-21.3310508728027,-30.1309509277344,-31.8640518188477,-19.8430500030518,0.30705001950264,4.54995012283325,4.8400502204895,0.69300001859665,6.26243734359741,4.44716262817383,7.24171257019043,6.54885005950928,-3.1603000164032,10.4014625549316,12.0887250900269,10.754150390625,-77.9059524536133,-8.9839506149292,-2.74200010299683,-26.7430515289307,-4.57395029067993,0.56100004911423,26.367000579834,3.45795011520386,-10.1070003509521,2.38837504386902,0.80506247282028,-0.07177499681711,-3.79431247711182,-3.18752503395081,-2.35152506828308,10.6335620880127,10.4204378128052,9.86699962615967,-8.78505039215088,-11.1340503692627,-6.26595020294189,0.85995006561279,2.83800005912781,4.65705013275146,-7.96695041656494,-3.132000207901,-1.02300000190735,-4.70992517471313,-6.52176237106323,-5.70872497558594,2.9111499786377,4.32987499237061,3.86443758010864,10.3728628158569,9.1865119934082,7.85482501983643,-0.65400004386902,0.16095000505447,-0.4120500087738,5.18595027923584,5.04300022125244,5.50695037841797,-5.25105047225952,-10.452000617981,-13.3339509963989,-5.08488750457764,-4.45788764953613,-3.39927506446838,3.7445375919342,4.59662485122681,4.46338748931885,7.00961256027222,5.06632518768311,3.82181239128113,-3.14895009994507,-3.92205023765564,-4.39200019836426,5.88495016098022,4.83000040054321,4.35300016403198,-10.0759506225586,-7.14000034332275,-7.4370002746582,-2.19188737869263,-1.16352498531342,-0.47354999184608,3.0599250793457,1.22113752365112,-0.35749998688698,3.55520009994507,3.56757497787476,3.46816253662109,-4.32495021820068,-5.15505027770996,-4.85895013809204,4.21395015716553,4.21395015716553,4.44600009918213,-7.56705045700073,-8.23500061035156,-7.28700017929077,SWING_LEFT
-0.67003750801086,-0.89209997653961,-0.859375,1.28287494182587,1.20903754234314,1.09738755226135,-0.00206249998882,-0.27073749899864,-0.33453750610352,2.68200016021729,0.73095005750656,0.34605002403259,5.58405017852783,4.2960000038147,1.24995005130768,-5.9650502204895,-6.6739501953125,-9.76500034332275,0.06283749639988,0.82238751649857,1.0260249376297,-0.08030000329018,-0.63305002450943,-0.84589999914169,-1.05159997940063,-0.98188751935959,-1.0393625497818,2.07195019721985,1.60005009174347,1.52805006504059,0.56295001506805,2.3970000743866,3.00495004653931,-12.6810007095337,-11.5099506378174,-9.5440502166748,1.43852496147156,1.14867496490479,0.33027499914169,-1.04596245288849,-0.64281249046326,-0.17613749206066,-0.98395001888275,0.70289999246597,2.02620005607605,3.41505026817322,3.51300024986267,2.28495001792908,2.93805003166199,2.34000015258789,2.05200004577637,-8.9239501953125,-7.31805038452148,-7.28895044326782,-0.47258749604225,-1.09243750572205,-1.61878752708435,-0.17998750507832,-0.18466250598431,0.09707500040531,2.54773759841919,3.7144250869751,4.51343727111816,4.21500015258789,5.52705049514771,5.06700038909912,2.55000019073486,3.16995024681091,3.43095016479492,-7.93095016479492,-8.34495067596436,-8.46705055236816,-1.94315004348755,-2.24344992637634,-3.37796258926392,-0.10766249895096,-0.20679999887943,0.90021246671677,4.98960018157959,5.34682512283325,5.67916250228882,6.45105028152466,15.3310508728027,36.5569534301758,3.331050157547,4.55895042419434,5.28900003433228,-8.32800006866455,-5.77605009078979,-2.85900020599365,-5.16986227035522,-6.370924949646,-5.3237247467041,3.02458739280701,3.99038743972778,4.06436252593994,6.44902515411377,7.20843744277954,7.13748741149902,49.8000030517578,34.3920021057129,22.5120010375977,-2.91000008583069,-14.3719511032104,-17.1250514984131,-1.14300000667572,-7.83000040054321,-10.8319501876831,-2.08573746681213,10.2074499130249,9.72894954681396,4.03287506103516,-0.07232499867678,-3.43282508850098,5.99307489395142,0.60926252603531,1.74473750591278,-2.94105005264282,-16.2220516204834,-8.00895023345947,-15.9019508361816,-12.69105052948,-9.99705028533936,-14.4190502166748,-4.0900502204895,1.28400003910065,7.57762479782104,4.70676231384277,3.41659998893738,-6.51681232452393,-5.21455001831055,5.22967481613159,4.79930019378662,10.0644502639771,18.1671867370605,-9.95100021362305,-16.9879512786865,-18.1110000610352,-11.5180501937866,-9.91305065155029,-6.74805021286011,-4.45905017852783,-10.6309509277344,-12.4510507583618,3.65997505187988,2.65086245536804,0.60417497158051,5.41543769836426,3.25008749961853,2.23121237754822,16.5365753173828,13.6346378326416,11.2510747909546,-12.7480506896973,-7.51095056533813,-2.72295022010803,-3.69495010375977,-1.90005004405975,-0.18495000898838,-12.4680004119873,-11.8309507369995,-11.2110004425049,-1.44980001449585,-1.30130004882813,-1.33416247367859,1.71861243247986,3.29876255989075,5.14442491531372,9.21414947509766,9.36897468566894,9.44446277618408,-0.32100000977516,-0.6280500292778,-1.74405002593994,0.73800003528595,1.29300010204315,1.51095008850098,-10.4920501708984,-9.37695026397705,-7.92300033569336,SWING_LEFT
-0.25368750095367,-0.32738751173019,-0.38197499513626,-0.06544999778271,-0.02034999988973,0.01443750038743,2.40088748931885,2.53439998626709,2.69444990158081,2.68995022773743,2.36400008201599,1.30995011329651,2.01900005340576,1.95900011062622,1.66395008563995,-8.99805068969727,-9.50595092773438,-9.34605026245117,-0.36629998683929,-0.35488748550415,-0.34182500839233,-0.07315000146627,-0.19896249473095,-0.23347499966621,2.80101251602173,2.88131237030029,3.03242492675781,-0.19905000925064,0.4870500266552,2.71800017356873,1.57800006866455,1.03500008583069,1.55895006656647,-9.06105041503906,-9.3720006942749,-8.65605068206787,-0.37262499332428,-0.46488749980927,-0.71183747053146,-0.18466250598431,-0.1537249982357,-0.29466250538826,3.26892495155334,3.56207489967346,4.38253736495972,2.87205004692078,2.21595001220703,-0.18495000898838,2.04299998283386,1.66905009746552,0.72300004959106,-7.67700052261353,-7.33695030212402,-8.14395046234131,-0.73699998855591,-0.28778749704361,-0.13378749787807,-0.42226248979568,-1.42120003700256,-1.82627499103546,4.85883760452271,5.46535015106201,7.16732501983643,-1.78905010223389,0.1540500074625,2.8090500831604,0.61800003051758,0.90795004367828,1.8270001411438,-9.4150505065918,-11.3760004043579,-10.6240501403809,-0.30401250720024,-0.61393749713898,-2.04118752479553,-1.6686999797821,-1.28576254844666,0.89099997282028,8.06849956512451,8.7834997177124,9.16079998016357,3.65895009040833,14.1060009002686,33.3700523376465,1.31700003147125,1.66200006008148,2.54100012779236,-9.78600025177002,-7.26705026626587,-1.05405008792877,-4.98162508010864,-6.5650749206543,-5.12778759002686,4.32272481918335,7.00851249694824,6.11448764801025,9.60286235809326,9.01023769378662,8.20091247558594,47.5900535583496,31.548002243042,-3.21105003356934,-5.87700033187866,-20.3530502319336,-14.7520503997803,4.57095003128052,-13.689001083374,-33.376953125,-0.47066250443459,3.51064991950989,6.31441259384155,2.6727249622345,0.09872499853373,-4.63457489013672,6.8055624961853,6.12534999847412,5.37336254119873,-8.8879508972168,-20.9029502868652,-22.6410007476807,-27.142951965332,-20.8219509124756,-15.657000541687,-8.13195037841797,-2.26995015144348,-7.61505031585693,1.42725002765656,2.23052501678467,0.7099124789238,0.62438750267029,0.10670000314713,-1.18703746795654,15.252049446106,11.852912902832,10.2906370162964,-16.9900512695313,-3.85500025749207,-5.56995010375977,-9.29805088043213,0.21105000376701,0.78600001335144,-12.6640510559082,-7.53600025177002,-8.72504997253418,-3.04768753051758,-4.90517520904541,-6.41808748245239,-0.5791500210762,1.26829993724823,4.38652515411377,6.71797513961792,5.12050008773804,4.15951251983643,4.12095022201538,6.98295021057129,7.46595048904419,1.71495008468628,2.37495017051697,2.90700006484985,-8.86695003509521,-9.21405029296875,-9.92295074462891,-5.87262487411499,-5.10675001144409,-4.30210018157959,5.88981246948242,5.65977478027344,4.79489994049072,3.9114625453949,3.98708748817444,3.98612499237061,1.300950050354,-0.15105000138283,0.20895001292229,2.61705017089844,1.88895010948181,2.0310001373291,-10.4089508056641,-10.3129501342773,-9.79605007171631,SWING_LEFT
0.30662500858307,0.38499999046326,0.40878748893738,-0.34636250138283,-0.22192500531673,-0.19483749568462,0.80203747749329,0.93623751401901,1.10398745536804,1.33200001716614,0.22095000743866,-1.42800009250641,0.86205005645752,0.75000005960464,1.03005003929138,-9.57495021820068,-8.47395038604736,-8.67000007629395,0.37922498583794,0.32106250524521,0.5263500213623,-0.18452499806881,-0.20679999887943,-0.6513375043869,1.31064999103546,1.50177502632141,1.34791254997253,-1.77195012569427,-3.08700013160706,-1.07595002651215,0.91995006799698,-0.4870500266552,-1.21005010604858,-10.4370002746582,-11.5720500946045,-11.0460004806519,0.6484500169754,0.62741249799728,0.51727497577667,-0.72586250305176,-0.47863748669624,0.13736249506474,1.30501246452332,1.5691499710083,2.31577491760254,3.6780002117157,2.44800019264221,-1.91805005073547,0.85995006561279,1.50195002555847,-0.14699999988079,-10.3660507202148,-9.64005088806152,-9.34305000305176,0.63538748025894,-1.01804995536804,-1.20972502231598,0.21147499978542,1.53848743438721,1.00512504577637,3.9308500289917,7.96001243591309,8.88621234893799,4.0969500541687,3.55605006217957,3.18495011329651,0.98895007371902,2.05200004577637,2.65095019340515,-8.34705066680908,-7.83000040054321,-7.8919506072998,-2.76498746871948,-4.50477504730225,-7.54448747634888,0.6238374710083,0.1515250056982,1.06260001659393,9.88886260986328,10.5700378417969,12.2134370803833,3.56805014610291,26.4700508117676,39.9570007324219,3.21795010566711,4.81305027008057,0.40500003099442,-8.89500045776367,-3.37395024299622,-2.54595017433167,-13.4833869934082,-14.2375745773315,28.1817245483398,0.10518749803305,-0.12044999748468,1.77911245822906,14.3800249099731,13.3478126525879,-10.0784749984741,39.8920516967773,11.9650506973267,-12.4129505157471,-15.808051109314,-21.328950881958,-22.7730007171631,-10.4280004501343,-11.4769506454468,-14.2180509567261,8.13395023345947,0.78292500972748,2.97962498664856,-1.93833744525909,3.19357490539551,1.38324999809265,7.26811265945435,17.6327247619629,16.0348377227783,-26.2300510406494,-22.6840515136719,-11.4000005722046,-21.1570510864258,-14.848051071167,-6.08700037002563,-6.14400005340576,-1.80795013904572,-10.6150503158569,1.76343750953674,-0.10821250081062,-5.55293750762939,-0.44728749990463,-0.83916246891022,2.56684994697571,11.5753002166748,9.63613700866699,6.29818725585938,-3.04605007171631,2.58705019950867,7.33695030212402,1.71495008468628,3.4980001449585,4.52100038528442,-11.1510009765625,-9.33405017852783,-8.83800029754639,-7.25367498397827,-7.60979986190796,-7.11521244049072,5.48391246795654,6.63905000686646,6.55214977264404,5.71051263809204,6.18103742599487,7.03862476348877,4.48305034637451,2.56005001068115,1.46895003318787,4.09500026702881,3.27795004844666,2.5770001411438,-9.04200077056885,-9.43200016021728,-9.05595016479492,-4.02421236038208,-2.60411238670349,-1.49806249141693,3.44698739051819,1.74583745002747,0.45773750543594,4.89651250839233,3.0746374130249,1.70293748378754,-0.87405002117157,-1.03305006027222,-1.77495002746582,1.75305008888245,1.54905009269714,1.40595006942749,-8.90295028686523,-9.45300006866455,-9.75495052337646,SWING_LEFT
0.25107499957085,0.25121250748634,0.27266249060631,0.32092499732971,0.3091000020504,0.15083749592304,1.22801244258881,1.28878748416901,1.54412496089935,-0.38595002889633,-1.54500007629395,-4.03305006027222,0.47205001115799,0.57705003023148,-1.17195010185242,-8.53200054168701,-8.38094997406006,-9.79305076599121,0.58726251125336,0.91176247596741,1.3058375120163,-0.35667499899864,-0.69231247901917,0.07356250286102,1.36441254615784,1.30239999294281,2.05988740921021,-2.63895010948181,-0.70905005931854,2.51700019836426,-1.01595008373261,-1.01595008373261,-0.25995001196861,-9.35295009613037,-10.1790008544922,-9.56805038452148,0.65450000762939,-0.16197499632835,-1.24409997463226,2.26379990577698,2.74381256103516,2.35963749885559,5.71339988708496,7.44177484512329,8.9120626449585,4.33200025558472,2.22795009613037,4.2460503578186,1.39395010471344,1.03200006484985,1.92105007171631,-9.51300048828125,-9.21405029296875,-8.55795001983643,-2.1099374294281,-3.67152500152588,-6.65665006637573,2.02441239356995,2.14472508430481,5.67875003814697,9.0560245513916,8.97421264648438,8.17286205291748,6.08505010604858,29.1730518341064,43.9810523986816,2.85195016860962,3.81405019760132,-9.03194999694824,-9.11595058441162,-1.52805006504059,-16.488000869751,-2.92531251907349,5.22513723373413,4.74058771133423,6.08918762207031,3.95807504653931,0.11618749797344,5.58855009078979,1.25069999694824,4.14039993286133,29.0820007324219,-6.82695055007935,-22.7629508972168,-19.3800010681152,-20.9100017547607,-22.8550510406494,-11.4790506362915,-13.3080005645752,-7.27905035018921,-0.12952500581741,-1.99993753433228,-0.9675874710083,1.97724997997284,13.7640247344971,9.2112627029419,12.2614250183105,18.1838245391846,13.8078870773315,-55.7680511474609,-3.70005011558533,-5.57400035858154,-25.8000011444092,-9.08505058288574,-1.37295007705688,-28.6219520568848,-6.11595010757446,-13.2510004043579,-2.77846240997314,-6.28938770294189,-8.32851219177246,4.69067478179932,5.83990001678467,6.63712501525879,10.2273874282837,6.71412515640259,6.36212491989136,1.62900006771088,7.52805042266846,5.55600023269653,3.43605017662048,3.76395010948181,3.38100004196167,-7.07595014572144,-9.25500011444092,-9.82200050354004,-7.03271245956421,-5.67448759078979,-4.22633743286133,7.02185010910034,5.76620006561279,4.50051259994507,6.40089988708496,5.75863742828369,4.59648752212524,0.41505002975464,-0.05595000088215,-0.1489500105381,2.14305019378662,1.67400002479553,1.42005002498627,-9.17100048065186,-8.91495037078857,-8.49795055389404,-2.75467491149902,-1.12846255302429,-0.73562496900558,2.62281250953674,-0.31900000572205,-0.87532502412796,3.01702499389648,1.02973747253418,0.57956248521805,-1.00604999065399,-1.94205009937286,-1.66695010662079,1.62795007228851,1.55895006656647,1.43700003623962,-8.29905033111572,-9.56100082397461,-9.61605072021484,-0.3782624900341,-0.24791249632835,-0.02529999986291,-1.06342494487762,-0.97941249608994,-0.5293750166893,0.1545500010252,0.06022499874234,0.06806249916553,-1.06800007820129,-0.00795000046492,-0.63705003261566,1.34295010566711,1.26900005340576,1.14195001125336,-9.57300090789795,-9.66600036621094,-9.36705017089844,SWING_LEFT
0.26289999485016,0.28916248679161,0.33646249771118,-0.48166251182556,-0.70221251249313,-0.5516499876976,1.04114997386932,0.98188751935959,0.9950875043869,-2.22495007514954,-0.99405002593994,-0.12300000339746,-0.43005001544952,-0.1540500074625,-0.01800000108778,-9.1560001373291,-8.74005031585693,-8.49105072021484,0.37509998679161,0.33137500286102,0.16857500374317,0.02103750035167,0.35337498784065,0.82073748111725,1.13726246356964,1.31532502174377,1.75958752632141,-0.77895003557205,-0.71205002069473,-0.62100005149841,0.2710500061512,0.24000000953674,0.61305004358292,-8.86395072937012,-9.25200080871582,-10.0420503616333,0.01058750040829,-0.13832500576973,-0.13983750343323,0.72531247138977,0.57048749923706,0.51081252098083,1.89323747158051,2.00530004501343,2.00859999656677,0.52305001020432,-0.32895001769066,1.66995012760162,0.50100004673004,0.74295002222061,0.71595001220703,-9.38205051422119,-10.7920503616333,-10.9500007629395,-0.33756250143051,-0.39696249365807,-0.36093750596046,1.24341249465942,1.34571254253387,0.96854996681213,2.67877507209778,2.89121246337891,2.9247624874115,2.41695022583008,0.40095001459122,-1.21395003795624,1.29105007648468,0.57000005245209,0.13005000352859,-8.73495006561279,-9.58995056152344,-8.56500053405762,0.24378749728203,0.24901250004768,0.23498749732971,0.05004999786615,0.01567500084639,0.20473749935627,2.73020005226135,2.91651248931885,5.48212480545044,2.29905009269714,0.03405000269413,19.840051651001,-0.30300000309944,0.15105000138283,2.41605019569397,-8.90295028686523,-9.86505031585693,-6.13200044631958,-4.39601230621338,-4.12389993667603,-1.300612449646,6.85712480545044,7.72928762435913,5.80181264877319,7.25298738479614,5.92886257171631,4.77207517623901,45.6889533996582,34.5930023193359,-22.746000289917,-3.70500016212463,-7.98405027389526,-23.5969505310059,-8.29200077056885,-17.8050003051758,-13.6150503158569,0.73672497272491,-5.51443767547607,-9.46481227874756,1.97243750095367,4.01582479476929,14.3514251708984,6.43348741531372,14.9093999862671,22.4604873657227,-19.5880508422852,-18.3310508728027,-15.2500505447388,-9.23100090026856,-7.96200037002563,-3.84195017814636,-10.7970008850098,-14.5120506286621,-7.24095010757446,-0.34540000557899,-1.24602496623993,-5.20354986190796,7.16938734054565,3.07133746147156,-0.50269997119904,18.4149627685547,15.7125377655029,10.7577247619629,-8.40900039672852,-5.86395025253296,1.04505002498627,3.74505019187927,3.67095017433167,5.14605045318604,-2.3779501914978,-7.36605024337768,-8.15295028686523,-8.15883731842041,-7.6217622756958,-5.13920021057129,1.87660002708435,4.06505012512207,5.58249998092651,8.76287460327148,7.89923763275146,5.68809986114502,2.26095008850098,2.26095008850098,0.32895001769066,5.24895048141479,4.66005039215088,3.61800026893616,-6.76500034332275,-8.11995029449463,-9.36495018005371,-4.07233762741089,-3.14105010032654,-1.87178754806519,4.72793769836426,3.74041247367859,3.04012489318848,5.10056257247925,4.5043625831604,3.49799990653992,0.8320500254631,1.23105001449585,0.77400004863739,3.61305022239685,3.64005017280579,3.61605024337769,-9.08205032348633,-8.82600021362305,-8.49795055389404,SWING_LEFT
