gyro_x_0,gyro_y_0,gyro_z_0,acc_x_0,acc_y_0,acc_z_0,gyro_x_1,gyro_y_1,gyro_z_1,acc_x_1,acc_y_1,acc_z_1,gyro_x_2,gyro_y_2,gyro_z_2,acc_x_2,acc_y_2,acc_z_2,gyro_x_3,gyro_y_3,gyro_z_3,acc_x_3,acc_y_3,acc_z_3,gyro_x_4,gyro_y_4,gyro_z_4,acc_x_4,acc_y_4,acc_z_4,gyro_x_5,gyro_y_5,gyro_z_5,acc_x_5,acc_y_5,acc_z_5,gyro_x_6,gyro_y_6,gyro_z_6,acc_x_6,acc_y_6,acc_z_6,gyro_x_7,gyro_y_7,gyro_z_7,acc_x_7,acc_y_7,acc_z_7,gyro_x_8,gyro_y_8,gyro_z_8,acc_x_8,acc_y_8,acc_z_8,gyro_x_9,gyro_y_9,gyro_z_9,acc_x_9,acc_y_9,acc_z_9,gyro_x_10,gyro_y_10,gyro_z_10,acc_x_10,acc_y_10,acc_z_10,gyro_x_11,gyro_y_11,gyro_z_11,acc_x_11,acc_y_11,acc_z_11,gyro_x_12,gyro_y_12,gyro_z_12,acc_x_12,acc_y_12,acc_z_12,gyro_x_13,gyro_y_13,gyro_z_13,acc_x_13,acc_y_13,acc_z_13,gyro_x_14,gyro_y_14,gyro_z_14,acc_x_14,acc_y_14,acc_z_14,gyro_x_15,gyro_y_15,gyro_z_15,acc_x_15,acc_y_15,acc_z_15,gyro_x_16,gyro_y_16,gyro_z_16,acc_x_16,acc_y_16,acc_z_16,gyro_x_17,gyro_y_17,gyro_z_17,acc_x_17,acc_y_17,acc_z_17,gyro_x_18,gyro_y_18,gyro_z_18,acc_x_18,acc_y_18,acc_z_18,gyro_x_19,gyro_y_19,gyro_z_19,acc_x_19,acc_y_19,acc_z_19,gyro_x_20,gyro_y_20,gyro_z_20,acc_x_20,acc_y_20,acc_z_20,gyro_x_21,gyro_y_21,gyro_z_21,acc_x_21,acc_y_21,acc_z_21,gyro_x_22,gyro_y_22,gyro_z_22,acc_x_22,acc_y_22,acc_z_22,gyro_x_23,gyro_y_23,gyro_z_23,acc_x_23,acc_y_23,acc_z_23,gyro_x_24,gyro_y_24,gyro_z_24,acc_x_24,acc_y_24,acc_z_24,gyro_x_25,gyro_y_25,gyro_z_25,acc_x_25,acc_y_25,acc_z_25,gyro_x_26,gyro_y_26,gyro_z_26,acc_x_26,acc_y_26,acc_z_26,gyro_x_27,gyro_y_27,gyro_z_27,acc_x_27,acc_y_27,acc_z_27,gyro_x_28,gyro_y_28,gyro_z_28,acc_x_28,acc_y_28,acc_z_28,gyro_x_29,gyro_y_29,gyro_z_29,acc_x_29,acc_y_29,acc_z_29,motion_type
-0.10848750174046,-0.3936625123024,-1.21948754787445,-0.14258749783039,0.89072501659393,0.65656250715256,-4.25713729858398,-5.9278998374939,-6.46745014190674,6.79905033111572,3.99600028991699,0.96195006370544,8.26200008392334,2.05200004577637,-1.51800012588501,8.35200023651123,2.32095003128052,0.72105002403259,-2.91059994697571,-3.49167490005493,-4.24503755569458,-0.09267500042915,-0.71513748168945,-0.90461248159409,-6.52602481842041,-6.41629981994629,-6.24923753738403,-3.19005012512207,-2.74500012397766,-3.08895015716553,-4.41900014877319,-7.06695032119751,-11.4190502166748,2.18204998970032,2.05305004119873,3.13305020332336,-4.82501268386841,-4.99853754043579,-4.83890008926392,-1.17067503929138,-1.69207501411438,-1.35905003547668,-5.70226240158081,-4.89348745346069,-3.62711238861084,-4.14105033874512,-5.80800008773804,-12.8280010223389,-15.1630506515503,-18.9750003814697,-25.0590019226074,6.21105051040649,11.1400508880615,17.1750011444092,-4.13008737564087,-2.21567487716675,0.45443749427795,0.05527500063181,0.65972501039505,0.13832500576973,-0.95700001716614,3.53718757629395,8.8145751953125,-24.3070507049561,-28.4290504455566,-15.4960508346558,-30.4789505004883,-35.5039520263672,-40.7920532226563,24.552001953125,27.8089504241943,21.5700016021729,2.22530007362366,2.90317487716675,3.04576253890991,0.20006249845028,0.81413751840591,1.02588748931885,12.8426370620728,15.7298622131348,18.2562866210938,-1.06800007820129,6.96405029296875,15.8490009307861,-48.1230010986328,-57.7890014648438,-68.1330032348633,14.1090002059937,9.43905067443848,7.29600048065186,3.17982506752014,3.53430008888245,4.12596225738525,0.6767749786377,-0.60018748044968,-2.42742490768433,19.747200012207,18.8980007171631,15.4637994766235,28.3609504699707,40.0270500183105,45.1669540405273,-69.7710037231445,-54.2920532226563,-26.1169509887695,5.01300001144409,1.0110000371933,2.3449501991272,4.89431238174438,4.26758766174316,2.32966256141663,-3.13623738288879,-1.95607495307922,0.31391251087189,10.8312873840332,7.59921264648438,5.94866228103638,38.9329528808594,32.2770004272461,30.2940006256104,-8.45700073242188,-6.51405048370361,-3.07305026054382,0.60600000619888,-3.90705013275146,-0.67905002832413,1.06644999980927,1.02272498607636,1.18882501125336,1.96239995956421,1.89213752746582,0.95452499389648,4.52264976501465,3.22217488288879,2.52188754081726,27.0480003356934,21.3319511413574,18.6559505462646,-0.22200001776218,-0.71100002527237,-1.36005008220673,3.39705014228821,3.46605014801025,2.46195006370544,0.83338749408722,0.29906249046326,0.09267500042915,0.51603752374649,0.82472497224808,1.0896874666214,2.00585007667542,1.34708750247955,0.95864999294281,18.1290016174316,15.0970506668091,11.1810007095337,-0.17505000531673,0.23205001652241,0.2790000140667,4.06005001068115,6.63000011444092,7.51395034790039,0.18314999341965,0.23526249825954,0.29479998350143,0.76092499494553,0.03396249935031,-0.45759999752045,0.94366252422333,1.00759994983673,0.93197500705719,9.43994998931885,9.54795074462891,10.1299505233765,0.17205001413822,1.08705008029938,2.48505020141602,6.28695011138916,6.24900007247925,7.45605039596558,SWING_LEFT
0.52579998970032,0.23842500150204,-0.07548750191927,-0.4811125099659,-0.36932501196861,0.02557500079274,-3.89949989318848,-4.41141223907471,-4.91480016708374,3.7590000629425,2.98800015449524,2.32200002670288,5.25900030136108,4.27905035018921,2.84505009651184,8.24895000457764,7.96395015716553,7.08705043792725,-0.41071251034737,-1.05778753757477,-2.02620005607605,0.34154999256134,0.27981248497963,0.31171250343323,-5.4617748260498,-5.95443725585938,-6.29076242446899,1.70895004272461,0.74400001764297,-0.10500000417233,0.56700003147125,-1.63095009326935,-3.60705018043518,4.62000036239624,3.07305026054382,2.84100008010864,-3.05854988098145,-4.00248765945435,-5.87647485733032,0.72049999237061,1.47812497615814,2.85848736763,-6.56424999237061,-6.66957473754883,-5.45324993133545,-0.94800007343292,-2.69895005226135,-10.1980504989624,-6.56205034255981,-10.7490005493164,-19.9960517883301,2.54400014877319,1.87605011463165,0.20400001108646,-6.30533742904663,-5.30502510070801,0.53322499990463,1.95387494564056,-0.80134999752045,-1.61864995956421,-4.0772876739502,-1.20711255073547,7.67910003662109,-19.0470008850098,-29.8420505523682,-21.4230003356934,-25.3440017700195,-28.4689521789551,-40.9759521484375,6.24195051193237,19.3350009918213,22.4730014801025,3.29271245002747,5.01888751983643,4.76451253890991,-1.32385003566742,-1.47716248035431,-0.55659997463226,11.7251749038696,15.691499710083,19.6418743133545,-13.2559509277344,-4.59794998168945,10.0219507217407,-51.6679534912109,-66.9310531616211,-78.4030532836914,13.7530508041382,4.63200044631958,-1.24605000019073,3.57156252861023,3.24582505226135,5.01888751983643,-0.53858751058578,-2.69884991645813,-3.86416244506836,21.929874420166,21.0104122161865,16.5811252593994,27.7500019073486,44.9680519104004,52.6579513549805,-78.4030532836914,-62.5980033874512,-27.2359504699707,-6.13005018234253,0.27600002288818,3.10005021095276,5.82972478866577,2.96711254119873,0.36932501196861,-3.17143750190735,-1.20573747158051,0.9481999874115,11.1016120910645,8.0972375869751,5.51443767547607,40.7620506286621,39.8710517883301,39.3880500793457,-10.2700500488281,-5.41995048522949,2.49705004692078,-12.7999505996704,-11.8200006484985,1.27500009536743,0.27678748965263,0.69176250696182,-0.21064999699593,1.50150001049042,1.33443748950958,1.38448750972748,2.69114995002747,1.16187500953674,0.951087474823,28.9759521484375,17.9670009613037,11.1240005493164,1.87905013561249,-2.48295021057129,-1.8270001411438,4.71405029296875,2.94405007362366,6.59895038604736,-0.27871251106262,0.16183750331402,0.48207500576973,0.97047501802444,0.24681249260902,0.2788499891758,0.85745000839233,0.8425999879837,0.83943748474121,9.95805072784424,10.1899509429932,9.82800006866455,-1.62600004673004,-1.69800007343292,-0.77805006504059,9.07005023956299,10.3060503005981,8.73300075531006,0.50132501125336,0.19483749568462,-0.02543750032783,0.46502500772476,0.20212499797344,0.21807499229908,0.77233749628067,0.30511251091957,0.1040875017643,9.51705074310303,8.21595001220703,7.93095016479492,0.61200004816055,2.10405015945435,2.5570502281189,6.95595026016235,6.08100032806396,7.40595054626465,SWING_LEFT
0.98766249418259,0.88123750686646,0.39269998669624,-0.33742499351501,-0.05967500060797,-0.04688749834895,-2.68413758277893,-3.04493737220764,-3.60153746604919,3.67095017433167,3.48105025291443,4.01100015640259,6.15405035018921,5.51505041122437,5.76600027084351,9.74805068969727,7.48005056381226,6.83595037460327,-0.78966248035431,-1.10673749446869,-1.97724997997284,1.17809998989105,1.63460004329681,1.58455002307892,-5.00101232528687,-5.34888744354248,-5.68411254882813,0.69105005264282,-0.26805001497269,-0.93600004911423,1.84305012226105,-1.26405000686646,-3.97305011749268,7.50600051879883,3.8970000743866,2.37600016593933,-2.9499249458313,-3.53306245803833,-3.36820006370544,1.50150001049042,1.07057499885559,0.41923749446869,-6.01095008850098,-5.87578725814819,-5.69373750686646,-1.96095013618469,-5.58000040054321,-4.84305000305176,-6.88305044174194,-10.0590000152588,-13.9750509262085,4.43595027923584,6.52005052566528,9.6739501953125,-2.53591251373291,-1.32068753242493,1.1504625082016,-0.24474999308586,-0.53102499246597,0.43848749995232,-5.42987489700317,-4.21231269836426,3.37438750267029,-8.14800071716309,-15.703950881958,-34.066951751709,-18.4890003204346,-24.060001373291,-37.8270034790039,12.5860509872437,14.8230009078979,14.0400009155273,1.53779995441437,1.43453752994537,1.13451254367828,0.61503750085831,-0.01704999990761,-1.21742498874664,9.5180253982544,15.6371870040894,20.8359241485596,-29.1019515991211,-12.6739501953125,9.59400081634522,-48.1060523986816,-64.5409545898438,-78.4030532836914,8.95305061340332,3.32895016670227,-1.58895003795624,-0.20748749375343,4.2185001373291,8.5849494934082,-1.06424999237061,-3.70562505722046,-6.87376260757446,22.6876373291016,16.12668800354,10.0575752258301,56.344051361084,51.2050514221191,27.0250511169434,-66.3349533081055,-24.7429504394531,-14.671950340271,18.79905128479,16.1569499969482,-7.05000019073486,2.21897506713867,0.92702502012253,1.92197501659393,2.20825004577637,3.99602508544922,1.23557496070862,7.4395751953125,5.20162487030029,3.46912503242493,33.6199531555176,29.5920009613037,26.4520511627197,-2.87595009803772,0.87795001268387,1.49100005626678,1.02495002746582,4.05000019073486,2.00505018234253,2.23698759078979,1.23777496814728,0.18727499246597,-0.25547498464584,0.93431252241135,2.29762506484985,1.95469999313354,0.86075001955032,0.36684998869896,21.3670501708984,15.3250503540039,10.6210508346558,2.1979501247406,1.87905013561249,0.89505004882813,1.68900012969971,3.07095003128052,5.16600036621094,0.05004999786615,0.34264999628067,0.23526249825954,1.90698754787445,0.41717499494553,-0.57144999504089,0.42762500047684,0.60953748226166,0.53927499055862,8.78894996643066,8.9640007019043,8.64300060272217,-0.18405000865459,1.00499999523163,2.75805020332336,5.5900502204895,4.7039999961853,5.25300025939941,-0.19470000267029,-0.37881249189377,-0.24255000054836,-0.4448125064373,0.17448750138283,0.40012499690056,0.3605250120163,0.33068749308586,0.52868747711182,7.49805021286011,5.65905046463013,5.44500017166138,2.91900014877319,2.39205002784729,2.73000001907349,7.41300058364868,8.28705024719238,6.82605028152466,SWING_LEFT
-0.30002498626709,-0.38101249933243,-0.43944999575615,0.73315000534058,1.16215002536774,1.54838752746582,-3.52591252326965,-4.2581000328064,-5.21166229248047,6.47505044937134,5.23695039749146,2.22900009155273,5.49600028991699,4.61895036697388,2.75400018692017,10.4640007019043,9.58995056152344,7.81095027923584,-0.50655001401901,-0.89388751983643,-1.34089994430542,1.4855500459671,1.34406244754791,1.34626245498657,-5.68095016479492,-6.1950626373291,-6.47803735733032,1.65405011177063,-0.46005001664162,-2.18700003623962,0.73200005292892,-1.67895007133484,-4.28205013275146,5.7049503326416,4.83600044250488,5.12805032730103,-1.63776254653931,-2.78286242485046,-3.0329749584198,1.23227500915527,0.96731251478195,1.01846253871918,-6.54623746871948,-5.98427486419678,-5.29155015945435,-3.36705017089844,-6.85695028305054,-9.21405029296875,-7.98195028305054,-14.6839504241943,-18.9229507446289,3.91395020484924,4.76595020294189,6.44505023956299,-2.1038875579834,0.14904999732971,2.52009987831116,-0.14478750526905,-0.96951252222061,-0.84920001029968,-2.49906253814697,0.55426251888275,4.85045003890991,-19.7250003814697,-26.719051361084,-24.7120513916016,-28.7089519500732,-32.6920509338379,-36.294002532959,17.6710510253906,22.5540008544922,17.1970500946045,3.53526258468628,2.9467625617981,2.14114999771118,0.18521249294281,-0.1032624989748,-0.03946249932051,12.9331121444702,16.8365993499756,20.5442867279053,-9.07905006408691,-1.07805001735687,15.9550504684448,-50.4360008239746,-64.9600524902344,-77.6890563964844,2.90805006027222,0.69300001859665,2.8000500202179,1.77306246757507,3.14902496337891,3.99822497367859,0.27555000782013,-2.31467509269714,-4.71556234359741,22.0895118713379,14.9391002655029,9.09452533721924,35.389949798584,52.2730522155762,37.326000213623,-77.1220550537109,-18.4249515533447,-4.99095010757446,4.23705005645752,2.73495006561279,5.05395030975342,3.73009991645813,2.29130005836487,0.86624997854233,-2.36898756027222,2.03788757324219,2.78286242485046,6.16467475891113,5.10798740386963,1.94933748245239,28.1170520782471,29.2930507659912,23.3239517211914,-4.50705003738403,-4.56704998016357,4.52805042266846,4.91295003890991,0.53700000047684,4.91505002975464,0.93225002288818,0.55027496814728,0.25547498464584,2.1900999546051,1.32701253890991,0.42350000143051,0.41690000891685,-0.08648750185966,0.24241249263287,15.7150506973267,9.3880500793457,6.92100048065186,2.65305018424988,-0.48600003123283,0.08505000174046,2.83800005912781,3.25005006790161,7.19505023956299,0.37468749284744,0.34595000743866,0.15853749215603,0.23416249454021,0.54491251707077,0.36602500081062,0.66591250896454,0.78938752412796,0.77660000324249,7.5600004196167,7.63005018234253,7.06005048751831,1.81200003623962,2.61495018005371,3.00705003738403,8.05995082855225,6.16500043869019,5.09205007553101,-0.02021249942482,-0.33412501215935,-0.31501248478889,-0.23952500522137,-0.63222497701645,-0.86102497577667,0.69781249761581,0.62438750267029,0.7372750043869,6.48705053329468,6.10200023651123,7.08600044250488,3.40695023536682,2.8090500831604,3.35895013809204,4.88895034790039,5.84700012207031,9.29505062103272,SWING_LEFT
-1.22704994678497,-1.52927494049072,-2.23904991149902,0.01278750039637,-0.33206251263618,-0.45443749427795,-5.1669750213623,-5.52351236343384,-5.81927490234375,3.88395023345947,3.7110002040863,3.3469500541687,0.69105005264282,-1.28295004367828,-2.80695009231567,6.60795021057129,5.39595031738281,5.61705017089844,-3.03407502174377,-3.62683749198914,-3.77574992179871,-0.05115000158548,-0.03409999981523,-0.4811125099659,-6.07474994659424,-6.25996255874634,-6.17471265792847,2.20305013656616,1.57500004768372,-1.12604999542236,-5.09205007553101,-8.44694995880127,-11.3899507522583,5.22405004501343,5.91795015335083,8.73705005645752,-3.54062509536743,-3.41288757324219,-3.43420004844666,-0.81097501516342,-0.45333749055862,0.16816249489784,-5.37446260452271,-4.51357507705688,-3.8229124546051,-3.52095007896423,-4.09500026702881,-9.13395023345947,-12.256950378418,-14.1760511398315,-18.4409999847412,10.5529508590698,10.3110008239746,11.2450504302979,-3.08618760108948,-1.80386245250702,0.99082499742508,0.36602500081062,0.25107499957085,-0.00536249997094,-2.12121248245239,1.14276254177094,6.09771251678467,-17.3730010986328,-28.1340007781982,-31.348051071167,-24.0820503234863,-30.5910015106201,-38.9860534667969,16.0930500030518,25.3320007324219,28.8460521697998,4.480299949646,6.85354995727539,7.28983736038208,-0.34375,-0.98656249046326,-0.47781249880791,11.8614377975464,17.1516132354736,21.2477378845215,-22.230001449585,-4.94805002212524,18.6970500946045,-51.142951965332,-68.1910552978516,-78.4030532836914,19.5529518127441,5.63595008850098,-2.37405014038086,5.71381235122681,3.87062501907349,5.24342489242554,0.93747496604919,0.12870000302792,-3.46829986572266,22.6259002685547,19.6620864868164,11.8347625732422,39.0709533691406,60.9019546508789,52.1149520874023,-74.7990036010742,-33.1440010070801,5.81700038909912,-7.94100046157837,0.17295001447201,1.57395005226135,6.40543746948242,2.9053750038147,-0.26922500133514,-5.05931234359741,-0.18947499990463,3.4820499420166,5.79755020141602,4.43643760681152,3.35307502746582,25.5760517120361,24.6510009765625,25.47705078125,2.0419499874115,-2.38500022888184,1.13700008392334,-9.45195007324219,-8.5420503616333,4.23495006561279,2.04544997215271,1.56021249294281,-0.23938749730587,0.62246251106262,1.03551244735718,1.59623754024506,0.84686249494553,0.38706248998642,-0.71114999055862,14.5489511489868,12.7189502716064,6.52995014190674,2.25104999542236,3.62805008888245,3.26400017738342,3.92100024223328,1.17900002002716,7.34805011749268,-0.25217500329018,-0.18301250040531,-0.17765000462532,1.32068753242493,0.77261251211166,0.14891250431538,-0.76752501726151,-0.50572502613068,-0.28008750081062,3.57195019721985,2.96205019950867,2.64300012588501,2.02800011634827,2.18099999427795,2.84505009651184,7.55205059051514,7.38705015182495,7.92105054855347,-0.22343750298023,-0.26496249437332,-0.14258749783039,-0.23732499778271,-0.21394999325275,-0.29589998722076,-0.09597499668598,0.11687500029802,0.22742499411106,2.77305006980896,2.91105008125305,3.51495027542114,3.45300006866455,3.20100021362305,3.25395011901855,8.7450008392334,9.26895046234131,9.2790002822876,SWING_LEFT
-0.12553749978542,-0.19359999895096,-1.30047500133514,-0.14258749783039,0.01911249943078,0.04042499884963,-1.51786243915558,-2.53728747367859,-4.9296498298645,7.921950340271,10.1640005111694,6.47805023193359,5.43795013427734,5.74305009841919,1.0200001001358,9.9330005645752,7.71495056152344,4.71600008010864,-2.07941246032715,-2.91376256942749,-3.65873742103577,0.11384999752045,0.61930000782013,1.60902500152588,-5.33403730392456,-5.41488742828369,-5.73320007324219,4.52100038528442,4.9830002784729,4.06305027008057,-1.47705006599426,-2.74200010299683,-4.51200008392334,4.74000024795532,5.19000005722046,5.25300025939941,-4.12169981002808,-4.15992498397827,-3.61611247062683,2.4253625869751,2.56148743629456,2.2092125415802,-6.12053728103638,-6.20345020294189,-6.06842517852783,0.78900003433228,-1.98105013370514,-3.79395008087158,-8.01300048828125,-10.452000617981,-11.8770008087158,5.15700006484985,6.47205018997192,8.05995082855225,-2.67643737792969,-1.04183745384216,0.73535001277924,1.43990004062653,-1.43027496337891,-2.46468758583069,-5.74268770217896,-2.88846254348755,0.78938752412796,-6.87405014038086,-20.0890502929688,-30.35205078125,-14.9490003585815,-21.9520511627197,-29.1730518341064,7.67400026321411,14.5980005264282,25.431001663208,3.62147498130798,5.58291244506836,6.0405125617981,-1.17809998989105,1.04073750972748,1.76013743877411,6.23177480697632,11.6081628799438,16.884449005127,-29.896951675415,-20.4940509796143,-9.17505073547363,-37.6830024719238,-51.2119522094727,-71.2009506225586,26.2159519195557,15.5179510116577,4.22294998168945,5.52213764190674,3.74811244010925,3.21928739547729,0.51823747158051,-0.78856247663498,-2.62542510032654,21.6339740753174,22.3821125030518,18.0881252288818,15.3319511413574,38.5879516601563,41.3040008544922,-78.4030532836914,-66.7030563354492,-30.0049514770508,-6.72405052185059,-6.11595010757446,1.8469500541687,6.47790002822876,2.8744375705719,0.36712500452995,-4.54629993438721,-0.10106249898672,1.43233752250671,9.20507526397705,7.96317481994629,6.14239978790283,25.4130020141602,30.2670021057129,31.9560012817383,-9.50295066833496,-8.75400066375732,-2.61795020103455,-12.9700508117676,-10.8529500961304,2.77605009078979,1.29621243476868,2.20398759841919,1.19611251354218,0.09473749995232,1.01310002803802,1.93366253376007,3.84257507324219,0.99907499551773,-0.02901249937713,26.1649513244629,19.5760517120361,14.9059505462646,-0.1410000026226,1.1580001115799,2.4210000038147,8.60805034637451,1.98105013370514,2.2300500869751,0.42996248602867,-0.0042624999769,-0.13832500576973,1.93998754024506,1.37170004844666,0.39160001277924,-0.69836246967316,-0.93678748607635,-0.68241250514984,10.1370000839233,6.42495012283325,3.98895025253296,2.1739501953125,1.22295010089874,2.39400005340576,3.64605021476746,5.63100004196167,9.58995056152344,-0.00742499995977,-0.00316249998286,-0.15743750333786,0.34264999628067,0.41923749446869,0.45443749427795,-0.54614996910095,-0.46529999375343,-0.30566251277924,3.78300023078919,2.96700024604797,2.57400012016296,2.95695018768311,2.9760000705719,2.64105010032654,9.29100036621094,8.33505058288574,7.61895036697388,SWING_LEFT
-0.76614999771118,-0.83751249313354,-0.69918751716614,0.95672500133514,1.01516246795654,1.24822497367859,-0.85909998416901,-1.05806255340576,-1.48266243934631,1.3620001077652,2.64300012588501,3.10500025749207,2.38905000686646,2.81295013427734,2.932950258255,10.5790500640869,11.5729503631592,11.8009510040283,-0.47891250252724,-0.52882498502731,-0.82692497968674,1.55897498130798,1.77086246013641,1.89213752746582,-1.98068749904633,-2.27452492713928,-2.56602501869202,1.76895010471344,0.71505004167557,0.86400002241135,2.2630500793457,1.69500005245209,1.3330500125885,10.2010507583618,8.4190502166748,8.36100006103516,-0.81083750724792,-0.512875020504,-0.57997500896454,1.95813751220703,1.65701246261597,1.20780003070831,-4.03259992599487,-5.20629978179932,-5.82037496566772,3.17505025863647,0.8520000576973,-5.52495002746582,-1.12095010280609,-4.64595031738281,-9.34005069732666,8.49300003051758,6.11205005645752,4.67505025863647,-0.94077497720718,-1.40359997749329,-1.6941374540329,0.89388751983643,0.66398751735687,0.50228750705719,-5.30749988555908,-3.99849987030029,-2.35963749885559,-11.1630001068115,-14.4559507369995,-18.328950881958,-11.8690509796143,-14.5609502792358,-19.324951171875,4.3090500831604,4.63200044631958,7.43895053863525,-1.23337495326996,-0.01911249943078,2.7691125869751,-0.14162500202656,-1.19295001029968,-0.88646250963211,0.0582999996841,4.50449991226196,16.6024379730225,-28.9870510101318,-37.675952911377,-12.4230003356934,-25.3410015106201,-32.8999519348145,-63.7189521789551,11.2879505157471,15.3000011444092,6.82605028152466,1.86559998989105,-0.63634997606277,2.47541236877441,1.11210000514984,2.58170008659363,-9.40871238708496,21.5137996673584,22.3513126373291,8.72836208343506,14.5870504379272,50.5530014038086,32.1139526367188,-78.4030532836914,-55.4970016479492,1.84095013141632,2.31600022315979,1.37295007705688,-0.15900000929832,2.67437505722046,0.31721249222755,0.31294998526573,-7.4930624961853,0.53308749198914,3.47036242485046,6.97028732299805,6.04229974746704,4.18316268920898,27.2689514160156,29.3640022277832,24.5170516967773,-5.40795040130615,-1.81005012989044,2.9760000705719,3.85605025291443,12.0349502563477,15.2370004653931,2.14334988594055,1.73469996452332,0.06806249916553,1.76660001277924,0.72792500257492,0.93857496976852,2.35056257247925,1.13849997520447,0.86281251907349,19.0849514007568,11.7970504760742,8.27595043182373,3.43905019760132,1.4479501247406,0.95505005121231,4.24695014953613,-0.4870500266552,5.51100015640259,-0.2745875120163,0.27238750457764,0.28201249241829,0.4629625082016,0.04248749837279,0.38197499513626,0.70537501573563,0.28709998726845,0.0796125009656,8.03205013275146,6.26700019836426,3.53700017929077,1.98195004463196,2.61900019645691,2.0830500125885,11.7810001373291,10.8910503387451,8.05005073547363,-0.08304999768734,-0.11384999752045,0.1095874980092,0.44371250271797,-0.14052499830723,-0.5821750164032,0.20405000448227,0.37014999985695,0.50311249494553,2.49195003509521,2.43495011329651,2.70105004310608,1.90605008602142,2.08095002174377,2.78700017929077,8.028000831604,9.54195022583008,9.44595050811768,SWING_LEFT
-0.02873750030994,-0.18727499246597,-0.67471247911453,0.27032500505447,0.33522498607635,1.00251245498657,-0.79626250267029,-1.02396249771118,-1.68176245689392,0.64305001497269,0.13995000720024,-2.13405013084412,2.53995013237,2.39895009994507,0.82605004310608,9.38205051422119,9.63600063323975,8.89305019378662,-0.88646250963211,-1.10137498378754,-1.29621243476868,0.90983748435974,0.59056252241135,0.24681249260902,-1.87220001220703,-2.10526251792908,-2.67671251296997,-2.47395014762878,-1.24305009841919,-0.94800007343292,-0.2250000089407,-1.36995005607605,-2.98200011253357,8.22705078125,8.02095031738281,7.77495050430298,-1.45791244506836,-1.53450000286102,-1.35465002059937,-0.27032500505447,-0.78003752231598,-1.00993752479553,-3.32695007324219,-3.36104989051819,-2.78533744812012,-3.17805004119873,-5.66595029830933,-6.35100030899048,-5.7330002784729,-8.3299503326416,-9.52995014190674,8.60295009613037,10.4160003662109,14.2440004348755,-0.50435000658035,1.67722499370575,7.22067499160767,-0.93115001916885,-0.09157499670982,2.30821251869202,-2.16700005531311,-0.99852502346039,6.46593761444092,-7.83600044250488,-16.7170505523682,-17.6580009460449,-12.4900503158569,-18.6640510559082,-29.7270011901855,23.0569515228271,33.9379501342773,13.4530506134033,6.83113765716553,4.77193737030029,1.96350002288818,2.76265001296997,3.8257999420166,4.43767499923706,10.1139497756958,13.2129249572754,16.499174118042,-8.34899997711182,-3.99000024795532,4.28894996643066,-34.8259506225586,-40.9759521484375,-50.9110527038574,5.33595037460327,2.07000017166138,7.14000034332275,0.93225002288818,3.78111243247986,7.1652626991272,2.97549986839294,-0.43422499299049,-3.19577503204346,18.6254749298096,17.3696880340576,14.0494747161865,20.9560508728027,33.775951385498,32.7199516296387,-50.3410530090332,-33.7000503540039,-19.5220508575439,17.0389499664307,14.0089502334595,-2.49195003509521,6.4204249382019,3.28102493286133,1.48142504692078,-1.60916244983673,2.57001256942749,4.05143737792969,11.2633123397827,8.41761207580566,5.7890248298645,34.1659507751465,32.6380500793457,27.3409519195557,-12.7480506896973,-4.2940502166748,-1.32705008983612,-7.46205043792725,-2.13300013542175,0.60900002717972,1.65811252593994,1.73469996452332,0.75776249170303,1.38765001296997,-0.51507496833801,0.93431252241135,3.78193736076355,2.02386260032654,0.7011125087738,25.1350517272949,22.3830013275146,16.7260513305664,-1.51095008850098,-1.65000009536743,-0.05700000375509,0.10095000267029,1.4800500869751,4.08900022506714,0.18411250412464,0.48743748664856,0.50448751449585,2.05287504196167,1.55801248550415,1.02162504196167,-0.08332499861717,-0.51534998416901,-0.48344999551773,12.3379507064819,8.15700054168701,5.29905033111572,0.04200000315905,-0.82095003128052,-0.61305004358292,6.68505048751831,5.75100040435791,4.46205043792725,0.04578749835491,-0.26179999113083,-0.32986250519753,0.85030001401901,0.58740001916885,0.19043749570847,-0.21202500164509,0.02103750035167,0.15083749592304,4.19295024871826,4.38195037841797,4.8270001411438,0.91200006008148,1.72800004482269,1.64895009994507,5.77200031280518,7.16895055770874,7.63800048828125,SWING_LEFT
-0.29686251282692,-0.82692497968674,-1.16847503185272,-0.2426874935627,-0.14685000479221,0.09679999947548,-2.90551257133484,-3.52701258659363,-4.04635000228882,0.10500000417233,2.24595022201538,0.32505002617836,4.15500020980835,4.40100002288818,2.73705005645752,7.39905023574829,7.43505048751831,6.26100015640259,-1.71022498607636,-2.33914995193481,-3.00313758850098,0.58740001916885,0.98656249046326,1.18126249313354,-4.17298746109009,-4.01018762588501,-3.86759996414185,-1.81800007820129,-3.01800012588501,-3.8580002784729,0.49695003032684,-1.06095004081726,-2.06700015068054,5.16900014877319,4.7039999961853,5.62605047225952,-3.49703741073608,-3.33739995956421,-3.25434994697571,1.43879997730255,1.01199996471405,0.45333749055862,-3.62711238861084,-3.5014374256134,-3.29821252822876,-4.64100027084351,-4.73699998855591,-6.088050365448,-4.82100009918213,-7.30500030517578,-9.8100004196167,7.52595043182373,6.96495056152344,8.50005054473877,-2.43278741836548,-1.60379993915558,1.46863746643066,-0.26606249809265,-0.50558751821518,-2.32209992408752,-2.22763752937317,-1.58056247234344,3.15191245079041,-7.33095026016235,-10.0710000991821,-28.4959506988525,-14.4229507446289,-18.4270515441895,-30.4380016326904,11.2980003356934,12.1740007400513,16.689001083374,3.56826257705688,5.33596229553223,6.11283731460571,-3.25324988365173,-3.60662508010864,-2.44131255149841,8.30266284942627,13.4971370697021,16.864236831665,-26.6490020751953,-8.14500045776367,11.8980007171631,-38.6340026855469,-47.4570007324219,-55.8559532165527,14.6119508743286,7.91595029830933,3.13305020332336,5.230637550354,4.3058123588562,4.89004993438721,0.48413750529289,1.13863754272461,-1.58784997463226,18.2881870269775,16.890775680542,11.1707754135132,29.263952255249,47.8200035095215,46.9219512939453,-55.0159530639649,-30.8569507598877,6.19305038452148,2.10600018501282,1.66500008106232,0.57000005245209,6.10967493057251,2.07308745384216,0.5321249961853,-4.74746227264404,0.865149974823,3.47668743133545,5.37074995040894,4.44180011749268,4.12774991989136,21.1759510040283,17.8900508880615,18.4980010986328,5.73795032501221,0.19305001199245,2.58300018310547,-3.73695015907288,-0.61200004816055,5.0779504776001,0.63112497329712,0.99398750066757,0.16390000283718,3.40972495079041,1.87398743629456,-0.33742499351501,3.28597497940063,2.16012501716614,0.83091247081757,17.1000003814697,14.1300010681152,8.70300006866455,5.7330002784729,6.4350004196167,4.38000011444092,4.61295032501221,2.29005002975464,4.87200021743774,-0.7375500202179,-1.25468754768372,-1.02478754520416,0.69066250324249,1.54206252098084,0.94503748416901,0.58286249637604,0.54147499799728,0.68186247348785,6.56595039367676,4.4800500869751,4.2480001449585,3.68505024909973,2.85405015945435,2.68905019760132,7.52100038528442,8.7450008392334,10.1839504241943,0.51933747529984,0.42886251211166,-0.02667500078678,-1.11526250839233,-0.63222497701645,0.33522498607635,0.66701251268387,0.48179998993874,0.45622500777245,5.51505041122437,4.94700002670288,4.48695039749146,4.03005027770996,3.96795010566711,3.37395024299622,9.48705005645752,8.46705055236816,8.89305019378662,SWING_LEFT
-0.35021248459816,-1.3388375043869,-2.2178750038147,-1.375,-1.20037496089935,-0.22137500345707,-6.57593727111816,-6.60371255874634,-6.47803735733032,3.69000005722046,2.5570502281189,3.79800009727478,-0.85695004463196,-2.79705023765564,-3.91800022125244,4.45005035400391,6.16800022125244,6.31800031661987,-3.58751249313354,-3.43956255912781,-3.04150009155273,1.18332505226135,0.7097749710083,0.02337500080466,-6.54403734207153,-5.88101243972778,-4.64131259918213,-1.28595006465912,-5.38905048370361,-7.58505058288574,-9.46005058288574,-10.9350004196167,-11.695050239563,6.97005033493042,9.37905025482178,10.8190507888794,-2.70943737030029,-0.43422499299049,0.8981499671936,-0.41084998846054,0.10642500221729,1.00773751735687,-3.12262487411499,-0.52071249485016,-0.03753750026226,-7.48395013809204,-2.11500000953674,-0.51495003700256,-12.2220001220703,-10.7200508117676,-12.41100025177,14.7030010223389,19.9369506835938,15.6949510574341,1.79960000514984,2.52642488479614,2.29762506484985,1.21426248550415,0.82472497224808,1.39411246776581,0.32216250896454,3.6478750705719,6.96286249160767,-4.09305000305176,-15.6540002822876,-16.3630504608154,-15.1789503097534,-19.9840507507324,-24.2730007171631,13.2709503173828,11.1559505462646,11.9800510406494,2.40088748931885,2.63174986839294,2.67643737792969,1.57822501659393,1.46011245250702,1.34722495079041,10.7056121826172,14.7848253250122,19.2310256958008,-13.3930501937866,-8.15295028686523,6.77505016326904,-32.509952545166,-47.3880004882813,-67.2829513549805,11.32200050354,9.85305023193359,10.0519504547119,3.615149974823,5.85199975967407,7.96344995498657,0.04358749836683,-2.15930008888245,-4.21107482910156,21.9958744049072,19.6205615997314,7.93553733825684,32.9809532165527,53.6689529418945,21.2839508056641,-72.9109497070313,-40.4920501708984,-5.5489501953125,9.48705005645752,4.95600032806396,-11.4589509963989,4.136549949646,1.29085004329681,1.5633749961853,0.72998750209808,3.54172492027283,2.08683753013611,6.71164989471436,5.71876239776611,4.34060001373291,21.4230003356934,22.8259506225586,20.5699501037598,-6.80895042419434,-2.43105006217957,-0.98895007371902,-8.01705074310303,1.04205000400543,3.61200022697449,2.43705010414124,1.16737496852875,0.3075875043869,0.43092501163483,0.95562499761581,1.00773751735687,3.20306253433228,1.50452494621277,0.9288125038147,18.5149517059326,14.7910509109497,13.3560009002686,0.40200001001358,1.52700006961823,1.77900004386902,1.26000010967255,0.24495001137257,3.1230001449585,-0.18301250040531,-0.36822500824928,-0.0671000033617,1.0205249786377,1.16104996204376,0.53102499246597,0.48606249690056,0.16156250238419,0.30841249227524,11.3370008468628,6.83700037002563,6.75300025939941,2.11199998855591,1.50795006752014,1.48395001888275,5.96895027160645,8.51895046234131,8.83995056152344,0.22343750298023,0.30648750066757,0.26496249437332,-0.04152499884367,-0.12127500027418,0.22027499973774,0.39462500810623,0.34567499160767,0.21477499604225,7.06695032119751,6.77205038070679,6.69795036315918,2.382000207901,2.86605024337769,3.10995006561279,8.60595035552979,8.06205081939697,7.76295042037964,SWING_LEFT
-0.02983750030398,-0.16816249489784,-0.2745875120163,0.83957499265671,0.60334998369217,0.37028750777245,-3.706862449646,-4.19746255874634,-4.68379974365234,3.86505007743835,3.3229501247406,2.77995014190674,1.29495000839233,0.74400001764297,-0.02400000020862,7.28805017471313,6.84105014801025,7.41795015335083,-0.42776250839233,-1.82833743095398,-2.39868760108948,0.60871249437332,1.77402496337891,1.89956247806549,-5.11376237869263,-5.35851240158081,-4.98286247253418,1.69995009899139,-3.27405023574829,-4.64595031738281,-1.55895006656647,-5.7330002784729,-6.18600034713745,6.20100021362305,3.60705018043518,5.68395042419434,-1.75917494297028,-1.39205002784729,-0.94929999113083,0.4086500108242,-0.26289999485016,-0.85250002145767,-4.46572494506836,-4.17945003509521,-3.41948747634888,-6.33900022506714,-9.35205078125,-12.6340503692627,-9.07695007324219,-11.3070001602173,-16.0890007019043,8.52195072174072,10.2700500488281,12.3109502792358,-0.05953750014305,1.5995374917984,2.72648739814758,-1.16104996204376,-1.01310002803802,-1.21220004558563,-1.8466249704361,0.25093749165535,3.39350008964539,-15.1720504760742,-20.5159511566162,-23.8879508972168,-20.0700016021729,-23.0370006561279,-27.0400505065918,15.9820508956909,15.0390005111694,11.2789506912231,2.89891242980957,2.98402500152588,2.98512506484985,-1.26115000247955,-0.52992498874664,0.06599999964237,7.4395751953125,11.0004119873047,13.3651371002197,-17.2729511260986,-6.6340503692627,3.00705003738403,-31.6549510955811,-36.2820014953613,-41.4409523010254,11.0820007324219,9.71205043792725,7.91805028915405,2.9074375629425,3.07986259460449,4.20887517929077,0.33522498607635,0.08401250094175,-1.20683753490448,14.8879499435425,15.7393503189087,15.2253751754761,8.65500068664551,13.9960508346558,15.4090509414673,-45.4789505004883,-43.771053314209,-37.5780029296875,7.95900058746338,9.60900020599365,5.77005004882813,5.37748765945435,5.72440004348755,5.5147123336792,-3.10007500648499,-4.36218738555908,-2.12313747406006,14.1260623931885,13.2203502655029,10.8652496337891,14.5939502716064,18.5170516967773,27.9300022125244,-31.4179515838623,-25.8970508575439,-13.1460008621216,-1.50300002098084,-3.43800020217896,-3.09795022010803,4.58246231079102,2.01451253890991,0.48001250624657,-0.33206251263618,-0.47354999184608,0.99494999647141,8.56446266174316,3.1828498840332,1.79616248607636,32.9230499267578,22.8859519958496,20.1510009765625,-4.09305000305176,-0.97500002384186,-1.1010000705719,-7.33200025558472,-4.92000007629395,-0.5020500421524,-0.36822500824928,-0.50448751449585,-0.25973749160767,1.98467493057251,1.81871247291565,0.88330000638962,0.6903874874115,0.14135000109673,0.20624999701977,15.1570510864258,10.1299505233765,9.50295066833496,-2.06895017623901,-2.53095006942749,-2.50305008888245,2.93700003623962,4.77105045318604,5.39205026626587,-0.20322500169277,-0.20006249845028,-0.0042624999769,0.00632499996573,0.2745875120163,0.49266248941422,0.02309999987483,-0.32161250710487,-0.53130000829697,10.782000541687,9.4980001449585,7.81905031204224,0.34395000338554,0.72705000638962,0.37995001673698,8.06895065307617,9.46095085144043,9.31500053405762,SWING_LEFT
0.49692499637604,0.21285000443459,-1.24093747138977,0.49486249685287,0.60238748788834,1.33031249046326,-2.81503748893738,-3.22904992103577,-4.08787488937378,2.15205001831055,1.67100012302399,0.10695000737906,2.13795018196106,1.13205003738403,-0.96300005912781,7.79595041275024,6.40200042724609,2.94600009918213,-2.33914995193481,-3.09787487983704,-3.11918759346008,1.95813751220703,2.37311244010925,2.05397510528564,-4.67005014419556,-5.12118768692017,-5.08612489700317,-0.99900007247925,-4.21005010604858,-7.81695032119751,-4.38000011444092,-8.31494998931885,-10.2100505828857,2.47905015945435,4.03605031967163,4.83795022964478,-2.85958743095398,-2.6669499874115,-2.17098760604858,0.97693747282028,-0.17132499814034,-1.26747500896454,-4.61999988555908,-3.86127495765686,-2.54375004768372,-9.97995090484619,-13.1010007858276,-17.4040508270264,-11.9290504455566,-13.6540508270264,-15.0190505981445,4.69695043563843,7.22595024108887,11.1540002822876,-1.23557496070862,0.13406249880791,1.8240749835968,-2.14967489242554,-2.01561260223389,-1.48458755016327,-0.42803749442101,2.26861238479614,5.46342515945435,-20.7259502410889,-23.2410011291504,-22.9300518035889,-16.6690502166748,-20.7769508361816,-28.3110008239746,16.135950088501,19.5889511108398,15.937050819397,3.07229995727539,3.44052505493164,3.88327503204346,-1.8463499546051,-2.33804988861084,-0.57887500524521,8.95180034637451,12.3424119949341,15.6149120330811,-17.2180500030518,-8.8540506362915,1.25700008869171,-36.1260032653809,-45.4050025939941,-55.9470024108887,8.50695037841797,10.9909505844116,18.3250503540039,4.66647481918335,5.84031248092651,6.63959980010986,1.56749999523163,-3.92479991912842,-6.08616256713867,18.0923881530762,14.8890495300293,10.1554746627808,17.6980514526367,37.8360023498535,26.1120014190674,-61.9540519714355,-16.1110515594482,-5.66595029830933,9.5779504776001,-5.85405015945435,-8.37900066375732,5.17728757858276,2.69238758087158,3.4597749710083,-3.71304988861084,1.85171246528625,0.90667498111725,7.83447504043579,5.67297506332397,4.65877485275269,19.875,19.5949516296387,18.5650501251221,-8.09295082092285,-5.1060004234314,-3.15405011177063,-5.65995025634766,4.68705034255981,-0.89895004034042,3.19371247291565,0.7566624879837,0.2043250054121,0.09679999947548,0.49692499637604,0.81193751096725,3.71483755111694,1.73332500457764,0.93307501077652,18.1369514465332,15.2599506378174,13.3990507125854,-0.16695000231266,2.44695019721985,3.04800009727478,-4.0489501953125,1.6429500579834,4.40205001831055,0.02983750030398,-0.37042498588562,-0.37248748540878,1.09931254386902,0.58850002288818,0.0,0.33605000376701,-0.06943749636412,0.00398749997839,11.5309505462646,7.71300029754639,7.49595022201538,3.03900003433228,1.84095013141632,2.6340000629425,4.213050365448,4.95795011520386,6.81900024414063,-0.27665001153946,-0.30442500114441,-0.4448125064373,-0.14368750154972,0.0489500015974,0.35227498412132,0.01361249946058,-0.05664999783039,-0.12801249325275,7.74705028533936,7.47900056838989,6.49695014953613,3.28500008583069,3.26100015640259,3.75705027580261,7.19505023956299,7.14195013046265,7.6360502243042,SWING_LEFT
-1.11856245994568,-0.70771247148514,-0.42996248602867,0.8289874792099,0.76092499494553,0.95782500505447,-2.92366242408752,-2.78533744812012,-2.8969874382019,-1.03005003929138,-0.17205001413822,3.03105020523071,1.53195011615753,1.55100011825562,1.53000009059906,11.1300001144409,10.9339504241943,11.2350006103516,-0.20226250588894,0.24365000426769,0.50861251354218,1.70060002803802,2.09330010414124,1.53890001773834,-3.64622497558594,-5.02012491226196,-5.62251234054565,6.09195041656494,1.46205008029938,-4.3560004234314,1.66095006465912,-0.91500002145767,-3.87195014953613,10.78005027771,7.79100036621094,4.57005023956299,0.34691250324249,-0.26922500133514,-1.37926244735718,0.65656250715256,0.27032500505447,0.42143750190735,-5.36703729629517,-5.07127475738525,-4.8743748664856,-5.5900502204895,-5.52000045776367,-7.34505033493042,-4.89000034332275,-6.41595029830933,-8.75100040435791,3.46800017356873,1.65105009078979,0.85500001907349,-2.3530375957489,-3.15534996986389,-2.6148374080658,0.19689999520779,-1.5995374917984,-1.90066254138947,-4.46888732910156,-1.58056247234344,1.85886251926422,-10.0470008850098,-22.8679504394531,-30.318000793457,-12.3010501861572,-24.3190517425537,-30.3949508666992,1.90905010700226,9.94395065307617,21.2419509887695,-0.57475000619888,1.74528753757477,3.06061244010925,-1.25358748435974,-0.53748750686646,-1.53559994697571,6.26367473602295,10.2576370239258,13.5375623703003,-25.336950302124,-14.8270511627197,-7.12995052337646,-35.2639503479004,-40.6620025634766,-47.9839515686035,24.3979511260986,14.0020503997803,2.95305013656616,3.71304988861084,3.7173125743866,4.76863765716553,-3.62367486953735,-2.6371123790741,-2.73501253128052,18.6371631622314,18.6584739685059,12.5031499862671,15.1260004043579,27.2880020141602,30.6820507049561,-60.9580535888672,-49.5220527648926,-13.1680507659912,1.00095009803772,3.61905026435852,-5.02605009078979,4.18233728408813,2.1900999546051,0.80134999752045,-2.27741241455078,-0.20858749747276,0.29053750634193,9.82877540588379,8.4485502243042,7.10751247406006,25.6980018615723,26.5240516662598,29.0890522003174,-12.1450510025024,-11.9320507049561,-6.20505046844482,-7.50705051422119,-5.44500017166138,2.45295000076294,1.76343750953674,1.20353746414185,0.43944999575615,-0.70345002412796,0.65766251087189,1.58028745651245,3.02211236953735,1.56406247615814,0.93197500705719,22.2559509277344,15.8710508346558,11.1190509796143,-1.0200001001358,-2.46900010108948,-3.11805009841919,4.94400024414063,3.98595023155212,5.10900020599365,0.24901250004768,0.50118750333786,0.73108750581741,1.20037496089935,0.19896249473095,-0.37358748912811,0.75528746843338,0.64253747463226,0.55412501096725,9.22695064544678,8.61600017547607,8.45100021362305,-2.54295015335083,-1.7700001001358,-0.92205005884171,7.01295042037964,8.20604991912842,8.3569507598877,0.66618752479553,0.15317499637604,0.11591249704361,-0.17132499814034,0.9257875084877,0.70771247148514,0.41909998655319,-0.0417999997735,-0.04069999977946,8.77200031280518,6.70305013656616,5.37600040435791,0.19800001382828,0.40605002641678,0.05700000375509,8.42805004119873,7.55400037765503,7.13505029678345,SWING_LEFT
-0.31927499175072,-0.37564998865128,-0.59812498092651,-0.10216250270605,1.54948747158051,2.20288753509521,-1.00485002994537,-2.69376254081726,-3.8197500705719,6.57105016708374,8.92800045013428,5.49795007705688,5.75700044631958,6.16605043411255,3.85305023193359,12.0739507675171,9.99705028533936,8.01600074768066,-0.95782500505447,-1.30363750457764,-1.59211254119873,2.77007508277893,2.8254873752594,2.11983752250671,-4.49336242675781,-4.82116270065308,-5.16271257400513,1.932000041008,-0.06495000422001,-0.46905001997948,1.61595010757446,0.35400000214577,-0.70095002651215,5.96895027160645,3.72705006599426,2.59395003318787,-2.05397510528564,-2.0625,-1.74322497844696,0.69066250324249,0.4086500108242,-0.30222499370575,-6.3237624168396,-6.32486248016357,-5.72247505187988,-3.3030002117157,-7.48395013809204,-10.6840505599976,-7.97295045852661,-10.9399509429932,-12.4060506820679,5.44905042648315,7.26705026626587,10.2730503082275,-0.70661246776581,-0.07768750190735,0.78113746643066,-0.39269998669624,-0.0042624999769,0.06916250288486,-3.13004994392395,-1.15486252307892,0.96071249246597,-15.9169511795044,-16.9020004272461,-15.1939506530762,-16.1809501647949,-17.3040008544922,-19.2750015258789,14.0110502243042,14.9860506057739,13.6879510879517,1.5856499671936,3.46073746681213,4.91232490539551,-0.06063750013709,-0.12457499653101,-0.42253750562668,3.06143736839294,9.57866287231445,14.4453372955322,-14.6839504241943,-20.7859516143799,-10.231050491333,-22.6399517059326,-40.1350517272949,-56.7570037841797,12.6990003585815,15.292950630188,11.0989503860474,5.11555004119873,4.89431238174438,7.06103754043579,1.11746251583099,0.98546248674393,-1.12695002555847,21.0209999084473,20.5389251708984,16.1958503723145,27.0130519866943,46.1419525146484,48.4699516296387,-75.7350006103516,-56.0260543823242,-25.0999507904053,4.70205020904541,9.79095077514648,3.61695027351379,8.2762622833252,5.25717496871948,2.40721249580383,-2.91802501678467,-0.47038748860359,1.26527500152588,11.4474248886108,9.38492488861084,4.43327474594116,33.0580520629883,34.9620018005371,27.7020015716553,-17.7490501403809,-11.4600009918213,-2.31105017662048,-13.0609502792358,-9.67005062103272,-1.15305006504059,2.0816125869751,0.82678747177124,-0.1214125007391,0.58959996700287,1.54948747158051,1.97092497348785,2.67409992218018,1.48967504501343,0.6903874874115,22.3279514312744,17.7799510955811,13.5139503479004,-1.19205009937286,0.18795001506805,-1.26195001602173,-1.80405008792877,0.99405002593994,4.60095024108887,-0.17984999716282,0.23512500524521,0.37248748540878,1.0674124956131,0.25959998369217,0.37674999237061,0.39242500066757,0.38389998674393,0.23072500526905,11.2770004272461,11.0670003890991,11.7630004882813,-2.51505017280579,-1.06095004081726,1.69005012512207,7.93305015563965,8.38800048828125,7.45095014572144,0.1883749961853,0.08937499672174,0.09363749623299,0.92798751592636,0.9257875084877,0.59276247024536,-0.24818749725819,-0.65051251649857,-0.36533749103546,10.5400505065918,5.4529504776001,5.16000032424927,2.84205007553101,0.57195001840591,1.16100001335144,7.26195049285889,6.28005027770996,6.42405033111572,SWING_LEFT
-0.27252501249313,-0.63854998350143,-1.24409997463226,1.56007504463196,1.44306254386902,1.23763751983643,-7.12731266021729,-7.09321260452271,-7.11658763885498,0.37005001306534,-0.87195003032684,-1.63095009326935,-3.80295014381409,-4.74405002593994,-6.61200046539307,6.17205047607422,4.20105028152466,4.60395002365112,-1.62607502937317,-1.49091243743896,-1.00993752479553,1.07277500629425,0.73851251602173,0.09047500044107,-7.10916233062744,-6.75372505187988,-6.05989980697632,-3.65700006484985,-5.92500019073486,-7.98195028305054,-9.21105003356934,-10.945050239563,-12.5880002975464,5.9520001411438,7.03500032424927,6.22005033493042,-0.91519999504089,-1.50590002536774,-1.58042502403259,-0.52676248550415,-0.8397125005722,-0.23842500150204,-4.93391227722168,-3.51422500610352,-0.84631252288818,-10.5499505996704,-11.8909502029419,-9.7069501876831,-13.9990510940552,-14.4850511550903,-18.3550510406494,4.33305025100708,6.21105051040649,13.4220008850098,-0.5321249961853,0.71513748168945,1.50053751468658,0.15647499263287,0.12870000302792,-0.36286249756813,0.35089999437332,2.37393736839294,5.77087497711182,-12.8659505844116,-20.2189502716064,-25.8280506134033,-22.4580001831055,-26.2470016479492,-32.423999786377,13.827000617981,11.401050567627,8.62995052337646,1.88361251354218,2.31563758850098,2.94140005111694,-0.97913748025894,-1.36001253128052,-1.02162504196167,10.5300245285034,15.7339878082275,20.3101253509521,-23.3659515380859,-10.1790008544922,9.03795051574707,-42.8989524841309,-58.2540016174316,-77.0329513549805,7.47000026702881,6.99105024337769,4.75005006790161,2.55832505226135,1.00141251087189,1.896399974823,0.46612501144409,1.21109998226166,-2.64343738555908,22.8993873596191,19.2373504638672,14.0248622894287,42.0319519042969,46.7449531555176,21.6720008850098,-72.9810028076172,-35.998950958252,-23.8230018615723,0.22305001318455,2.46195006370544,5.68905019760132,4.49515008926392,4.45472478866577,2.22736239433289,-6.50443744659424,-4.17601251602173,0.37771248817444,12.442512512207,10.5088500976563,7.41936254501343,26.3850021362305,34.3219528198242,33.2400016784668,-19.476001739502,-8.05200004577637,-0.88800007104874,1.9450501203537,-0.68805003166199,1.16700005531311,1.0173624753952,1.02162504196167,0.84383749961853,1.896399974823,1.26857495307922,0.81730002164841,4.6481876373291,2.97426247596741,1.95249998569489,25.1160011291504,19.4299507141113,14.5249509811401,0.33705002069473,-0.22695000469685,-0.93600004911423,3.49500012397766,2.89800024032593,3.14505004882813,0.37028750777245,0.36932501196861,0.38733750581741,0.79392498731613,0.90461248159409,0.91519999504089,1.51621246337891,0.97776252031326,0.6180624961853,12.0990009307861,11.248950958252,10.0920000076294,-1.29795002937317,0.98805004358292,1.84095013141632,5.89500045776367,8.22000026702881,6.02100038528442,0.12127500027418,-0.24474999308586,-0.50228750705719,0.50861251354218,0.17242500185966,0.27348750829697,0.31790000200272,0.04757500067353,-0.13969999551773,9.28500080108643,8.06595039367676,6.83700037002563,2.2390501499176,2.40900015830994,2.16000008583069,5.45100021362305,6.91005039215088,8.79705047607422,SWING_LEFT
0.35640001296997,-0.20116250216961,-1.06534993648529,0.35227498412132,0.39696249365807,0.63318747282028,-4.44221258163452,-5.1371374130249,-5.71188735961914,4.88700008392334,3.38100004196167,2.382000207901,5.05800008773804,3.42405009269714,1.11105000972748,7.63995027542114,5.37495040893555,5.18595027923584,-2.07102489471436,-2.05397510528564,-1.96033751964569,0.95246249437332,0.7375500202179,0.38307499885559,-6.27591228485107,-6.32266235351563,-6.24923753738403,-0.51195001602173,-1.50600004196167,-2.37600016593933,-3.13500022888184,-5.44395017623901,-7.70700025558472,6.46905040740967,6.82395029067993,6.33000040054321,-2.00186252593994,-1.84965002536774,-1.18126249313354,-0.06173750013113,-0.48427498340607,-0.54381251335144,-6.07158756256104,-5.65647506713867,-4.81470012664795,-3.67095017433167,-6.21000051498413,-9.5110502243042,-9.37095069885254,-10.2190504074097,-11.1169509887695,7.55895042419434,11.203950881958,13.6470003128052,-0.4086500108242,0.88109999895096,2.64233756065369,-0.24901250004768,0.16073749959469,0.07232499867678,-3.49401259422302,-0.96126252412796,-0.39187499880791,-11.7070503234863,-5.50800037384033,-12.6139507293701,-12.5860509872437,-18.3619499206543,-23.428050994873,13.1470508575439,18.4849510192871,17.1490516662598,3.81081247329712,3.52563738822937,3.22767496109009,0.04262499883771,0.61187499761581,1.17383754253387,1.95469999313354,6.8095498085022,18.4860496520996,-25.6699504852295,-30.7830009460449,3.29205012321472,-27.7699508666992,-35.7120018005371,-70.1950531005859,12.0379505157471,10.4569501876831,12.7390508651733,3.78111243247986,3.42141246795654,2.61263751983643,1.93998754024506,2.57963752746582,1.25152504444122,21.6094989776611,21.5095367431641,19.0203742980957,27.1950016021729,38.5249519348145,51.4590034484863,-78.4030532836914,-69.8910064697266,-37.1490020751953,9.16605091094971,2.71605014801025,2.80995011329651,3.88533759117126,4.98465013504028,2.90413737297058,-2.79991245269775,-5.44018745422363,-2.11983752250671,13.2362995147705,6.80322504043579,4.05226230621338,56.6220016479492,36.6720008850098,27.7650012969971,-1.61205005645752,4.06800031661987,-1.57995009422302,0.22095000743866,-4.72605037689209,-3.86400008201599,0.26276248693466,0.24158750474453,1.61755001544952,2.19326257705688,3.27456259727478,2.47321248054504,2.89231252670288,2.01753759384155,1.56516253948212,24.8950519561768,19.2100505828857,14.4580507278442,-2.91900014877319,-1.57605004310608,-0.26805001497269,5.06805038452148,10.9240503311157,7.36995029449463,2.04434990882874,1.45364999771118,0.77783751487732,1.49311244487762,0.59482496976852,0.14794999361038,1.28631246089935,0.7957124710083,0.25093749165535,13.57200050354,12.8749504089355,9.98895072937012,0.90705001354218,1.70895004272461,1.8840000629425,2.11005020141602,2.4190502166748,5.21205043792725,0.15111249685287,0.17228749394417,0.16486249864101,0.96525001525879,1.10989999771118,0.71829998493195,0.03808749839664,0.06888750195503,0.19978749752045,5.93400049209595,4.69305038452148,3.64005017280579,2.67000007629395,2.29605007171631,2.16000008583069,8.45700073242188,7.36500024795532,6.75705051422119,SWING_LEFT
-0.93967497348785,-1.3026750087738,-1.87302494049072,-0.51507496833801,-0.47354999184608,-0.32670000195503,-4.12720012664795,-4.06559991836548,-3.97608757019043,0.51900005340576,-0.37395000457764,0.06405000388622,2.23605012893677,1.70895004272461,0.65505003929138,7.35300016403198,6.48405027389526,4.97505044937134,-2.71053743362427,-3.75457501411438,-3.52687501907349,-0.16926249861717,0.91740000247955,1.45474994182587,-4.04208755493164,-3.87722492218018,-3.62917494773865,0.0949500054121,-3.70500016212463,-5.10405015945435,-1.69095003604889,-5.33295011520386,-6.19305038452148,4.92705011367798,9.58305072784424,10.5000009536743,-2.9808623790741,-1.44636249542236,-0.7790749669075,1.54728746414185,1.21536254882813,0.76628750562668,-3.38442492485046,-2.57028746604919,-2.31494998931885,-6.22905015945435,-6.92595052719116,-7.64700031280518,-8.13794994354248,-11.2560005187988,-13.7620506286621,10.9980001449585,10.206000328064,8.46000003814697,-0.37358748912811,-0.18095000088215,0.12333749979734,0.03079999983311,-0.65560001134872,-1.2557874917984,-1.82861244678497,-0.98780000209808,0.29342499375343,-9.00300025939941,-10.5190505981445,-13.4020509719849,-16.4850006103516,-19.2750015258789,-23.3629512786865,7.53300046920776,8.38304996490479,10.4350509643555,1.26747500896454,1.99210000038147,2.81696248054504,-1.47290003299713,-0.67471247911453,0.45870000123978,6.54568767547607,10.7141370773315,14.0461750030518,-18.7030506134033,-9.52995014190674,0.00600000005215,-32.2200012207031,-38.1499519348145,-45.2269515991211,14.2410011291504,14.7300004959106,10.0279502868652,4.26428747177124,5.25813770294189,5.45077514648438,-1.35368752479553,-2.70847487449646,-3.14050006866455,18.8234748840332,19.1672248840332,16.2777996063232,19.6120510101318,34.3579521179199,46.9849510192871,-62.8740043640137,-52.6879539489746,-21.5119514465332,0.83895003795624,-3.42600011825562,-5.11695003509521,4.8730001449585,3.12234997749329,0.59482496976852,-2.51789999008179,-0.77261251211166,0.74071252346039,10.5854377746582,6.31262493133545,5.15267515182495,41.2680015563965,24.8500518798828,22.6849517822266,1.18995010852814,0.0259500015527,-3.46500015258789,-6.02700042724609,-9.05205059051514,-2.32395005226135,-0.37674999237061,0.25107499957085,0.90667498111725,1.15788745880127,1.0173624753952,0.70771247148514,4.26607513427734,2.81778740882874,1.57684993743896,23.7769508361816,21.106050491333,16.8790512084961,0.8400000333786,3.73095011711121,3.10305023193359,7.21200037002563,8.83095073699951,5.11395025253296,0.69382500648499,-0.16293749213219,-0.83008748292923,0.5321249961853,0.73425000905991,0.88109999895096,0.82871252298355,0.2231625020504,-0.20033749938011,14.2470006942749,11.6410503387451,8.48505020141602,3.4980001449585,3.66795015335083,2.71305012702942,2.71605014801025,3.83205008506775,6.41205024719238,-0.34485000371933,0.06696250289679,0.0,-0.24695000052452,-0.35117501020432,0.12127500027418,-0.12691250443459,0.03272499889135,0.01787500083447,6.22905015945435,6.51405048370361,6.01095008850098,1.72095012664795,2.43495011329651,2.99295020103455,10.6270503997803,9.49905014038086,8.54805088043213,SWING_LEFT
-1.45585000514984,-1.06424999237061,-0.88756251335144,1.10783743858337,1.60806250572205,1.38874995708466,-1.37527501583099,-0.97184997797012,-0.84315001964569,-1.32900011539459,-0.74205005168915,-0.29205000400543,-1.0440000295639,-0.39000001549721,0.19800001382828,13.2949504852295,11.0989503860474,9.84195041656494,-0.81413751840591,-0.57158750295639,-0.78333747386932,0.76298749446869,0.50545001029968,0.97693747282028,-1.0176374912262,-1.50191247463226,-2.2595374584198,0.95205003023148,1.30200004577637,-0.99405002593994,0.73500001430511,-0.07395000010729,-3.27600026130676,11.1730508804321,11.4100503921509,8.46000003814697,-1.14083755016327,-1.38985002040863,-1.59321248531342,1.02698755264282,0.78856247663498,0.4959625005722,-2.44365000724792,-2.62996244430542,-2.85876250267029,-1.72005009651184,-2.34705018997192,-3.36495018005371,-4.78005027770996,-6.26805019378662,-8.16405010223389,7.95705032348633,7.61400032043457,7.7359504699707,-1.64216244220734,-1.3388375043869,-0.57585000991821,0.07975000143051,-0.45223748683929,-0.60238748788834,-3.01303744316101,-2.69169998168945,-1.56461250782013,-4.78995037078857,-8.28194999694824,-12.4780502319336,-10.8280506134033,-14.1090002059937,-16.2070503234863,8.86695003509521,11.3580007553101,14.0179510116577,0.51603752374649,4.26098728179932,5.408287525177,-0.38527500629425,1.13767504692078,0.6044499874115,0.19868749380112,9.46797466278076,15.5244369506836,-20.4799518585205,-33.037052154541,-10.8349504470825,-20.484001159668,-43.0930519104004,-57.376953125,17.7210006713867,17.5489501953125,2.34705018997192,4.60583734512329,2.43595004081726,3.69173741340637,-0.29479998350143,-0.10642500221729,-3.67895007133484,19.284236907959,20.2164878845215,14.98268699646,11.9100008010864,27.3670520782471,34.2739524841309,-66.235954284668,-58.5679512023926,-18.178050994873,-5.30100011825562,-0.83700001239777,5.93505048751831,6.08396244049072,5.68919992446899,1.60269999504089,-5.24232482910156,-2.6669499874115,0.74497497081757,11.3814249038696,8.63898754119873,5.13672494888306,29.9730014801025,26.2939510345459,25.3500003814697,-9.46695041656494,-8.48805046081543,-1.5900000333786,0.81705003976822,-6.18000030517578,1.26495003700256,1.52913749217987,1.37596249580383,0.92688751220703,0.39902499318123,0.78003752231598,1.11842501163483,3.2742874622345,1.5555374622345,0.43821248412132,22.7830505371094,18.1990509033203,13.5499505996704,2.10705018043518,1.92495012283325,0.89700001478195,3.71700024604797,3.29400014877319,3.64305019378662,0.23402500152588,0.13612499833107,0.34691250324249,1.16957497596741,1.06424999237061,0.68433749675751,-0.31418749690056,-0.08332499861717,0.20514999330044,6.39900016784668,5.19405031204224,5.1870002746582,-0.31095001101494,-0.01695000007749,1.29705011844635,6.87195014953613,8.22195053100586,8.54295063018799,0.57254999876022,0.4490749835968,0.15427500009537,0.37564998865128,0.32890000939369,0.26606249809265,0.34127500653267,0.39778751134872,0.5127375125885,5.2350001335144,4.87995004653931,4.65300035476685,2.2630500793457,2.37000012397766,2.04495000839233,7.33605051040649,6.28995037078857,6.27495050430298,SWING_LEFT
-0.49486249685287,-0.1553750038147,-0.44591251015663,0.2404875010252,0.59592497348785,0.64377498626709,-2.96724987030029,-2.91513752937317,-3.12372493743896,-0.51195001602173,0.00195000006352,1.39995002746582,2.90205025672913,3.28500008583069,3.4789502620697,12.0430507659912,8.20995044708252,6.73305034637451,-0.8428750038147,-0.93128746747971,-0.94929999113083,0.50545001029968,0.37784999608994,0.40122500061989,-3.67070007324219,-4.27418756484985,-4.81153726577759,1.62495005130768,1.39995002746582,1.932000041008,2.70300006866455,0.97200006246567,-0.65100002288818,7.50900030136108,7.79595041275024,5.95395040512085,-1.21329998970032,-1.21536254882813,-1.05792498588562,0.13089999556541,-0.37674999237061,-0.32780000567436,-5.49367475509644,-6.10238742828369,-6.33338737487793,2.34105014801025,1.34295010566711,-3.27600026130676,-2.33700013160706,-3.34995007514954,-9.66600036621094,6.46905040740967,8.49495029449463,5.51595020294189,-1.54742503166199,-2.1646625995636,-2.65416240692139,-0.32890000939369,-0.58313751220703,-0.19373749196529,-5.61824989318848,-4.57311248779297,-1.97546243667603,-6.10200023651123,-8.17905044555664,-11.4769506454468,-11.2660503387451,-12.3750009536743,-18.2929515838623,5.02500009536743,6.70605039596558,14.5810508728027,-1.67612504959106,3.45537495613098,5.24865007400513,0.31075000762939,0.46186250448227,1.41006255149841,-0.21518750488758,6.69460010528564,15.2754249572754,-18.6790504455566,-24.4429512023926,-2.19600009918213,-21.9019508361816,-34.8640518188477,-57.3370513916016,21.892951965332,22.9759502410889,4.68705034255981,3.4713249206543,1.65687501430511,4.1397123336792,2.14967489242554,2.24331259727478,-3.17350006103516,18.2082996368408,18.7765865325928,15.0742626190186,14.60205078125,23.5660514831543,28.9669513702393,-61.699951171875,-55.9399528503418,-26.7400512695313,3.80805015563965,7.09695053100586,4.2610502243042,5.49230003356934,3.95449995994568,2.22516250610352,-3.82800006866455,-0.53748750686646,1.40043747425079,12.7797994613647,11.102575302124,7.05333757400513,26.9140510559082,31.0050010681152,30.0690021514893,-20.275951385498,-16.1470508575439,-2.69205021858215,-2.08004999160767,-1.08795011043549,1.86405003070831,2.65306258201599,2.15490007400513,0.64171248674393,-0.45223748683929,-0.7097749710083,0.76518750190735,4.86310005187988,2.52614998817444,0.6542249917984,29.9149513244629,26.0110511779785,18.4140014648438,0.13305000960827,1.21605002880096,1.83405005931854,-0.56100004911423,-1.71300005912781,-0.58995002508163,-0.80987501144409,-0.07452499866486,0.21064999699593,2.07418751716614,0.51823747158051,0.10848750174046,-0.30992498993874,-0.44728749990463,-0.23333749175072,12.7480506896973,7.3279504776001,5.59395027160645,-0.13095000386238,-0.82605004310608,0.22905001044273,4.36905002593994,7.94895029067993,6.00495052337646,-0.51727497577667,-0.33096250891685,-0.10009999573231,0.12870000302792,-0.26386249065399,-0.35653749108315,0.40411248803139,0.47863748669624,0.3753750026226,6.1210503578186,6.97305011749268,6.34605026245117,1.26600003242493,2.33205008506775,2.52405023574829,8.16300010681152,9.08205032348633,8.50995063781738,SWING_LEFT
0.48730000853539,0.35117501020432,0.06063750013709,-0.8289874792099,-0.47038748860359,-0.18947499990463,-3.55052495002747,-3.73889994621277,-3.99643754959106,0.10500000417233,-0.03105000220239,0.43005001544952,2.74200010299683,2.29605007171631,1.59705007076263,8.30895042419434,7.15905046463013,5.68605041503906,-0.75143748521805,-1.05682504177094,-1.57410001754761,0.1095874980092,-0.26606249809265,-1.06095004081726,-4.91260004043579,-5.49051237106323,-6.113112449646,0.77295005321503,0.66000002622604,-1.61400008201599,-0.57900005578995,-2.01195001602173,-5.68800020217896,3.31305027008057,1.69395005702972,1.79700005054474,-3.17350006103516,-3.51725006103516,-3.51725006103516,-1.42601251602173,-0.99935001134872,-0.9811999797821,-5.60120010375977,-4.74347496032715,-3.66643738746643,-6.11400032043457,-8.19600009918213,-9.20595073699951,-11.1220502853394,-12.9229507446289,-14.6839504241943,7.32405042648315,8.95305061340332,12.0280504226685,-2.81599998474121,-1.40373754501343,1.26953744888306,-1.51112496852875,-1.74954998493195,-1.10151255130768,-2.44584989547729,-0.95273751020432,3.41371250152588,-9.39105033874512,-11.9170503616333,-16.7890510559082,-17.6269512176514,-19.605001449585,-25.4400005340576,16.9519500732422,19.3930511474609,18.8989505767822,2.53481245040894,4.06202507019043,5.28055000305176,-0.80561250448227,-1.23763751983643,-1.40579998493195,6.64785003662109,10.5012874603271,14.3261251449585,-17.8399505615234,-13.8619508743286,-3.21600008010864,-30.3810005187988,-38.3200531005859,-50.0650520324707,17.3689498901367,14.157000541687,7.26000022888184,4.12898731231689,3.47874999046326,4.54616260528564,-1.05998754501343,-1.98467493057251,-2.64027500152588,19.2905616760254,18.5722618103027,14.2931251525879,21.9469509124756,39.1960525512695,46.2040519714355,-60.6150016784668,-39.4770011901855,-15.0480003356934,-3.16500020027161,1.53600001335144,2.73105001449585,5.70721244812012,5.42630004882813,3.72569990158081,-2.78712487220764,-1.79849994182587,0.06283749639988,9.08696269989014,6.07639980316162,4.72271251678467,34.2480010986328,23.6710510253906,21.3790512084961,-2.6290500164032,-2.63205003738403,-2.57895016670227,-0.92100006341934,-5.39700031280518,-5.73900032043457,1.86972498893738,0.78429996967316,1.06727504730225,1.53779995441437,1.35574996471405,0.92372500896454,3.72446250915527,2.23987507820129,1.3055624961853,19.2979507446289,16.3090515136719,13.6390504837036,-1.80600011348724,1.36695003509521,3.17700004577637,-2.81505012512207,4.95105028152466,3.97395014762878,0.87573748826981,0.2606999874115,-0.26716250181198,0.59276247024536,0.44054999947548,0.63428747653961,0.64143747091293,0.36904999613762,0.39985001087189,10.6470003128052,8.88195037841797,5.71395015716553,2.71800017356873,2.14800000190735,1.19895005226135,2.76900005340576,4.51995038986206,8.45700073242188,-0.1394249945879,-0.14368750154972,-0.16293749213219,0.23842500150204,-0.25327500700951,-0.38307499885559,0.64143747091293,0.68502497673035,0.56168746948242,6.57600021362305,7.30200052261353,6.88500022888184,1.10295009613037,1.91805005073547,2.46105003356934,7.87995052337646,8.46195030212402,9.42000007629394,SWING_LEFT
-2.31577491760254,-2.32223749160767,-2.76484990119934,1.4473249912262,2.12739992141724,2.64343738555908,-6.08437490463257,-6.04601240158081,-5.84911251068115,1.11495006084442,-0.52905005216599,-2.17200016975403,-3.31695008277893,-4.22895002365112,-5.94900035858154,9.25500011444092,5.97600030899048,5.05395030975342,-2.95322489738464,-2.57757496833801,-2.1157124042511,2.63394999504089,1.95181250572205,0.61613750457764,-5.4287748336792,-4.76148748397827,-3.46747493743896,-5.08695030212402,-6.88995027542114,-3.73395013809204,-6.08100032806396,-5.75505018234253,-7.32105016708374,6.77100038528442,7.74600028991699,8.10795021057129,-2.08697509765625,-2.10182499885559,-2.29130005836487,1.04403746128082,1.35574996471405,1.05572497844696,-3.38236236572266,-3.46953749656677,-3.19825005531311,-2.19600009918213,-3.73605012893677,-6.7300500869751,-9.46695041656494,-13.3399505615234,-16.7310009002686,7.24995040893555,4.92000007629395,4.58700037002563,-2.37544989585876,-1.60806250572205,0.4160749912262,0.45333749055862,-0.20748749375343,-1.23983752727509,-2.51611256599426,-1.19322502613068,1.68121254444122,-10.4569501876831,-18.7309513092041,-29.5330505371094,-20.7019500732422,-25.3729515075684,-30.223051071167,8.00505065917969,14.3970003128052,17.4220504760742,2.73281240463257,4.47919988632202,5.89874982833862,-2.12203741073608,-1.93366253376007,-1.9293999671936,6.28595018386841,11.0185623168945,15.4488124847412,-26.6299514770508,-16.5349502563477,-8.58600044250488,-36.8350524902344,-47.9650535583496,-64.0710067749023,14.8020009994507,9.19695091247559,1.4230500459671,6.54156255722046,4.99633741378784,1.66649997234344,-2.25720000267029,-1.3281124830246,-2.66791248321533,19.4726123809814,20.9763126373291,15.6392498016357,9.83805084228516,27.8290519714355,34.5310516357422,-77.485954284668,-70.6260070800781,-25.8799514770508,-7.70595026016235,-12.6610507965088,1.69605004787445,3.75443744659424,3.32763743400574,3.34785008430481,-5.39976263046265,-1.62497496604919,1.29621243476868,11.9869747161865,8.74747467041016,4.33633756637573,28.8930015563965,32.2770004272461,30.9810009002686,-15.2920503616333,-15.5770511627197,-0.33300000429153,0.29505002498627,1.76805007457733,1.0969500541687,2.8668749332428,0.05953750014305,-0.79186248779297,1.56859993934631,1.77512502670288,1.31216251850128,2.02922487258911,0.20405000448227,0.06888750195503,22.4449520111084,11.1690006256104,9.19800090789795,-0.02400000020862,-1.35105001926422,-2.15295004844666,-3.33495020866394,0.10605000704527,5.6100001335144,-0.63222497701645,-0.10009999573231,-0.1522125005722,0.43422499299049,0.00962499994785,0.73645001649857,0.15399999916553,0.36684998869896,0.26688748598099,7.84800052642822,7.7160005569458,7.46400022506714,-2.38800001144409,-0.87900006771088,0.43800002336502,9.50895023345947,9.70305061340332,8.24400043487549,-0.16719999909401,0.03822499886155,0.09569999575615,0.60128748416901,0.35859999060631,0.35859999060631,0.2072124928236,0.24557499587536,0.28173750638962,6.45105028152466,6.11100006103516,5.97495031356812,0.54105001688004,1.00005006790161,1.1010000705719,9.2160005569458,9.15900039672852,7.86105060577393,SWING_LEFT
-0.78649997711182,-0.79076248407364,-1.01530003547668,0.58533751964569,1.11003744602203,1.30253744125366,-5.93216228485107,-5.8055248260498,-5.87152481079102,4.2810001373291,1.72605013847351,4.20705032348633,0.45900002121925,-0.36600002646446,-0.4279500246048,9.13005065917969,6.06900024414063,4.36905002593994,-1.46011245250702,-1.95923745632172,-2.79675006866455,1.34406244754791,1.4441624879837,1.49847495555878,-6.47803735733032,-6.78878736495972,-6.35566234588623,2.65305018424988,-0.94800007343292,-3.77895021438599,-2.51700019836426,-4.74705028533936,-8.1739501953125,3.54300022125244,3.93300008773804,2.35500001907349,-3.18518757820129,-3.43103742599487,-3.99079990386963,1.06315004825592,0.70771247148514,0.66934996843338,-6.05247497558594,-5.53520011901855,-4.91686248779297,-4.47405004501343,-4.64895009994507,-4.50705003738403,-10.5640506744385,-13.7449502944946,-17.826000213623,3.83205008506775,2.85795021057129,3.15900015830994,-3.70246243476868,-1.68684995174408,0.95026248693466,0.43532499670982,-0.3980624973774,-1.76440000534058,-3.40683746337891,-1.96157503128052,0.82981246709824,-10.3150501251221,-18.0630016326904,-26.6179504394531,-25.1449508666992,-27.9900016784668,-30.5359516143799,12.1000509262085,15.2040004730225,13.1040010452271,2.86151242256165,3.84174990653992,4.28972482681274,-2.71686244010925,-2.90427494049072,-2.47637510299683,5.07705020904541,9.67119979858398,13.285249710083,-27.2029514312744,-16.3219509124756,-4.43805027008057,-34.7200508117676,-40.8760528564453,-48.8890533447266,8.95500087738037,5.14500045776367,2.62995004653931,4.13118743896484,3.36393737792969,2.69348740577698,-1.39411246776581,-1.75807499885559,-2.51473736763,18.4370994567871,19.2916622161865,18.2157249450684,13.8259506225586,22.7329502105713,25.4269504547119,-65.3119506835938,-61.9969520568848,-50.0320510864258,-3.72000026702881,-4.19700002670288,-2.76705002784729,3.1275749206543,4.24297475814819,4.39298725128174,-4.21313762664795,-4.94862508773804,-3.4288375377655,16.2108383178711,13.1980752944946,10.2257375717163,31.1770515441895,33.3160514831543,29.60205078125,-33.0100517272949,-17.685001373291,-12.4009504318237,-0.19995000958443,0.76005005836487,0.65895003080368,3.45221257209778,2.71370005607605,2.51033759117126,-0.69382500648499,0.77893751859665,0.3075875043869,8.11428737640381,6.26573753356934,4.54066228866577,27.8389511108398,26.6700019836426,24.2200508117676,-8.99805068969727,-5.79105043411255,-2.9239501953125,1.42095005512238,1.01595008373261,-0.49395000934601,2.04325008392334,0.29039999842644,0.08717499673367,-0.09679999947548,1.3611124753952,1.05888748168945,2.99543738365173,1.23529994487762,0.90117502212524,20.484001159668,13.5000009536743,12.1110010147095,-1.14705002307892,-1.14495003223419,-0.49305000901222,-0.24105000495911,3.17100024223328,5.43495035171509,0.19786250591278,0.16060000658035,-0.11604999750853,0.70454996824265,0.75019997358322,0.71939998865128,0.57337498664856,0.25093749165535,0.1402499973774,10.9300508499146,9.17895030975342,8.04195022583008,0.55995005369186,0.49995002150536,-0.17895001173019,6.27495050430298,5.55900049209595,5.57400035858154,SWING_LEFT
-1.61768746376038,-1.38242495059967,-1.70500004291534,0.40974998474121,1.01103746891022,1.52075004577637,-4.73068761825562,-4.91796255111694,-5.23407506942749,2.47095012664795,3.18900012969971,2.83200001716614,0.61500000953674,-0.74700003862381,-2.95305013656616,10.6219501495361,7.69800043106079,4.84305000305176,-2.29666256904602,-2.35193753242493,-1.95071244239807,1.70169997215271,1.65701246261597,1.33237504959106,-5.46287488937378,-5.73210000991821,-6.25460004806519,1.91295003890991,1.57695007324219,1.46700012683868,-4.23900032043457,-5.20905017852783,-8.11605072021484,5.64495038986206,6.82905054092407,4.81005001068115,-2.00722503662109,-2.70641255378723,-2.95212507247925,0.76835000514984,-0.06806249916553,-1.23983752727509,-6.75056266784668,-6.67713737487793,-5.49903726577759,-0.34500002861023,-3.82500028610229,-9.37395000457764,-12.3199510574341,-15.7950010299683,-16.5250511169434,1.32495009899139,3.55200028419495,9.35100078582764,-2.65636253356934,-2.0092875957489,-0.68860000371933,-1.87302494049072,-1.42601251602173,-0.31281250715256,-3.43653750419617,-1.44649994373322,0.72228747606277,-11.0550003051758,-12.8179502487183,-15.28005027771,-16.0729503631592,-18.6949501037598,-21.1960506439209,14.0929508209229,18.8370018005371,21.7420501708984,3.2297375202179,5.31134986877441,6.62667512893677,0.46186250448227,0.32353749871254,-0.05321250110865,6.11146259307861,10.415075302124,16.1001491546631,-18.9180011749268,-21.9049510955811,-8.47800064086914,-35.2690505981445,-47.9580039978027,-64.7749557495117,18.9430503845215,14.3320503234863,2.90100002288818,6.09565019607544,3.70658755302429,0.62562501430511,0.09363749623299,1.52294993400574,2.88612508773804,20.9028873443604,21.4062747955322,16.3682746887207,23.0850009918213,50.7810020446777,50.9119529724121,-78.1680068969727,-60.2610015869141,-20.1660003662109,-3.72495007514954,-3.63195013999939,4.30695009231567,0.15427500009537,2.85945010185242,4.3738751411438,0.94393748044968,-2.25720000267029,-2.56574988365173,10.0670623779297,6.65637493133545,5.17068767547607,32.9020500183105,20.4670505523682,16.5529499053955,-1.70505011081696,-0.37095001339912,-3.62805008888245,16.5400505065918,13.9080009460449,4.28505039215088,3.47985005378723,1.82819998264313,0.87037497758865,-1.02478754520416,0.37454998493195,1.35368752479553,4.53970003128052,4.67266225814819,4.60666227340698,13.3009510040283,13.3750505447388,16.3740005493164,-5.90100049972534,-4.8070502281189,-0.30195000767708,0.0409500002861,2.62995004653931,7.22100019454956,0.948062479496,1.39081251621246,1.45254993438721,1.65275001525879,0.41717499494553,-1.0205249786377,3.74467492103577,2.69637489318848,1.95786249637604,16.8940505981445,14.9220008850098,13.1929502487183,2.84505009651184,2.32005000114441,2.13600015640259,6.72600030899048,3.92100024223328,3.61005020141602,0.88646250963211,0.02227500081062,-0.51727497577667,-0.71829998493195,0.67787498235703,1.11952495574951,1.44595003128052,1.11814999580383,1.07456254959106,11.2840509414673,8.88000011444092,7.62195014953613,2.29395008087158,1.97505009174347,1.20900011062622,5.050950050354,5.62095022201538,7.24305057525635,SWING_LEFT
-0.99082499742508,-2.84047508239746,-3.28638744354248,0.25863748788834,1.76453745365143,2.4817373752594,-4.46778726577759,-5.77362489700317,-6.18117475509644,3.37605023384094,2.45595002174377,-0.2710500061512,3.7020001411438,-2.32095003128052,-5.35005044937134,6.16995048522949,4.92705011367798,4.98000001907349,-3.29491257667542,-3.62367486953735,-4.00152492523193,2.52642488479614,1.87508749961853,1.3611124753952,-6.21211242675781,-6.31001234054565,-6.23328733444214,-0.90300005674362,-2.30595016479492,-5.25900030136108,-7.72800016403198,-10.7220001220703,-13.2010507583618,2.5489501953125,2.33295011520386,5.28600025177002,-3.87378740310669,-3.42897486686707,-2.73294997215271,1.17589998245239,0.81413751840591,-0.02337500080466,-5.70020008087158,-4.85938739776611,-3.83680009841919,-8.23905086517334,-10.5619506835938,-13.3519506454468,-15.0570011138916,-17.2510509490967,-19.7920513153076,7.25205039978027,8.0910005569458,10.5499505996704,-1.57616245746613,-0.22990000247955,1.45474994182587,-1.15252494812012,-1.97628748416901,-2.12630009651184,-2.16383743286133,0.5489000082016,3.82016253471375,-18.1570510864258,-21.7969512939453,-20.9970016479492,-22.7479515075684,-26.392951965332,-30.808952331543,13.3309507369995,16.4370002746582,20.8110008239746,3.98860001564026,6.53949975967407,8.17300033569336,-2.04008746147156,-2.2954249382019,-1.33663749694824,7.27883768081665,10.9599876403809,16.7950744628906,-17.8399505615234,-7.90095043182373,16.3639507293701,-35.4559516906738,-41.8810501098633,-61.1230545043945,18.9829502105713,10.488000869751,0.14595000445843,7.29616260528564,5.99032497406006,5.53905010223389,0.15001249313354,1.20573747158051,0.67044997215271,17.7720127105713,16.2672119140625,13.5950374603271,28.2220516204834,32.1910514831543,26.3040008544922,-57.4660530090332,-40.5469512939453,-28.582052230835,-0.03195000067353,2.34000015258789,3.21900010108948,6.24249982833862,5.60724973678589,4.84838724136353,-1.56227493286133,-0.17132499814034,1.13231253623962,10.7758750915527,9.41476249694824,7.0576000213623,25.3720512390137,31.8000011444092,34.4160003662109,-21.1240501403809,-13.5120010375977,-4.4040002822876,-1.48095011711121,-1.2150000333786,-2.932950258255,2.54127502441406,1.07153749465942,0.32656249403954,2.24867486953735,2.58706259727478,2.03376245498657,2.26655006408691,1.4470499753952,1.02244997024536,21.609001159668,16.3210506439209,14.9749507904053,-2.47395014762878,-2.23395013809204,-1.60395002365112,-4.12305021286011,-0.6360000371933,4.74300003051758,0.9981124997139,0.84810000658035,0.16802500188351,0.33742499351501,0.47354999184608,0.80245000123978,0.22646249830723,0.04551250115037,-0.05142499879003,12.1249504089355,10.6069507598877,9.55005073547363,-0.22005000710487,0.16695000231266,0.7540500164032,5.87100028991699,3.48495006561279,4.15305042266846,-0.18424999713898,0.00632499996573,-0.11178749799728,0.71307498216629,0.40012499690056,0.33316248655319,-0.14822499454021,-0.31955000758171,-0.26413750648499,8.64300060272217,6.63795042037964,5.67300033569336,1.53405010700226,1.70505011081696,1.36905002593994,6.66105031967163,6.4549503326416,6.37095022201538,SWING_LEFT
-1.02808749675751,-0.68117499351501,-0.68337500095367,1.12804996967316,0.93967497348785,0.72049999237061,-5.19145011901855,-5.52351236343384,-5.57988739013672,1.99200010299683,0.03495000302792,-3.65700006484985,0.91200006008148,-1.8270001411438,-4.09500026702881,9.47294998168945,7.85100030899048,5.10900020599365,-1.20793747901917,-1.94012498855591,-2.3541374206543,0.34485000371933,0.07342500239611,0.01911249943078,-5.2181248664856,-4.52209997177124,-3.82717490196228,-6.40200042724609,-7.13895034790039,-7.88400030136108,-5.42400026321411,-6.65100049972534,-7.63500022888184,4.23000001907349,6.10305023193359,8.59800052642822,-2.36472487449646,-2.12423753738403,-1.6134250164032,-0.06489999592304,-0.22990000247955,0.04688749834895,-3.13334989547729,-2.35111260414124,-1.6689749956131,-7.83900022506714,-7.41195058822632,-7.40805053710938,-9.68295001983643,-11.2870502471924,-12.9180002212524,10.371000289917,12.4999504089355,13.8199510574341,-0.81853747367859,0.11481250077486,1.15664994716644,0.57254999876022,0.26179999113083,-0.84603750705719,-1.13478744029999,-0.28228750824928,2.00997495651245,-8.83995056152344,-15.4000511169434,-27.0439510345459,-16.7170505523682,-22.6420516967773,-27.6100521087646,12.7320003509521,11.8200006484985,13.9870510101318,2.40927505493164,3.30316257476807,3.17652487754822,-1.83576250076294,-1.53670001029968,-0.10106249898672,6.3402624130249,11.7379627227783,16.9344997406006,-30.7230014801025,-23.6220016479492,-4.68705034255981,-34.85205078125,-47.9100036621094,-63.4170036315918,14.19105052948,11.4889507293701,7.99305057525635,2.30711245536804,1.81967496871948,3.10846257209778,1.34516251087189,1.63680005073547,-1.46121251583099,20.2068614959717,20.1154251098633,17.4453125,18.9799499511719,31.0360507965088,28.3320007324219,-72.9570007324219,-63.8850021362305,-42.9880523681641,8.68905067443848,8.76405048370361,2.98200011253357,5.64025020599365,6.83526229858398,5.34544992446899,-6.095787525177,-6.48202514648438,-2.73281240463257,14.4420375823975,12.0518751144409,10.4460124969482,24.4309520721436,23.8339519500732,29.2300510406494,-28.7140522003174,-22.5180015563965,-20.1970500946045,-1.51200008392334,-4.42200040817261,-4.09395027160645,3.34152507781982,2.88282489776611,3.0222499370575,0.45649999380112,1.63996243476868,1.47606253623962,8.62936210632324,6.0645751953125,3.63618755340576,33.2639999389648,30.564001083374,24.9889507293701,-11.1730508804321,-3.52995014190674,-3.3550500869751,1.97400009632111,3.92295026779175,-0.12600000202656,2.0017249584198,1.41638743877411,1.12695002555847,-0.5352874994278,-0.07232499867678,0.81413751840591,1.25661253929138,0.52016252279282,-0.19497500360012,17.9160003662109,16.7020511627197,13.9549503326416,-3.38595008850098,-1.38900005817413,-0.51495003700256,2.24205017089844,5.37000036239624,5.77695035934448,0.76298749446869,0.54367500543594,0.26482498645782,1.34736251831055,1.18868744373322,1.09615004062653,-0.79956251382828,-0.84741246700287,-0.66439998149872,8.89905071258545,6.43695020675659,4.2480001449585,0.30300000309944,0.31500002741814,0.76800000667572,4.55595016479492,4.59900045394897,4.76595020294189,SWING_LEFT
-2.65100002288818,-2.26049995422363,-2.17538738250732,1.90286254882813,1.5888124704361,1.68148744106293,-5.8183126449585,-6.58446264266968,-6.70587491989136,0.41100001335144,-0.23505000770092,-4.08795022964478,0.29100000858307,-5.32605028152466,-5.83395004272461,7.03005027770996,6.97695016860962,7.60695028305054,-1.93379998207092,-1.52294993400574,-0.99192500114441,1.85913753509521,1.76123750209808,1.20257496833801,-6.4791374206543,-6.10142517089844,-5.4808874130249,-5.44395017623901,-6.6340503692627,-7.05105018615723,-7.0339503288269,-8.53605079650879,-9.59400081634522,7.83000040054321,7.22895050048828,6.36600017547607,-0.40342500805855,-0.26620000600815,-1.02712500095367,0.07768750190735,-1.16104996204376,-1.41968750953674,-4.71157503128052,-3.91118741035461,-3.17061257362366,-6.838050365448,-6.33495044708252,-6.81105041503906,-11.2369508743286,-12.9690008163452,-16.3740005493164,4.84305000305176,2.56095004081726,4.49295043945313,-1.67199993133545,-0.93554997444153,0.58313751220703,-0.33522498607635,0.04784999787807,-1.79960000514984,-2.37765002250671,-1.02189993858337,2.17813754081726,-10.0350008010864,-20.4220504760742,-28.7500514984131,-20.8939514160156,-24.8190002441406,-29.1210021972656,10.2610502243042,11.1709508895874,10.5430507659912,1.90478754043579,2.54333758354187,2.76677489280701,-3.32131242752075,-2.35826253890991,-0.88866251707077,7.00108766555786,11.5431251525879,14.6400375366211,-23.8300514221191,-10.8900003433228,2.96895003318787,-34.8469505310059,-41.4120025634766,-47.6680526733398,10.6410007476807,8.96505069732666,5.00805044174194,2.89451241493225,2.92641258239746,3.15094995498657,-0.5682874917984,-1.25674998760223,-3.17129993438721,16.155424118042,16.1798992156982,15.5009250640869,13.2960004806519,16.7880001068115,15.8419504165649,-50.5830039978027,-47.601001739502,-41.0170516967773,1.2720000743866,-1.36095011234283,-1.29000008106232,3.98007488250732,4.95384979248047,5.15913724899292,-5.0422625541687,-5.40402507781982,-4.70909976959229,14.7049369812012,12.9926500320435,10.8876628875732,20.5150508880615,24.7830009460449,24.1150512695313,-31.7550010681152,-21.3900012969971,-15.8190011978149,1.02495002746582,-0.22395001351833,-0.39405003190041,4.72394990921021,3.04356241226196,2.77103757858276,-2.86591243743896,0.43532499670982,-0.3980624973774,9.22212505340576,6.0454626083374,4.57366228103638,24.6889514923096,23.5279502868652,23.1349506378174,-12.8389501571655,-5.01705026626587,-2.94600009918213,0.5059500336647,-0.03495000302792,-0.55695003271103,2.39332509040833,1.43439996242523,0.12333749979734,-1.03331243991852,-0.23086249828339,1.31532502174377,3.08275008201599,1.68437504768372,0.55206251144409,22.2109508514404,20.4790515899658,15.1050004959106,-0.82095003128052,-1.15905010700226,-1.39800012111664,-0.62895005941391,-0.01095000095665,2.07195019721985,-0.71953749656677,-0.61943751573563,-0.02983750030398,2.20934987068176,1.98481249809265,1.16324996948242,0.06036249920726,-0.00453749997541,0.02309999987483,11.0830507278442,9.50700092315674,8.79795074462891,-1.54695010185242,-1.35300004482269,-0.99105006456375,5.16195011138916,7.18995046615601,6.47595024108887,SWING_LEFT
-1.6825875043869,-1.85501253604889,-1.91468751430511,-2.02729988098145,-0.49266248941422,1.18442499637604,-5.14676237106323,-5.15845012664795,-5.13727474212646,3.04800009727478,2.6140501499176,0.76605004072189,1.56795012950897,-1.21395003795624,-1.80795013904572,8.17500019073486,12.562050819397,10.2870006561279,-2.08381247520447,-2.66598749160767,-3.18106245994568,2.43168759346008,1.57190001010895,0.87051248550415,-5.13301229476929,-4.81043767929077,-4.89568758010864,-1.9690500497818,-1.32195007801056,-0.42105001211166,-1.94895005226135,-7.38600015640259,-10.8349504470825,7.97595024108887,3.34095025062561,7.0489501953125,-3.24802494049072,-1.30487501621246,0.49362498521805,1.5303750038147,0.77687501907349,-0.77151250839233,-5.23833751678467,-4.06986236572266,-1.30707502365112,-1.67400002479553,-19.0519504547119,-21.7470016479492,-13.5559511184692,-19.5649509429932,-19.9140014648438,8.52195072174072,14.3850002288818,14.1840009689331,1.85047495365143,2.69651246070862,2.81049990653992,-1.55911254882813,-1.42821252346039,-1.05668747425079,1.73016250133514,4.4928126335144,6.95323753356934,-19.4929504394531,-14.2050008773804,-10.6099500656128,-21.9000015258789,-24.1420516967773,-26.6560516357422,13.3860006332397,9.19200038909912,4.85295009613037,2.33268737792969,1.69193744659424,1.14716243743896,-0.79818749427795,-0.64707499742508,-0.57997500896454,9.50730037689209,12.3626251220703,15.0167875289917,-8.61705017089844,-4.60305023193359,4.89705038070679,-31.408052444458,-37.4119529724121,-43.8310508728027,3.77700018882751,4.53194999694824,7.71495056152344,1.11086249351501,2.02936244010925,3.79692506790161,-0.28833749890327,0.38101249933243,-1.51112496852875,16.4683742523193,13.8694877624512,10.8961877822876,16.9099502563477,30.6979522705078,27.4819507598877,-46.7119522094727,-25.746000289917,-13.1820001602173,10.6249504089355,12.6409502029419,9.89400005340576,5.54221248626709,3.69586253166199,1.25454998016357,-3.32983756065369,-0.88013750314713,1.94438743591309,6.44875001907349,5.61549997329712,5.09409999847412,21.2310009002686,19.0870513916016,20.5050010681152,-4.42799997329712,-4.38495016098022,-1.59495007991791,-2.10600018501282,-3.29205012321472,0.1489500105381,-0.13736249506474,0.11481250077486,0.65009999275208,2.86054992675781,1.45048749446869,-0.81510001420975,4.08526229858398,2.53041243553162,0.58286249637604,22.267951965332,19.231050491333,10.1470508575439,2.06595015525818,3.24900007247925,1.54200005531311,5.06100034713745,7.10205030441284,3.50400018692017,-0.27252501249313,-0.78127497434616,0.21807499229908,-0.32133749127388,0.23526249825954,0.05637500062585,0.44453749060631,0.52332502603531,0.4476999938488,8.01300048828125,7.23705053329468,5.56005048751831,0.97200006246567,1.40295004844666,1.90995013713837,5.94000005722046,10.0690507888794,8.85195064544678,0.35846251249313,0.20308749377728,0.12443749606609,-0.19373749196529,-0.22879999876022,-0.21285000443459,0.44990000128746,0.64679998159409,0.8318749666214,4.05105018615723,3.59400010108948,4.53299999237061,1.8840000629425,2.30805015563965,3.08595013618469,7.60005044937134,8.04795074462891,8.76405048370361,SWING_LEFT
0.33192500472069,-0.0969374999404,-0.28325000405312,-0.74277502298355,-0.17132499814034,-0.03616249933839,-1.69551253318787,-1.76687502861023,-1.87109994888306,1.3950001001358,0.87795001268387,1.96995007991791,4.78005027770996,5.20095014572144,5.28000020980835,9.4819507598877,9.69795036315918,9.94395065307617,-0.76216250658035,-0.7099124789238,-0.78869998455048,1.10467493534088,1.33347499370575,1.41748750209808,-2.32237505912781,-2.08395004272461,-2.20206260681152,-1.34100008010864,-0.29895001649857,1.19895005226135,3.3139500617981,3.25395011901855,1.9939501285553,10.0380001068115,9.26205062866211,8.26800060272217,-1.8379625082016,-2.0103874206543,-1.91042494773865,2.68716239929199,2.99571251869202,2.50511240959167,-2.80761241912842,-2.94277501106262,-3.05882501602173,-2.79000020027161,-5.05605030059814,-4.44495010375977,-0.73695003986359,-4.42605018615723,-6.51405048370361,8.71305084228516,7.04400014877319,6.5440502166748,-1.56983745098114,-1.48252499103546,-1.2696750164032,1.64738750457764,0.78759998083115,-0.37674999237061,-3.97292494773865,-2.89066243171692,0.33605000376701,-11.4220504760742,-22.5660018920898,-30.9169521331787,-17.3110504150391,-22.40505027771,-25.2580509185791,4.66605043411255,5.92605018615723,10.021050453186,-0.40452501177788,2.48160004615784,3.45427489280701,-1.44512498378754,-2.77117490768433,-3.69379997253418,4.88331270217896,13.1745624542236,16.5725994110107,-28.5049514770508,-8.05695056915283,4.30305004119873,-29.9899520874023,-45.1240539550781,-53.7150039672851,12.6199502944946,5.39400005340576,1.9690500497818,4.21630001068115,4.8984375,3.72666239738464,-2.4094123840332,-2.6669499874115,-1.7271374464035,17.5346870422363,8.92732524871826,5.73581266403198,38.6719512939453,35.5480499267578,28.5499515533447,-38.2890014648438,2.78895020484924,1.1539500951767,3.03705024719238,-3.9340500831604,-7.60005044937134,-0.03203750029206,0.24777500331402,0.53941249847412,2.55309987068176,2.34767508506775,1.80069994926453,2.47499990463257,1.56942498683929,1.39493751525879,20.0209503173828,13.4809503555298,9.925950050354,1.44300007820129,-0.12405000627041,0.10695000737906,5.75805044174194,7.26000022888184,6.76905012130737,0.5351499915123,0.56924998760223,0.49472498893738,0.6374499797821,0.25217500329018,0.40012499690056,1.38531243801117,1.24052500724792,0.9979749917984,8.11800003051758,8.27205085754395,8.11305046081543,1.09605002403259,1.91295003890991,2.84895014762878,8.25104999542236,9.19200038909912,8.92695045471191,0.24255000054836,0.13392500579357,0.21477499604225,0.85140001773834,0.51081252098083,0.03409999981523,0.70853751897812,0.5850625038147,0.61063748598099,6.94005012512207,5.52195024490356,5.81700038909912,3.02205014228821,2.81805014610291,3.07005023956299,8.27295017242432,7.5930004119873,7.76505041122437,0.15317499637604,0.00412499997765,0.15633749961853,-0.03616249933839,0.18727499246597,0.12031249701977,0.56484997272491,0.44027498364449,0.45732501149178,5.84100008010864,5.20395040512085,5.16795015335083,3.16995024681091,2.59500002861023,2.70795011520386,7.79100036621094,9.07500076293945,9.43005084991455,SWING_LEFT
-0.37894999980927,-0.06613750010729,0.15743750333786,0.22879999876022,0.54065001010895,1.10467493534088,-1.54123747348785,-2.15737509727478,-2.60864996910095,6.33195018768311,4.97400045394897,5.58900022506714,4.86105012893677,4.48995018005371,4.39695024490356,12.3709506988525,11.6160001754761,10.6990509033203,0.0945999994874,-0.23430000245571,-0.71211248636246,2.34341239929199,3.95243740081787,4.68146228790283,-3.35362505912781,-4.60405015945435,-5.84278726577759,7.53105020523071,6.93705034255981,3.88395023345947,4.77000045776367,3.14595007896423,-0.88800007104874,9.03705024719238,5.1259503364563,0.06495000422001,-1.51882493495941,-2.62129998207092,-2.54045009613037,4.16858768463135,3.48108744621277,3.15218758583069,-6.67493724822998,-6.63135004043579,-5.87262487411499,-0.09795000404119,-10.4350509643555,-11.2279500961304,-5.57100009918213,-12.5230503082275,-14.7940511703491,-1.63905012607574,2.46705007553101,1.58100008964539,-2.30738759040833,-1.13987493515015,-0.52263748645782,2.07418751716614,-1.55911254882813,-3.15645003318787,-5.22981262207031,-1.60930001735687,2.37283754348755,-12.6289510726929,-28.9699516296387,-27.5880012512207,-18.4890003204346,-25.2940521240234,-27.0780010223389,2.05305004119873,5.31705045700073,7.82505035400391,0.24777500331402,1.19075000286102,2.49755001068115,-3.77684998512268,-3.59699988365173,-3.85879993438721,6.29241228103638,9.48282527923584,16.1181621551514,-18.5329513549805,-13.0480508804321,4.53495025634766,-29.6550006866455,-35.1109504699707,-52.1970024108887,9.47294998168945,8.44799995422363,1.6840500831604,2.48902487754822,2.19106245040894,5.37308740615845,-3.9811749458313,-2.95102500915527,-2.46248745918274,17.8411750793457,17.438850402832,10.6364498138428,17.0179500579834,29.8390522003174,28.5169506072998,-52.2400512695313,-40.3510513305664,-8.30805015563965,0.89400005340576,8.27505016326904,2.00999999046326,5.26872491836548,2.8998749256134,1.31092500686646,-2.2954249382019,-0.06489999592304,1.39205002784729,8.45377540588379,7.71196222305298,5.9933500289917,21.6480007171631,21.6619510650635,23.4199504852295,-9.81495094299316,-9.421950340271,-2.21805000305176,-5.65605020523071,-2.49900007247925,11.2309503555298,2.93287491798401,3.21378755569458,1.70898747444153,-0.42253750562668,-0.8428750038147,0.68433749675751,4.2777624130249,2.35056257247925,1.05324995517731,23.8750514984131,19.420051574707,15.4129505157471,2.02500009536743,2.69100022315979,2.68905019760132,6.84795045852661,1.20000004768372,0.24705001711845,0.04564999789,-0.23319999873638,-0.01498750038445,2.15393757820129,1.10467493534088,0.16499999165535,0.28916248679161,-0.03217500075698,0.14973749220371,11.0380506515503,5.70900011062622,4.35105037689209,2.52405023574829,1.25895011425018,1.17000007629395,3.13305020332336,6.90000009536743,6.44100046157837,-0.45237499475479,-0.53432500362396,-0.38005000352859,-0.1883749961853,-0.21807499229908,-0.27348750829697,0.71802496910095,0.81908750534058,0.81496250629425,4.62900018692017,5.42100048065186,6.06795024871826,2.0419499874115,2.22405004501343,2.33205008506775,7.72200059890747,9.04395008087158,9.8299503326416,SWING_LEFT
-1.28149998188019,-1.63789999485016,-1.91042494773865,0.12127500027418,-0.71197497844696,-0.856625020504,-3.98571252822876,-4.65409994125366,-4.99358749389648,3.08400011062622,2.89905023574829,1.49805009365082,6.59505033493042,4.4800500869751,2.63895010948181,5.22900009155273,5.7679500579834,5.34405040740967,-2.44997501373291,-4.0728874206543,-4.69754981994629,-0.89705002307892,-0.08621250092983,0.47685000300407,-5.21592473983765,-5.61824989318848,-5.80442476272583,0.84495002031326,0.19605000317097,-0.15795001387596,0.70305001735687,-3.56805014610291,-5.92995023727417,4.95600032806396,5.20005035400391,6.23205041885376,-4.83271265029907,-4.38253736495972,-3.7311999797821,0.64913749694824,0.62576252222061,0.43848749995232,-5.93326234817505,-5.83852481842041,-5.29471254348755,-0.73800003528595,-3.10905003547669,-5.64705038070679,-8.42505073547363,-10.5859508514404,-11.497950553894,8.35395050048828,9.92100048065186,8.84505081176758,-3.57156252861023,-3.71841239929199,-3.25655007362366,0.26606249809265,0.90241247415543,1.55168747901917,-4.40605020523071,-3.47806239128113,-2.61717510223389,-7.06305027008057,-7.4170503616333,-13.3230009078979,-13.7899503707886,-17.5170001983643,-21.526050567627,8.43600082397461,10.771050453186,13.6470003128052,-1.91674995422363,2.10374999046326,3.62353754043579,1.23763751983643,-1.96776247024536,-2.4285249710083,-0.55577498674393,8.99016284942627,13.3150873184204,-26.4169521331787,-21.082950592041,-7.76895046234131,-26.3160018920898,-38.5309524536133,-48.0060005187988,16.2430515289307,11.9010009765625,8.9170503616333,4.49831247329712,3.91077494621277,3.50748753547669,-0.3799124956131,-0.0787874981761,-1.39094996452332,18.6850128173828,18.9712867736816,17.193000793457,19.5090007781982,28.3780517578125,39.3709526062012,-63.3289527893066,-56.5410041809082,-31.6759510040283,2.29695010185242,-0.42300000786781,1.25505006313324,6.15848731994629,5.21867513656616,2.62418746948242,-6.40117502212524,-3.64704990386963,0.77371251583099,9.06468772888184,6.76706266403198,5.1015248298645,29.6260509490967,26.9890518188477,24.7590007781982,-4.76100015640259,-3.49200010299683,-2.46405005455017,-2.34795022010803,-4.08704996109009,-0.4420500099659,1.3142249584198,1.89419996738434,1.22897493839264,2.49452495574951,0.97913748025894,0.89402496814728,3.88836240768433,1.07249999046326,0.13598750531673,23.6670017242432,17.7250499725342,12.6180009841919,0.04200000315905,4.64805030822754,2.46405005455017,4.20600032806396,0.79095005989075,-0.22395001351833,0.20845000445843,-0.42363750934601,-0.79722499847412,0.98009997606277,1.00993752479553,0.98546248674393,-0.11206249892712,-0.21422499418259,-0.22701250016689,10.1059503555298,8.7480001449585,6.22905015945435,2.18805003166199,2.6340000629425,1.08705008029938,2.1889500617981,5.1259503364563,6.48405027389526,-0.72380000352859,-0.47478750348091,-0.1214125007391,0.56086248159409,0.10216250270605,-0.32449999451637,0.07424999773502,0.38926249742508,0.49348750710487,5.43795013427734,5.46000003814697,6.40305042266846,1.19205009937286,2.85195016860962,3.8620502948761,7.57605028152466,8.30205059051514,8.70900058746338,SWING_LEFT
-1.19624996185303,-0.81633746623993,-0.84191250801086,0.69602501392365,1.06108748912811,1.36001253128052,-3.05662488937378,-3.36847496032715,-3.56853747367859,4.19805002212524,3.38595008850098,2.6290500164032,3.50100016593933,2.50905013084412,1.41000008583069,12.6600008010864,10.7280006408691,8.37795066833496,-1.17287504673004,-1.41872501373291,-1.71558749675751,1.54096245765686,1.70169997215271,1.91234993934631,-3.79733753204346,-4.15277481079102,-4.67541265487671,2.06400012969971,2.07600021362305,1.42395007610321,0.61500000953674,-0.50700002908707,-2.5860002040863,7.94700050354004,7.06095027923584,5.13300037384033,-2.21044993400574,-2.84047508239746,-3.50460004806519,2.25609993934631,2.24235010147095,0.44165000319481,-5.15955018997192,-5.41172504425049,-4.93295001983643,-0.19605000317097,-2.47605013847351,-5.07300043106079,-5.31900024414063,-9.15405082702637,-13.9459505081177,2.68800020217896,1.21695005893707,6.86205053329468,-3.06831240653992,-2.29570007324219,-1.23887503147125,0.05431250110269,-0.34264999628067,-0.9620875120163,-4.70511245727539,-4.04635000228882,-2.03500008583069,-6.96000051498413,-13.9270505905151,-19.795051574707,-16.9660511016846,-19.9380016326904,-21.4729518890381,8.778000831604,11.0100002288818,12.8569507598877,1.70472502708435,3.80008745193481,5.5560998916626,-2.20825004577637,-2.68496251106262,-3.01702499389648,4.67266225814819,9.59997463226318,14.379337310791,-27.856050491333,-22.8600006103516,-7.24005031585693,-32.3350524902344,-43.0000534057617,-56.4790534973145,16.1809501647949,13.16100025177,5.14500045776367,5.29209995269775,4.09708738327026,4.51632499694824,-2.14004993438721,-1.89103746414185,-2.94249987602234,19.2086124420166,18.2040367126465,14.2334499359131,21.2910003662109,36.492000579834,36.5299530029297,-65.1750030517578,-42.2449531555176,-14.9490003585815,-4.27905035018921,0.02205000072718,1.02300000190735,5.23682498931885,4.3471999168396,2.3868625164032,-3.63852500915527,-2.3764123916626,0.21821250021458,10.1278371810913,7.70879983901978,4.67692518234253,28.2600021362305,25.1950511932373,20.3350505828857,-8.43000030517578,-8.30595016479492,-4.20105028152466,-3.60795021057129,-3.89100027084351,4.52205038070679,2.45492506027222,2.52408742904663,2.31027507781982,0.42789998650551,0.82802498340607,1.33031249046326,3.69352507591248,2.78684997558594,1.68327498435974,19.3050003051758,19.2600002288818,16.5869998931885,-3.06795024871826,-0.73305004835129,1.14900004863739,5.26005029678345,4.75200033187866,3.19095015525818,1.75683748722076,0.99591249227524,0.27335000038147,1.4803249835968,1.20573747158051,1.01530003547668,0.79035001993179,0.31679999828339,0.02529999986291,13.1599502563477,10.9039506912231,9.14805030822754,1.05105006694794,1.47495007514954,2.08095002174377,1.70100009441376,2.52705001831055,4.45500040054321,-0.28435000777245,-0.57378751039505,-0.45993748307228,1.11526250839233,1.06315004825592,0.57254999876022,-0.17379999160767,-0.14396250247955,0.04441250115633,6.81105041503906,5.20800018310547,5.00700044631958,2.08095002174377,1.59195005893707,1.48200011253357,5.99700021743774,7.51605033874512,8.91000080108643,SWING_LEFT
-0.65463751554489,-0.41194999217987,0.2255000025034,-0.57887500524521,-0.04675000160933,-0.28201249241829,-3.32695007324219,-3.48342490196228,-4.5667872428894,5.1340503692627,5.68305015563965,4.81095027923584,4.12305021286011,5.44995021820068,5.59200048446655,12.5860509872437,12.0739507675171,7.69995021820068,0.14354999363422,-1.3527250289917,-2.0711624622345,-0.78113746643066,0.10106249898672,1.22498750686646,-4.97433757781982,-5.06384992599487,-5.26597499847412,2.29095005989075,0.82500004768372,-0.29700002074242,3.79995012283325,1.83900010585785,0.95505005121231,6.43095016479492,6.35700035095215,6.22005033493042,-2.44254994392395,-3.27579998970032,-3.38758754730225,2.07308745384216,1.73249995708466,0.46612501144409,-5.488450050354,-5.43523740768433,-5.21166229248047,-1.72395002841949,-4.87905025482178,-5.74995040893555,-1.05599999427795,-7.18005037307739,-11.5099506378174,4.39305019378662,2.11800003051758,9.12795066833496,-2.28071260452271,0.96937501430511,2.02606248855591,-0.19263750314713,-3.63206243515015,-3.07229995727539,-5.12655019760132,-1.22842502593994,1.87275004386902,-11.6040000915527,-21.5050506591797,-21.9310512542725,-15.4879503250122,-20.1949501037598,-23.3899517059326,11.7960004806519,17.4700508117676,17.0620498657227,2.33048748970032,2.15173745155334,2.10058760643005,-1.22374999523163,-0.04468749836087,0.49376249313354,5.41970014572144,9.33171272277832,13.2746620178223,-20.131950378418,-14.5879507064819,-7.77405023574829,-29.1589508056641,-37.7760009765625,-50.2450523376465,13.0840501785278,11.1709508895874,11.9830503463745,3.59796237945557,4.5025749206543,5.68163728713989,0.10752499848604,-1.18758749961853,-3.64168739318848,19.6450366973877,19.0330257415771,13.9610624313354,22.0759506225586,42.6979522705078,40.1179504394531,-71.3040008544922,-47.4019508361816,-12.8440504074097,8.13105010986328,2.94900012016296,-4.47705030441284,3.44574999809265,1.75051248073578,2.1070499420166,-2.61579990386963,0.91313749551773,1.4942125082016,7.78442478179932,6.45727491378784,5.09299993515015,25.9320011138916,25.1299514770508,23.7790508270264,-8.88300037384033,-6.43005037307739,-4.5,-2.9520001411438,5.38395023345947,6.64695024490356,2.60823750495911,1.21192502975464,0.07218749821186,0.40012499690056,1.03014993667603,1.3642749786377,2.26215004920959,1.03523755073547,0.19758750498295,19.5739517211914,16.0270500183105,11.7130508422852,0.72000002861023,1.33995008468628,0.51900005340576,-1.36095011234283,-0.01500000059605,3.32895016670227,-0.28641250729561,-0.14382499456406,0.08071249723434,0.98766249418259,0.42996248602867,0.16609999537468,-0.11522500216961,-0.03643750026822,0.13172499835491,8.77005004882813,7.44795036315918,7.86000061035156,-0.87195003032684,-0.51900005340576,0.75105005502701,6.49995040893555,8.52405071258545,8.35395050048828,0.04661250114441,-0.14272500574589,0.07535000145435,0.31075000762939,0.51823747158051,0.10752499848604,0.08057499676943,-0.00453749997541,0.21683749556541,7.57695055007935,6.40800046920776,5.4190502166748,1.54905009269714,1.04100000858307,1.51995003223419,7.8870005607605,8.12700080871582,9.71895027160644,SWING_LEFT
0.05843750014901,-0.29177498817444,-0.35241249203682,1.09835004806519,0.96098750829697,1.02808749675751,-2.20852494239807,-2.88007497787476,-3.4993748664856,5.33505010604858,4.57095003128052,3.02400016784668,4.81605005264282,4.28595018386841,3.04605007171631,8.50995063781738,9.31005001068115,10.0309505462646,-0.35447499155998,-1.11870002746582,-1.82847499847412,1.34942495822906,1.06424999237061,1.09724998474121,-4.23472499847412,-4.70415019989014,-5.01696252822876,1.47900009155273,0.01800000108778,-2.39505004882813,0.02295000106096,-2.007000207901,-4.16505002975464,3.77700018882751,3.5590500831604,5.43495035171509,-2.07006239891052,-2.39992499351501,-1.93916249275208,1.3249499797821,0.42789998650551,-1.02795004844666,-5.14896249771118,-5.04886245727539,-5.12764978408813,-4.45500040054321,-5.46105003356934,-8.1070499420166,-6.27705049514771,-12.1590003967285,-15.8430004119873,5.50695037841797,5.67900037765503,13.2040510177612,1.83342504501343,3.02541255950928,3.75333738327026,-4.19292497634888,-2.29762506484985,0.23306250572205,-1.62318754196167,2.00887489318848,5.71986246109009,-25.03005027771,-23.0280017852783,-19.9260005950928,-19.7830505371094,-24.3360004425049,-31.4509506225586,22.6380004882813,21.5290508270264,14.8690509796143,4.01940011978149,3.67344999313354,3.51381254196167,0.57681250572205,-0.0489500015974,0.17874999344349,9.95211219787598,14.797474861145,19.1235008239746,-16.2910499572754,-6.58395051956177,14.5819511413574,-39.5869522094727,-53.0590515136719,-67.7260513305664,7.86105060577393,8.028000831604,12.117000579834,3.80971240997315,6.34672498703003,7.2428126335144,1.14400005340576,-2.07941246032715,-3.75017499923706,20.2259750366211,11.7060623168945,8.82199954986572,38.1210021972656,30.8950519561768,19.6770000457764,-61.5570030212402,-13.371000289917,-14.8489503860474,11.8840503692627,3.66195011138916,-3.24900007247925,5.87537479400635,4.16941261291504,3.53306245803833,-2.03472495079041,0.60554999113083,1.73153746128082,8.03660011291504,6.03803730010986,2.8550500869751,28.0210514068604,34.1209526062012,29.7379512786865,-10.7050504684448,1.07205009460449,6.04200029373169,-2.38905000686646,1.6270500421524,1.34205007553101,2.64660000801086,1.21618747711182,-0.03739999979734,0.9259250164032,1.69853746891022,1.98481249809265,-0.61435002088547,-0.35571250319481,0.20514999330044,12.5010004043579,8.27595043182373,8.73405075073242,-2.14605021476746,-1.46805012226105,0.48795002698898,-2.63595008850098,-2.37705016136169,1.08300006389618,-0.3077250123024,0.13502499461174,0.13282500207424,1.3281124830246,0.38843750953674,0.44054999947548,0.33921250700951,0.23594999313354,0.06888750195503,9.0329999923706,8.28105068206787,5.41695022583008,2.30100011825562,3.13905024528503,1.8600001335144,4.8070502281189,6.03795051574707,4.5600004196167,-0.27788749337196,-0.15661250054836,-0.09597499668598,0.6513375043869,0.36079999804497,0.30868750810623,0.28916248679161,0.82665002346039,0.6180624961853,3.69000005722046,6.1690502166748,6.02505016326904,1.54395008087158,3.75000023841858,3.67095017433167,6.47400045394897,7.86795043945313,7.40100049972534,SWING_LEFT
-1.9210125207901,-1.53573751449585,-1.08776247501373,0.55549997091293,0.38101249933243,0.2606999874115,-2.01698756217957,-2.14678740501404,-2.26173758506775,1.19895005226135,2.0590500831604,1.53405010700226,4.0090503692627,4.0969500541687,3.63000011444092,11.6110506057739,12.1930503845215,14.0520009994507,-0.38541248440742,-0.03739999979734,-0.44385001063347,0.48743748664856,1.70596253871918,1.74212503433228,-2.19257497787476,-3.31209993362427,-4.26249980926514,2.70300006866455,3.91305017471313,3.132000207901,3.82905006408691,2.93100023269653,2.02095007896423,14.2320003509521,7.48005056381226,5.97600030899048,-0.43436250090599,-1.0760749578476,-1.9679000377655,0.87793749570847,0.67787498235703,0.7598249912262,-6.26422500610352,-6.41739988327026,-5.82999992370605,1.13895010948181,-5.10405015945435,-6.94800043106079,-4.85895013809204,-11.1870002746582,-12.2220001220703,7.02300024032593,3.13800024986267,4.14105033874512,-2.73941254615784,-1.89873743057251,-0.72586250305176,1.02162504196167,-0.18521249294281,-2.01341247558594,-4.46888732910156,-0.54092502593994,3.15397500991821,-12.0040502548218,-25.2790508270264,-26.2900505065918,-18.9319515228271,-24.0700511932373,-27.3030014038086,7.40295028686523,10.2870006561279,14.5140008926392,3.42237496376038,4.7163872718811,4.5801248550415,-2.8967125415802,-2.28690004348755,-1.81445002555847,11.0302495956421,14.3303871154785,16.7120246887207,-11.9890508651733,-0.81195002794266,10.4850006103516,-41.8140029907227,-49.3680038452149,-53.6170539855957,12.1459503173828,3.7630500793457,-0.30300000309944,3.58833742141724,4.53970003128052,5.84127473831177,-1.40690004825592,-3.36820006370544,-4.45362520217896,17.7666492462158,13.4576749801636,9.57866287231445,22.359001159668,34.7460021972656,29.5110015869141,-51.3610534667969,-14.3820009231567,-4.41900014877319,1.5040500164032,3.71295022964478,-0.72900003194809,3.06693744659424,1.36839997768402,1.39603745937347,0.11811249703169,1.83259999752045,1.00567495822906,5.18883752822876,4.11180019378662,2.11103749275208,22.3159503936768,20.29905128479,16.1700000762939,-3.89895009994507,-1.69305002689362,2.10195016860962,-3.63900017738342,1.25100004673004,1.93305003643036,1.19707500934601,0.54477500915527,-0.09267500042915,0.45663750171661,0.41511249542236,0.70345002412796,1.31505000591278,0.82238751649857,0.55522501468658,13.4779510498047,11.1810007095337,9.16695022583008,1.774050116539,1.69305002689362,2.08800005912781,1.21695005893707,2.67795014381409,4.73295021057129,-0.26840001344681,-0.11618749797344,-0.05871250107884,0.27032500505447,-0.07975000143051,-0.45539999008179,0.44247499108315,0.45512500405312,0.41896250844002,7.74900054931641,7.27005052566528,6.75795030593872,1.50600004196167,2.37495017051697,2.64795017242432,7.32000017166138,7.19700050354004,7.36695051193237,-0.16293749213219,-0.18741250038147,-0.05555000156164,-0.32133749127388,0.04042499884963,0.2756874859333,0.41896250844002,0.40301248431206,0.39558750391006,7.06905031204224,6.83505010604858,6.47295045852661,2.48295021057129,2.77005004882813,3.13905024528503,8.34000015258789,8.97705078125,8.91195011138916,SWING_LEFT
-0.74827498197556,-0.66852498054504,-0.81001251935959,0.06393750011921,0.11495000123978,0.17874999344349,-2.90661239624023,-3.28872489929199,-3.83680009841919,2.52795004844666,2.26995015144348,2.63100004196167,7.11195039749146,6.9330005645752,5.65200042724609,8.41604995727539,6.81900024414063,4.3759503364563,-1.43371248245239,-2.42233753204346,-3.35664987564087,0.09473749995232,0.13626250624657,0.53748750686646,-4.59126234054565,-5.21386241912842,-5.64272499084473,1.66800010204315,0.76995003223419,0.02505000121891,2.95905017852783,-0.10305000841618,-3.62805008888245,2.71200013160706,3.31695008277893,4.75695037841797,-3.99519991874695,-4.20268726348877,-3.93882489204407,1.06961250305176,1.48142504692078,1.67722499370575,-5.95347499847412,-6.05137491226196,-5.72673749923706,-1.45095002651215,-4.29900026321411,-7.18695020675659,-7.21605014801025,-10.2259502410889,-11.8500003814697,6.50805044174194,7.99995040893555,10.4590501785278,-2.94483757019043,-1.13561248779297,1.44072496891022,1.36331248283386,0.51727497577667,-0.98009997606277,-5.11596250534058,-4.36466264724731,-2.74064993858337,-7.79595041275024,-11.7070503234863,-20.9059505462646,-14.5230007171631,-19.0039501190186,-22.0990505218506,13.9320011138916,17.4049510955811,20.4109516143799,4.0555624961853,5.33582496643066,4.13957500457764,-2.53178739547729,-0.37138751149178,1.3888875246048,0.18067499995232,10.6162376403809,16.9664001464844,-27.4039516448975,-23.5810508728027,-2.05200004577637,-26.731050491333,-45.5100021362305,-63.964054107666,17.9680500030518,8.40000057220459,5.19300031661987,2.61139988899231,3.37768745422363,6.29997491836548,2.38177490234375,-1.42491245269775,-5.5859375,21.2805995941162,14.3154001235962,9.40197467803955,28.0690517425537,41.3830528259277,19.9450511932373,-75.4909515380859,-9.57705020904541,-7.33605051040649,7.01505041122437,8.7180004119873,3.307950258255,6.94278764724731,5.06866264343262,3.21694993972778,-5.00169992446899,-1.11210000514984,1.39094996452332,8.0590124130249,6.71481227874756,5.05037498474121,21.9660015106201,24.9550514221191,22.5820503234863,-10.7130002975464,-5.79300022125244,-1.89405012130737,-2.11800003051758,-2.42204999923706,0.29295000433922,3.10516238212585,2.53371238708496,-0.08951249718666,0.0851124972105,0.07136250287294,1.36853754520416,2.28346252441406,1.12241244316101,-0.18864999711514,19.3080005645752,16.5630016326904,11.1480007171631,2.61495018005371,3.39795017242432,2.77995014190674,0.09405000507832,-2.13495016098022,1.78695011138916,-0.61311250925064,-0.56306248903275,-0.39077499508858,1.30363750457764,1.06424999237061,1.07799994945526,-0.43986248970032,-0.55893748998642,-0.51754999160767,9.30105018615723,7.23195028305054,5.56005048751831,2.7940502166748,3.02895021438599,3.22800016403198,4.93395042419434,7.0900502204895,7.13295030593872,-0.30882498621941,-0.36946249008179,-0.30662500858307,1.00141251087189,0.20006249845028,0.08731249719858,-0.37276250123978,0.15716250240803,0.3935250043869,4.40805006027222,4.28894996643066,4.47495031356812,2.94000005722046,2.79705023765564,3.31905007362366,6.28305006027222,8.07600021362305,8.90700054168701,SWING_LEFT
-0.54505002498627,-0.65573751926422,-0.72600001096725,0.80245000123978,0.26922500133514,-0.256437510252,-3.4238874912262,-3.74316239356995,-4.14851236343384,1.40700006484985,1.51800012588501,0.01605000160635,4.52100038528442,4.30995035171509,2.96700024604797,7.25505018234253,6.94800043106079,8.3730001449585,-0.58121252059937,-0.55673748254776,-1.16764998435974,-0.33096250891685,-0.05527500063181,0.19483749568462,-4.21781253814697,-4.07618761062622,-4.26030015945435,-1.35495007038116,-1.08000004291534,0.32505002617836,1.65900003910065,1.07895004749298,0.09705000370741,8.72100067138672,6.10305023193359,3.77295017242432,-2.05521249771118,-2.75962495803833,-3.46623754501343,0.31817498803139,0.42789998650551,0.20116250216961,-4.84673738479614,-5.88637495040894,-6.23658752441406,0.50700002908707,-0.77805006504059,-0.35400000214577,-2.46900010108948,-8.82299995422363,-13.8000001907349,4.93695020675659,2.56305003166199,0.6810000538826,-4.19320011138916,-3.86003756523132,0.0582999996841,-0.39269998669624,-0.95672500133514,0.00852499995381,-6.41643762588501,-5.96309995651245,-0.37070000171661,-2.90505003929138,-10.0009508132935,-33.5659523010254,-18.5110511779785,-22.1700019836426,-30.0499515533447,5.82300043106079,14.5620002746582,20.2840518951416,2.2506000995636,3.30742502212524,3.2551748752594,-0.31075000762939,-0.86198747158051,-1.08858752250671,4.74498748779297,9.86067485809326,14.0461750030518,-30.6199512481689,-17.6080513000488,-6.91005039215088,-37.0990524291992,-45.3250503540039,-55.1500511169434,13.5660009384155,5.69595050811768,2.3929500579834,2.98278737068176,3.79266238212585,5.67421245574951,-2.05287504196167,-3.66190004348755,-4.53777503967285,20.0579490661621,19.6140995025635,11.4750623703003,21.3199501037598,37.4260520935059,29.0340023040771,-70.9860000610352,-54.9130516052246,-13.8720006942749,0.24000000953674,0.53700000047684,-1.99095010757446,4.65574979782104,3.46169996261597,4.16624975204468,-2.51253747940063,-0.63428747653961,-0.33522498607635,9.19558715820312,8.04292488098145,4.55345010757446,24.5269508361816,27.2160015106201,26.0689506530762,-13.4119510650635,-10.81605052948,-2.3779501914978,-1.75695013999939,2.49105000495911,0.64500004053116,3.72129988670349,2.36871242523193,1.19281244277954,0.09790000319481,1.11099994182587,1.83576250076294,2.90606260299683,1.73538744449615,0.80217498540878,22.4569511413574,18.5920505523682,15.7440004348755,-1.05405008792877,1.65405011177063,2.84205007553101,-1.72500002384186,-0.61905002593994,1.6189501285553,0.65326249599457,0.49582499265671,0.02859999984503,0.66934996843338,-0.01911249943078,0.03093750029802,-0.45471251010895,-0.52497500181198,-0.21422499418259,9.94800090789795,6.89895009994507,5.11500024795532,0.68700003623962,-0.24195000529289,0.5020500421524,3.46395015716553,4.35495042800903,5.00595045089722,-0.55357497930527,-0.518374979496,-0.14272500574589,0.32243749499321,-0.22990000247955,-0.40218749642372,0.13062499463558,0.4658499956131,0.45622500777245,5.21805047988892,6.56595039367676,6.43200016021729,0.96405005455017,1.90995013713837,2.24100017547607,6.02100038528442,8.84295082092285,8.65095043182373,SWING_LEFT
0.38087499141693,-0.36093750596046,-1.05902504920959,0.55027496814728,1.18868744373322,2.17098760604858,-1.78598749637604,-3.02046251296997,-4.81057500839233,6.17595052719116,8.80605030059814,6.60705041885376,6.19500017166138,6.95895051956177,3.49605011940002,7.15200042724609,6.9529504776001,4.49595022201538,-1.85927498340607,-2.64261245727539,-3.08316254615784,2.90427494049072,2.94470000267029,2.52326250076294,-6.11201238632202,-6.16632509231567,-5.41818761825562,-0.84105002880096,-7.30500030517578,-6.84705018997192,-1.81005012989044,-4.76295042037964,-6.71295022964478,1.85205006599426,2.66400003433228,3.66000008583069,-3.31938743591309,-2.84583759307861,-2.08491253852844,2.15297508239746,1.2196249961853,0.13736249506474,-4.97117519378662,-4.54767513275146,-3.77932500839233,-6.67695045471191,-10.4400005340576,-12.6889505386353,-7.60605049133301,-13.3020009994507,-15.4450511932373,4.53404998779297,6.55305051803589,8.79705047607422,0.19772499799728,1.21508753299713,2.03032493591309,-1.61644995212555,-2.13262510299683,-2.36678743362427,-1.20284998416901,1.05544996261597,4.19484996795654,-17.0279998779297,-20.7169513702393,-21.1120510101318,-21.2410507202148,-24.0910511016846,-27.4750518798828,10.4470500946045,10.2130508422852,9.29100036621094,2.47513747215271,2.35166239738464,1.86326253414154,-2.18473744392395,-1.84098744392395,-2.14651250839233,7.84932518005371,11.2664747238159,16.9089241027832,-15.6349506378174,-7.75995016098022,10.5520505905151,-32.0020523071289,-37.3519515991211,-52.3740043640137,6.57195043563843,4.04805040359497,5.31300020217896,2.29212498664856,4.91548728942871,5.62636232376099,-2.29872488975525,-4.31323766708374,-3.90238738059998,17.909236907959,11.8826122283936,7.92164993286133,26.0620517730713,37.4070014953613,28.2289505004883,-48.5880012512207,-7.94205045700073,-0.61305004358292,6.86700010299683,3.75300025939941,-1.98900008201599,3.96618747711182,1.34708750247955,0.05307500064373,-1.0674124956131,1.11210000514984,1.52294993400574,5.69745016098022,4.76739978790283,4.43423748016357,22.3090515136719,16.9939498901367,15.5910005569458,-3.6780002117157,-5.02395009994507,-3.27105021476746,-7.06395053863525,-2.7529501914978,5.27895021438599,1.42161250114441,1.74405002593994,1.07360005378723,-0.00206249998882,-0.17448750138283,0.16390000283718,2.94222497940063,1.89832496643066,1.30762493610382,15.363000869751,12.4339504241943,9.70095062255859,1.05105006694794,1.675950050354,0.99105006456375,8.00895023345947,4.8070502281189,3.13800024986267,-0.25657498836517,-0.14918750524521,0.04344999790192,0.22673749923706,0.05747500061989,-0.1032624989748,0.93623751401901,0.74470001459122,0.70317500829697,8.07495021820068,6.68805027008057,5.52705049514771,2.05200004577637,1.85805010795593,1.64205002784729,7.84905052185059,8.90505027770996,8.63205051422119,0.16582499444485,0.1552374958992,0.18507499992847,-0.29150000214577,-0.51933747529984,-0.68323749303818,0.82018750905991,1.03193747997284,0.93403750658035,5.27295017242432,6.35100030899048,6.95400047302246,1.57800006866455,2.55195021629334,2.9479501247406,8.44995021820068,8.03805065155029,8.59605026245117,SWING_LEFT
