gyro_x_0,gyro_y_0,gyro_z_0,accel_x_0,accel_y_0,accel_z_0,mag_x_0,mag_y_0,mag_z_0,ahrs_x_0,ahrs_y_0,ahrs_z_0,ahrs_w_0,gyro_x_1,gyro_y_1,gyro_z_1,accel_x_1,accel_y_1,accel_z_1,mag_x_1,mag_y_1,mag_z_1,ahrs_x_1,ahrs_y_1,ahrs_z_1,ahrs_w_1,gyro_x_2,gyro_y_2,gyro_z_2,accel_x_2,accel_y_2,accel_z_2,mag_x_2,mag_y_2,mag_z_2,ahrs_x_2,ahrs_y_2,ahrs_z_2,ahrs_w_2,gyro_x_3,gyro_y_3,gyro_z_3,accel_x_3,accel_y_3,accel_z_3,mag_x_3,mag_y_3,mag_z_3,ahrs_x_3,ahrs_y_3,ahrs_z_3,ahrs_w_3,gyro_x_4,gyro_y_4,gyro_z_4,accel_x_4,accel_y_4,accel_z_4,mag_x_4,mag_y_4,mag_z_4,ahrs_x_4,ahrs_y_4,ahrs_z_4,ahrs_w_4,gyro_x_5,gyro_y_5,gyro_z_5,accel_x_5,accel_y_5,accel_z_5,mag_x_5,mag_y_5,mag_z_5,ahrs_x_5,ahrs_y_5,ahrs_z_5,ahrs_w_5,gyro_x_6,gyro_y_6,gyro_z_6,accel_x_6,accel_y_6,accel_z_6,mag_x_6,mag_y_6,mag_z_6,ahrs_x_6,ahrs_y_6,ahrs_z_6,ahrs_w_6,gyro_x_7,gyro_y_7,gyro_z_7,accel_x_7,accel_y_7,accel_z_7,mag_x_7,mag_y_7,mag_z_7,ahrs_x_7,ahrs_y_7,ahrs_z_7,ahrs_w_7,gyro_x_8,gyro_y_8,gyro_z_8,accel_x_8,accel_y_8,accel_z_8,mag_x_8,mag_y_8,mag_z_8,ahrs_x_8,ahrs_y_8,ahrs_z_8,ahrs_w_8,gyro_x_9,gyro_y_9,gyro_z_9,accel_x_9,accel_y_9,accel_z_9,mag_x_9,mag_y_9,mag_z_9,ahrs_x_9,ahrs_y_9,ahrs_z_9,ahrs_w_9,gyro_x_10,gyro_y_10,gyro_z_10,accel_x_10,accel_y_10,accel_z_10,mag_x_10,mag_y_10,mag_z_10,ahrs_x_10,ahrs_y_10,ahrs_z_10,ahrs_w_10,gyro_x_11,gyro_y_11,gyro_z_11,accel_x_11,accel_y_11,accel_z_11,mag_x_11,mag_y_11,mag_z_11,ahrs_x_11,ahrs_y_11,ahrs_z_11,ahrs_w_11,gyro_x_12,gyro_y_12,gyro_z_12,accel_x_12,accel_y_12,accel_z_12,mag_x_12,mag_y_12,mag_z_12,ahrs_x_12,ahrs_y_12,ahrs_z_12,ahrs_w_12,gyro_x_13,gyro_y_13,gyro_z_13,accel_x_13,accel_y_13,accel_z_13,mag_x_13,mag_y_13,mag_z_13,ahrs_x_13,ahrs_y_13,ahrs_z_13,ahrs_w_13,gyro_x_14,gyro_y_14,gyro_z_14,accel_x_14,accel_y_14,accel_z_14,mag_x_14,mag_y_14,mag_z_14,ahrs_x_14,ahrs_y_14,ahrs_z_14,ahrs_w_14,gyro_x_15,gyro_y_15,gyro_z_15,accel_x_15,accel_y_15,accel_z_15,mag_x_15,mag_y_15,mag_z_15,ahrs_x_15,ahrs_y_15,ahrs_z_15,ahrs_w_15,gyro_x_16,gyro_y_16,gyro_z_16,accel_x_16,accel_y_16,accel_z_16,mag_x_16,mag_y_16,mag_z_16,ahrs_x_16,ahrs_y_16,ahrs_z_16,ahrs_w_16,gyro_x_17,gyro_y_17,gyro_z_17,accel_x_17,accel_y_17,accel_z_17,mag_x_17,mag_y_17,mag_z_17,ahrs_x_17,ahrs_y_17,ahrs_z_17,ahrs_w_17,gyro_x_18,gyro_y_18,gyro_z_18,accel_x_18,accel_y_18,accel_z_18,mag_x_18,mag_y_18,mag_z_18,ahrs_x_18,ahrs_y_18,ahrs_z_18,ahrs_w_18,gyro_x_19,gyro_y_19,gyro_z_19,accel_x_19,accel_y_19,accel_z_19,mag_x_19,mag_y_19,mag_z_19,ahrs_x_19,ahrs_y_19,ahrs_z_19,ahrs_w_19,gyro_x_20,gyro_y_20,gyro_z_20,accel_x_20,accel_y_20,accel_z_20,mag_x_20,mag_y_20,mag_z_20,ahrs_x_20,ahrs_y_20,ahrs_z_20,ahrs_w_20,gyro_x_21,gyro_y_21,gyro_z_21,accel_x_21,accel_y_21,accel_z_21,mag_x_21,mag_y_21,mag_z_21,ahrs_x_21,ahrs_y_21,ahrs_z_21,ahrs_w_21,gyro_x_22,gyro_y_22,gyro_z_22,accel_x_22,accel_y_22,accel_z_22,mag_x_22,mag_y_22,mag_z_22,ahrs_x_22,ahrs_y_22,ahrs_z_22,ahrs_w_22,gyro_x_23,gyro_y_23,gyro_z_23,accel_x_23,accel_y_23,accel_z_23,mag_x_23,mag_y_23,mag_z_23,ahrs_x_23,ahrs_y_23,ahrs_z_23,ahrs_w_23,gyro_x_24,gyro_y_24,gyro_z_24,accel_x_24,accel_y_24,accel_z_24,mag_x_24,mag_y_24,mag_z_24,ahrs_x_24,ahrs_y_24,ahrs_z_24,ahrs_w_24,gyro_x_25,gyro_y_25,gyro_z_25,accel_x_25,accel_y_25,accel_z_25,mag_x_25,mag_y_25,mag_z_25,ahrs_x_25,ahrs_y_25,ahrs_z_25,ahrs_w_25,gyro_x_26,gyro_y_26,gyro_z_26,accel_x_26,accel_y_26,accel_z_26,mag_x_26,mag_y_26,mag_z_26,ahrs_x_26,ahrs_y_26,ahrs_z_26,ahrs_w_26,gyro_x_27,gyro_y_27,gyro_z_27,accel_x_27,accel_y_27,accel_z_27,mag_x_27,mag_y_27,mag_z_27,ahrs_x_27,ahrs_y_27,ahrs_z_27,ahrs_w_27,gyro_x_28,gyro_y_28,gyro_z_28,accel_x_28,accel_y_28,accel_z_28,mag_x_28,mag_y_28,mag_z_28,ahrs_x_28,ahrs_y_28,ahrs_z_28,ahrs_w_28,gyro_x_29,gyro_y_29,gyro_z_29,accel_x_29,accel_y_29,accel_z_29,mag_x_29,mag_y_29,mag_z_29,ahrs_x_29,ahrs_y_29,ahrs_z_29,ahrs_w_29,motion_type
1.05036246776581,-1.65123748779297,1.43563747406006,1.21305000782013,-1.51995003223419,-9.8230504989624,-32.9625015258789,9.73125076293945,-25.1437511444092,0.14593890309334,-0.63143402338028,0.69237142801285,-0.3171980381012,1.24244999885559,-1.7606874704361,1.55278754234314,1.69605004787445,-0.97200006246567,-10.1010007858276,-32.9437522888184,9.78750038146973,-25.1437511444092,0.14442209899426,-0.62125819921493,0.69261938333511,-0.33683660626411,1.35313749313354,-1.76316249370575,1.64450001716614,1.87605011463165,-0.71595001220703,-9.62205028533936,-32.9437522888184,9.80625057220459,-25.1625003814697,0.14207465946674,-0.61021852493286,0.69284439086914,-0.35695198178291,1.38902497291565,-1.66980004310608,1.69716250896454,1.73205006122589,-1.15605008602142,-9.21195030212402,-32.9250030517578,9.76875019073486,-25.2000007629395,0.13872541487217,-0.59897172451019,0.69286412000656,-0.37673252820969,1.38902497291565,-1.66980004310608,1.69716250896454,1.73205006122589,-1.15605008602142,-9.21195030212402,-32.9250030517578,9.76875019073486,-25.2000007629395,0.13530552387237,-0.58739691972733,0.69253593683243,-0.39629688858986,1.37376248836517,-1.52088749408722,1.70114994049072,1.38000011444092,-1.98195004463196,-9.51195049285889,-32.9437522888184,9.69375038146973,-25.2562503814697,0.13095992803574,-0.57608753442764,0.69195812940598,-0.41492959856987,1.38036251068115,-1.3330625295639,1.71077501773834,0.98505002260208,-3.80205011367798,-9.56895065307617,-32.9250030517578,9.61875057220459,-25.2937507629395,0.12536172568798,-0.56509244441986,0.69129133224487,-0.43251734972,1.5219874382019,-1.16448748111725,1.80344998836517,-0.03105000220239,-9.02100086212158,-9.57405090332031,-32.8875007629395,9.5625,-25.3312511444092,0.11776158213615,-0.55365425348282,0.69085627794266,-0.44979649782181,1.77897500991821,-1.00127494335175,1.93902504444122,-0.16095000505447,-13.5919504165649,-10.8259506225586,-32.8687515258789,9.48750019073486,-25.3312511444092,0.10759771615267,-0.54115837812424,0.69093042612076,-0.46710333228111,1.99319994449615,-0.87463748455048,2.00859999656677,-2.2870500087738,-9.93795013427734,-15.3250503540039,-32.90625,9.41250038146973,-25.3875007629395,0.08323866128922,-0.5139194726944,0.69136530160904,-0.50097119808197,2.03238749504089,-0.77756249904633,1.96281254291534,-3.07005023956299,-4.84605026245117,-17.193000793457,-32.9250030517578,9.30000019073486,-25.4437503814697,0.07048607617617,-0.49998572468758,0.69133675098419,-0.51681661605835,1.95772504806519,-0.71101248264313,1.84043753147125,-5.26800012588501,-3.3229501247406,-15.5719509124756,-32.9437522888184,9.15000057220459,-25.4625015258789,0.05814051255584,-0.48640233278274,0.69112700223923,-0.53139048814774,1.81376254558563,-0.66825002431869,1.64326250553131,-2.9479501247406,2.45100021362305,-13.0840501785278,-32.9437522888184,8.92500019073486,-25.5000019073486,0.04710479080677,-0.47352460026741,0.69084775447846,-0.54432070255279,1.67585003376007,-0.61063748598099,1.40030002593994,-0.78300005197525,4.74000024795532,-9.58800029754639,-32.9250030517578,8.66250038146973,-25.5375003814697,0.03746626898646,-0.46143117547035,0.69085657596588,-0.55533307790756,1.49380004405975,-0.53253751993179,1.10261249542236,1.96200013160706,7.07895040512085,-6.99105024337769,-32.8687515258789,8.36250019073486,-25.5937519073486,0.02957697212696,-0.45053845643997,0.69135648012161,-0.5640624165535,1.49380004405975,-0.53253751993179,1.10261249542236,1.96200013160706,7.07895040512085,-6.99105024337769,-32.8687515258789,8.36250019073486,-25.5937519073486,0.02169164642692,-0.43952438235283,0.69167912006378,-0.57264977693558,1.19955003261566,-0.41387498378754,0.73878747224808,4.07895040512085,9.1360502243042,-4.47705030441284,-32.71875,8.11875057220459,-25.6687507629395,0.01600002683699,-0.43063870072365,0.69253671169281,-0.57852160930634,0.80272501707077,-0.25313749909401,0.3257375061512,5.23995018005371,11.5489501953125,-3.12105011940002,-32.53125,7.98750019073486,-25.7250003814697,0.01282829325646,-0.42472633719444,0.69390040636063,-0.58133053779602,0.29892501235008,-0.00013749999925,-0.1717374920845,5.86995029449463,12.7320003509521,-1.6270500421524,-32.3250007629395,7.93125009536743,-25.7625007629395,0.01242502871901,-0.42288893461227,0.69588875770569,-0.58030116558075,-0.30002498626709,0.00013749999925,-0.73205000162125,5.34000015258789,9.87795066833496,-0.13095000386238,-31.9500007629395,8.00625038146973,-25.7812519073486,0.02139531821013,-0.42600584030151,0.70100218057632,-0.57153934240341,-0.81207501888275,0.29150000214577,-1.22498750686646,4.59600019454956,6.76305055618286,-1.28700006008148,-31.9500007629395,8.00625038146973,-25.7812519073486,0.02833902090788,-0.43179240822792,0.70407503843307,-0.56305468082428,-1.11086249351501,0.47753748297691,-1.59609997272491,3.70005011558533,5.22795009613037,-3.95700025558472,-31.8562507629395,8.04375076293945,-25.7812519073486,0.03681679069996,-0.43999871611595,0.70773011445999,-0.55151045322418,-1.2751749753952,0.64569997787476,-1.88402497768402,3.26205015182495,5.15205001831055,-6.62895011901855,-31.8187503814697,8.08125019073486,-25.7812519073486,0.04598503932357,-0.44969096779823,0.71192932128906,-0.53741997480393,-1.36234998703003,0.78925001621246,-2.10581254959106,3.10905003547668,5.94405031204224,-8.78595066070557,-31.8375015258789,8.10000038146973,-25.8000011444092,0.05544643849134,-0.46026194095612,0.71652728319168,-0.52122294902802,-1.47276246547699,0.90612500905991,-2.29570007324219,3.5179500579834,7.0770001411438,-9.49005031585693,-31.8937511444092,8.11875057220459,-25.7625007629395,0.06539461016655,-0.47168079018593,0.72118455171585,-0.50312399864197,-1.47276246547699,0.90612500905991,-2.29570007324219,3.5179500579834,7.0770001411438,-9.49005031585693,-31.8937511444092,8.11875057220459,-25.7625007629395,0.075294226408,-0.48283737897873,0.72541689872742,-0.48473629355431,-1.5578750371933,0.99357497692108,-2.40542507171631,3.67605018615723,6.8779501914978,-8.52300071716309,-31.9875011444092,8.13750076293945,-25.7250003814697,0.0854143127799,-0.49450793862343,0.72935330867767,-0.46498385071755,-1.52666246891022,1.03578746318817,-2.37476253509521,3.21900010108948,4.76895046234131,-5.88705015182495,-32.1375007629395,8.11875057220459,-25.7250003814697,0.0949807241559,-0.50586354732513,0.73286914825439,-0.44495353102684,-1.43715000152588,1.03138744831085,-2.26063752174377,2.79795002937317,4.24005031585693,-4.38795042037964,-32.2687530517578,8.10000038146973,-25.7062511444092,0.1037265509367,-0.5164520740509,0.73587507009506,-0.42544797062874,-1.24657499790192,0.85414999723434,-1.96542501449585,0.36300000548363,2.41305017471313,-10.4650506973267,-32.625,8.0625,-25.6687507629395,0.11918124556541,-0.53481030464172,0.7401984333992,-0.38971772789955,SWING_RIGHT
1.83974993228912,-0.96346247196197,2.1872124671936,1.37100005149841,-0.43995001912117,-9.59295082092285,-34.0500030517578,9.84375,-25.6125011444092,0.08647362142801,-0.55437171459198,0.70777767896652,-0.42923787236214,1.87852501869202,-1.01530003547668,2.09398746490479,1.63605010509491,-0.04800000041723,-9.58395004272461,-34.0125007629395,9.82500076293945,-25.6687507629395,0.07588090002537,-0.54087018966675,0.70819532871246,-0.44739353656769,1.85116243362427,-0.98848748207092,1.97408747673035,1.84200012683868,0.06405000388622,-9.66000080108643,-33.9750022888184,9.80625057220459,-25.7250003814697,0.06574326753616,-0.52721577882767,0.70854425430298,-0.46442046761513,1.72837495803833,-0.89031249284744,1.79272496700287,2.03400015830994,0.23895001411438,-9.40605068206787,-33.9750022888184,9.76875019073486,-25.7625007629395,0.0562843196094,-0.51427274942398,0.70874685049057,-0.47961813211441,1.54371249675751,-0.75157499313355,1.56268751621246,1.61700010299683,-1.37205004692078,-8.00804996490479,-33.9750022888184,9.71250057220459,-25.8187503814697,0.0476468205452,-0.50260615348816,0.70888078212738,-0.49254935979843,1.54371249675751,-0.75157499313355,1.56268751621246,1.61700010299683,-1.37205004692078,-8.00804996490479,-33.9750022888184,9.65625,-25.8375015258789,0.03899923712015,-0.49073800444603,0.70875811576843,-0.50528907775879,1.40401244163513,-0.57585000991821,1.33292496204376,0.81000006198883,-6.91005039215088,-5.67795038223267,-33.9750022888184,9.65625,-25.8375015258789,0.03075673803687,-0.48010167479515,0.7089439034462,-0.51570826768875,1.37651252746582,-0.39902499318123,1.1475750207901,-0.52005004882813,-10.3810501098633,-5.34795045852661,-33.9937515258789,9.58125019073486,-25.8562507629395,0.02232366614044,-0.47017499804497,0.70967918634415,-0.52420675754547,1.42614996433258,-0.24653749167919,1.0118625164032,-0.16995000839233,-11.0130004882812,-6.94695043563843,-33.9937515258789,9.52500057220459,-25.8750019073486,0.01329413801432,-0.46049028635025,0.71106696128845,-0.53118336200714,1.16875004768372,-0.19194999337196,0.72269999980927,-2.15505003929138,1.57695007324219,-15.1260004043579,-33.9187507629395,9.35625076293945,-25.7062511444092,-0.00227837148122,-0.44351407885552,0.71376574039459,-0.54205960035324,1.16875004768372,-0.19194999337196,0.72269999980927,-2.15505003929138,1.57695007324219,-15.1260004043579,-33.9187507629395,9.35625076293945,-25.7062511444092,-0.00927438214421,-0.4354385137558,0.71491420269012,-0.54699647426605,0.97501248121262,-0.20776249468327,0.5713124871254,-2.05200004577637,0.97605001926422,-16.1530513763428,-33.9000015258789,9.15000057220459,-25.5937519073486,-0.01475604437292,-0.42839154601097,0.71598082780838,-0.55103027820587,0.74332499504089,-0.22206249833107,0.35969999432564,0.0679500028491,3.06600022315979,-16.7070007324219,-33.9562530517578,8.86875057220459,-25.5562515258789,-0.01824048534036,-0.42266714572907,0.71715408563614,-0.55381375551224,0.49651250243187,-0.21518750488758,0.00013749999925,1.36800003051758,3.58395028114319,-13.2280502319336,-33.9937515258789,8.55000019073486,-25.5000019073486,-0.01928645558655,-0.41849872469902,0.71909916400909,-0.55442160367966,0.28132501244545,-0.19511249661446,-0.19497500360012,2.22495007514954,3.04500007629395,-9.3919506072998,-34.03125,8.25,-25.4437503814697,-0.01870919764042,-0.41574770212174,0.72120141983032,-0.5537800192833,0.28132501244545,-0.19511249661446,-0.19497500360012,2.22495007514954,3.04500007629395,-9.3919506072998,-34.03125,7.98750019073486,-25.4062519073486,-0.01812955737114,-0.4129930138588,0.72329425811768,-0.55313062667847,0.00013749999925,-0.1567499935627,-0.47478750348091,3.41505026817322,3.87105011940002,-7.31400012969971,-34.03125,7.98750019073486,-25.4062519073486,-0.01538092456758,-0.41217875480652,0.72569710016251,-0.55066865682602,-0.19194999337196,-0.00013749999925,-0.7763249874115,3.66000008583069,5.22600030899048,-7.70895051956177,-34.0125007629395,7.81875038146973,-25.3875007629395,-0.0116200633347,-0.41328594088554,0.72875356674194,-0.54587352275848,-0.54161250591278,-0.14808750152588,-1.08872497081757,2.83095002174377,4.75005006790161,-8.41499996185303,-33.9562530517578,7.72500038146973,-25.3687515258789,-0.00435765320435,-0.41583096981049,0.73197728395462,-0.53969877958298,-1.10948753356934,-0.14753749966621,-1.64230000972748,3.06300020217896,6.43800020217896,-7.27800035476685,-33.9750022888184,7.63125038146973,-25.3125019073486,0.0277239009738,-0.43066141009331,0.74146413803101,-0.51380240917206,-1.10948753356934,-0.14753749966621,-1.64230000972748,3.06300020217896,6.43800020217896,-7.27800035476685,-34.0500030517578,7.59375047683716,-25.2750015258789,0.03950075805187,-0.43634235858917,0.74448382854462,-0.50377464294434,-1.18758749961853,0.0,-1.8547375202179,3.05895018577576,6.22005033493042,-7.26300048828125,-34.0500030517578,7.59375047683716,-25.2750015258789,0.05143751204014,-0.44292616844177,0.74792790412903,-0.49170565605164,-1.25042498111725,0.0,-2.03967499732971,2.90505003929138,6.21705007553101,-7.75695037841797,-34.1625022888184,7.55625009536743,-25.2562503814697,0.06426730751991,-0.44966205954552,0.75161463022232,-0.47827729582787,-1.30143749713898,0.00013749999925,-2.17634987831116,2.86695003509521,7.10295057296753,-7.90995025634766,-34.2937507629395,7.51875019073486,-25.2187519073486,0.07779188454151,-0.45646646618843,0.75531446933746,-0.46377468109131,-1.3613874912262,0.22013749182224,-2.24482488632202,3.30495023727417,7.85505056381226,-7.19205045700073,-34.4437522888184,7.46250009536743,-25.1812515258789,0.0904201194644,-0.46425172686577,0.75882482528687,-0.44774928689003,-1.40896248817444,0.30346250534058,-2.23396253585815,3.32205009460449,6.83700037002563,-5.99205017089844,-34.5750007629395,7.40625047683716,-25.1437511444092,0.10261771827936,-0.47243300080299,0.76179993152618,-0.43120476603508,-1.40896248817444,0.30346250534058,-2.23396253585815,3.32205009460449,6.83700037002563,-5.99205017089844,-34.6500015258789,7.36875009536743,-25.1062507629395,0.11475510895252,-0.48038554191589,0.76439023017883,-0.41444966197014,-1.43852496147156,0.36245000362396,-2.14225006103516,3.46605014801025,6.13800048828125,-5.31705045700073,-34.6500015258789,7.36875009536743,-25.1062507629395,0.12619724869728,-0.48858597874641,0.76623153686523,-0.39780315756798,-1.46286249160767,0.42707499861717,-2.01698756217957,3.42705011367798,5.71395015716553,-4.90005016326904,-34.7250022888184,7.33125019073486,-25.0500011444092,0.13673521578312,-0.49706396460533,0.76726895570755,-0.38148292899132,-1.47056245803833,0.5350124835968,-1.73882496356964,2.06505012512207,3.6979501247406,-5.08905029296875,-34.9125022888184,7.21875047683716,-25.0500011444092,0.15480111539364,-0.51460707187653,0.76716178655624,-0.35025542974472,SWING_RIGHT
0.00013749999925,-0.21477499604225,0.80822497606277,2.66595005989075,-2.12295007705688,-8.34600067138672,-35.5125007629395,7.57500028610229,-24.6937503814697,0.19039899110794,-0.56542694568634,0.74654024839401,-0.29447966814041,0.00013749999925,-0.21477499604225,0.80822497606277,2.66595005989075,-2.12295007705688,-8.34600067138672,-35.4937515258789,7.53750038146973,-24.7312507629395,0.18771499395371,-0.56608909368515,0.74434250593185,-0.3004338145256,0.22879999876022,-0.20693749189377,0.9950875043869,3.02295017242432,-2.05605006217957,-8.37705039978027,-35.4937515258789,7.53750038146973,-24.7312507629395,0.18353293836117,-0.56559985876083,0.74273186922073,-0.30783382058144,0.29012501239777,-0.18205000460148,1.13533747196198,2.8050000667572,-2.26005005836487,-9.05895042419434,-35.4562530517578,7.51875019073486,-24.7687511444092,0.17834688723087,-0.56495898962021,0.74102580547333,-0.31606104969978,0.38293749094009,-0.1553750038147,1.28425002098083,2.46495008468628,-2.48295021057129,-9.48105049133301,-35.4000015258789,7.50000047683716,-24.7875003814697,0.17201371490955,-0.56396913528442,0.73932349681854,-0.32519373297691,0.53432500362396,-0.00013749999925,1.45502495765686,1.98600006103516,-2.60700011253357,-9.66300010681152,-35.3625030517578,7.46250009536743,-24.8062515258789,0.1634696573019,-0.56262457370758,0.73798418045044,-0.33482912182808,0.53432500362396,-0.00013749999925,1.45502495765686,1.98600006103516,-2.60700011253357,-9.66300010681152,-35.3812522888184,7.38750028610229,-24.8437519073486,0.15489737689495,-0.56117475032806,0.73653030395508,-0.34440198540688,0.75996249914169,-0.00013749999925,1.644087433815,1.93605005741119,-2.34600019454956,-9.78495025634766,-35.3812522888184,7.38750028610229,-24.8437519073486,0.14476817846298,-0.55846691131592,0.73544573783875,-0.35535410046577,0.94132500886917,-0.00013749999925,1.72548747062683,2.03595018386841,-1.60905003547668,-9.58800029754639,-35.4000015258789,7.31250047683716,-24.8812503814697,0.13370999693871,-0.55460250377655,0.73478102684021,-0.36692562699318,1.11636245250702,-0.20019999146462,1.65302503108978,2.24505019187927,-0.35595002770424,-8.95605087280273,-35.4000015258789,7.16250038146973,-24.9375019073486,0.11338927596808,-0.54353564977646,0.73398566246033,-0.39112266898155,1.20106244087219,-0.24516250193119,1.59280002117157,2.19900012016296,-0.11895000934601,-8.83905029296875,-35.4000015258789,7.06875038146973,-24.9750003814697,0.10357518494129,-0.53671193122864,0.73406594991684,-0.40293860435486,1.20106244087219,-0.24516250193119,1.59280002117157,2.19900012016296,-0.11895000934601,-8.83905029296875,-35.4187507629395,6.97500038146973,-25.0125007629395,0.09373468905687,-0.52972704172134,0.73394882678986,-0.41463476419449,1.29731249809265,-0.29053750634193,1.53903746604919,1.83000004291534,-1.42005002498627,-9.38700008392334,-35.4187507629395,6.97500038146973,-25.0125007629395,0.08399271219969,-0.5217792391777,0.73422050476074,-0.42615941166878,1.42642498016357,-0.33508750796318,1.51497495174408,1.31595003604889,-4.72395038604736,-9.66000080108643,-35.4000015258789,6.91875028610229,-25.0500011444092,0.07406733185053,-0.51266211271286,0.73492968082428,-0.4376871585846,1.57451248168945,-0.34347498416901,1.51662504673004,0.86100006103516,-9.07905006408691,-10.1389503479004,-35.3812522888184,6.84375047683716,-25.0875015258789,0.06360120326281,-0.50239342451096,0.73605167865753,-0.44920349121094,1.77677500247955,-0.30786249041557,1.53436243534088,3.1039502620697,-17.3680515289307,-1.80195009708405,-35.3625030517578,6.78750038146973,-25.1250019073486,0.0523080714047,-0.49074575304985,0.73778867721558,-0.46054342389107,2.00859999656677,-0.29906249046326,1.56351244449615,-3.00495004653931,-11.4610509872437,-10.1250009536743,-35.34375,6.73125028610229,-25.1625003814697,0.0396483540535,-0.47757238149643,0.73992639780045,-0.47208228707313,2.00859999656677,-0.29906249046326,1.56351244449615,-3.00495004653931,-11.4610509872437,-10.1250009536743,-35.34375,6.63750028610229,-25.1812515258789,0.02697545289993,-0.4641635119915,0.74172765016556,-0.48338869214058,1.95263743400574,-0.3452624976635,1.4693249464035,-1.73595011234283,-1.20600008964539,-14.5350008010864,-35.34375,6.63750028610229,-25.1812515258789,0.01528151892126,-0.4507622718811,0.74326479434967,-0.49410256743431,1.48018753528595,-0.37207499146461,1.01378750801086,0.4870500266552,5.30700016021729,-14.6089506149292,-35.2875022888184,6.28125047683716,-25.2562503814697,-0.00235444819555,-0.42736330628395,0.74572485685349,-0.51112580299377,1.11911249160767,-0.34209999442101,0.68103748559952,3.5110502243042,7.12905025482178,-10.8979501724243,-35.2125015258789,6.05625009536743,-25.3125019073486,-0.00726378150284,-0.41880160570145,0.74689191579819,-0.51643478870392,0.7763249874115,-0.27101248502731,0.34856250882149,4.18905019760132,6.88500022888184,-5.96295022964478,-35.0812530517578,5.83125019073486,-25.3312511444092,-0.0098252967,-0.41268980503082,0.74821817874908,-0.51938450336456,0.7763249874115,-0.27101248502731,0.34856250882149,4.18905019760132,6.88500022888184,-5.96295022964478,-34.8937530517578,5.58750009536743,-25.3875007629395,-0.01237892266363,-0.4065555036068,0.74950289726257,-0.52230715751648,0.43779999017715,-0.00013749999925,0.0,6.42000007629395,8.08695030212402,-1.45005011558533,-34.8937530517578,5.58750009536743,-25.3875007629395,-0.01382742449641,-0.40376135706902,0.75110781192779,-0.52213269472122,0.00013749999925,0.0,-0.34196248650551,6.25005006790161,8.64300060272217,-1.87395012378693,-34.6875,5.36250019073486,-25.5562515258789,-0.01222586631775,-0.40374284982681,0.75271010398865,-0.51987475156784,-0.33453750610352,0.23718750476837,-0.72847497463226,5.77395009994507,8.80305004119873,-4.16505002975464,-34.5187530517578,5.17500019073486,-25.8000011444092,-0.00940655637532,-0.40687063336372,0.7548098564148,-0.51442193984985,-0.86460000276566,0.39214998483658,-1.17040002346039,5.40495014190674,9.15705013275146,-4.68000030517578,-34.2937507629395,5.08125019073486,-26.0437507629395,-0.00380426086485,-0.41398811340332,0.75690370798111,-0.50566405057907,-0.86460000276566,0.39214998483658,-1.17040002346039,5.40495014190674,9.15705013275146,-4.68000030517578,-34.0125007629395,5.0625,-26.2312507629395,0.00179318652954,-0.42104271054268,0.75887244939804,-0.49682229757309,-1.43439996242523,0.53487497568131,-1.6409250497818,4.77105045318604,9.06599998474121,-4.88100004196167,-34.0125007629395,5.0625,-26.2312507629395,0.01047815103084,-0.4321739077568,0.76058554649353,-0.48438164591789,-1.84112501144409,0.7987374663353,-2.20096254348755,3.61395025253296,7.90005016326904,-5.5639500617981,-33.4875030517578,5.17500019073486,-26.5500011444092,0.03105042129755,-0.45968765020371,0.76408421993256,-0.45155119895935,SWING_RIGHT
0.0,0.0,1.06328749656677,2.35695004463196,-1.48905003070831,-9.34395027160645,-34.21875,8.08125019073486,-26.2500019073486,0.10929477214813,-0.56836026906967,0.73058378696442,-0.36230981349945,0.37028750777245,-0.14066250622273,1.208624958992,2.28105020523071,-1.87200009822845,-8.44395065307617,-34.1812515258789,8.10000038146973,-26.3250007629395,0.10311098396778,-0.56662803888321,0.7286958694458,-0.37054422497749,0.37028750777245,-0.14066250622273,1.208624958992,2.28105020523071,-1.87200009822845,-8.44395065307617,-34.1437530517578,8.10000038146973,-26.3812503814697,0.09691719710827,-0.56482440233231,0.72673338651657,-0.37873321771622,0.79158747196197,-0.23636250197887,1.42807495594025,2.68005013465881,-1.24005007743835,-8.62800025939941,-34.1437530517578,8.10000038146973,-26.3812503814697,0.08896061778069,-0.56026077270508,0.72587490081787,-0.38897231221199,1.25166249275208,-0.37963750958443,1.63762497901917,2.62995004653931,-0.76095002889633,-9.46905040740967,-34.1062507629395,8.11875057220459,-26.4375019073486,0.07939119637012,-0.55247020721436,0.72619062662125,-0.40139868855476,1.49627494812012,-0.53528749942779,1.65055000782013,2.81205010414124,-0.29895001649857,-9.62895011901855,-34.0875015258789,8.11875057220459,-26.4750003814697,0.06988397985697,-0.54249972105026,0.72724497318268,-0.41463845968246,1.6574250459671,-0.64927500486374,1.62002503871918,2.92500019073486,-0.1219500079751,-9.27195072174072,-34.0687522888184,8.13750076293945,-26.4750003814697,0.06064135581255,-0.53092569112778,0.7287974357605,-0.42812940478325,1.6574250459671,-0.64927500486374,1.62002503871918,2.92500019073486,-0.1219500079751,-9.27195072174072,-34.0687522888184,8.15625,-26.4750003814697,0.0513820014894,-0.51912820339203,0.73006635904312,-0.44143962860107,1.74171245098114,-0.71637499332428,1.54866254329681,2.4340500831604,-0.54105001688003,-9.50505065917969,-34.0875015258789,8.13750076293945,-26.5125007629395,0.04248196259141,-0.50631445646286,0.73164242506027,-0.45446699857712,1.79464995861053,-0.64143747091293,1.36125004291534,1.26495003700256,-10.5559501647949,-7.39500045776367,-34.1062507629395,8.13750076293945,-26.5312519073486,0.02495533227921,-0.47968965768814,0.73548460006714,-0.47784680128098,1.89433753490448,-0.41057500243187,1.28301250934601,-0.15105000138283,-16.0939502716064,-5.68305015563965,-34.0875015258789,8.13750076293945,-26.5687503814697,0.01456627435982,-0.46631297469139,0.73804819583893,-0.48746776580811,1.81939995288849,-0.22769999504089,1.1255749464035,-1.44405007362366,-6.40395021438599,-13.2199506759644,-34.03125,8.13750076293945,-26.5875015258789,0.00387614849024,-0.45403450727463,0.74060148000717,-0.49532529711723,1.81939995288849,-0.22769999504089,1.1255749464035,-1.44405007362366,-6.40395021438599,-13.2199506759644,-34.0125007629395,8.10000038146973,-26.6250019073486,-0.00680853892118,-0.44159513711929,0.74291557073593,-0.50301456451416,1.63872504234314,-0.00013749999925,0.91698747873306,-0.15300001204014,-3.84705018997192,-16.1610012054443,-34.0125007629395,8.10000038146973,-26.6250019073486,-0.01730269193649,-0.43112468719482,0.74520373344421,-0.50843250751495,1.386549949646,0.0,0.68227499723434,-0.07695000618696,-0.80400002002716,-15.3829507827759,-33.9937515258789,8.00625038146973,-26.6250019073486,-0.02581523731351,-0.42217576503754,0.74739480018616,-0.5123496055603,1.01639997959137,0.0,0.39434999227524,1.63200008869171,3.56205010414124,-15.0019502639771,-33.9562530517578,7.85625028610229,-26.6250019073486,-0.03156009688973,-0.41557791829109,0.74939513206482,-0.51449573040009,0.38582500815392,0.00013749999925,-0.16376249492168,3.5179500579834,7.33800029754639,-5.68095016479492,-33.75,7.46250009536743,-26.6812515258789,-0.03229435905814,-0.41314497590065,0.75152415037155,-0.5133028626442,0.38582500815392,0.00013749999925,-0.16376249492168,3.5179500579834,7.33800029754639,-5.68095016479492,-33.6000022888184,7.25625038146973,-26.7187519073486,-0.03302505984902,-0.4107084274292,0.75364232063294,-0.51210451126099,0.00013749999925,0.14382499456406,-0.4446749985218,4.36395025253296,7.28805017471313,-2.70495009422302,-33.6000022888184,7.25625038146973,-26.7187519073486,-0.03196008503437,-0.41139867901802,0.75559562444687,-0.50872880220413,-0.52511250972748,0.30291250348091,-1.08556246757507,4.89495038986206,8.86800003051758,-4.04595041275024,-33.1125030517578,6.88125038146973,-26.8312511444092,-0.02531129680574,-0.41840869188309,0.76095616817474,-0.49521607160568,-1.00402498245239,0.27252501249313,-1.45461249351501,4.78500032424927,9.58605003356934,-5.61405038833618,-32.8312530517578,6.73125028610229,-26.9062519073486,-0.01742814667523,-0.42611727118492,0.76339185237884,-0.48513209819794,-1.00402498245239,0.27252501249313,-1.45461249351501,4.78500032424927,9.58605003356934,-5.61405038833618,-32.5687522888184,6.65625047683716,-26.9625015258789,-0.00954782404006,-0.43373280763626,0.76565092802048,-0.47493502497673,-1.31848752498627,0.2939749956131,-1.75078749656677,4.56494998931885,9.3589506149292,-6.01095008850098,-32.3250007629395,6.65625047683716,-27.0000019073486,0.00049272412434,-0.44333800673485,0.76772099733353,-0.46266156435013,-1.51139998435974,0.3466374874115,-1.98343753814697,3.98505020141602,7.51995038986206,-6.02100038528442,-32.3250007629395,6.65625047683716,-27.0000019073486,0.01175899431109,-0.45419785380363,0.76967775821686,-0.44851118326187,-1.59252500534058,0.41813749074936,-2.13207507133484,3.3120002746582,5.46495008468628,-6.31500053405762,-32.1000022888184,6.71250009536743,-27.0375003814697,0.02335541509092,-0.46560323238373,0.77153450250626,-0.432900339365,-1.53092503547668,0.47973749041557,-2.15407490730286,3.22095012664795,5.34600019454956,-7.53405046463013,-31.9875011444092,6.75000047683716,-27.0937519073486,0.03435461595654,-0.47659349441528,0.77332764863968,-0.41670441627502,-1.47564995288849,0.53886252641678,-2.14114999771118,3.15405011177063,5.5900502204895,-8.06295013427734,-31.9500007629395,6.80625009536743,-27.1500015258789,0.0446953587234,-0.48720607161522,0.77491497993469,-0.40017393231392,-1.47564995288849,0.53886252641678,-2.14114999771118,3.15405011177063,5.5900502204895,-8.06295013427734,-31.9687519073486,6.86250019073486,-27.1312503814697,0.05500551313162,-0.49758487939835,0.77611190080643,-0.38344988226891,-1.43976247310638,0.56388747692108,-2.08216238021851,2.38095021247864,3.74400019645691,-6.86805009841919,-32.0625,6.90000009536743,-27.1312503814697,0.06471426784992,-0.50759708881378,0.77691119909286,-0.36683288216591,-1.28686249256134,0.41208750009537,-1.75230002403259,1.17705011367798,-0.98400002717972,-7.74495029449463,-32.1937522888184,6.91875028610229,-27.1500015258789,0.08227785676718,-0.52530831098556,0.77698767185211,-0.33700400590897,SWING_RIGHT
1.14908754825592,-0.42088750004768,1.95951247215271,3.23295021057129,-0.81405001878738,-8.76000022888184,-32.4562530517578,9.03750038146973,-27.6000003814697,0.03841662034392,-0.57000893354416,0.720782995224,-0.39253759384155,1.31642496585846,-0.50599998235703,1.95016252994537,3.22095012664795,-1.01205003261566,-8.41800022125244,-32.4000015258789,9.09375,-27.6187515258789,0.02778925187886,-0.56082779169083,0.7205371260643,-0.40684893727303,1.31642496585846,-0.50599998235703,1.95016252994537,3.22095012664795,-1.01205003261566,-8.41800022125244,-32.34375,9.15000057220459,-27.6375007629395,0.01715707592666,-0.55141180753708,0.72001272439957,-0.42098969221115,1.41253745555878,-0.56237500905991,1.86463749408722,3.32205009460449,-0.96705007553101,-8.42505073547363,-32.3062515258789,9.1875,-27.6750011444092,0.00692393770441,-0.5409791469574,0.71994352340698,-0.43471240997314,1.45213747024536,-0.56237500905991,1.73222494125366,3.38205027580261,-0.65595000982285,-8.5420503616333,-32.3062515258789,9.1875,-27.6750011444092,-0.00284085329622,-0.5300863981247,0.72025626897812,-0.44747221469879,1.4198249578476,-0.51452499628067,1.54824995994568,3.1189501285553,-0.34005001187325,-8.76195049285889,-32.2312507629395,9.22500038146973,-27.6937503814697,-0.0119527420029,-0.51937943696976,0.72085458040237,-0.45877093076706,1.30322504043579,-0.40012499690056,1.32123744487762,2.69700002670288,-0.72495001554489,-9.50895023345947,-32.15625,9.30000019073486,-27.7312507629395,-0.02034873142838,-0.50966662168503,0.72159832715988,-0.4681042432785,1.15005004405975,-0.24378749728203,1.08831250667572,1.92405009269714,-3.49095010757446,-10.0840501785278,-32.1000022888184,9.375,-27.7500019073486,-0.0281867813319,-0.50136625766754,0.72244733572006,-0.4752967953682,1.15005004405975,-0.24378749728203,1.08831250667572,1.92405009269714,-3.49095010757446,-10.0840501785278,-31.9875011444092,9.45000076293945,-27.7500019073486,-0.03601317852736,-0.49296763539314,0.72317051887512,-0.48240062594414,1.08239996433258,0.0,0.82940000295639,1.72695004940033,-10.6180505752563,-8.46300029754639,-31.8187503814697,9.5625,-27.6562519073486,-0.05231761932373,-0.47881299257278,0.72535228729248,-0.49179780483246,1.01543748378754,0.00013749999925,0.7374125123024,0.85395002365112,-7.34295034408569,-12.9709510803223,-31.6687507629395,9.65625,-27.5812511444092,-0.05967396497726,-0.47207450866699,0.72658318281174,-0.49564257264137,0.8427374958992,0.00013749999925,0.61022502183914,0.77505004405975,-6.16995048522949,-16.2589511871338,-31.5750007629395,9.69375038146973,-27.6000003814697,-0.06579008698463,-0.46641021966934,0.72756367921829,-0.49878293275833,0.8427374958992,0.00013749999925,0.61022502183914,0.77505004405975,-6.16995048522949,-16.2589511871338,-31.5375003814697,9.69375038146973,-27.6375007629395,-0.07189696282148,-0.46070447564125,0.72848778963089,-0.50188416242599,0.72256249189377,0.0,0.518374979496,-2.35605001449585,-6.88095045089722,-13.3590002059937,-31.4812507629395,9.61875057220459,-27.6937503814697,-0.07720168679953,-0.45572504401207,0.72925436496735,-0.50452214479446,0.59839999675751,-0.00013749999925,0.41937500238419,-1.34595000743866,-1.13505005836487,-11.4079504013062,-31.4062519073486,9.48750019073486,-27.7500019073486,-0.08150555938482,-0.45158633589745,0.72987514734268,-0.50666451454163,0.42597499489784,-0.172562494874,0.26166251301765,1.11900007724762,2.82900023460388,-9.91395092010498,-31.4062519073486,9.48750019073486,-27.7500019073486,-0.08321158587933,-0.44793164730072,0.73060196638107,-0.50858020782471,0.23622499406338,-0.21628749370575,0.00013749999925,2.99895024299622,6.8730001449585,-8.28600025177002,-31.2937507629395,9.35625076293945,-27.7875003814697,-0.08262227475643,-0.44550076127052,0.73173063993454,-0.50918835401535,0.0,-0.21628749370575,-0.15647499263287,5.75895023345947,11.1109504699707,-5.86005020141602,-31.1062507629395,9.22500038146973,-27.8437519073486,-0.08029325306416,-0.44466373324394,0.73264390230179,-0.5089795589447,0.0,-0.21628749370575,-0.15647499263287,5.75895023345947,11.1109504699707,-5.86005020141602,-30.8437519073486,9.13125038146973,-27.9187507629395,-0.07796243578196,-0.44382482767105,0.73355156183243,-0.50876677036285,-0.44137498736381,-0.00013749999925,-0.76518750190735,7.2610502243042,9.58395004272461,-2.33595013618469,-30.3187503814697,9.13125038146973,-28.0500011444092,-0.06884654611349,-0.44772440195084,0.73660033941269,-0.50221800804138,-0.776187479496,0.0,-1.15857493877411,5.49795007705688,8.78205013275146,-3.74595022201538,-30.3187503814697,9.13125038146973,-28.0500011444092,-0.06082059442997,-0.45310178399086,0.73860865831375,-0.49543589353561,-1.02960002422333,0.0,-1.52762496471405,5.60100030899048,9.23895072937012,-5.32200002670288,-30.0750007629395,9.16875076293945,-28.1250019073486,-0.05037793517113,-0.4601317346096,0.7410381436348,-0.48641893267631,-1.15939998626709,0.00013749999925,-1.85061252117157,5.27805042266846,9.1360502243042,-5.80305004119873,-29.9062519073486,9.20625019073486,-28.1625003814697,-0.03817812353373,-0.46796330809593,0.74405628442764,-0.47532397508621,-1.15939998626709,0.00013749999925,-1.85061252117157,5.27805042266846,9.1360502243042,-5.80305004119873,-29.8125019073486,9.24375057220459,-28.1812515258789,-0.02597325108945,-0.4756381213665,0.7468181848526,-0.46406510472298,-1.29236245155334,0.26372501254082,-2.18680000305176,4.93305015563965,8.35095024108887,-5.21400022506714,-29.7750015258789,9.28125,-28.1812515258789,-0.01355793513358,-0.48504170775414,0.74999380111694,-0.44951099157333,-1.38448750972748,0.47231251001358,-2.47046256065369,3.97800016403198,6.90900039672852,-4.45005035400391,-29.7750015258789,9.28125,-28.1812515258789,-0.0009623944643,-0.49558109045029,0.75343805551529,-0.43212226033211,-1.41680002212524,0.62837499380112,-2.64219999313354,3.18105006217957,5.77005004882812,-5.08005046844482,-29.7562503814697,9.31875038146973,-28.1812515258789,0.01142318360507,-0.50657331943512,0.75689458847046,-0.41275125741959,-1.40359997749329,0.71719998121262,-2.70819997787476,2.48205018043518,5.51100015640259,-6.70800018310547,-29.7187519073486,9.35625076293945,-28.1812515258789,0.023397102952,-0.51743680238724,0.76012086868286,-0.39233645796776,-1.31642496585846,0.7264124751091,-2.6637876033783,2.15595006942749,5.62605047225952,-8.58795070648193,-29.7562503814697,9.375,-28.2000007629395,0.03476163372397,-0.52744150161743,0.76306068897247,-0.37193486094475,-1.20793747901917,0.66054999828339,-2.54320001602173,1.47405004501343,4.51500034332275,-8.36205005645752,-29.9062519073486,9.41250038146973,-28.2562503814697,0.056924238801,-0.54561388492584,0.76754832267761,-0.33156383037567,SWING_RIGHT
0.94723749160767,-0.51754999160767,1.7410249710083,3.3510000705719,-1.03200006484985,-8.62800025939941,-30.7500019073486,10.2375001907349,-27.6750011444092,0.10342560708523,-0.60265511274338,0.71168893575668,-0.3458454310894,1.26568746566772,-0.64597499370575,1.85927498340607,3.63105010986328,-0.49500003457069,-9.05400085449219,-30.7500019073486,10.2375001907349,-27.6750011444092,0.09421100467443,-0.59467488527298,0.7121387720108,-0.36103230714798,1.49448752403259,-0.76889997720718,1.88759994506836,3.61200022697449,-0.21000000834465,-9.19305038452148,-30.7125015258789,10.21875,-27.7125015258789,0.0848691239953,-0.58474344015122,0.71325212717056,-0.37701943516731,1.60874998569489,-0.80795001983643,1.84703743457794,3.66000008583069,-0.06705000251532,-8.87205028533936,-30.6937503814697,10.21875,-27.7312507629395,0.07557512819767,-0.57371157407761,0.71471071243286,-0.39285132288933,1.60874998569489,-0.80795001983643,1.84703743457794,3.66000008583069,-0.06705000251532,-8.87205028533936,-30.6937503814697,10.2000007629395,-27.7500019073486,0.06625259667635,-0.56240797042847,0.71585124731064,-0.40849098563194,1.6356999874115,-0.770687520504,1.75848746299744,3.61200022697449,-0.1219500079751,-8.55600070953369,-30.6937503814697,10.1812505722046,-27.7687511444092,0.05700907483697,-0.55075937509537,0.71713095903397,-0.42324632406235,1.56543743610382,-0.64666247367859,1.60833752155304,3.29595017433167,-0.2029500156641,-8.41305065155029,-30.6562519073486,10.1812505722046,-27.7687511444092,0.04793322086334,-0.5396620631218,0.71839147806168,-0.43632674217224,1.44223749637604,-0.46681249141693,1.42711246013641,3.27195024490356,-0.16005000472069,-8.68994998931885,-30.6562519073486,10.1812505722046,-27.7687511444092,0.03903116285801,-0.52969253063202,0.71959143877029,-0.44731473922729,1.28466248512268,-0.27871251106262,1.22608745098114,3.29595017433167,0.16200000047684,-8.88900089263916,-30.6375007629395,10.2000007629395,-27.7875003814697,0.03048216365278,-0.52116101980209,0.72071802616119,-0.4561003446579,1.07566249370575,-0.00013749999925,0.99302500486374,3.18105006217957,0.61500000953674,-9.43994998931885,-30.5812511444092,10.21875,-27.8062515258789,0.01366382557899,-0.5083281993866,0.72268092632294,-0.46813246607781,0.85153746604919,0.0,0.75707501173019,2.56095004081726,-0.90495002269745,-11.2189502716064,-30.5812511444092,10.21875,-27.7875003814697,0.00704346643761,-0.50310480594635,0.7235072851181,-0.47262358665466,0.7763249874115,0.24777500331402,0.63318747282028,3.75300025939941,-11.953950881958,-2.34300017356873,-30.5812511444092,10.21875,-27.7875003814697,-0.00014859146904,-0.49913516640663,0.72463327646256,-0.47515323758125,0.88357502222061,0.38541248440742,0.66206252574921,0.3120000064373,-15.3589506149292,-10.006950378418,-30.5437507629395,10.2375001907349,-27.7687511444092,-0.00894546322525,-0.49501314759255,0.72596299648285,-0.47734642028809,0.87202501296997,0.36465001106262,0.66426247358322,-0.91695004701614,-7.36005020141602,-19.3470001220703,-30.5625019073486,10.2562503814697,-27.8437519073486,-0.01760377548635,-0.49090045690536,0.72705310583115,-0.47968810796738,0.87202501296997,0.36465001106262,0.66426247358322,-0.91695004701614,-7.36005020141602,-19.3470001220703,-30.6562519073486,10.2000007629395,-27.9750003814697,-0.02625874057412,-0.48673528432846,0.72807276248932,-0.48198491334915,0.79254996776581,0.29589998722076,0.62658751010895,-2.13105010986328,-5.03205013275146,-20.6310005187988,-30.7687511444092,10.0875005722046,-28.0875015258789,-0.03400588035584,-0.48275256156921,0.72883546352386,-0.48434761166573,0.68076246976852,0.22096249461174,0.53528749942779,0.24105000495911,-0.72495001554489,-15.6079511642456,-30.7687511444092,9.95625019073486,-28.1437511444092,-0.04038706049323,-0.47916552424431,0.72948145866394,-0.48644232749939,0.54614996910095,0.16390000283718,0.38995000720024,0.50205004215241,1.67295002937317,-9.52095031738281,-30.7687511444092,9.95625019073486,-28.1437511444092,-0.04518885910511,-0.47622522711754,0.73013335466385,-0.48792707920075,0.3814249932766,0.00013749999925,0.2088624984026,2.82405018806458,6.22905015945435,-5.74305009841919,-30.6562519073486,9.86250019073486,-28.1625003814697,-0.04724825173616,-0.47377985715866,0.73087698221207,-0.48899820446968,0.23264999687672,0.00013749999925,0.0,6.48000049591064,8.42700004577637,-2.08004999160767,-30.3375015258789,9.75,-28.2187519073486,-0.04820907115936,-0.47091248631477,0.73293542861938,-0.48859292268753,0.16554999351502,0.16390000283718,-0.14245000481605,7.93605041503906,7.12905025482178,-1.05300009250641,-30.1500015258789,9.75,-28.2375011444092,-0.04884493350983,-0.47060427069664,0.7342426776886,-0.48686081171036,0.00013749999925,0.19634999334812,-0.29521250724793,6.86295032501221,6.92100048065186,-2.9850001335144,-30.0000019073486,9.75,-28.2562503814697,-0.04844323918223,-0.47149449586868,0.73549491167069,-0.48414200544357,-0.00013749999925,0.15221250057221,-0.57639998197555,5.64195013046265,7.52895021438599,-6.02100038528442,-30.0000019073486,9.75,-28.2562503814697,-0.0467334613204,-0.47230273485184,0.73786288499832,-0.47990038990974,-0.50407499074936,0.00013749999925,-0.99206250905991,5.35005044937134,7.74000024795532,-7.56495046615601,-29.8875007629395,9.78750038146973,-28.2750015258789,-0.04047338292003,-0.47572764754295,0.73991942405701,-0.47388228774071,-0.74483752250671,0.21023750305176,-1.34392499923706,4.92600011825562,7.0770001411438,-7.01895046234131,-29.8312511444092,9.82500076293945,-28.2750015258789,-0.03316408768296,-0.48152273893356,0.74224084615707,-0.46488112211227,-0.86817497014999,0.35089999437332,-1.63817501068115,4.66500043869019,6.50700044631958,-5.36505031585693,-29.8125019073486,9.90000057220459,-28.2750015258789,-0.02503312192857,-0.48861312866211,0.74500632286072,-0.45342707633972,-0.93664997816086,0.48881250619888,-1.88691246509552,4.54995012283325,6.56895017623901,-4.8600001335144,-29.8125019073486,9.90000057220459,-28.2750015258789,-0.01647251658142,-0.4965637922287,0.74817734956741,-0.43975415825844,-0.98271250724793,0.60554999113083,-2.09165000915527,4.90200042724609,6.56400012969971,-4.87604999542236,-29.7937507629395,9.91875076293945,-28.2750015258789,-0.00762260518968,-0.50507497787476,0.75161778926849,-0.42416006326675,-0.98271250724793,0.71472501754761,-2.21608757972717,5.05605030059814,5.98305034637451,-4.70895004272461,-29.7187519073486,9.97500038146973,-28.2375011444092,0.00106080144178,-0.51376217603684,0.75517463684082,-0.40713474154472,-0.95521247386932,0.75625002384186,-2.23341250419617,4.98600006103516,5.60205030441284,-5.25495004653931,-29.4375019073486,10.0875005722046,-28.0500011444092,0.01810530014336,-0.53039902448654,0.76142847537994,-0.37225770950317,SWING_RIGHT
-0.00013749999925,-0.00013749999925,-0.18095000088215,3.37695026397705,0.68205004930496,-9.08295059204102,-34.59375,9.61875057220459,-28.0875015258789,0.00806296244264,-0.51509928703308,0.77256673574448,-0.37114480137825,-0.00013749999925,-0.00013749999925,-0.17902499437332,3.26205015182495,0.35100001096726,-9.11400032043457,-34.59375,9.61875057220459,-28.0875015258789,0.00878562964499,-0.5150004029274,0.77323991060257,-0.36986145377159,-0.00013749999925,-0.00013749999925,-0.17902499437332,3.26205015182495,0.35100001096726,-9.11400032043457,-34.6312522888184,9.58125019073486,-28.0687503814697,0.00950752012432,-0.51490145921707,0.77391016483307,-0.36857733130455,0.0,-0.00013749999925,-0.16348749399185,2.81895017623901,-0.22995001077652,-9.34200000762939,-34.6687507629395,9.54375076293945,-28.0500011444092,0.0101187042892,-0.51479357481003,0.77453190088272,-0.36740383505821,0.0,-0.14630000293255,-0.00013749999925,2.80200004577637,-0.43800002336502,-9.81600093841553,-34.7062530517578,9.52500057220459,-28.0312519073486,0.01095858961344,-0.51424950361252,0.77463984489441,-0.36791357398033,0.0,-0.16046249866486,-0.00013749999925,3.02505016326904,-0.92400002479553,-9.67695045471191,-34.7250022888184,9.50625038146973,-28.0125007629395,0.0118800830096,-0.51365268230438,0.7747591137886,-0.36846739053726,0.0,-0.16266250610352,-0.00013749999925,3.33405017852783,-1.45800006389618,-9.05205059051514,-34.7250022888184,9.50625038146973,-28.0125007629395,0.0128136863932,-0.51303762197494,0.77489632368088,-0.3690040409565,0.0,-0.16266250610352,-0.00013749999925,3.33405017852783,-1.45800006389618,-9.05205059051514,-34.7250022888184,9.48750019073486,-28.0125007629395,0.01374763436615,-0.51242178678513,0.77503275871277,-0.36953914165497,0.0,-0.15702499449253,0.0,3.13995003700256,-3.38295006752014,-8.67405033111572,-34.6687507629395,9.52500057220459,-27.9375019073486,0.01458315830678,-0.5117900967598,0.7751984000206,-0.37003463506699,0.3119874894619,-0.171875,0.34540000557899,1.84005010128021,-14.9209508895874,-11.9400005340576,-34.4812507629395,9.61875057220459,-27.6937503814697,0.01374510489404,-0.50837081670761,0.77584803104401,-0.37340354919434,0.61764997243881,-0.17311249673366,0.65972501039505,0.56400001049042,-16.4820003509521,-12.7080001831055,-34.4625015258789,9.65625,-27.7312507629395,0.00985179841518,-0.5036689043045,0.77657729387283,-0.37834924459457,0.77439999580383,-0.26771250367165,0.87669998407364,-0.58200001716614,-7.77195024490356,-16.7689514160156,-34.4625015258789,9.65625,-27.7312507629395,0.00515929702669,-0.49770197272301,0.77712845802307,-0.38514614105225,0.77439999580383,-0.26771250367165,0.87669998407364,-0.58200001716614,-7.77195024490356,-16.7689514160156,-34.40625,9.69375038146973,-27.7500019073486,0.00046856081462,-0.49167653918266,0.7776055932045,-0.39189752936363,0.87161248922348,-0.35089999437332,1.03427493572235,-0.45495003461838,-5.93505048751831,-15.1620006561279,-34.3312530517578,9.67500019073486,-27.7687511444092,-0.00463075423613,-0.48469373583794,0.77786892652512,-0.39996299147606,0.865149974823,-0.40713748335838,1.09243750572205,1.07595002651215,3.1840500831604,-12.4350004196167,-34.21875,9.60000038146973,-27.7875003814697,-0.00929874368012,-0.47759068012237,0.7777299284935,-0.40860339999199,0.75858747959137,-0.41758748888969,1.04733753204346,2.66400003433228,7.17300033569336,-9.61905002593994,-34.0687522888184,9.50625038146973,-27.8062515258789,-0.01312207430601,-0.47112914919853,0.77719378471375,-0.41693526506424,0.63346248865128,-0.40466248989105,0.96387499570847,2.85495018959045,7.83105039596558,-6.1690502166748,-34.0687522888184,9.50625038146973,-27.8062515258789,-0.01614944636822,-0.46549716591835,0.77635651826858,-0.42464363574982,0.49238750338554,-0.36712500452995,0.84136247634888,4.11195039749146,9.35400009155273,-1.69905006885529,-33.8625030517578,9.39375019073486,-27.8437519073486,-0.01831272989511,-0.4609003663063,0.77533638477325,-0.43138042092323,0.49238750338554,-0.36712500452995,0.84136247634888,4.11195039749146,9.35400009155273,-1.69905006885529,-33.6000022888184,9.28125,-27.8812503814697,-0.02047225087881,-0.45627009868622,0.77426040172577,-0.43808597326279,0.00013749999925,-0.15743750333786,0.41909998655319,6.74805021286011,10.3230009078979,0.15300001204014,-32.9250030517578,9.11250019073486,-27.9375019073486,-0.02192374877632,-0.45241484045982,0.77164578437805,-0.44654557108879,-0.29163751006126,0.0,0.0,5.47905015945435,10.4260501861572,-1.53195011615753,-32.5687522888184,9.01875019073486,-27.9562511444092,-0.02035916410387,-0.45429483056068,0.770592212677,-0.44653028249741,-0.75487500429153,0.00013749999925,-0.45045000314713,5.05305004119873,10.4020500183105,-3.06600022315979,-32.5687522888184,9.01875019073486,-27.9562511444092,-0.01539418660104,-0.45920819044113,0.76943254470825,-0.44369423389435,-0.75487500429153,0.00013749999925,-0.45045000314713,5.05305004119873,10.4020500183105,-3.06600022315979,-32.2312507629395,8.94375038146973,-27.9937515258789,-0.01043251063675,-0.4640956223011,0.76822811365128,-0.44083106517792,-1.05820000171661,0.26124998927116,-0.86803752183914,4.7039999961853,9.65295028686523,-3.39405012130737,-31.8750019073486,8.88750076293945,-28.0312519073486,-0.00442696548998,-0.47187188267708,0.76728665828705,-0.43426769971848,-1.28369998931885,0.4493499994278,-1.24657499790192,4.8469500541687,8.84595012664795,-3.03000020980835,-31.5375003814697,8.83125019073486,-28.0500011444092,0.00267813703977,-0.48169168829918,0.76668184995651,-0.42445832490921,-1.40772497653961,0.63029998540878,-1.53862500190735,4.43100023269653,8.39595031738281,-3.05205011367798,-31.2000007629395,8.79375076293945,-28.0687503814697,0.01022552605718,-0.49279755353928,0.76639038324356,-0.41193673014641,-1.41734993457794,0.75363749265671,-1.70871245861053,3.73395013809204,6.93105030059814,-4.70205020904541,-30.9000015258789,8.73750019073486,-28.0875015258789,0.01764636300504,-0.50418835878372,0.76638162136078,-0.39767062664032,-1.38833749294281,0.83022499084473,-1.80358743667603,3.52800011634827,5.78895044326782,-6.22005033493042,-30.9000015258789,8.73750019073486,-28.0875015258789,0.02479577437043,-0.51542109251022,0.76652616262436,-0.38231375813484,-1.34323751926422,0.85841250419617,-1.8434624671936,3.26700019836426,5.44905042648315,-6.60495042800903,-30.4312515258789,8.60625076293945,-28.2000007629395,0.03175365179777,-0.52623599767685,0.76667433977127,-0.36643943190575,-1.24011254310608,0.73246252536774,-1.82847499847412,1.72695004940033,4.78095006942749,-7.36605024337769,-30.0750007629395,8.49375057220459,-28.2937507629395,0.04608633741736,-0.54577124118805,0.76658964157105,-0.33518671989441,SWING_RIGHT
