gyro_x_0,gyro_y_0,gyro_z_0,accel_x_0,accel_y_0,accel_z_0,mag_x_0,mag_y_0,mag_z_0,ahrs_x_0,ahrs_y_0,ahrs_z_0,ahrs_w_0,gyro_x_1,gyro_y_1,gyro_z_1,accel_x_1,accel_y_1,accel_z_1,mag_x_1,mag_y_1,mag_z_1,ahrs_x_1,ahrs_y_1,ahrs_z_1,ahrs_w_1,gyro_x_2,gyro_y_2,gyro_z_2,accel_x_2,accel_y_2,accel_z_2,mag_x_2,mag_y_2,mag_z_2,ahrs_x_2,ahrs_y_2,ahrs_z_2,ahrs_w_2,gyro_x_3,gyro_y_3,gyro_z_3,accel_x_3,accel_y_3,accel_z_3,mag_x_3,mag_y_3,mag_z_3,ahrs_x_3,ahrs_y_3,ahrs_z_3,ahrs_w_3,gyro_x_4,gyro_y_4,gyro_z_4,accel_x_4,accel_y_4,accel_z_4,mag_x_4,mag_y_4,mag_z_4,ahrs_x_4,ahrs_y_4,ahrs_z_4,ahrs_w_4,gyro_x_5,gyro_y_5,gyro_z_5,accel_x_5,accel_y_5,accel_z_5,mag_x_5,mag_y_5,mag_z_5,ahrs_x_5,ahrs_y_5,ahrs_z_5,ahrs_w_5,gyro_x_6,gyro_y_6,gyro_z_6,accel_x_6,accel_y_6,accel_z_6,mag_x_6,mag_y_6,mag_z_6,ahrs_x_6,ahrs_y_6,ahrs_z_6,ahrs_w_6,gyro_x_7,gyro_y_7,gyro_z_7,accel_x_7,accel_y_7,accel_z_7,mag_x_7,mag_y_7,mag_z_7,ahrs_x_7,ahrs_y_7,ahrs_z_7,ahrs_w_7,gyro_x_8,gyro_y_8,gyro_z_8,accel_x_8,accel_y_8,accel_z_8,mag_x_8,mag_y_8,mag_z_8,ahrs_x_8,ahrs_y_8,ahrs_z_8,ahrs_w_8,gyro_x_9,gyro_y_9,gyro_z_9,accel_x_9,accel_y_9,accel_z_9,mag_x_9,mag_y_9,mag_z_9,ahrs_x_9,ahrs_y_9,ahrs_z_9,ahrs_w_9,gyro_x_10,gyro_y_10,gyro_z_10,accel_x_10,accel_y_10,accel_z_10,mag_x_10,mag_y_10,mag_z_10,ahrs_x_10,ahrs_y_10,ahrs_z_10,ahrs_w_10,gyro_x_11,gyro_y_11,gyro_z_11,accel_x_11,accel_y_11,accel_z_11,mag_x_11,mag_y_11,mag_z_11,ahrs_x_11,ahrs_y_11,ahrs_z_11,ahrs_w_11,gyro_x_12,gyro_y_12,gyro_z_12,accel_x_12,accel_y_12,accel_z_12,mag_x_12,mag_y_12,mag_z_12,ahrs_x_12,ahrs_y_12,ahrs_z_12,ahrs_w_12,gyro_x_13,gyro_y_13,gyro_z_13,accel_x_13,accel_y_13,accel_z_13,mag_x_13,mag_y_13,mag_z_13,ahrs_x_13,ahrs_y_13,ahrs_z_13,ahrs_w_13,gyro_x_14,gyro_y_14,gyro_z_14,accel_x_14,accel_y_14,accel_z_14,mag_x_14,mag_y_14,mag_z_14,ahrs_x_14,ahrs_y_14,ahrs_z_14,ahrs_w_14,gyro_x_15,gyro_y_15,gyro_z_15,accel_x_15,accel_y_15,accel_z_15,mag_x_15,mag_y_15,mag_z_15,ahrs_x_15,ahrs_y_15,ahrs_z_15,ahrs_w_15,gyro_x_16,gyro_y_16,gyro_z_16,accel_x_16,accel_y_16,accel_z_16,mag_x_16,mag_y_16,mag_z_16,ahrs_x_16,ahrs_y_16,ahrs_z_16,ahrs_w_16,gyro_x_17,gyro_y_17,gyro_z_17,accel_x_17,accel_y_17,accel_z_17,mag_x_17,mag_y_17,mag_z_17,ahrs_x_17,ahrs_y_17,ahrs_z_17,ahrs_w_17,gyro_x_18,gyro_y_18,gyro_z_18,accel_x_18,accel_y_18,accel_z_18,mag_x_18,mag_y_18,mag_z_18,ahrs_x_18,ahrs_y_18,ahrs_z_18,ahrs_w_18,gyro_x_19,gyro_y_19,gyro_z_19,accel_x_19,accel_y_19,accel_z_19,mag_x_19,mag_y_19,mag_z_19,ahrs_x_19,ahrs_y_19,ahrs_z_19,ahrs_w_19,gyro_x_20,gyro_y_20,gyro_z_20,accel_x_20,accel_y_20,accel_z_20,mag_x_20,mag_y_20,mag_z_20,ahrs_x_20,ahrs_y_20,ahrs_z_20,ahrs_w_20,gyro_x_21,gyro_y_21,gyro_z_21,accel_x_21,accel_y_21,accel_z_21,mag_x_21,mag_y_21,mag_z_21,ahrs_x_21,ahrs_y_21,ahrs_z_21,ahrs_w_21,gyro_x_22,gyro_y_22,gyro_z_22,accel_x_22,accel_y_22,accel_z_22,mag_x_22,mag_y_22,mag_z_22,ahrs_x_22,ahrs_y_22,ahrs_z_22,ahrs_w_22,gyro_x_23,gyro_y_23,gyro_z_23,accel_x_23,accel_y_23,accel_z_23,mag_x_23,mag_y_23,mag_z_23,ahrs_x_23,ahrs_y_23,ahrs_z_23,ahrs_w_23,gyro_x_24,gyro_y_24,gyro_z_24,accel_x_24,accel_y_24,accel_z_24,mag_x_24,mag_y_24,mag_z_24,ahrs_x_24,ahrs_y_24,ahrs_z_24,ahrs_w_24,gyro_x_25,gyro_y_25,gyro_z_25,accel_x_25,accel_y_25,accel_z_25,mag_x_25,mag_y_25,mag_z_25,ahrs_x_25,ahrs_y_25,ahrs_z_25,ahrs_w_25,gyro_x_26,gyro_y_26,gyro_z_26,accel_x_26,accel_y_26,accel_z_26,mag_x_26,mag_y_26,mag_z_26,ahrs_x_26,ahrs_y_26,ahrs_z_26,ahrs_w_26,gyro_x_27,gyro_y_27,gyro_z_27,accel_x_27,accel_y_27,accel_z_27,mag_x_27,mag_y_27,mag_z_27,ahrs_x_27,ahrs_y_27,ahrs_z_27,ahrs_w_27,gyro_x_28,gyro_y_28,gyro_z_28,accel_x_28,accel_y_28,accel_z_28,mag_x_28,mag_y_28,mag_z_28,ahrs_x_28,ahrs_y_28,ahrs_z_28,ahrs_w_28,gyro_x_29,gyro_y_29,gyro_z_29,accel_x_29,accel_y_29,accel_z_29,mag_x_29,mag_y_29,mag_z_29,ahrs_x_29,ahrs_y_29,ahrs_z_29,ahrs_w_29,motion_type
0.21175000071526,-0.00013749999925,-0.40741249918938,0.95700001716614,4.12200021743774,-9.5910005569458,-29.1000003814697,22.3312511444092,-9.48750019073486,0.61028474569321,-0.48803988099098,0.53684115409851,-0.31807425618172,0.00013749999925,-0.1567499935627,-0.54491251707077,0.49200001358986,5.85300016403198,-9.11400032043457,-28.9312515258789,21.9375,-9.82500076293945,0.61310374736786,-0.48478382825851,0.53755122423172,-0.3164284825325,0.00013749999925,-0.1567499935627,-0.54491251707077,0.49200001358986,5.85300016403198,-9.11400032043457,-28.7625007629395,21.5250015258789,-10.2000007629395,0.61590713262558,-0.48152035474777,0.53824692964554,-0.31478071212769,-0.00013749999925,-0.2255000025034,-0.72930002212524,0.6810000538826,10.5319509506226,-10.6270503997803,-28.7625007629395,21.5250015258789,-10.2000007629395,0.61976081132889,-0.47710999846458,0.53902888298035,-0.31258690357208,-0.40259999036789,-0.30360001325607,-0.98202496767044,0.14505000412464,16.1989517211914,-13.1700010299683,-28.6687507629395,21.0562515258789,-10.6500005722046,0.62598246335983,-0.47297394275665,0.538414478302,-0.30749189853668,-0.76326251029968,-0.39160001277924,-1.300612449646,-1.92495012283325,19.2160511016846,-14.0940008163452,-28.6312503814697,20.53125,-11.1750001907349,0.63469225168228,-0.46852567791939,0.53665232658386,-0.29942241311073,-1.12227499485016,-0.48179998993874,-1.65343749523163,-4.8270001411438,18.4590015411377,-12.6270008087158,-28.5000019073486,20.0437507629395,-11.6812505722046,0.64592170715332,-0.46350809931755,0.53374928236008,-0.28819647431374,-1.12227499485016,-0.48179998993874,-1.65343749523163,-4.8270001411438,18.4590015411377,-12.6270008087158,-28.2750015258789,19.5562515258789,-12.0750007629395,0.65695905685425,-0.45836174488068,0.53069162368774,-0.27690371870995,-1.55196249485016,-0.66921252012253,-2.32471251487732,-8.68395042419434,6.12405014038086,-3.40395021438599,-28.0500011444092,19.0500011444092,-12.4875001907349,0.68497294187546,-0.44446763396263,0.52184426784515,-0.2468583881855,-1.55155003070831,-0.7374125123024,-2.56396245956421,-5.52600049972534,-3.37605023384094,-4.98195028305054,-27.8062515258789,18.5437507629395,-12.8812503814697,0.700514793396,-0.43504145741463,0.51682716608047,-0.23001676797867,-1.43673753738403,-0.72613751888275,-2.67588758468628,-0.23700001835823,-5.39205026626587,-11.3599500656128,-27.5250015258789,18.0750007629395,-13.2937507629395,0.71571916341782,-0.42412257194519,0.51227676868439,-0.2131635248661,-1.33264994621277,-0.69107496738434,-2.71658754348755,-0.05505000427365,-0.55305004119873,-15.2650508880615,-27.2437515258789,17.6812515258789,-13.6875009536743,0.7302383184433,-0.4123247563839,0.50809276103973,-0.19642341136932,-1.33264994621277,-0.69107496738434,-2.71658754348755,-0.05505000427365,-0.55305004119873,-15.2650508880615,-26.9812507629395,17.34375,-14.0250005722046,0.7442814707756,-0.40027216076851,0.50356531143188,-0.17958100140095,-1.29332494735718,-0.69382500648499,-2.72635006904602,-2.77500009536743,2.45295000076294,-10.8120002746582,-26.6812515258789,17.0437507629395,-14.3250007629395,0.75782334804535,-0.38777703046799,0.49881660938263,-0.16283333301544,-1.21549999713898,-0.74800002574921,-2.66199994087219,-4.73594999313354,-1.11795008182526,-6.52605009078979,-26.6812515258789,17.0437507629395,-14.3250007629395,0.77082532644272,-0.37509503960609,0.49348273873329,-0.14699254930019,-0.86886250972748,-0.83833748102188,-2.36266255378723,-2.21700000762939,-12.2200508117676,-9.86400032043457,-26.3062515258789,16.7250003814697,-14.5687503814697,0.78249323368072,-0.36248859763145,0.48796385526657,-0.13489784300327,-0.30662500858307,-0.86075001955032,-1.79822504520416,2.4100501537323,-16.2589511871338,-12.6169509887695,-25.9125003814697,16.3875007629395,-14.8312501907349,0.79163944721222,-0.35105520486832,0.48319602012634,-0.12879751622677,0.26785001158714,-0.84053748846054,-1.10164999961853,1.7370001077652,-17.3029499053955,-9.37305068969727,-25.4250011444092,16.03125,-15.1125001907349,0.79789543151856,-0.34184220433235,0.47938665747643,-0.12920992076397,0.81688749790192,-0.83132499456406,-0.2579500079155,-0.20895001292229,-18.4189510345459,-6.31095027923584,-24.2062511444092,15.3562507629395,-15.5812501907349,0.80710971355438,-0.32677724957466,0.47225660085678,-0.13698275387287,1.32137501239777,-0.81564998626709,0.8068500161171,1.2679500579834,-18.2269515991211,-6.02595043182373,-24.2062511444092,15.3562507629395,-15.5812501907349,0.80651032924652,-0.32608869671822,0.46919122338295,-0.15187729895115,1.70321249961853,-0.72146248817444,2.05658745765686,3.15705013275146,-16.4320507049561,-8.46105003356934,-23.4562511444092,15.0562505722046,-15.7312507629395,0.80133903026581,-0.33228555321693,0.46604776382446,-0.17390078306198,1.96212494373322,-0.61710000038147,3.32695007324219,2.64900016784668,-16.2810001373291,-9.75600051879883,-22.78125,14.7375001907349,-15.9375009536743,0.79120081663132,-0.34583741426468,0.4621040225029,-0.20213280618191,2.22639989852905,-0.49500000476837,4.47507476806641,1.8229501247406,-14.9620504379272,-10.5169506072998,-22.1812515258789,14.4187507629395,-16.1812515258789,0.77569323778152,-0.36564087867737,0.45714512467384,-0.23584946990013,2.22639989852905,-0.49500000476837,4.47507476806641,1.8229501247406,-14.9620504379272,-10.5169506072998,-21.5625,14.1187505722046,-16.4250011444092,0.75879919528961,-0.38476717472076,0.45139026641846,-0.2691185772419,2.55227494239807,-0.30552500486374,5.45599985122681,1.35600006580353,-12.7879505157471,-10.993950843811,-21.5625,14.1187505722046,-16.4250011444092,0.73567306995392,-0.40842562913895,0.44474038481712,-0.30688691139221,2.88722491264343,0.0,6.24896240234375,0.82005006074905,-10.1490001678467,-10.5510005950928,-20.9625015258789,13.8562507629395,-16.6687507629395,0.70570760965347,-0.43524873256683,0.43782690167427,-0.3476248383522,3.0109748840332,0.2080374956131,6.71976232528687,0.54000002145767,-7.05600023269653,-8.82900047302246,-20.4000015258789,13.5937509536743,-16.8937511444092,0.67042410373688,-0.46340098977089,0.42974796891213,-0.38872563838959,2.93961238861084,0.41745001077652,6.89026260375977,0.75495004653931,-4.48200035095215,-7.18695020675659,-19.8562507629395,13.3500003814697,-17.1000003814697,0.63140404224396,-0.49160298705101,0.42046701908112,-0.42762479186058,2.84116244316101,0.58258748054504,6.85300016403198,0.97305005788803,-3.28005003929138,-6.51405048370361,-18.9375,12.8812503814697,-17.53125,0.54620385169983,-0.54282814264297,0.39779078960419,-0.49875983595848,2.70723748207092,0.74717497825623,6.50264978408813,1.38300001621246,-2.16195011138916,-6.9859504699707,-18.9375,12.8812503814697,-17.53125,0.5020769238472,-0.56536221504211,0.38617381453514,-0.52835035324097,SWING_LEFT
-2.45382499694824,-0.70317500829697,-4.15277481079102,3.86805009841919,3.75405025482178,-8.82000064849854,-13.8750009536743,7.55625009536743,-22.9875011444092,0.53850638866425,-0.40549999475479,0.58975976705551,-0.44470664858818,-2.77777504920959,-0.52167499065399,-4.43423748016357,3.88005018234253,4.25205039978027,-8.7049503326416,-13.7437505722046,7.31250047683716,-23.15625,0.56573623418808,-0.39694321155548,0.59393900632858,-0.41184341907501,-3.02898740768433,-0.33880001306534,-4.62192487716675,3.27705025672913,6.68895053863525,-10.2919502258301,-13.5937509536743,7.12500047683716,-23.2687511444092,0.59237056970596,-0.38861221075058,0.59756034612656,-0.37549883127213,-3.17638754844666,-0.15922500193119,-4.76520013809204,1.8229501247406,14.3320503234863,-9.36300086975098,-13.4625005722046,6.95625019073486,-23.3625011444092,0.61773747205734,-0.38003408908844,0.60067230463028,-0.33640316128731,-3.17638754844666,-0.15922500193119,-4.76520013809204,1.8229501247406,14.3320503234863,-9.36300086975098,-13.3312501907349,6.84375047683716,-23.4187507629395,0.64169353246689,-0.37061923742294,0.60241734981537,-0.29658743739128,-3.31663751602173,0.0,-5.00225019454956,0.25005000829697,27.6960010528564,-10.7520008087158,-13.1625003814697,6.75000047683716,-23.4937515258789,0.66440683603287,-0.36017319560051,0.60371297597885,-0.25371113419533,-3.46761250495911,0.52621251344681,-5.36813735961914,-11.8230009078979,18.1720504760742,-2.73795008659363,-12.9937505722046,6.69375038146973,-23.5875015258789,0.68412375450134,-0.34867888689041,0.60659044981003,-0.20602385699749,-3.24348759651184,0.55192500352859,-5.35562515258789,-16.7389507293701,11.1379508972168,-12.3970508575439,-12.8250007629395,6.63750028610229,-23.6625003814697,0.70137637853622,-0.33530011773109,0.60856014490128,-0.15905851125717,-2.82658743858337,0.46392500400543,-5.22004985809326,-16.6500015258789,0.72705000638962,-18.2479515075684,-12.5812501907349,6.69375038146973,-23.71875,0.72960793972015,-0.3033455312252,0.60879898071289,-0.07083585113287,-2.28222489356995,0.28283751010895,-4.85099983215332,-10.5520505905151,-8.16195011138916,-19.2850513458252,-12.5062503814697,6.86250019073486,-23.6625003814697,0.74096143245697,-0.28573769330978,0.60687762498856,-0.03208648785949,-1.68616247177124,0.0,-4.2332124710083,-5.8759503364563,-13.2979507446289,-17.5639514923096,-12.5062503814697,6.86250019073486,-23.6625003814697,0.75090533494949,-0.26836487650871,0.6034243106842,-0.00077156512998,-1.07483744621277,-0.3797749876976,-3.45015001296997,-3.46500015258789,-15.9100503921509,-15.3660011291504,-12.4312505722046,7.10625028610229,-23.5125007629395,0.76017713546753,-0.25248166918755,0.59824997186661,0.02192400023341,-0.44123750925064,-0.80176252126694,-2.53274989128113,0.6240000128746,-15.8160009384155,-14.6310005187988,-12.3375005722046,7.36875009536743,-23.2875003814697,0.7692346572876,-0.23913851380348,0.59148687124252,0.03512929752469,-0.44123750925064,-0.80176252126694,-2.53274989128113,0.6240000128746,-15.8160009384155,-14.6310005187988,-12.2250003814697,7.61250019073486,-23.0437507629395,0.77792942523956,-0.22567598521709,0.584432721138,0.04831954464316,0.25740000605583,-1.18896245956421,-1.44017493724823,1.89000010490417,-17.5639514923096,-12.7540502548218,-12.0937509536743,7.78125047683716,-22.8187503814697,0.78647315502167,-0.21593527495861,0.57640355825424,0.0509006716311,1.0839124917984,-1.56433749198914,-0.00013749999925,2.46300005912781,-18.0570011138916,-10.7779502868652,-12.0937509536743,7.78125047683716,-22.8187503814697,0.79438954591751,-0.21174350380898,0.56786805391312,0.04044592380524,2.02592492103577,-1.95057499408722,1.44402503967285,2.28795003890991,-17.3460006713867,-9.57195091247559,-11.9250001907349,7.87500047683716,-22.6500015258789,0.80150985717773,-0.21267154812813,0.55864995718002,0.01621721684933,2.82218742370605,-2.18446254730225,2.98361253738403,1.85400009155273,-15.28005027771,-9.29100036621094,-11.71875,7.91250038146973,-22.5187511444092,0.80617618560791,-0.21997278928757,0.54886662960053,-0.02091079764068,3.40518736839294,-2.22777509689331,4.43464994430542,2.08905005455017,-12.9289503097534,-9.36795043945312,-11.3812503814697,7.96875047683716,-22.40625,0.804931640625,-0.24722629785538,0.52676832675934,-0.11610046029091,3.74178743362427,-2.10430002212524,5.65881252288818,2.17305016517639,-10.606050491333,-9.05205059051514,-11.3062505722046,8.04375076293945,-22.3687515258789,0.79738408327103,-0.26663500070572,0.51379787921905,-0.17057597637177,3.8836874961853,-1.88416254520416,6.5459623336792,2.24205017089844,-8.17605018615723,-7.87605047225952,-11.3062505722046,8.04375076293945,-22.3687515258789,0.78355610370636,-0.29055660963058,0.49937078356743,-0.22857284545898,3.88203740119934,-1.60998749732971,7.03656244277954,2.19405007362366,-6.20100021362305,-6.94695043563843,-11.3062505722046,8.11875057220459,-22.3125,0.76384401321411,-0.31684455275536,0.4836103618145,-0.28683245182037,3.77863740921021,-1.29057502746582,7.21723747253418,2.33595013618469,-4.60605001449585,-6.38205051422119,-11.4000005722046,8.19375038146973,-22.2750015258789,0.7389925122261,-0.34388145804405,0.46698853373527,-0.34286651015282,3.60318756103516,-0.96002501249313,7.10682487487793,2.16105008125305,-2.95905017852783,-6.72495031356812,-11.6437501907349,8.25,-22.3125,0.71025985479355,-0.37020668387413,0.45018056035042,-0.39473474025726,3.60318756103516,-0.96002501249313,7.10682487487793,2.16105008125305,-2.95905017852783,-6.72495031356812,-12.0187501907349,8.26875019073486,-22.40625,0.67837166786194,-0.39478766918182,0.43143633008003,-0.44476655125618,3.35747504234314,-0.67320001125336,6.69061231613159,2.13705015182495,-1.34295010566711,-7.65405035018921,-12.3562507629395,8.30625057220459,-22.4437503814697,0.64490747451782,-0.41725262999535,0.41332271695137,-0.48903891444206,3.02775001525879,-0.41896250844002,6.03418731689453,2.15805006027222,-0.16005000472069,-8.2140007019043,-12.3562507629395,8.30625057220459,-22.4437503814697,0.61192578077316,-0.43684178590774,0.39668142795563,-0.52664977312088,2.64687490463257,-0.20391249656677,5.19406270980835,2.44095015525818,-0.29700002074242,-8.88000011444092,-12.6375007629395,8.38125038146973,-22.4437503814697,0.58128827810287,-0.45310136675835,0.3823809325695,-0.55730402469635,1.98453748226166,0.0,3.2522873878479,2.48205018043518,-2.16405010223389,-9.99105072021484,-13.2187509536743,8.49375057220459,-22.4625015258789,0.53159016370773,-0.47447121143341,0.3635975420475,-0.60007137060165,1.98453748226166,0.0,3.2522873878479,2.48205018043518,-2.16405010223389,-9.99105072021484,-13.5187501907349,8.53125,-22.4812507629395,0.50850707292557,-0.48251822590828,0.35546228289604,-0.61825823783875,SWING_LEFT
-1.69784998893738,-0.19827499985695,-3.73834991455078,3.40305018424988,3.85200023651123,-8.33895015716553,-15.2437505722046,7.03125047683716,-23.1937503814697,0.50316995382309,-0.33085456490517,0.59414684772491,-0.53323978185654,-2.07336258888245,-0.28517499566078,-3.82772493362427,3.82995009422302,6.56400012969971,-8.41800022125244,-15.2437505722046,7.03125047683716,-23.1937503814697,0.52399742603302,-0.32358664274216,0.60388725996018,-0.5060026049614,-2.63078737258911,-0.31363749504089,-4.25397491455078,0.65505003929138,17.4780006408691,-9.39900016784668,-15.1875009536743,6.82500028610229,-23.2687511444092,0.56859576702118,-0.30915430188179,0.620401263237,-0.44297274947166,-2.63078737258911,-0.31363749504089,-4.25397491455078,0.65505003929138,17.4780006408691,-9.39900016784668,-15.1125001907349,6.73125028610229,-23.2875003814697,0.59029853343964,-0.30125266313553,0.62723553180695,-0.40910875797272,-2.91252493858337,-0.26468750834465,-4.65437507629395,-1.01295006275177,28.2589511871338,-4.24695014953613,-15.0375003814697,6.65625047683716,-23.3250007629395,0.61257809400559,-0.29245001077652,0.63373231887817,-0.37095072865486,-3.14256238937378,-0.00013749999925,-5.08488750457764,-5.80200004577637,20.2770004272461,-4.10100030899048,-15.0375003814697,6.65625047683716,-23.3250007629395,0.63380098342895,-0.28286552429199,0.64089292287827,-0.32793253660202,-3.09416246414185,-0.00013749999925,-5.34393739700317,-10.9249505996704,11.6430006027222,-9.56400012969971,-14.9437503814697,6.56250047683716,-23.34375,0.65385264158249,-0.27103221416473,0.64724141359329,-0.28301361203194,-2.85628747940063,0.0,-5.38848733901978,-11.577000617981,6.33195018768311,-15.748950958252,-14.8312501907349,6.50625038146973,-23.3625011444092,0.67174154520035,-0.2570466697216,0.65255910158157,-0.23844684660435,-2.48655009269714,-0.00013749999925,-5.22046232223511,-10.8510007858276,-1.45500004291534,-16.0099506378174,-14.7375001907349,6.48750019073486,-23.3812503814697,0.68692141771316,-0.24142728745937,0.65673834085465,-0.1963327229023,-2.48655009269714,-0.00013749999925,-5.22046232223511,-10.8510007858276,-1.45500004291534,-16.0099506378174,-14.6812505722046,6.50625038146973,-23.3625011444092,0.70055645704269,-0.22527547180653,0.65940701961517,-0.15379846096039,-2.04352498054504,-0.23911249637604,-4.85278749465942,-7.96395015716553,-10.4440507888794,-13.1250009536743,-14.6250009536743,6.60000038146973,-23.2875003814697,0.7128204703331,-0.20806746184826,0.65964204072952,-0.11604826152325,-1.55306243896484,-0.42212501168251,-4.28477478027344,-3.97200012207031,-14.32200050354,-13.8070507049561,-14.6250009536743,6.60000038146973,-23.2875003814697,0.72348207235336,-0.19100753962994,0.65799289941788,-0.08446980267763,-0.52483749389648,-0.85689997673035,-2.51693749427795,1.0639500617981,-13.3930501937866,-12.526050567627,-14.5312509536743,6.95625019073486,-22.96875,0.74129605293274,-0.16293302178383,0.6495355963707,-0.04512914270163,0.00013749999925,-1.08459997177124,-1.25743746757507,1.87800014019012,-15.6030006408691,-9.73695087432861,-14.5125007629395,7.12500047683716,-22.7625007629395,0.74879705905914,-0.1551118940115,0.64312905073166,-0.040352974087,0.93279999494553,-1.32013750076294,0.27114999294281,1.86900007724762,-16.7260513305664,-8.76900005340576,-14.4750003814697,7.38750028610229,-22.2750015258789,0.75513565540314,-0.15170092880726,0.63582009077072,-0.04989670962095,1.7410249710083,-1.552649974823,1.82173752784729,2.83095002174377,-15.5790004730225,-9.28905010223389,-14.4750003814697,7.38750028610229,-22.2750015258789,0.760089635849,-0.1536033898592,0.62716734409332,-0.07301236689091,2.29391241073608,-1.56571245193481,3.14558744430542,2.48205018043518,-13.3240509033203,-9.73905086517334,-14.4000005722046,7.50000047683716,-22.0687503814697,0.76234692335129,-0.16085329651833,0.61775040626526,-0.1064790263772,2.66282486915588,-1.48211252689362,4.26483726501465,2.11500000953674,-10.992000579834,-9.53805065155029,-14.2687501907349,7.55625009536743,-21.9000015258789,0.76110255718231,-0.17312936484814,0.60738933086395,-0.14774067699909,2.66282486915588,-1.48211252689362,4.26483726501465,2.11500000953674,-10.992000579834,-9.53805065155029,-14.1562509536743,7.51875019073486,-21.8062515258789,0.75835072994232,-0.18505683541298,0.59585827589035,-0.18870885670185,2.84803748130798,-1.31725001335144,5.09740018844604,2.29305005073547,-9.05505084991455,-9.3390007019043,-14.0437507629395,7.42500019073486,-21.8062515258789,0.75148218870163,-0.20115552842617,0.58303809165955,-0.23425956070423,2.89066243171692,-1.11251246929169,5.64052486419678,2.24205017089844,-7.49400043487549,-8.54400062561035,-14.0437507629395,7.42500019073486,-21.8062515258789,0.74055701494217,-0.22026869654656,0.56895565986633,-0.28168526291847,2.83607506752014,-0.87725001573563,5.91112518310547,2.08695006370544,-6.49995040893555,-7.90005016326904,-13.9687509536743,7.33125019073486,-21.8625011444092,0.72591179609299,-0.24116450548172,0.55392384529114,-0.3287250995636,2.6669499874115,-0.40947499871254,5.73443746566772,2.40705013275146,-4.02705001831055,-7.62705039978027,-14.0250005722046,7.23750019073486,-21.9750003814697,0.6878467798233,-0.28283941745758,0.52330666780472,-0.41595539450645,2.6669499874115,-0.40947499871254,5.73443746566772,2.40705013275146,-4.02705001831055,-7.62705039978027,-14.1562509536743,7.21875047683716,-21.9937515258789,0.66575241088867,-0.30236116051674,0.50672650337219,-0.4567052423954,2.47994995117188,-0.1908500045538,5.22513723373413,2.21595001220703,-3.25605010986328,-7.70895051956177,-14.3250007629395,7.20000028610229,-21.9937515258789,0.64303761720657,-0.31985485553741,0.49159207940102,-0.49247619509697,2.22447490692139,0.0,4.4985876083374,2.10600018501282,-2.20500016212463,-7.47705030441284,-14.3250007629395,7.20000028610229,-21.9937515258789,0.62123560905456,-0.33458939194679,0.47883334755898,-0.52233594655991,1.95277500152588,0.00013749999925,3.69985008239746,2.46495008468628,-1.44600009918213,-7.73805046081543,-14.4937505722046,7.18125009536743,-21.9750003814697,0.60194927453995,-0.3457328081131,0.46812802553177,-0.54679250717163,1.74666249752045,0.15028749406338,2.98168754577637,2.65395021438599,-1.60395002365112,-8.15895080566406,-14.7000007629395,7.20000028610229,-21.9562511444092,0.58449029922485,-0.35437697172165,0.46040824055672,-0.56640303134918,1.67639994621277,0.18067499995232,2.40143752098083,2.99895024299622,-1.81005012989044,-8.51100063323975,-14.9250001907349,7.20000028610229,-21.9375,0.56856721639633,-0.36032420396805,0.45506662130356,-0.58293408155441,1.67639994621277,0.18067499995232,2.40143752098083,2.99895024299622,-1.81005012989044,-8.51100063323975,-15.1500005722046,7.20000028610229,-21.9562511444092,0.55232566595078,-0.36603567004204,0.44947752356529,-0.59910297393799,SWING_LEFT
-0.91836249828339,0.0,-2.34080004692078,1.42605006694794,0.66705000400543,-8.29305076599121,-16.4250011444092,6.33750009536743,-22.8375015258789,0.41326799988747,-0.28082859516144,0.62528216838837,-0.59947228431702,-1.29566252231598,-0.18548749387264,-2.40033745765686,1.56000006198883,2.90805006027222,-9.38205051422119,-16.4437503814697,6.28125047683716,-22.8187503814697,0.42627239227295,-0.278340280056,0.63354206085205,-0.58261722326279,-1.65604996681213,-0.38733750581741,-2.49576258659363,2.07705020904541,6.94005012512207,-13.0189504623413,-16.5,6.20625019073486,-22.875,0.44205740094185,-0.27628463506699,0.64029455184937,-0.56415861845017,-2.00791239738464,-0.56897497177124,-2.70105004310608,1.56705009937286,15.4900503158569,-16.5799503326416,-16.5,6.20625019073486,-22.875,0.4606017768383,-0.27430608868599,0.64601063728332,-0.54338979721069,-2.3724250793457,-0.71183747053146,-3.06212496757507,-1.54905009269714,23.181001663208,-15.1410007476807,-16.6312503814697,6.13125038146973,-23.0250015258789,0.48192736506462,-0.27201116085053,0.65132039785385,-0.51917016506195,-2.3724250793457,-0.71183747053146,-3.06212496757507,-1.54905009269714,23.181001663208,-15.1410007476807,-16.6875,6.09375047683716,-23.1375007629395,0.50271540880203,-0.26943668723106,0.65592008829117,-0.4944189786911,-2.7856125831604,-0.75858747959137,-3.56097507476807,-2.68395018577576,25.2810020446777,-4.60095024108887,-16.6312503814697,6.07500028610229,-23.1750011444092,0.52593475580215,-0.26648911833763,0.6605754494667,-0.46477547287941,-3.1325249671936,-0.73026251792908,-4.29123735427856,-9.10800075531006,10.756950378418,-4.53900003433228,-16.5562515258789,6.05625009536743,-23.1750011444092,0.57412457466125,-0.25780364871025,0.66967362165451,-0.39427843689919,-3.0222499370575,-0.77096247673035,-4.44234991073608,-11.1820507049561,3.97395014762878,-12.9739503860474,-16.4812507629395,6.05625009536743,-23.1750011444092,0.59712415933609,-0.25088885426521,0.67330098152161,-0.35659942030907,-2.70985007286072,-0.91409999132156,-4.3796501159668,-10.8730506896973,-5.81505012512207,-17.6310005187988,-16.4625015258789,6.13125038146973,-23.15625,0.61867845058441,-0.24168218672275,0.67536544799805,-0.32048124074936,-2.70985007286072,-0.91409999132156,-4.3796501159668,-10.8730506896973,-5.81505012512207,-17.6310005187988,-16.4625015258789,6.30000019073486,-23.1000003814697,0.63908970355988,-0.23203884065151,0.67614912986755,-0.28380373120308,-2.27259993553162,-1.06204998493195,-4.03754997253418,-5.16900014877319,-12.2920503616333,-18.306001663208,-16.4812507629395,6.56250047683716,-22.9500007629395,0.65756350755691,-0.22102454304695,0.67501580715179,-0.25122129917145,-1.79217493534088,-1.20161247253418,-3.43805003166199,-2.43300008773804,-13.7599506378174,-15.4900503158569,-16.5,6.86250019073486,-22.7250003814697,0.67386490106583,-0.21000090241432,0.67183148860931,-0.22460666298866,-1.29318749904633,-1.29373753070831,-2.65952491760254,0.49005001783371,-14.028000831604,-12.1240501403809,-16.5,6.86250019073486,-22.7250003814697,0.68779724836349,-0.2001696228981,0.66692024469376,-0.20514486730099,-0.68433749675751,-1.33416247367859,-1.65838754177094,2.48895001411438,-15.8140506744385,-10.8670501708984,-16.5,7.16250038146973,-22.4625015258789,0.69890874624252,-0.19249029457569,0.66072303056717,-0.19472804665565,0.00013749999925,-1.3171124458313,-0.42913749814034,3.77205014228821,-17.0160007476807,-9.9790506362915,-16.5,7.40625047683716,-22.1812515258789,0.7066929936409,-0.18815901875496,0.6535679101944,-0.19501322507858,0.00013749999925,-1.3171124458313,-0.42913749814034,3.77205014228821,-17.0160007476807,-9.9790506362915,-16.5,7.61250019073486,-21.9187507629395,0.71438473463059,-0.18379372358322,0.64632797241211,-0.19528026878834,1.63487493991852,-1.31889998912811,2.11695003509521,2.68500018119812,-13.8240003585815,-9.52605056762695,-16.5,7.80000019073486,-21.65625,0.71898406744003,-0.18432086706161,0.62878388166428,-0.23177284002304,2.17236256599426,-1.25179994106293,3.20966243743896,2.07000017166138,-11.8440008163452,-9.20805072784424,-16.3687515258789,7.96875047683716,-21.375,0.71585923433304,-0.18995599448681,0.61792063713074,-0.26388689875603,2.4921875,-1.09807503223419,4.16239976882935,1.92600011825562,-9.89505004882812,-8.63100051879883,-16.1437511444092,8.11875057220459,-21.0375003814697,0.70866823196411,-0.19966895878315,0.60550212860107,-0.30214020609856,2.4921875,-1.09807503223419,4.16239976882935,1.92600011825562,-9.89505004882812,-8.63100051879883,-15.9937505722046,8.15625,-20.8500003814697,0.70022189617157,-0.20900709927082,0.5920462012291,-0.33983311057091,2.57427501678467,-0.83008748292923,4.84137487411499,1.91700005531311,-8.63595008850098,-8.10900020599365,-15.9187507629395,8.11875057220459,-20.8125,0.68766140937805,-0.22221547365189,0.57725167274475,-0.380161434412,2.51322507858276,-0.55316251516342,5.12352514266968,1.91205012798309,-7.06500053405762,-7.51005029678345,-15.8812503814697,8.0625,-20.8125,0.67190146446228,-0.2376693636179,0.5617949962616,-0.42005702853203,2.39277505874634,-0.29864999651909,5.08199977874756,1.79895007610321,-5.88195037841797,-6.9859504699707,-15.8812503814697,8.0625,-20.8125,0.65394324064255,-0.25375756621361,0.54645508527756,-0.4575502872467,2.25720000267029,-0.00013749999925,4.82858753204346,1.52595007419586,-4.36905002593994,-7.04805040359497,-15.9000005722046,8.02500057220459,-20.8875007629395,0.63432121276856,-0.26964601874352,0.53234785795212,-0.49146032333374,2.06428742408752,0.0,4.39340019226074,1.5529500246048,-2.54700016975403,-7.21605014801025,-15.9187507629395,8.04375076293945,-20.9625015258789,0.61534738540649,-0.28355303406715,0.51870197057724,-0.52143400907517,2.06428742408752,0.0,4.39340019226074,1.5529500246048,-2.54700016975403,-7.21605014801025,-15.9937505722046,8.08125019073486,-21.0187511444092,0.5953922867775,-0.29694917798042,0.50425612926483,-0.55050420761108,1.51978754997253,0.16871249675751,3.12606239318848,1.71105003356934,-1.88205003738403,-8.32200050354004,-16.2562503814697,8.15625,-21.1687507629395,0.5609940290451,-0.31751519441605,0.48099592328072,-0.59423297643661,1.27380001544952,0.17448750138283,2.44351243972778,1.99095010757446,-0.62895005941391,-9.44895076751709,-16.2562503814697,8.15625,-21.1687507629395,0.54733395576477,-0.32456666231155,0.47323724627495,-0.60920333862305,1.12860000133514,0.16541250050068,1.8269624710083,1.84005010128021,0.04500000178814,-9.77295017242432,-16.40625,8.19375038146973,-21.28125,0.53588932752609,-0.32918468117714,0.46798622608185,-0.62084531784058,SWING_LEFT
1.06053745746613,0.38926249742508,-2.15063738822937,2.65395021438599,5.26905012130737,-10.6800003051758,-17.3812503814697,7.08750009536743,-22.875,0.43567132949829,-0.25172126293182,0.55977129936218,-0.65839421749115,0.4446749985218,0.259187489748,-2.61813759803772,1.85400009155273,10.278000831604,-14.2210502624512,-17.4187507629395,6.88125038146973,-23.0062503814697,0.43748089671135,-0.24149911105633,0.57597458362579,-0.64694803953171,0.4446749985218,0.259187489748,-2.61813759803772,1.85400009155273,10.278000831604,-14.2210502624512,-17.4562511444092,6.67500019073486,-23.1375007629395,0.43907362222671,-0.2311704903841,0.59187233448029,-0.63518637418747,-0.47726249694824,0.0,-3.23152494430542,-0.18495000898838,15.5239505767822,-14.1589508056641,-17.4562511444092,6.67500019073486,-23.1375007629395,0.44771131873131,-0.22164896130562,0.60786217451096,-0.61719518899918,-1.51084995269775,-0.21257500350475,-3.87928748130798,-0.47700002789497,21.0090007781982,-10.6630506515503,-17.4750003814697,6.46875047683716,-23.25,0.46348842978478,-0.21364116668701,0.62382996082306,-0.5919224023819,-2.3203125,-0.2941125035286,-4.43025016784668,-3.331050157547,18.5170516967773,-3.6910502910614,-17.4375,6.26250028610229,-23.34375,0.48393511772156,-0.20701706409454,0.63978260755539,-0.56002587080002,-2.91046237945557,-0.40136250853539,-4.86323738098145,-7.52295017242432,12.7110004425049,-5.6980504989624,-17.3625011444092,6.09375047683716,-23.4562511444092,0.50741332769394,-0.20094849169254,0.65501910448074,-0.52259117364883,-3.32241249084473,-0.58671247959137,-5.14992475509644,-7.9350004196167,4.86900043487549,-11.5830001831055,-17.1750011444092,5.85000038146973,-23.5687503814697,0.55388724803925,-0.18787576258183,0.68062037229538,-0.44121137261391,-3.42361259460449,-0.8232125043869,-5.09464979171753,-5.2819504737854,-5.99700021743774,-15.3300008773804,-17.1187515258789,5.8125,-23.5875015258789,0.57813966274261,-0.18086345493793,0.68923801183701,-0.39748451113701,-3.26301240921021,-1.01337504386902,-4.74677515029907,-1.73400008678436,-12.1960506439209,-14.8510503768921,-17.1187515258789,5.8125,-23.5875015258789,0.60099446773529,-0.17354816198349,0.69428008794785,-0.35589572787285,-2.96023750305176,-1.13918745517731,-4.19993734359741,0.03495000302792,-13.4200506210327,-12.8350505828857,-17.0250015258789,5.88750028610229,-23.5500011444092,0.62164062261581,-0.16648203134537,0.69600212574005,-0.31847724318504,-2.55516242980957,-1.21563744544983,-3.51051259040833,0.1950000077486,-14.1709508895874,-10.0309505462646,-16.7250003814697,6.16875028610229,-23.3250007629395,0.63970983028412,-0.16015121340752,0.69488590955734,-0.28680381178856,-1.9626749753952,-1.18758749961853,-2.5810124874115,3.13800024986267,-15.8040008544922,-8.9970006942749,-16.5375003814697,6.33750009536743,-23.15625,0.65429300069809,-0.15520837903023,0.69170534610748,-0.26335275173187,-1.18786251544952,-1.03248751163483,-1.4169374704361,4.28700017929077,-16.8769512176514,-8.23995018005371,-16.5375003814697,6.33750009536743,-23.15625,0.66443574428558,-0.15237993001938,0.6874218583107,-0.25051322579384,-0.31721249222755,-0.86391252279282,0.0,4.17705011367798,-16.5150012969971,-8.03205013275146,-16.3312511444092,6.48750019073486,-22.9875011444092,0.66988617181778,-0.15272702276707,0.68208932876587,-0.25036203861237,0.53322499990463,-0.77247500419617,1.35739994049072,3.46800017356873,-14.1019506454468,-8.20695018768311,-16.125,6.63750028610229,-22.8375015258789,0.6712264418602,-0.15599301457405,0.67543095350266,-0.26251515746117,0.53322499990463,-0.77247500419617,1.35739994049072,3.0990002155304,-11.1760501861572,-8.33100032806396,-15.9187507629395,6.78750038146973,-22.7250003814697,0.67242461442947,-0.1592338681221,0.66864669322967,-0.27459311485291,1.74514997005463,-0.53460001945496,3.64663743972778,2.8000500202179,-9.03299999237061,-8.33400058746338,-15.5250005722046,7.12500047683716,-22.4625015258789,0.66252493858337,-0.17541064321995,0.6500803232193,-0.32815778255463,1.98769998550415,-0.35406249761581,4.3249249458313,2.76900005340576,-7.53000020980835,-8.18505001068115,-15.5250005722046,7.12500047683716,-22.4625015258789,0.65198308229446,-0.18772585690022,0.63859206438065,-0.36314877867699,2.0373375415802,-0.16609999537468,4.6437873840332,2.81700015068054,-6.31095027923584,-7.60305023193359,-15.3937501907349,7.29375028610229,-22.3312511444092,0.63867980241776,-0.20171773433685,0.62617897987366,-0.39912140369415,2.01451253890991,0.0,4.71019983291626,2.97495007514954,-5.16405010223389,-7.01205015182495,-15.3000001907349,7.46250009536743,-22.1812515258789,0.62332230806351,-0.21631236374378,0.61328935623169,-0.43422853946686,2.01451253890991,0.0,4.71019983291626,2.97495007514954,-5.16405010223389,-7.01205015182495,-15.2437505722046,7.65000009536743,-22.0500011444092,0.60683381557465,-0.23046135902405,0.59931266307831,-0.46847054362297,1.96102499961853,0.2043250054121,4.59497499465942,3.13800024986267,-3.79905009269714,-6.49695014953613,-15.1875009536743,7.81875038146973,-21.9375,0.58871132135391,-0.24460934102535,0.58570289611816,-0.50053715705872,1.84456253051758,0.35846251249313,4.26648759841919,3.21900010108948,-2.66505002975464,-6.14805030822754,-15.1125001907349,7.91250038146973,-21.84375,0.57007920742035,-0.25789645314217,0.57308197021484,-0.52922236919403,1.68684995174408,0.4433000087738,3.77533745765686,3.30495023727417,-1.7980500459671,-6.12405014038086,-15.1125001907349,7.91250038146973,-21.84375,0.55205738544464,-0.2695823609829,0.56195569038391,-0.55386275053024,1.50466251373291,0.46805000305176,3.19137501716614,3.49905014038086,-1.73595011234283,-6.85395050048828,-15.0375003814697,7.91250038146973,-21.8062515258789,0.53552025556564,-0.27924433350563,0.55267775058746,-0.5742717385292,1.34791254997253,0.47368749976158,2.60603737831116,3.70005011558533,-1.81905007362366,-7.78500032424927,-14.9437503814697,7.85625028610229,-21.8812503814697,0.52068638801575,-0.28681933879852,0.54547661542893,-0.59082621335983,1.25743746757507,0.45594999194145,2.05535006523132,3.8490002155304,-1.09605002403259,-8.22105026245117,-14.9062509536743,7.65000009536743,-22.21875,0.49207150936127,-0.29941242933273,0.5326851606369,-0.62005192041397,1.283287525177,0.44508749246597,1.5879875421524,3.67905020713806,-0.23205001652241,-8.15895080566406,-14.9625005722046,7.59375047683716,-22.4437503814697,0.47950309514999,-0.30242440104485,0.52965307235718,-0.63093876838684,1.43165004253387,0.46708750724793,1.20284998416901,3.48195028305054,0.76305001974106,-8.17800045013428,-14.9625005722046,7.59375047683716,-22.4437503814697,0.46690458059311,-0.30327120423317,0.52895700931549,-0.64049285650253,SWING_LEFT
-0.50545001029968,0.0,-2.30532503128052,2.4190502166748,5.10405015945435,-10.0339508056641,-16.2375011444092,6.84375047683716,-24.3937511444092,0.36294475197792,-0.24493686854839,0.62546080350876,-0.64581418037415,-0.50545001029968,0.0,-2.30532503128052,2.4190502166748,5.10405015945435,-10.0339508056641,-16.2562503814697,6.75000047683716,-24.4500007629395,0.37047335505486,-0.24056152999401,0.63680171966553,-0.63195180892944,-1.18690001964569,-0.14313749969006,-2.75178742408752,2.58495020866394,10.4479503631592,-13.0339508056641,-16.2937507629395,6.65625047683716,-24.4875011444092,0.3830369412899,-0.23755857348442,0.64830023050308,-0.61364114284515,-1.80881249904633,-0.34952500462532,-3.17803740501404,1.5619500875473,17.2120513916016,-16.9960498809814,-16.3312511444092,6.56250047683716,-24.5250015258789,0.4004023373127,-0.23533073067665,0.65953534841537,-0.59102499485016,-2.43540000915527,-0.55769997835159,-3.6654748916626,-4.22399997711182,24.0070514678955,-11.9320507049561,-16.3312511444092,6.56250047683716,-24.5250015258789,0.42243656516075,-0.23364229500294,0.67041206359863,-0.56347697973251,-3.09649991989136,-0.60568749904633,-4.30388736724854,-2.73195004463196,32.9299507141113,-0.52605003118515,-16.3125,6.48750019073486,-24.5437507629395,0.44837141036987,-0.23276413977146,0.6816617846489,-0.52926480770111,-3.54749989509583,-0.61764997243881,-4.83216238021851,-12.0529508590698,18.2560501098633,-0.08805000782013,-16.21875,6.45000028610229,-24.5625019073486,0.47628211975098,-0.23195567727089,0.69275730848312,-0.48932531476021,-3.67413759231567,-0.70812499523163,-5.1580376625061,-12.6040506362915,7.10805034637451,-7.23000049591064,-15.8250007629395,6.46875047683716,-24.4125003814697,0.52990359067917,-0.22772012650967,0.71020102500916,-0.40368336439133,-3.4953875541687,-0.84534996747971,-5.2052001953125,-8.49300003051758,-3.8689501285553,-15.9120006561279,-15.8250007629395,6.46875047683716,-24.4125003814697,0.55558723211288,-0.222610861063,0.71625548601151,-0.35881081223488,-3.08715009689331,-0.96937501430511,-4.94656229019165,-3.22800016403198,-7.3759503364563,-20.4030017852783,-15.6750001907349,6.52500009536743,-24.3375015258789,0.57890045642853,-0.21534882485866,0.71987533569336,-0.31666779518127,-2.62212491035461,-1.05297493934631,-4.53117513656616,-3.15300011634827,-8.24295043945312,-14.8609504699707,-15.5625009536743,6.67500019073486,-24.2812519073486,0.5994980931282,-0.20663601160049,0.72123271226883,-0.27879557013512,-2.62212491035461,-1.05297493934631,-4.53117513656616,-3.15300011634827,-8.24295043945312,-14.8609504699707,-15.4312505722046,6.88125038146973,-24.1687507629395,0.61894798278809,-0.19753235578537,0.72116577625275,-0.24042499065399,-2.11914992332458,-1.14111244678497,-3.97979998588562,-2.57400012016296,-10.7070007324219,-9.57600021362305,-15.2812509536743,7.08750009536743,-24.0187511444092,0.63598597049713,-0.1877179890871,0.71910715103149,-0.20777088403702,-1.51717495918274,-1.26046252250671,-3.17748737335205,0.17805001139641,-15.574951171875,-8.15895080566406,-15.1125001907349,7.29375028610229,-23.8875007629395,0.65070950984955,-0.17807659506798,0.71508228778839,-0.18309332430363,-0.77934998273849,-1.37995004653931,-2.06607508659363,1.82805013656616,-17.8279514312744,-6.71295022964478,-15.1125001907349,7.29375028610229,-23.8875007629395,0.66293823719025,-0.16972790658474,0.70930027961731,-0.16911038756371,0.0,-1.49338746070862,-0.68227499723434,2.13900017738342,-18.4740009307861,-7.53405046463013,-14.8687505722046,7.46250009536743,-23.7375011444092,0.67257845401764,-0.16419866681099,0.70181638002396,-0.16772243380547,1.06232500076294,-1.71146249771118,1.03152501583099,2.47905015945435,-18.0480003356934,-7.67295026779175,-14.6062507629395,7.59375047683716,-23.6062507629395,0.67947781085968,-0.16170459985733,0.69197660684586,-0.18256478011608,1.96157503128052,-1.85583746433258,2.73226237297058,2.67300009727478,-15.8620510101318,-7.98195028305054,-14.0625009536743,7.81875038146973,-23.34375,0.68934816122055,-0.16083881258965,0.66889518499374,-0.22695638239384,2.5561249256134,-1.81225001811981,4.1721625328064,2.40495014190674,-12.9169502258301,-7.94100046157837,-13.8562507629395,7.91250038146973,-23.2125015258789,0.6882364153862,-0.16732855141163,0.65325105190277,-0.26757201552391,2.83923745155334,-1.66773748397827,5.24548768997192,1.95000004768372,-10.498950958252,-7.37805032730103,-13.8562507629395,7.91250038146973,-23.2125015258789,0.68259918689728,-0.17834688723087,0.6349533200264,-0.31477785110474,2.8996000289917,-1.45928752422333,5.87427473068237,2.03400015830994,-9.14805030822754,-7.33095026016235,-13.6687507629395,8.00625038146973,-23.0812511444092,0.67274963855743,-0.19261428713799,0.61445242166519,-0.36435666680336,2.92105007171631,-1.24561250209808,6.16536235809326,2.12700009346008,-8.10000038146973,-6.91200017929077,-13.4812507629395,8.08125019073486,-22.96875,0.6590695977211,-0.20837804675102,0.59233087301254,-0.41394457221031,2.92105007171631,-1.24561250209808,6.16536235809326,2.12700009346008,-8.10000038146973,-6.91200017929077,-13.2750005722046,8.10000038146973,-22.875,0.64317035675049,-0.2233919352293,0.56825894117355,-0.46207129955292,2.93947505950928,-1.01901245117188,6.20537519454956,2.48595023155212,-7.4320502281189,-6.67695045471191,-13.1250009536743,8.04375076293945,-22.8375015258789,0.62391394376755,-0.2385860979557,0.54343247413635,-0.50841844081879,2.92324995994568,-0.76010000705719,6.09276247024536,2.26395010948181,-6.33300018310547,-6.60495042800903,-12.9937505722046,7.93125009536743,-22.8375015258789,0.6017587184906,-0.25352346897125,0.51868623495102,-0.55188465118408,2.79537487030029,-0.49224999547005,5.75519990921021,2.04404997825623,-4.7310004234314,-6.94305038452148,-12.9937505722046,7.93125009536743,-22.8375015258789,0.57796382904053,-0.26772993803024,0.49508309364319,-0.59090709686279,2.57303738594055,-0.25382500886917,5.13947486877441,2.04795002937317,-3.98100018501282,-7.46700048446655,-12.9000005722046,7.83750009536743,-22.8937511444092,0.55420732498169,-0.28032648563385,0.47395804524422,-0.62420743703842,2.31660008430481,0.0,4.31241226196289,2.46300005912781,-3.67005014419556,-8.06805038452148,-12.9375009536743,7.66875028610229,-23.1187515258789,0.50571966171265,-0.30222752690315,0.4338316321373,-0.68168646097183,2.08312487602234,0.0,3.34991240501404,2.9610002040863,-3.86400008201599,-8.37195014953613,-12.9937505722046,7.61250019073486,-23.2312507629395,0.48531234264374,-0.30856096744537,0.4201717376709,-0.70193856954575,2.02097487449646,0.00013749999925,2.45121240615845,3.31500005722046,-4.95300006866455,-8.64300060272217,-12.9937505722046,7.61250019073486,-23.2312507629395,0.46719244122505,-0.31117540597916,0.4112596809864,-0.71816891431809,SWING_LEFT
1.67639994621277,0.00013749999925,-2.25830006599426,3.6910502910614,0.1410000026226,-7.87605047225952,-13.9312505722046,7.08750009536743,-23.9625015258789,0.29241293668747,-0.20214733481407,0.53497743606567,-0.7664400935173,1.02698755264282,0.0,-2.4835250377655,3.55200028419495,0.01095000095665,-7.60095024108887,-13.9875001907349,6.99375009536743,-24.0,0.29036223888397,-0.19137899577618,0.55270636081696,-0.75735038518906,1.02698755264282,0.0,-2.4835250377655,3.55200028419495,0.01095000095665,-7.60095024108887,-14.0062503814697,6.90000009536743,-24.0375003814697,0.28817290067673,-0.18051390349865,0.57014018297195,-0.7478711605072,0.27238750457764,-0.00013749999925,-2.6389000415802,3.6979501247406,1.50495004653931,-8.28299999237061,-14.0437507629395,6.80625009536743,-24.0562515258789,0.29077652096748,-0.1727759540081,0.58706605434418,-0.73549365997314,-0.51177501678467,-0.21532499790192,-2.8060998916626,3.13305020332336,3.92595028877258,-9.50205039978027,-14.0812501907349,6.71250009536743,-24.0937519073486,0.29928827285767,-0.16707903146744,0.60298085212707,-0.72036468982697,-1.13533747196198,-0.36616250872612,-2.92806243896484,2.51295018196106,8.3700008392334,-10.2730503082275,-14.0812501907349,6.71250009536743,-24.0937519073486,0.31222808361054,-0.16321916878223,0.6179039478302,-0.70289969444275,-1.68561244010925,-0.51507496833801,-3.08563756942749,2.8050000667572,15.8040008544922,-8.87700080871582,-14.1375007629395,6.61875009536743,-24.1125011444092,0.32908174395561,-0.1607851088047,0.63204151391983,-0.68291807174683,-2.28098750114441,-0.58836251497269,-3.43131256103516,1.97595012187958,20.6839504241943,-7.97895050048828,-14.0625009536743,6.48750019073486,-24.1687507629395,0.37002730369568,-0.15896017849445,0.66006308794022,-0.6341358423233,-2.84789991378784,-0.71609997749329,-3.85398745536804,-4.51800012588501,20.0160007476807,-11.5540504455566,-14.0062503814697,6.43125009536743,-24.2062511444092,0.3939069211483,-0.15892250835895,0.67381024360657,-0.60461628437042,-3.25132489204407,-0.88550001382828,-4.22125005722046,-7.78605031967163,13.7380504608154,-12.9240007400513,-13.9312505722046,6.39375019073486,-24.2250003814697,0.42044395208359,-0.15886056423187,0.68708038330078,-0.57088607549667,-3.41302490234375,-1.05737495422363,-4.40412521362305,-8.56695079803467,5.58000040054321,-12.8110504150391,-13.9312505722046,6.39375019073486,-24.2250003814697,0.44798150658608,-0.15801437199116,0.69895374774933,-0.5346097946167,-3.33767509460449,-1.19858753681183,-4.36328744888306,-6.21105051040649,-3.88995027542114,-12.7440004348755,-13.8375005722046,6.37500047683716,-24.2437515258789,0.47486013174057,-0.15602515637875,0.70871949195862,-0.49787613749504,-3.02156257629395,-1.29621243476868,-4.02668762207031,-2.98800015449524,-12.0670509338379,-12.3820505142212,-13.6875009536743,6.39375019073486,-24.2250003814697,0.49958199262619,-0.15283463895321,0.71567130088806,-0.46354493498802,-3.02156257629395,-1.29621243476868,-4.02668762207031,-2.98800015449524,-12.0670509338379,-12.3820505142212,-13.5187501907349,6.45000028610229,-24.1875019073486,0.52339106798172,-0.14937224984169,0.72125154733658,-0.42842265963554,-2.57881259918213,-1.37335002422333,-3.4702250957489,-1.8510000705719,-14.356050491333,-9.37305068969727,-13.2937507629395,6.50625038146973,-24.1125011444092,0.54455798864365,-0.14514653384686,0.72383534908295,-0.39805963635445,-2.07198739051819,-1.41281247138977,-2.77406239509583,-0.81705003976822,-15.867000579834,-5.58300018310547,-13.0125007629395,6.52500009536743,-24.0187511444092,0.56282955408096,-0.14068557322025,0.72364914417267,-0.37384808063507,-1.45997500419617,-1.40896248817444,-1.87137496471405,-0.03600000217557,-18.6820507049561,-3.67695021629333,-13.0125007629395,6.52500009536743,-24.0187511444092,0.5777268409729,-0.13664673268795,0.72083419561386,-0.35771125555039,0.0,-1.3888875246048,0.48688748478889,1.44495010375977,-18.1750507354736,-5.1060004234314,-12.3562507629395,6.48750019073486,-23.7937507629395,0.59651058912277,-0.13230520486832,0.70695841312408,-0.35620269179344,0.0,-1.3888875246048,0.48688748478889,1.44495010375977,-18.1750507354736,-5.1060004234314,-11.9812507629395,6.43125009536743,-23.6812515258789,0.60392820835114,-0.13095936179161,0.69842058420181,-0.36101114749908,0.83490002155304,-1.23777496814728,1.83535003662109,2.01705002784729,-17.2720508575439,-5.51295042037964,-11.625,6.39375019073486,-23.5500011444092,0.60631495714188,-0.13195350766182,0.68730908632278,-0.37759318947792,1.53725004196167,-0.97817498445511,3.17267489433289,1.9450501203537,-15.4690504074097,-5.0179500579834,-11.3250007629395,6.37500047683716,-23.4000015258789,0.60312098264694,-0.13639536499977,0.67361968755722,-0.40481847524643,2.04283738136292,-0.66976249217987,4.27982521057129,1.96200013160706,-13.0050010681152,-4.66800022125244,-11.3250007629395,6.37500047683716,-23.4000015258789,0.59445542097092,-0.14440914988518,0.6574758887291,-0.43987983465195,2.34478759765625,-0.35516250133514,5.07553768157959,2.13705015182495,-11.0010004043579,-4.38105010986328,-11.1375007629395,6.33750009536743,-23.3250007629395,0.58087223768234,-0.15555895864964,0.63911002874374,-0.47950720787048,2.34478759765625,-0.35516250133514,5.07553768157959,2.13705015182495,-11.0010004043579,-4.38105010986328,-11.0062503814697,6.28125047683716,-23.3250007629395,0.56601440906525,-0.16633524000645,0.61936646699905,-0.51802068948746,2.46455001831055,0.0,5.51058769226074,2.57505011558533,-9.50505065917969,-4.52700042724609,-10.8187503814697,6.20625019073486,-23.3062515258789,0.54689621925354,-0.17963744699955,0.59817105531693,-0.55751818418503,2.50236248970032,0.29150000214577,5.66843748092651,3.01800012588501,-8.35305023193359,-4.8139500617981,-10.6125001907349,6.09375047683716,-23.25,0.5245441198349,-0.19429396092892,0.57613676786423,-0.59596109390259,2.52161240577698,0.5711749792099,5.65688753128052,3.06300020217896,-7.12695026397705,-5.22795009613037,-10.4250001907349,5.94375038146973,-23.25,0.49943739175796,-0.20961429178715,0.55395483970642,-0.63226449489593,2.32842493057251,0.97253751754761,5.09616231918335,2.37600016593933,-4.32405042648315,-5.67600011825562,-10.2750005722046,5.79375028610229,-23.3062515258789,0.44551450014114,-0.23987324535847,0.51194596290588,-0.69418221712112,2.32842493057251,0.97253751754761,5.09616231918335,2.37600016593933,-4.32405042648315,-5.67600011825562,-10.1625003814697,5.70000028610229,-23.3625011444092,0.41742336750031,-0.25420692563057,0.49045994877815,-0.72151613235474,2.13234996795654,1.05132496356964,4.59153747558594,2.58195018768311,-2.66505002975464,-6.088050365448,-10.1437501907349,5.625,-23.4375,0.39044868946075,-0.2675079703331,0.47090342640877,-0.74447244405747,SWING_LEFT
-2.12244987487793,-0.90034997463226,-2.96216249465942,2.95305013656616,0.93495005369186,-9.925950050354,-12.0,5.92500019073486,-23.9250011444092,0.29377055168152,-0.16134694218636,0.64324808120727,-0.68840247392654,-2.30161237716675,-0.99426251649857,-3.03476238250732,2.2540500164032,3.33195018768311,-11.4060001373291,-12.1125001907349,5.90625,-23.90625,0.31652745604515,-0.16051125526428,0.65488648414612,-0.66721069812775,-2.43801259994507,-1.06631255149841,-3.1411874294281,1.11195003986359,7.21605014801025,-13.5750007629395,-12.1125001907349,5.90625,-23.90625,0.34014242887497,-0.15958964824677,0.66591334342956,-0.64451044797897,-2.53921246528625,-1.11539995670319,-3.28927493095398,0.13800001144409,11.8630504608154,-15.3660011291504,-12.1875009536743,5.88750028610229,-23.90625,0.36429417133331,-0.15836594998837,0.67657893896103,-0.62004107236862,-2.53921246528625,-1.11539995670319,-3.28927493095398,0.13800001144409,11.8630504608154,-15.3660011291504,-12.2437505722046,5.88750028610229,-23.90625,0.38794168829918,-0.15695704519749,0.68635720014572,-0.59479361772537,-2.6371123790741,-1.09436249732971,-3.48315000534058,0.89205002784729,19.2730503082275,-11.7840003967285,-12.2437505722046,5.90625,-23.8875007629395,0.41166731715202,-0.1553557664156,0.69605022668839,-0.56736999750137,-2.68358755111694,-1.02726244926453,-3.62395000457764,-1.82505011558533,16.7070007324219,-8.29305076599121,-12.2437505722046,5.90625,-23.8875007629395,0.43475577235222,-0.15365646779537,0.70554345846176,-0.5381315946579,-2.53481245040894,-1.04582500457764,-3.63591241836548,-7.08705043792725,6.49995040893555,-10.1340007781982,-12.2812509536743,5.90625,-23.90625,0.47804442048073,-0.14848925173283,0.72185075283051,-0.47786611318588,-2.30229997634888,-1.12144994735718,-3.4626624584198,-6.65595054626465,-2.06595015525818,-9.70995044708252,-12.2437505722046,5.90625,-23.9250011444092,0.4977340400219,-0.14437240362167,0.72776877880096,-0.44918817281723,-2.30229997634888,-1.12144994735718,-3.4626624584198,-6.65595054626465,-2.06595015525818,-9.70995044708252,-12.2062501907349,5.96250009536743,-23.9250011444092,0.51680099964142,-0.14008304476738,0.73274499177933,-0.41997396945953,-1.94892501831055,-1.21632504463196,-3.09031248092651,-3.83595013618469,-10.1400003433228,-11.0820007324219,-12.1125001907349,6.05625009536743,-23.90625,0.53416377305984,-0.1347950398922,0.73558807373047,-0.39422029256821,-1.5246000289917,-1.29579997062683,-2.53632497787476,0.02805000171065,-15.2200508117676,-11.5830001831055,-12.0375003814697,6.16875028610229,-23.8125,0.54956018924713,-0.12899416685104,0.73608350753784,-0.37353086471558,-1.04761254787445,-1.30569994449615,-1.82256245613098,1.86195003986359,-17.3530502319336,-9.4950008392334,-11.9250001907349,6.31875038146973,-23.6812515258789,0.56247562170029,-0.12341276556253,0.73438864946365,-0.35925441980362,-0.53171247243881,-1.23887503147125,-0.96167498826981,2.08695006370544,-17.2120513916016,-6.42105007171631,-11.9250001907349,6.31875038146973,-23.6812515258789,0.57239675521851,-0.11884519457817,0.73072457313538,-0.3525328040123,0.0,-1.11306250095367,0.0,2.80200004577637,-15.6870002746582,-3.9190502166748,-11.7750005722046,6.45000028610229,-23.53125,0.57897078990936,-0.11595465242863,0.72525250911713,-0.35405665636063,0.0,-1.11306250095367,0.0,2.80200004577637,-15.6870002746582,-3.9190502166748,-11.6062507629395,6.56250047683716,-23.3625011444092,0.58549439907074,-0.11304856091738,0.71971958875656,-0.35555589199066,0.63249999284744,-0.99137496948242,0.98505002260208,3.83400011062622,-13.6950006484985,-2.60895013809204,-11.4562501907349,6.61875009536743,-23.1937503814697,0.5884183049202,-0.11147999018431,0.71236091852188,-0.36589315533638,2.00708746910095,-0.42707499861717,3.47641253471375,3.77505016326904,-10.1680507659912,-5.20905017852783,-11.2125005722046,6.61875009536743,-23.0062503814697,0.5764587521553,-0.11746236681938,0.68971443176269,-0.4221276640892,2.00708746910095,-0.42707499861717,3.47641253471375,3.37995004653931,-8.28194999694824,-6.33000040054321,-11.15625,6.61875009536743,-22.96875,0.567955493927,-0.12145548313856,0.6769192814827,-0.4521672129631,2.17016243934631,-0.15468749403954,3.98915004730225,3.37995004653931,-8.28194999694824,-6.33000040054321,-11.1937503814697,6.65625047683716,-22.96875,0.55604785680771,-0.12780065834522,0.66279542446136,-0.4849536716938,2.17896246910095,0.00013749999925,4.26401233673096,3.22605013847351,-6.91005039215088,-7.14405012130737,-11.3062505722046,6.73125028610229,-23.0062503814697,0.54212999343872,-0.13577719032764,0.64733201265335,-0.51828652620316,2.07061243057251,0.38541248440742,4.29288768768311,3.0949501991272,-5.78895044326782,-7.36200046539307,-11.4375,6.82500028610229,-23.0250015258789,0.52573573589325,-0.14587043225765,0.63238281011581,-0.54992341995239,1.86807501316071,0.55646252632141,4.09420013427734,2.75895023345947,-4.59405040740967,-7.54605054855347,-11.4375,6.82500028610229,-23.0250015258789,0.50885027647018,-0.1566756516695,0.61794823408127,-0.57850164175034,1.62346243858337,0.66165000200272,3.74261236190796,2.45295000076294,-3.34500026702881,-7.83795022964478,-11.6062507629395,6.95625019073486,-23.0625,0.49243274331093,-0.16749925911427,0.6045783162117,-0.60327357053757,1.62346243858337,0.66165000200272,3.74261236190796,2.45295000076294,-3.34500026702881,-7.83795022964478,-11.8312501907349,7.08750009536743,-23.15625,0.47546699643135,-0.17807790637016,0.59054005146027,-0.62728130817413,1.38297498226166,0.69698750972748,3.29312491416931,2.35005021095276,-2.18099999427795,-8.16405010223389,-12.0937509536743,7.20000028610229,-23.25,0.45978736877441,-0.18800656497478,0.57804948091507,-0.647385597229,1.17865002155304,0.65972501039505,2.7827250957489,2.54400014877319,-1.67805004119873,-8.43405055999756,-12.3562507629395,7.29375028610229,-23.3250007629395,0.44585999846458,-0.19657076895237,0.56742203235626,-0.66377782821655,0.91602498292923,0.40438750386238,1.63954997062683,2.91300010681152,-2.03700017929077,-9.0930004119873,-12.6375007629395,7.36875009536743,-23.4000015258789,0.42438596487045,-0.20698520541191,0.55290001630783,-0.68655318021774,0.93678748607635,0.29521250724793,1.13698744773865,2.85300016403198,-1.48695003986359,-9.03495025634766,-12.9187507629395,7.44375038146973,-23.4937515258789,0.41585755348206,-0.2083802074194,0.5492604970932,-0.69422835111618,0.93678748607635,0.29521250724793,1.13698744773865,2.85300016403198,-1.48695003986359,-9.03495025634766,-13.2000007629395,7.48125028610229,-23.6062507629395,0.40728148818016,-0.20972920954227,0.54555064439774,-0.70179045200348,SWING_LEFT
1.96143746376038,0.0,-0.72132498025894,3.1519501209259,-1.00800001621246,-8.20005035400391,-14.4375009536743,7.40625047683716,-23.90625,0.34961691498756,-0.16499057412148,0.5687113404274,-0.72602581977844,2.01740002632141,0.0,-1.04733753204346,3.0990002155304,-0.483000010252,-8.41499996185303,-14.6062507629395,7.35000038146973,-23.9625015258789,0.33913069963455,-0.15232102572918,0.57798278331757,-0.72644644975662,1.74281251430511,0.0,-1.50658750534058,1.70805013179779,1.86195003986359,-11.3170509338379,-14.7937507629395,7.25625038146973,-24.0,0.32077381014824,-0.12650293111801,0.59977698326111,-0.72205877304077,1.31903743743896,-0.00013749999925,-1.70252501964569,-0.22800001502037,9.35595035552979,-9.19305038452148,-14.9437503814697,7.16250038146973,-24.0187511444092,0.3148464858532,-0.11537102609873,0.61133182048798,-0.71682268381119,1.31903743743896,-0.00013749999925,-1.70252501964569,-0.22800001502037,9.35595035552979,-9.19305038452148,-15.0562505722046,7.06875038146973,-24.0562515258789,0.3088353574276,-0.10420197248459,0.62267851829529,-0.71136075258255,0.52373749017715,-0.32106250524521,-2.11007499694824,1.14795005321503,23.4130516052246,-17.7889499664307,-15.1312503814697,6.97500038146973,-24.0937519073486,0.30947858095169,-0.09416060894728,0.63468885421753,-0.70180255174637,-0.57351249456406,-0.64363747835159,-2.82658743858337,-4.36500024795532,30.3469505310059,-7.97700023651123,-15.2250003814697,6.84375047683716,-24.2250003814697,0.31858289241791,-0.08615654706955,0.64881128072739,-0.68565738201141,-1.63748753070831,-1.00278747081757,-3.56331253051758,-9.34500026702881,17.7550506591797,-3.84405016899109,-15.3562507629395,6.69375038146973,-24.4125003814697,0.33583426475525,-0.07986742258072,0.66481775045395,-0.66246050596237,-2.44887495040894,-1.36125004291534,-4.09337520599365,-10.5330009460449,7.44600057601929,-6.26505041122437,-15.3562507629395,6.69375038146973,-24.4125003814697,0.35926192998886,-0.07458859682083,0.68127316236496,-0.63343054056168,-2.93796253204346,-1.66100001335144,-4.26992511749268,-5.63400030136108,-4.04805040359497,-11.9299507141113,-15.3750009536743,6.61875009536743,-24.5812511444092,0.3862361907959,-0.0700801461935,0.69647592306137,-0.60069274902344,-2.93796253204346,-1.66100001335144,-4.26992511749268,-5.63400030136108,-4.04805040359497,-11.9299507141113,-15.2812509536743,6.61875009536743,-24.6562519073486,0.41241919994354,-0.06547150015831,0.71017688512802,-0.56680923700333,-3.13857507705688,-1.86161243915558,-4.01940011978149,0.31005001068115,-12.0619506835938,-15.7660503387451,-15.1875009536743,6.69375038146973,-24.6187515258789,0.43984630703926,-0.06187351420522,0.72056889533997,-0.53243541717529,-2.97495007514954,-2.04696249961853,-2.8003249168396,1.84200012683868,-14.5950002670288,-10.5289506912231,-14.9250001907349,6.95625019073486,-24.3375015258789,0.49234127998352,-0.05870343744755,0.72845375537872,-0.4727675318718,-2.69486260414124,-2.04104995727539,-2.04242491722107,2.10300016403198,-15.3970508575439,-7.82895040512085,-14.9250001907349,6.95625019073486,-24.3375015258789,0.51579195261002,-0.05912500247359,0.72641575336456,-0.45031428337097,-2.69486260414124,-2.04104995727539,-2.04242491722107,3.80295014381409,-16.4959506988525,-6.93105030059814,-14.7187509536743,7.10625028610229,-24.1312503814697,0.53872716426849,-0.05944823473692,0.72354751825333,-0.42745518684387,-2.20247507095337,-1.89048743247986,-1.19143748283386,3.80295014381409,-16.4959506988525,-6.93105030059814,-14.4750003814697,7.21875047683716,-23.8875007629395,0.55813902616501,-0.06108371168375,0.71790528297424,-0.41153573989868,-1.38228750228882,-1.58097493648529,-0.00013749999925,4.56704998016357,-16.7189998626709,-6.74205017089844,-14.2312507629395,7.29375028610229,-23.6437511444092,0.57203322649002,-0.06435898691416,0.70965832471848,-0.40622767806053,-0.32807499170303,-1.18772494792938,1.15293753147125,4.76805019378662,-15.7060508728027,-6.78900051116943,-14.0062503814697,7.33125019073486,-23.4187507629395,0.57928389310837,-0.06819459050894,0.69975686073303,-0.41245624423027,0.55549997091293,-0.75625002384186,2.32498741149902,4.24395036697388,-13.3770008087158,-7.29900026321411,-13.7625007629395,7.36875009536743,-23.1750011444092,0.58013170957565,-0.07399359345436,0.68819087743759,-0.429378002882,1.17425000667572,-0.31927499175072,3.2520124912262,3.64305019378662,-10.8150005340576,-7.8070502281189,-13.7625007629395,7.36875009536743,-23.1750011444092,0.57531601190567,-0.08223784714937,0.67537754774094,-0.45399728417397,1.5274875164032,0.0,3.87722492218018,3.01800012588501,-8.86305046081543,-8.22105026245117,-13.5187501907349,7.42500019073486,-22.9500007629395,0.56635063886643,-0.09260302037001,0.66130644083023,-0.48305863142014,1.5274875164032,0.0,3.87722492218018,3.01800012588501,-8.86305046081543,-8.22105026245117,-13.2750005722046,7.51875019073486,-22.7437515258789,0.55669748783112,-0.10282780230045,0.64645636081696,-0.51147669553757,1.62084996700287,0.39820000529289,4.050612449646,1.9450501203537,-6.52905035018921,-8.76705074310303,-12.7500009536743,7.81875038146973,-22.21875,0.53060287237167,-0.12635542452335,0.61590301990509,-0.56847018003464,1.55856251716614,0.50916248559952,3.85769987106323,1.73505008220673,-4.69005012512207,-8.74605083465576,-12.7500009536743,7.81875038146973,-22.21875,0.51616078615189,-0.13803593814373,0.60125839710236,-0.59414851665497,1.44622504711151,0.57516247034073,3.50515007972717,1.69200003147125,-3.00705003738403,-8.49900054931641,-12.5625009536743,7.96875047683716,-21.9937515258789,0.50181990861893,-0.14886780083179,0.5878854393959,-0.61677050590515,1.44622504711151,0.57516247034073,3.50515007972717,1.69200003147125,-3.00705003738403,-8.49900054931641,-12.4875001907349,8.11875057220459,-21.8812503814697,0.48699909448624,-0.159504160285,0.57395720481873,-0.63872021436691,1.27435004711151,0.55646252632141,2.99048757553101,1.77300012111664,-1.99695014953613,-8.19000053405762,-12.4500007629395,8.26875019073486,-21.7875003814697,0.47347736358643,-0.16857643425465,0.56198662519455,-0.65694153308868,1.06658744812012,0.45155000686646,2.38493752479553,1.79205012321472,-1.58700013160706,-8.19195079803467,-12.4500007629395,8.36250019073486,-21.7125015258789,0.46216922998428,-0.17551682889462,0.55230289697647,-0.67123395204544,0.85552501678467,0.28833749890327,1.77113747596741,1.77105009555817,-1.35195004940033,-8.02995014190674,-12.5062503814697,8.40000057220459,-21.6937503814697,0.45353639125824,-0.18005827069283,0.54492634534836,-0.68186450004578,0.66673749685287,0.00013749999925,1.19336247444153,1.56705009937286,-0.67200005054474,-7.95105028152466,-12.5062503814697,8.40000057220459,-21.6937503814697,0.44806644320488,-0.18158704042435,0.53935462236404,-0.68946301937103,SWING_LEFT
1.35354995727539,0.0,-1.88883745670319,3.10905003547668,1.47705006599426,-8.33895015716553,-14.7937507629395,7.36875009536743,-22.8562507629395,0.37342473864555,-0.08454235643148,0.610327064991,-0.69347488880158,1.35354995727539,0.0,-1.88883745670319,3.10905003547668,1.47705006599426,-8.33895015716553,-14.7937507629395,7.36875009536743,-22.8562507629395,0.36722281575203,-0.071791626513,0.62225991487503,-0.68759441375732,0.70537501573563,-0.00013749999925,-2.18129992485046,2.37405014038086,0.33000001311302,-7.35195016860962,-15.2062501907349,7.06875038146973,-23.0437507629395,0.35991916060448,-0.04971430823207,0.64734578132629,-0.67002242803574,0.00013749999925,-0.31102499365807,-2.47472500801086,1.93800008296967,0.96405005455017,-7.18005037307739,-15.3562507629395,6.93750047683716,-23.0812511444092,0.3629167675972,-0.04061017557979,0.66027140617371,-0.65626507997513,-0.7735750079155,-0.53748750686645,-2.84212493896484,1.21995007991791,3.59595012664795,-9.10200023651123,-15.3562507629395,6.93750047683716,-23.0812511444092,0.37127006053925,-0.03342976793647,0.6738133430481,-0.63797843456268,-1.49228751659393,-0.80162501335144,-3.11038756370544,-1.1539500951767,11.6520004272461,-9.64305019378662,-15.4875001907349,6.80625009536743,-23.1187515258789,0.38459429144859,-0.02804015018046,0.6870983839035,-0.61578941345215,-1.49228751659393,-0.80162501335144,-3.11038756370544,-1.1539500951767,11.6520004272461,-9.64305019378662,-15.5812501907349,6.69375038146973,-23.15625,0.39756533503532,-0.02264209277928,0.69977366924286,-0.59308177232742,-2.20701241493225,-1.05517494678497,-3.49084997177124,0.05400000140071,25.3549518585205,-20.1379508972168,-15.6375007629395,6.61875009536743,-23.1937503814697,0.41519314050674,-0.01887305825949,0.71259468793869,-0.56521451473236,-2.95913743972778,-1.13712501525879,-4.03507518768311,-3.6780002117157,29.7940521240234,-12.3850507736206,-15.6375007629395,6.52500009536743,-23.2125015258789,0.43620800971985,-0.0172816850245,0.72641909122467,-0.53079098463059,-3.48328757286072,-1.12172496318817,-4.44950008392334,-7.90395021438599,21.5430011749268,-5.83905029296875,-15.6187505722046,6.45000028610229,-23.25,0.45852002501488,-0.01742338575423,0.74053430557251,-0.49098360538483,-3.78812503814697,-1.10054993629456,-4.79228734970093,-12.4699506759644,13.1490001678467,-4.84305000305176,-15.6187505722046,6.45000028610229,-23.25,0.48077183961868,-0.01824320107698,0.75425404310226,-0.44679579138756,-3.87832498550415,-1.11938750743866,-5.04831266403198,-13.3650007247925,6.65295028686523,-7.44795036315918,-15.5437507629395,6.35625028610229,-23.2875003814697,0.50214385986328,-0.01855690963566,0.76676857471466,-0.39946603775024,-3.76034998893738,-1.1727374792099,-5.14841270446777,-12.5730009078979,-1.60395002365112,-9.46605014801025,-15.3937501907349,6.30000019073486,-23.34375,0.54054075479507,-0.01776970922947,0.78524017333984,-0.30149286985397,-3.38992500305176,-1.27008748054504,-4.9964747428894,-9.25200080871582,-11.401050567627,-12.7369508743286,-15.3187503814697,6.37500047683716,-23.3250007629395,0.5571870803833,-0.01472522877157,0.79050946235657,-0.25381201505661,-2.83030009269714,-1.3917750120163,-4.54836225509644,-5.7180004119873,-14.8320007324219,-15.0880508422852,-15.3187503814697,6.37500047683716,-23.3250007629395,0.57213193178177,-0.0097988685593,0.79247099161148,-0.21108901500702,-2.15366244316101,-1.51827502250671,-3.80118751525879,-3.28995013237,-16.4320507049561,-13.1250009536743,-15.2062501907349,6.52500009536743,-23.2125015258789,0.58568644523621,-0.00370832113549,0.79115188121796,-0.17617097496986,-2.15366244316101,-1.51827502250671,-3.80118751525879,-3.28995013237,-16.4320507049561,-13.1250009536743,-15.0562505722046,6.69375038146973,-23.0062503814697,0.5984223484993,0.00239785131998,0.78867030143738,-0.14101119339466,-1.31188750267029,-1.62607502937317,-2.68289995193481,-0.807000041008,-18.9769515991211,-10.570050239563,-14.8687505722046,6.82500028610229,-22.7250003814697,0.61026334762573,0.00861938204616,0.78342652320862,-0.11724851280451,-0.22110000252724,-1.69111251831055,-1.09037494659424,1.84500002861023,-20.3680515289307,-8.78595066070557,-14.6437501907349,6.86250019073486,-22.4812507629395,0.62127870321274,0.01395123731345,0.77579343318939,-0.10937470942736,1.01598751544952,-1.79038751125336,0.77990001440048,2.47395014762878,-19.2569999694824,-8.05605030059814,-14.4187507629395,6.84375047683716,-22.2937507629395,0.63184243440628,0.0176969524473,0.76555281877518,-0.11996152251959,2.08986258506775,-1.83204996585846,2.49452495574951,2.46495008468628,-17.181001663208,-7.88595056533813,-14.4187507629395,6.84375047683716,-22.2937507629395,0.64142405986786,0.01929996721447,0.7527135014534,-0.14705435931683,2.9808623790741,-1.77154994010925,4.05597496032715,2.18700003623962,-14.9830503463745,-7.90995025634766,-14.1562509536743,6.82500028610229,-22.125,0.64880621433258,0.01804346218705,0.73702299594879,-0.18847289681435,3.6586000919342,-1.63185000419617,5.40498733520508,1.70805013179779,-12.796950340271,-8.16900062561035,-13.7250003814697,6.80625009536743,-21.8250007629395,0.65724349021912,0.01186566520482,0.69893795251846,-0.28173723816872,4.1040997505188,-1.43302500247955,6.44366264343262,1.53600001335144,-11.0539503097534,-8.32200050354004,-13.5937509536743,6.76875019073486,-21.6750011444092,0.65505993366241,0.00337749137543,0.67406469583511,-0.34135290980339,4.27349996566772,-1.16008746623993,7.10091257095337,1.54995012283325,-9.38295078277588,-8.25495052337646,-13.5000009536743,6.65625047683716,-21.5250015258789,0.64786058664322,-0.00852303951979,0.64576858282089,-0.40396410226822,4.24366235733032,-0.83875000476837,7.3651876449585,1.92405009269714,-7.87005043029785,-7.82100057601929,-13.5000009536743,6.65625047683716,-21.5250015258789,0.63575619459152,-0.02302243001759,0.61513221263885,-0.46572145819664,4.09749984741211,-0.50022500753403,7.27333736419678,1.73895013332367,-6.12705039978027,-7.28505039215088,-13.4250001907349,6.50625038146973,-21.4312515258789,0.61932611465454,-0.03894628956914,0.5836084485054,-0.52375531196594,4.09749984741211,-0.50022500753403,7.27333736419678,1.73895013332367,-6.12705039978027,-7.28505039215088,-13.3687505722046,6.31875038146973,-21.375,0.59988802671432,-0.05462546274066,0.54931473731995,-0.57914066314697,3.83006238937378,-0.1733874976635,6.8113374710083,1.66995012760162,-4.50600004196167,-6.92100048065186,-13.3687505722046,6.13125038146973,-21.4125003814697,0.57777619361877,-0.07046451419592,0.51634687185287,-0.62816828489304,3.42608737945557,0.00013749999925,5.98262500762939,1.69905006885529,-3.1429500579834,-6.90900039672852,-13.4437503814697,5.96250009536743,-21.4875011444092,0.55541008710861,-0.08459910750389,0.48644158244133,-0.66913163661957,SWING_LEFT
-2.21017503738403,-0.34732499718666,-2.80376243591309,4.28205013275146,0.11205000430346,-8.62800025939941,-14.4937505722046,5.26875019073486,-22.7250003814697,0.39763122797012,0.01011915318668,0.7232311964035,-0.56455606222153,-2.09824991226196,-0.29837501049042,-2.67575001716614,3.99495029449463,0.27195000648499,-9.40904998779297,-14.4937505722046,5.30625009536743,-22.6875,0.40923598408699,0.00754920393229,0.73484516143799,-0.54080641269684,-1.89186251163483,-0.20968750119209,-2.53756237030029,3.50205016136169,3.21195006370544,-8.79600048065186,-14.4937505722046,5.30625009536743,-22.6875,0.41902872920036,0.0053608622402,0.74545472860336,-0.51834684610367,-1.77443754673004,-0.00013749999925,-2.51473736763,6.07500028610229,16.47705078125,-9.92400074005127,-14.4750003814697,5.34375,-22.6875,0.42664802074432,0.00296074105427,0.75604295730591,-0.4963484108448,-1.77443754673004,-0.00013749999925,-2.51473736763,6.07500028610229,16.47705078125,-9.92400074005127,-14.4187507629395,5.41875028610229,-22.6875,0.43397632241249,0.0005477227387,0.76612466573715,-0.47404354810715,-1.86395001411438,0.0,-2.69348740577698,-0.53205001354217,24.9049510955811,-12.5520009994507,-14.3250007629395,5.49375009536743,-22.7062511444092,0.44126373529434,-0.00183963659219,0.77635145187378,-0.45006820559502,-1.99718749523163,0.0,-2.91128754615784,-4.19505023956299,26.0370006561279,-12.4399509429932,-14.2312507629395,5.55000019073486,-22.7250003814697,0.4486685693264,-0.00430946517736,0.78675985336304,-0.42389485239983,-2.09715008735657,-0.00013749999925,-3.1382999420166,-11.0880002975464,20.6119518280029,-12.5689506530762,-14.1375007629395,5.53125,-22.7625007629395,0.45596107840538,-0.00663315970451,0.7972417473793,-0.39555156230927,-1.98797500133514,-0.43505001068115,-3.4788875579834,-13.9129505157471,-3.93795013427734,-8.41499996185303,-14.0437507629395,5.49375009536743,-22.8000011444092,0.47299841046333,-0.00649253511801,0.81499093770981,-0.33469411730766,-1.98797500133514,-0.43505001068115,-3.4788875579834,-13.9129505157471,-3.93795013427734,-8.41499996185303,-13.9687509536743,5.47500038146973,-22.8187503814697,0.48122116923332,-0.00550753530115,0.82235407829285,-0.30352863669395,-1.70692503452301,-0.69712501764297,-3.43241238594055,-10.4269504547119,-13.312050819397,-10.5079507827759,-13.9125003814697,5.51250028610229,-22.78125,0.48998060822487,-0.00214980193414,0.827721118927,-0.27348160743713,-1.30776250362396,-1.00705003738403,-3.18009996414185,-7.05105018615723,-18.0690002441406,-9.33195018768311,-13.8562507629395,5.56875038146973,-22.6687507629395,0.49950808286667,0.00364513904788,0.83047503232956,-0.24655565619469,-0.82637500762939,-1.33608746528625,-2.65966248512268,-4.63800001144409,-23.3389511108398,-7.98405027389526,-13.7250003814697,5.60625028610229,-22.5187511444092,0.50998264551163,0.01129499357194,0.83014529943466,-0.22505341470241,-0.24763749539852,-1.63776254653931,-1.8243499994278,-2.32305002212524,-25.711950302124,-5.95095014572144,-13.7250003814697,5.60625028610229,-22.5187511444092,0.52129137516022,0.01997522450984,0.82647258043289,-0.21165864169598,-0.24763749539852,-1.63776254653931,-1.8243499994278,-2.32305002212524,-25.711950302124,-5.95095014572144,-13.5375003814697,5.56875038146973,-22.3875007629395,0.53240567445755,0.02865251153708,0.82246249914169,-0.19818817079067,0.51493752002716,-1.86903750896454,-0.65848749876022,1.00905001163483,-24.3210010528564,-5.73600006103516,-13.2937507629395,5.41875028610229,-22.3125,0.54395622014999,0.03775881975889,0.81503462791443,-0.19597052037716,1.46038746833801,-1.95593750476837,0.8232125043869,-0.1219500079751,-22.6590003967285,-5.2020001411438,-13.0500001907349,5.19375038146973,-22.3125,0.55482190847397,0.04670613259077,0.80419015884399,-0.20801319181919,2.42728757858276,-1.87275004386902,2.54113745689392,-1.15905010700226,-20.2770004272461,-4.33500003814697,-12.7875003814697,4.96875,-22.4437503814697,0.56367617845535,0.05401749536395,0.78974592685699,-0.23590825498104,3.9386875629425,-1.25881254673004,5.7934250831604,0.49695003032684,-12.5670003890991,-4.57500028610229,-12.5812501907349,4.81875038146973,-22.6500015258789,0.56958729028702,0.0584605038166,0.748694896698,-0.33407860994339,3.9386875629425,-1.25881254673004,5.7934250831604,0.49695003032684,-12.5670003890991,-4.57500028610229,-12.3937501907349,4.76250028610229,-22.8187503814697,0.56808400154114,0.05847397819161,0.72336763143539,-0.38807287812233,4.39161252975464,-0.85442501306534,7.06241226196289,0.4870500266552,-10.2330007553101,-5.47500038146973,-12.2625007629395,4.74375009536743,-22.9312515258789,0.56088489294052,0.05365354195237,0.69263410568237,-0.4503191113472,4.57201242446899,-0.41098749637604,7.88933753967285,1.13595008850098,-8.25,-6.38505029678345,-12.1875009536743,4.76250028610229,-23.0062503814697,0.54782086610794,0.04405854642391,0.65715569257736,-0.51584649085999,4.57091236114502,0.0,8.27818775177002,1.37295007705688,-7.54905033111572,-6.89700031280518,-12.1687507629395,4.80000019073486,-23.0250015258789,0.52936679124832,0.03067527338862,0.61800712347031,-0.58042842149734,4.42612504959106,0.4643374979496,8.23954963684082,1.18395006656647,-6.68895053863525,-6.86400032043457,-12.1687507629395,4.80000019073486,-23.0250015258789,0.50598049163818,0.01432573981583,0.57741171121597,-0.64060467481613,4.13022518157959,0.83627498149872,7.81866264343262,1.20600008964539,-5.17905044555664,-6.74400043487549,-12.1500005722046,4.83750009536743,-23.0437507629395,0.47949948906898,-0.00365609582514,0.53742945194244,-0.69371205568314,3.72473740577698,1.0896874666214,7.13033723831177,1.26495003700256,-4.01505041122437,-6.95505046844482,-12.1687507629395,4.93125009536743,-23.0812511444092,0.45195943117142,-0.02202181145549,0.49981033802032,-0.73853743076324,3.27758741378784,1.17397499084473,6.25391244888306,1.42095005512238,-3.20295023918152,-7.35000038146973,-12.1875009536743,4.98750019073486,-23.1375007629395,0.42524272203445,-0.03926027193666,0.46583187580109,-0.77500182390213,2.79248738288879,1.105637550354,5.09093761444092,1.67205011844635,-3.43800020217896,-7.84995031356812,-12.2250003814697,5.02500009536743,-23.2125015258789,0.40110477805138,-0.05362797528505,0.43759146332741,-0.80296498537064,1.9325624704361,0.50586247444153,2.62941241264343,2.35199999809265,-4.02195024490356,-8.14905071258545,-12.2812509536743,5.08125019073486,-23.2687511444092,0.36475145816803,-0.06874098628759,0.40075790882111,-0.83763009309769,1.9325624704361,0.50586247444153,2.62941241264343,2.35199999809265,-4.02195024490356,-8.14905071258545,-12.3187503814697,5.10000038146973,-23.34375,0.34841525554657,-0.07373780012131,0.38522773981094,-0.851333796978,SWING_LEFT
0.33838748931885,-1.42725002765656,-3.55272507667542,1.86405003070831,2.87205004692078,-10.0189504623413,-12.9187507629395,4.57500028610229,-24.0750007629395,0.27151820063591,0.12122548371553,0.50971251726151,-0.80732601881027,-0.31006249785423,-1.39205002784729,-3.63096237182617,2.21595001220703,4.14405012130737,-10.2829504013062,-12.9750003814697,4.51875019073486,-24.0937519073486,0.27624526619911,0.13740254938602,0.53112351894379,-0.78912407159805,-1.16957497596741,-1.34529995918274,-3.73601245880127,2.21595001220703,4.21605014801025,-10.1200504302979,-13.0312509536743,4.46250009536743,-24.0937519073486,0.28597444295883,0.14955060184002,0.55369901657105,-0.76763963699341,-2.00873756408691,-1.29799997806549,-3.85164999961853,1.00200009346008,4.24005031585693,-10.0120506286621,-13.0312509536743,4.46250009536743,-24.0937519073486,0.30027097463608,0.15755404531956,0.57743591070175,-0.74268555641174,-2.00873756408691,-1.29799997806549,-3.85164999961853,1.00200009346008,4.24005031585693,-10.0120506286621,-13.0687503814697,4.38750028610229,-24.1125011444092,0.31410551071167,0.16530418395996,0.60032880306244,-0.71667122840881,-2.72676253318787,-1.28727495670319,-3.93057489395142,-0.49305000901222,5.48895025253296,-10.4689502716064,-13.0875005722046,4.3125,-24.1312503814697,0.33143529295921,0.16927954554558,0.623719394207,-0.68736398220062,-3.36792492866516,-1.33732497692108,-4.07866239547729,-0.42600002884865,16.678050994873,-13.006950378418,-13.0875005722046,4.23750019073486,-24.1500015258789,0.35174041986465,0.17033641040325,0.64742320775986,-0.65429908037186,-4.17381238937378,-1.24905002117157,-4.69974994659424,6.02505016326904,33.3540000915527,-15.0739507675171,-13.0500001907349,4.125,-24.1875019073486,0.37419772148132,0.1679942458868,0.67426353693008,-0.6141032576561,-4.98203754425049,-1.12351250648499,-5.66761255264282,-12.4960508346558,13.6830005645752,-2.88195013999939,-13.0125007629395,4.01250028610229,-24.2437515258789,0.41827523708344,0.15754720568657,0.73103958368301,-0.51556360721588,-4.98203754425049,-1.12351250648499,-5.66761255264282,-12.4960508346558,13.6830005645752,-2.88195013999939,-12.9187507629395,3.88125014305115,-24.3000011444092,0.43805092573166,0.15114453434944,0.75642067193985,-0.46162161231041,-4.97337484359741,-1.13836252689362,-6.01424980163574,-15.2760009765625,4.5799503326416,-4.171950340271,-12.7875003814697,3.73125004768372,-24.3375015258789,0.45559108257294,0.14542490243912,0.77996009588242,-0.40367126464844,-3.92809987068176,-1.28507494926453,-5.98565006256104,-13.252950668335,-16.2810001373291,-20.9320507049561,-12.7500009536743,3.65625023841858,-24.4687519073486,0.46880447864532,0.14615163207054,0.79859006404877,-0.34801715612411,-3.05442500114441,-1.3556125164032,-5.33431243896484,-5.00205039978027,-17.0950508117676,-20.9779510498047,-12.8812503814697,3.76875019073486,-24.5062503814697,0.47932457923889,0.14984530210495,0.81146329641342,-0.29886719584465,-2.21141242980957,-1.36248743534088,-4.35008764266968,-0.36195001006126,-15.3660011291504,-16.3330516815186,-12.8812503814697,3.76875019073486,-24.5062503814697,0.48799377679825,0.15498818457127,0.81898695230484,-0.25903883576393,-2.21141242980957,-1.36248743534088,-4.35008764266968,-0.36195001006126,-15.3660011291504,-16.3330516815186,-12.9750003814697,3.97500014305115,-24.3750019073486,0.49584022164345,0.15986473858357,0.82506036758423,-0.21877190470696,-1.45956254005432,-1.35492503643036,-3.26466250419617,0.07995000481606,-15.0600004196167,-10.6350002288818,-12.9562501907349,4.14375019073486,-24.0937519073486,0.50304293632507,0.16523404419422,0.82704412937164,-0.18879449367523,-0.64487498998642,-1.30088746547699,-2.06593751907349,2.08905005455017,-16.7380504608154,-7.42905044555664,-12.8812503814697,4.21875,-23.8125,0.50989717245102,0.17102842032909,0.8256528377533,-0.1704453676939,0.49128749966621,-1.32948744297028,-0.44220000505447,4.91400003433228,-17.9350509643555,-5.73405027389526,-12.7875003814697,4.23750019073486,-23.5687503814697,0.51751446723938,0.17775459587574,0.81997102499008,-0.1680169403553,2.21347498893738,-1.19693744182587,2.37256240844727,2.99205017089844,-13.7719507217407,-4.05795001983643,-12.6562509536743,4.21875,-23.34375,0.53364390134811,0.19048051536083,0.79827469587326,-0.20420315861702,2.21347498893738,-1.19693744182587,2.37256240844727,2.99205017089844,-13.7719507217407,-4.05795001983643,-12.5062503814697,4.25625038146973,-23.15625,0.54121977090836,0.19619950652123,0.78515416383743,-0.22829766571522,2.78795003890991,-1.02135002613068,3.64264988899231,2.61795020103455,-11.5159502029419,-4.76895046234131,-12.3375005722046,4.33125019073486,-22.96875,0.54797518253326,0.19936941564083,0.76853948831558,-0.26329082250595,3.14820003509521,-0.76917499303818,4.77180004119873,2.79495024681091,-10.6519508361816,-5.64000034332275,-12.1875009536743,4.46250009536743,-22.78125,0.55312252044678,0.19874057173729,0.74851989746094,-0.30704349279404,3.19206237792969,-0.40342500805855,5.49353742599487,2.83095002174377,-10.0459508895874,-5.8560004234314,-12.0937509536743,4.55625009536743,-22.5750007629395,0.55561685562134,0.193608507514,0.72634154558182,-0.35529372096062,3.07835006713867,0.0,5.70968723297119,2.72595024108887,-9.61800003051758,-5.99205017089844,-12.0937509536743,4.55625009536743,-22.5750007629395,0.55471938848495,0.18503162264824,0.70348066091537,-0.40393641591072,3.07835006713867,0.0,5.70968723297119,2.72595024108887,-9.61800003051758,-5.99205017089844,-12.0375003814697,4.63125038146973,-22.4437503814697,0.55215495824814,0.17590841650963,0.67855840921402,-0.45137533545494,2.97825002670288,0.20996250212192,5.5757622718811,2.15400004386902,-7.6830005645752,-5.98995018005371,-12.0187501907349,4.6875,-22.3687515258789,0.54698264598846,0.1655240803957,0.65332353115082,-0.49656838178635,2.89561247825623,0.42652499675751,5.29746246337891,1.58400011062622,-5.36805009841919,-6.20805025100708,-12.0937509536743,4.74375009536743,-22.3500003814697,0.53913486003876,0.15459796786308,0.62862658500671,-0.53875935077667,2.76457500457764,0.59633749723434,4.8882622718811,1.71300005912781,-4.39095020294189,-6.62400054931641,-12.2250003814697,4.875,-22.2937507629395,0.52919262647629,0.14369687438011,0.60523408651352,-0.57705986499786,2.47073745727539,0.73218750953674,4.0772876739502,2.0550000667572,-3.99105024337769,-8.07495021820068,-12.3562507629395,5.0625,-22.1437511444092,0.50588870048523,0.12326703965664,0.5625758767128,-0.64217621088028,2.47073745727539,0.73218750953674,4.0772876739502,2.0550000667572,-3.99105024337769,-8.07495021820068,-12.6000003814697,5.23125028610229,-22.03125,0.49307751655579,0.1131706237793,0.541090965271,-0.67177939414978,SWING_LEFT
-4.0181622505188,-1.16022503376007,-4.62673759460449,-9.03404998779297,26.5729503631592,-14.2720508575439,-16.8937511444092,5.02500009536743,-23.0812511444092,0.3642461001873,0.20770041644573,0.70899921655655,-0.56701451539993,-4.0181622505188,-1.16022503376007,-4.62673759460449,-9.03404998779297,26.5729503631592,-14.2720508575439,-16.875,4.96875,-23.1375007629395,0.38159763813019,0.20292729139328,0.73323851823807,-0.5249428153038,-4.38542509078979,-1.30831253528595,-4.91204977035522,-15.3280506134033,13.4650506973267,-1.45005011558533,-16.8187503814697,4.875,-23.2312507629395,0.39965128898621,0.19684815406799,0.75674968957901,-0.47839272022247,-4.54038763046265,-1.38874995708466,-5.20038747787476,-15.0439510345459,1.73505008220673,1.96800005435944,-16.7062511444092,4.74375009536743,-23.3062515258789,0.41695827245712,0.19040036201477,0.77896493673325,-0.42791026830673,-4.42145013809204,-1.386274933815,-5.30598735809326,-10.312050819397,-4.90605020523071,-4.46895027160645,-16.59375,4.65000009536743,-23.3812503814697,0.43224132061005,0.18432883918285,0.79878896474838,-0.37566816806793,-4.00124979019165,-1.32838749885559,-5.14703750610352,-6.62505054473877,-11.2120504379272,-10.5079507827759,-16.4625015258789,4.61250019073486,-23.4187507629395,0.44473016262054,0.17962165176868,0.81515181064606,-0.32477468252182,-4.00124979019165,-1.32838749885559,-5.14703750610352,-6.62505054473877,-11.2120504379272,-10.5079507827759,-16.4625015258789,4.61250019073486,-23.4187507629395,0.45591753721237,0.174356803298,0.82900536060333,-0.27292686700821,-3.34853744506836,-1.2421749830246,-4.74870014190674,-2.4060001373291,-13.8169507980347,-14.9560508728027,-16.3312511444092,4.70625019073486,-23.4000015258789,0.46443101763725,0.17137087881565,0.8390656709671,-0.22562086582184,-2.56533741950989,-1.17383754253387,-4.11111259460449,0.05895000323653,-16.5150012969971,-14.5470008850098,-16.21875,4.89375019073486,-23.2875003814697,0.47098010778427,0.17092780768871,0.84532791376114,-0.18542404472828,-0.89787501096725,-1.20834994316101,-2.1070499420166,1.2679500579834,-16.5510005950928,-9.16695022583008,-15.8625001907349,5.28750038146973,-22.8375015258789,0.48323154449463,0.17560984194279,0.84705913066864,-0.13468183577061,-0.89787501096725,-1.20834994316101,-2.1070499420166,2.09100008010864,-15.9580507278442,-6.01395034790039,-15.8625001907349,5.28750038146973,-22.8375015258789,0.48938715457916,0.17869162559509,0.84581083059311,-0.11477711796761,0.00013749999925,-1.26499998569489,-0.74800002574921,2.09100008010864,-15.9580507278442,-6.01395034790039,-15.6750001907349,5.45625019073486,-22.6125011444092,0.49698340892792,0.18256537616253,0.84143513441086,-0.10800113528967,1.18579995632172,-1.32632493972778,0.77742499113083,2.56095004081726,-14.4250507354736,-4.02600002288818,-15.4875001907349,5.60625028610229,-22.3687515258789,0.50616949796677,0.18847106397152,0.83345282077789,-0.11673653870821,2.06456255912781,-1.25303745269775,2.24936246871948,2.81895017623901,-12.8950510025024,-2.84100008010864,-15.2812509536743,5.77500009536743,-22.125,0.51604092121124,0.19411455094814,0.82253807783127,-0.13947197794914,2.80266237258911,-1.11842501163483,3.73711252212524,3.64800024032593,-12.2940006256104,-2.74500012397766,-15.1125001907349,5.98125028610229,-21.9000015258789,0.52591329813003,0.19803559780121,0.80830192565918,-0.1756274998188,3.35238742828369,-0.9451749920845,5.04088735580444,3.83895015716553,-11.2770004272461,-3.60495018959045,-14.9812507629395,6.16875028610229,-21.6937503814697,0.53483456373215,0.19926334917545,0.79030221700668,-0.22286459803581,3.68266248703003,-0.72957497835159,5.98688745498657,3.44205021858215,-9.96495056152344,-4.54095029830933,-14.9812507629395,6.16875028610229,-21.6937503814697,0.5416367650032,0.19742494821549,0.76855289936066,-0.27745181322098,3.68266248703003,-0.72957497835159,5.98688745498657,3.44205021858215,-9.96495056152344,-4.54095029830933,-14.8125009536743,6.33750009536743,-21.5062503814697,0.54651439189911,0.19489562511444,0.74412453174591,-0.33108359575272,3.84505009651184,-0.47437500953674,6.57112503051758,3.13800024986267,-8.74605083465576,-5.41305017471313,-14.6062507629395,6.39375019073486,-21.3562507629395,0.54822552204132,0.18925109505653,0.71619194746018,-0.38820338249206,3.80627489089966,0.0,6.53716230392456,2.50605010986328,-6.12705039978027,-6.70995044708252,-14.2312507629395,6.20625019073486,-21.4312515258789,0.54071038961411,0.17238710820675,0.65468746423721,-0.49929875135422,3.67674994468689,0.2909500002861,6.11393737792969,1.89495003223419,-4.81005001068115,-7.27995014190674,-14.1375007629395,6.15000009536743,-21.6187515258789,0.53153699636459,0.16278827190399,0.62428534030914,-0.54884994029999,3.67674994468689,0.2909500002861,6.11393737792969,1.27500009536743,-3.43605017662048,-7.52400016784668,-14.1375007629395,6.15000009536743,-21.6187515258789,0.52050459384918,0.15264451503754,0.59173810482025,-0.59633940458298,3.50006246566772,0.47492501139641,5.55774974822998,1.27500009536743,-3.43605017662048,-7.52400016784668,-14.1187505722046,6.18750047683716,-21.8062515258789,0.5070526599884,0.14266639947891,0.56109338998795,-0.63852804899216,3.29229998588562,0.59014999866486,4.86736249923706,0.95895004272461,-2.23800015449524,-8.47695064544678,-14.1750001907349,6.28125047683716,-21.9750003814697,0.49202206730843,0.13372826576233,0.53337675333023,-0.67493718862534,3.03971242904663,0.63249999284744,4.01197481155396,1.2150000333786,-1.12695002555847,-9.33495044708252,-14.3250007629395,6.35625028610229,-22.1062507629395,0.47630161046982,0.12676422297955,0.50982695817947,-0.70508456230164,2.76237487792969,0.59537500143051,2.98952507972717,1.39695012569427,-0.10305000841618,-9.38700008392334,-14.5500001907349,6.39375019073486,-22.2375011444092,0.46063494682312,0.12279994785786,0.4916832447052,-0.72868597507477,2.58362507820129,0.47423750162125,2.01684999465942,1.24905002117157,-0.00900000054389,-9.33495044708252,-14.5500001907349,6.39375019073486,-22.2375011444092,0.44514805078506,0.12249304354191,0.4787101149559,-0.74677664041519,2.58362507820129,0.47423750162125,2.01684999465942,1.24905002117157,-0.00900000054389,-9.33495044708252,-14.8125009536743,6.41250038146973,-22.3687515258789,0.42937341332436,0.12213411182165,0.46539482474327,-0.76428365707398,2.66007494926453,0.33288750052452,1.18098747730255,1.32795011997223,-0.06000000238419,-9.01395034790039,-15.0562505722046,6.39375019073486,-22.5187511444092,0.41257274150848,0.12592206895351,0.4565135538578,-0.77815341949463,2.74656248092651,0.00013749999925,-0.44687500596046,1.97895014286041,1.83795011043549,-9.12105083465576,-15.5437507629395,6.30000019073486,-22.78125,0.37560313940048,0.14585301280022,0.45171317458153,-0.79599273204804,SWING_LEFT
1.34736251831055,-0.25698751211166,-2.53288745880127,2.26605010032654,2.16600012779236,-9.03000068664551,-16.3125,5.86875009536743,-23.4375,0.30367287993431,0.21112336218357,0.49966603517532,-0.78329026699066,1.0477499961853,-0.31886249780655,-2.79757499694824,2.02005004882812,2.34600019454956,-8.77905082702637,-16.5,5.70000028610229,-23.6437511444092,0.29369425773621,0.22452840209007,0.51529490947723,-0.77317637205124,0.66481250524521,-0.39875000715256,-3.02156257629395,1.85700011253357,4.21605014801025,-10.6920003890991,-16.6125011444092,5.55000019073486,-23.7562503814697,0.28589898347855,0.23718942701817,0.53251999616623,-0.76054275035858,0.66481250524521,-0.39875000715256,-3.02156257629395,1.85700011253357,4.21605014801025,-10.6920003890991,-16.6125011444092,5.55000019073486,-23.7562503814697,0.27792313694954,0.24969047307968,0.54937142133713,-0.74739855527878,0.0,-0.518374979496,-3.35431241989136,1.29900002479553,9.28200054168701,-14.6329507827759,-16.6875,5.41875028610229,-23.8312511444092,0.27367046475411,0.26045471429825,0.5689280629158,-0.73047161102295,-2.34135007858276,-0.93774998188019,-4.36094999313354,0.49695003032684,20.0179500579834,-15.1720504760742,-16.7250003814697,5.17500019073486,-24.0,0.284194201231,0.2718690931797,0.62076824903488,-0.67820906639099,-3.05634999275208,-1.15005004405975,-4.55977487564087,-4.94400024414062,12.3709506988525,-5.14905023574829,-16.6875,5.02500009536743,-24.0562515258789,0.29676941037178,0.27281910181045,0.64998704195023,-0.64421612024307,-3.36036252975464,-1.34447503089905,-4.64144992828369,-7.93695020675659,7.74495029449463,-3.92805027961731,-16.6875,5.02500009536743,-24.0562515258789,0.31098985671997,0.27267000079155,0.67839854955673,-0.6072164773941,-3.36036252975464,-1.34447503089905,-4.64144992828369,-7.93695020675659,7.74495029449463,-3.92805027961731,-16.6312503814697,4.83750009536743,-24.1125011444092,0.32449075579643,0.27184516191483,0.70517545938492,-0.56880003213882,-3.52701258659363,-1.52638745307922,-4.75034999847412,-7.51800012588501,4.40505027770996,-8.57595062255859,-16.5187511444092,4.6875,-24.1687507629395,0.33884933590889,0.27039849758148,0.7306637763977,-0.5274430513382,-3.55959987640381,-1.644087433815,-4.79998731613159,-6.16800022125244,-2.9520001411438,-11.0200500488281,-16.3875007629395,4.59375,-24.2437515258789,0.35299474000931,0.26856869459152,0.7543295621872,-0.48399659991264,-3.39762496948242,-1.7575249671936,-4.5845251083374,-3.53895020484924,-13.16100025177,-12.8569507598877,-16.2375011444092,4.61250019073486,-24.2812519073486,0.36672729253769,0.26695147156715,0.77453207969666,-0.44084918498993,-3.03627490997314,-1.79726254940033,-4.05487489700317,1.17405009269714,-18.7330513000488,-13.5840005874634,-16.1062507629395,4.74375009536743,-24.2437515258789,0.37978690862656,0.26561287045479,0.79012405872345,-0.40114283561706,-2.53797507286072,-1.7433625459671,-3.24403738975525,2.70405006408691,-18.4140014648438,-12.5910005569458,-16.1062507629395,4.74375009536743,-24.2437515258789,0.3920136988163,0.26434981822968,0.80072152614593,-0.36781704425812,-2.53797507286072,-1.7433625459671,-3.24403738975525,2.70405006408691,-18.4140014648438,-12.5910005569458,-15.9375009536743,4.98750019073486,-24.1125011444092,0.40372747182846,0.26271152496338,0.81019270420074,-0.33402812480927,-1.16187500953674,-1.41583752632141,-1.05215001106262,1.42095005512238,-13.9780502319336,-4.91895008087158,-15.3000001907349,5.49375009536743,-23.4562511444092,0.42464384436607,0.26017814874649,0.81551653146744,-0.29481816291809,-0.26289999485016,-1.18538749217987,0.39091250300407,1.6560001373291,-13.5799503326416,-3.67200016975403,-15.0375003814697,5.66250038146973,-23.1187515258789,0.43388909101486,0.2595134973526,0.81103301048279,-0.29430970549583,0.48372501134872,-0.94008749723434,1.68038749694824,2.11094999313354,-12.8590507507324,-3.41100025177002,-14.7937507629395,5.79375028610229,-22.875,0.44235908985138,0.25858226418495,0.80249553918839,-0.30570337176323,1.12653744220734,-0.66701251268387,2.83579993247986,2.19705009460449,-11.8230009078979,-3.8970000743866,-14.7937507629395,5.79375028610229,-22.875,0.4496463239193,0.25686371326447,0.79024982452393,-0.32763451337814,1.12653744220734,-0.66701251268387,2.83579993247986,2.19705009460449,-11.8230009078979,-3.8970000743866,-14.5500001907349,5.92500019073486,-22.6687507629395,0.45661649107933,0.25497129559517,0.77746015787125,-0.34935200214386,1.66842496395111,-0.36258751153946,3.88148736953735,2.58195018768311,-11.0640001296997,-4.86195039749146,-14.3062505722046,6.05625009536743,-22.4812507629395,0.46181797981262,0.2514613866806,0.76088273525238,-0.38019558787346,2.07666254043579,-0.00013749999925,4.71789979934692,2.74995017051697,-10.7359504699707,-5.9800500869751,-14.1000003814697,6.16875028610229,-22.2937507629395,0.4644578397274,0.24576406180859,0.74102020263672,-0.41805258393288,2.24344992637634,0.17957499623299,5.17687511444092,2.26395010948181,-9.31800079345703,-6.75300025939941,-13.9687509536743,6.30000019073486,-22.0875015258789,0.46539515256882,0.23816810548306,0.71841931343079,-0.45886498689652,2.23368740081787,0.38706248998642,5.25579977035522,1.57200002670288,-7.59195041656494,-7.69395017623901,-13.9125003814697,6.48750019073486,-21.8625011444092,0.46424403786659,0.22884106636047,0.69474792480469,-0.49943420290947,2.23368740081787,0.38706248998642,5.25579977035522,1.57200002670288,-7.59195041656494,-7.69395017623901,-13.9125003814697,6.48750019073486,-21.8625011444092,0.46201160550117,0.2189876884222,0.66951864957809,-0.5388268828392,2.09769988059998,0.58368748426437,4.6388373374939,0.71895003318787,-4.53194999694824,-9.06599998474121,-13.9687509536743,6.91875028610229,-21.5062503814697,0.45249453186989,0.19846433401108,0.62050610780716,-0.60896027088165,2.02303743362427,0.61022502183914,4.05515003204346,1.02600002288818,-3.57705020904541,-9.43305015563965,-14.0437507629395,7.03125047683716,-21.4125003814697,0.44550868868828,0.18981243669987,0.59874421358108,-0.63796436786652,1.91317498683929,0.56347501277924,3.31952500343323,1.1340000629425,-3.22200012207031,-9.49305057525635,-14.1375007629395,7.01250028610229,-21.3937511444092,0.43767756223679,0.18341626226902,0.58018696308136,-0.66195154190063,1.7688000202179,0.43450000882149,2.52463746070862,0.81300002336502,-2.43900012969971,-9.45195007324219,-14.2500009536743,6.90000009536743,-21.46875,0.42971223592758,0.17983457446098,0.56529062986374,-0.68077409267426,1.7688000202179,0.43450000882149,2.52463746070862,0.81300002336502,-2.43900012969971,-9.45195007324219,-14.2500009536743,6.90000009536743,-21.46875,0.42149212956429,0.17617923021317,0.55004471540451,-0.69911098480225,SWING_LEFT
0.49417498707771,-0.20927499234676,-2.24070000648499,3.56400012969971,7.12005043029785,-9.78000068664551,-16.5187511444092,5.66250038146973,-23.4562511444092,0.30942395329475,0.282311886549,0.56073832511902,-0.71423333883286,-0.00013749999925,-0.23347499966621,-2.53151249885559,4.24905014038086,10.5559501647949,-12.2029504776001,-16.6500015258789,5.49375009536743,-23.5875015258789,0.30489930510521,0.2900196313858,0.57512229681015,-0.70154070854187,-0.94036251306534,-0.3616249859333,-3.01812505722046,-0.31395000219345,16.8529510498047,-11.2260007858276,-16.7437515258789,5.32500028610229,-23.7000007629395,0.30491745471954,0.29498583078384,0.59391927719116,-0.68357038497925,-2.06002497673035,-0.52401250600815,-3.79692506790161,1.46595001220703,22.6830005645752,-11.2789506912231,-16.7625007629395,5.17500019073486,-23.8312511444092,0.30988785624504,0.29703140258789,0.61884331703186,-0.65785622596741,-2.06002497673035,-0.52401250600815,-3.79692506790161,1.46595001220703,22.6830005645752,-11.2789506912231,-16.7625007629395,5.17500019073486,-23.8312511444092,0.31445473432541,0.29867312312126,0.64294213056564,-0.63129872083664,-3.21584987640381,-0.92358750104904,-4.58328723907471,-9.23295021057129,5.57805013656616,-9.60300064086914,-16.6125011444092,4.91250038146973,-24.0187511444092,0.33135750889778,0.29619291424751,0.697858273983,-0.56166338920593,-3.46032500267029,-1.15376245975494,-4.72257518768311,-8.68395042419434,-0.65595000982285,-9.153000831604,-16.5187511444092,4.78125,-24.0750007629395,0.3419237434864,0.2936370074749,0.72457307577133,-0.52140146493912,-3.54598736763,-1.32508754730225,-4.71432495117188,-4.85805034637451,-7.3840503692627,-9.68595027923584,-16.4250011444092,4.70625019073486,-24.1312503814697,0.3530501127243,0.29051584005356,0.74924427270889,-0.47915461659432,-3.40009999275208,-1.44869995117188,-4.46503734588623,-3.22095012664795,-11.8540506362915,-11.8050003051758,-16.4250011444092,4.70625019073486,-24.1312503814697,0.3641462624073,0.28736311197281,0.77037900686264,-0.43741992115974,-3.40009999275208,-1.44869995117188,-4.46503734588623,-3.22095012664795,-11.8540506362915,-11.8050003051758,-16.2937507629395,4.70625019073486,-24.1312503814697,0.37442740797996,0.28352689743042,0.78969341516495,-0.39471635222435,-3.0222499370575,-1.50919997692108,-3.94996237754822,-1.24305009841919,-15.4050006866455,-11.3580007553101,-16.125,4.80000019073486,-24.0937519073486,0.38431456685066,0.28019550442696,0.80456477403641,-0.35562402009964,-2.46028757095337,-1.49874997138977,-3.1663498878479,0.44400003552437,-17.6029510498047,-11.1640501022339,-15.9562501907349,4.95000028610229,-24.0187511444092,0.39372491836548,0.27765807509422,0.81456530094147,-0.323063403368,-1.76495003700256,-1.44980001449585,-2.10347509384155,1.86600005626678,-18.9670505523682,-10.078950881958,-15.7500009536743,5.08125019073486,-23.8687515258789,0.40303519368172,0.27596378326416,0.81946098804474,-0.29981714487076,-0.93211251497269,-1.29923748970032,-0.84369999170303,3.21195006370544,-19.2400512695312,-8.03700065612793,-15.5250005722046,5.17500019073486,-23.6812515258789,0.41197103261948,0.27524188160896,0.81942576169968,-0.28820696473122,0.0,-1.09298753738403,0.57887500524521,3.32205009460449,-16.7189998626709,-5.90100049972534,-15.5250005722046,5.17500019073486,-23.6812515258789,0.42046478390694,0.27547028660774,0.81440061330795,-0.28996077179909,0.79694998264313,-0.84823751449585,1.815962433815,2.53905010223389,-13.0200004577637,-4.1050500869751,-14.9437503814697,5.38125038146973,-23.34375,0.43654245138168,0.27617403864861,0.80002516508102,-0.30515277385712,1.34200000762939,-0.54477500915527,2.8668749332428,2.73795008659363,-10.4170503616333,-3.49500012397766,-14.6250009536743,5.49375009536743,-23.1937503814697,0.44294467568398,0.27557015419006,0.7875205874443,-0.3281347155571,1.7355250120163,-0.22495000064373,3.787024974823,3.17400026321411,-8.8609504699707,-3.86100029945374,-14.3062505722046,5.625,-23.0250015258789,0.44786012172699,0.27299556136131,0.77201563119888,-0.35900786519051,1.99801254272461,0.0,4.49116230010986,3.22905015945435,-7.9150505065918,-4.7039999961853,-14.0250005722046,5.73750019073486,-22.875,0.45149949193001,0.2683864235878,0.75353294610977,-0.3953543305397,1.99801254272461,0.0,4.49116230010986,3.22905015945435,-7.9150505065918,-4.7039999961853,-14.0250005722046,5.73750019073486,-22.875,0.45435413718224,0.26332005858421,0.73378324508667,-0.43103024363518,2.13441252708435,0.29039999842644,4.95247507095337,3.13500022888184,-7.26900053024292,-5.79105043411255,-13.7812509536743,5.86875009536743,-22.7250003814697,0.45512035489082,0.25577449798584,0.71182823181152,-0.46983531117439,2.16191244125366,0.53391247987747,5.14923763275146,3.14505004882812,-6.72000026702881,-6.68595027923584,-13.5937509536743,6.03750038146973,-22.5562515258789,0.45380535721779,0.24612054228783,0.68848633766174,-0.50938403606415,2.13262510299683,0.76174998283386,5.07526254653931,3.16605019569397,-6.86400032043457,-7.6080002784729,-13.4625005722046,6.24375009536743,-22.3875007629395,0.45017424225807,0.2350600361824,0.66491377353668,-0.54770404100418,2.05438756942749,0.92248749732971,4.74141263961792,2.86695003509521,-5.50695037841797,-7.82100057601929,-13.3875007629395,6.45000028610229,-22.2375011444092,0.44449225068092,0.22358924150467,0.64231097698212,-0.58298474550247,1.90946245193481,0.97528749704361,4.20901250839233,2.76705002784729,-3.90705013275146,-7.80195045471191,-13.3312501907349,6.60000038146973,-22.1062507629395,0.43757131695747,0.21269442141056,0.62168842554092,-0.61383700370789,1.77883744239807,0.93981248140335,3.64595007896423,2.7810001373291,-3.85005021095276,-7.93905019760132,-13.2750005722046,6.63750028610229,-22.0125007629395,0.42185345292091,0.19168944656849,0.58094137907028,-0.66918003559113,1.71599996089935,0.86088746786118,3.1458625793457,2.46495008468628,-3.16305017471313,-8.10105037689209,-13.2375001907349,6.58125019073486,-21.9937515258789,0.4132242500782,0.18362618982792,0.56374168395996,-0.69117474555969,1.69331252574921,0.7510250210762,2.65980005264282,2.04105019569397,-1.96305012702942,-8.13705062866211,-13.2375001907349,6.43125009536743,-22.1062507629395,0.40419363975525,0.17768160998821,0.54852962493896,-0.71005070209503,1.73291254043579,0.60857498645783,2.19945001602173,2.0789999961853,-1.24500000476837,-8.39805030822754,-13.3687505722046,6.20625019073486,-22.40625,0.39467340707779,0.17426264286041,0.535140812397,-0.72628486156464,1.83741247653961,0.47093749046326,1.72837495803833,2.32605004310608,-0.34005001187325,-8.59200000762939,-13.3687505722046,6.20625019073486,-22.40625,0.3842858672142,0.17366993427277,0.52370655536652,-0.740198969841,SWING_LEFT
0.99976247549057,-0.19525000452995,-1.75188744068146,3.64800024032593,5.55405044555664,-9.14805030822754,-14.3437509536743,5.34375,-24.4687519073486,0.2804928123951,0.23610453307629,0.51413178443909,-0.77540111541748,0.52579998970032,-0.24089999496937,-2.1958749294281,4.49295043945312,7.88100051879883,-10.0260000228882,-14.3625001907349,5.23125028610229,-24.6375007629395,0.27424189448357,0.24494262039661,0.52667272090912,-0.76642709970474,0.52579998970032,-0.24089999496937,-2.1958749294281,4.49295043945312,7.88100051879883,-10.0260000228882,-14.3625001907349,5.23125028610229,-24.6375007629395,0.26790454983711,0.25369426608086,0.53901523351669,-0.75718498229981,-0.99976247549057,-0.42391249537468,-3.50638747215271,3.70005011558533,21.8179512023926,-9.33195018768311,-14.3437509536743,5.11875009536743,-24.7875003814697,0.26883053779602,0.25947317481041,0.56199395656586,-0.73794758319855,-0.99976247549057,-0.42391249537468,-3.50638747215271,3.70005011558533,21.8179512023926,-9.33195018768311,-14.2500009536743,5.02500009536743,-24.8812503814697,0.26950854063034,0.26500156521797,0.58443576097488,-0.71803486347198,-2.01410007476807,-0.55302500724793,-4.33578729629517,-0.56805002689362,17.7630004882812,-8.62604999542236,-14.1000003814697,4.96875,-24.9750003814697,0.27463194727898,0.26784494519234,0.6130348443985,-0.69066977500916,-2.71204996109009,-0.70908749103546,-4.82693767547607,-6.15405035018921,8.9800500869751,-6.38700008392334,-13.9312505722046,4.93125009536743,-25.0687503814697,0.28272691369057,0.26853349804878,0.64453673362732,-0.65766841173172,-3.02541255950928,-0.92468750476837,-4.9354248046875,-6.95595026016235,-1.00995004177094,-7.91700029373169,-13.7625007629395,4.89375019073486,-25.0687503814697,0.29257521033287,0.26816484332085,0.67555093765259,-0.62138426303864,-3.1545250415802,-1.1394624710083,-4.87341260910034,-5.57400035858154,-0.21795001626015,-13.0600509643555,-13.5187501907349,4.89375019073486,-24.9750003814697,0.31465604901314,0.26575317978859,0.73148024082184,-0.5434182882309,-3.1438000202179,-1.3136750459671,-4.70195007324219,-5.67000007629395,-5.52300024032593,-13.2040510177612,-13.3312501907349,4.95000028610229,-24.9187507629395,0.32586321234703,0.26397597789764,0.75560772418976,-0.50317680835724,-2.94799995422363,-1.47661244869232,-4.26373767852783,-3.15795016288757,-12.4020004272461,-10.9819507598877,-13.2000007629395,5.04375028610229,-24.9000015258789,0.33747014403343,0.26241728663445,0.77539366483688,-0.46477481722832,-2.56574988365173,-1.59060001373291,-3.5237123966217,0.72900003194809,-19.0530014038086,-8.68994998931885,-13.0312509536743,5.15625,-24.8437519073486,0.34936168789864,0.2612709403038,0.78978753089905,-0.43118396401405,-2.03362488746643,-1.62222504615784,-2.55708742141724,2.44305014610291,-20.6980514526367,-7.45005035400391,-12.8250007629395,5.28750038146973,-24.7312507629395,0.36126095056534,0.26060801744461,0.79849416017532,-0.40494582056999,-2.03362488746643,-1.62222504615784,-2.55708742141724,2.44305014610291,-20.6980514526367,-7.45005035400391,-12.8250007629395,5.28750038146973,-24.7312507629395,0.3728561103344,0.25969529151916,0.80645716190338,-0.37836968898773,-1.38613748550415,-1.57519996166229,-1.43274998664856,2.61105012893677,-18.6750011444092,-5.83905029296875,-12.5812501907349,5.40000009536743,-24.6000003814697,0.38430142402649,0.259312748909,0.80906039476395,-0.36123502254486,-0.5681499838829,-1.42065000534058,-0.00013749999925,2.84295010566711,-15.4600505828857,-4.11300039291382,-12.3187503814697,5.49375009536743,-24.4687519073486,0.39524465799332,0.25931450724602,0.805823802948,-0.35663089156151,0.24021250009537,-1.23791253566742,1.23983752727509,3.0130500793457,-13.4220008850098,-2.97300004959106,-12.0,5.60625028610229,-24.3562507629395,0.40517500042915,0.26007178425789,0.79759573936462,-0.36336901783943,0.83641248941421,-1.00471246242523,2.3957998752594,2.78295016288757,-11.0640001296997,-3.03300023078918,-11.6812505722046,5.71875,-24.2437515258789,0.41411709785461,0.26007837057114,0.78506577014923,-0.38018155097961,1.42023754119873,-0.40204998850822,3.93648743629456,2.64705014228821,-8.86605072021484,-4.69005012512207,-11.3625001907349,5.85000038146973,-24.1312503814697,0.42739000916481,0.25422152876854,0.75151866674423,-0.43350768089294,1.42023754119873,-0.40204998850822,3.93648743629456,2.64705014228821,-8.86605072021484,-4.69005012512207,-11.0437507629395,5.98125028610229,-24.0375003814697,0.43260338902473,0.24988250434399,0.73253309726715,-0.46239420771599,1.63185000419617,-0.00013749999925,4.52443742752075,2.5729501247406,-8.72205066680908,-5.7480001449585,-10.7250003814697,6.15000009536743,-23.90625,0.43515902757645,0.24279397726059,0.71125614643097,-0.49578464031219,1.73222494125366,0.24584999680519,4.8463249206543,2.64000010490417,-7.69005060195923,-6.63600015640259,-10.4625005722046,6.31875038146973,-23.7750015258789,0.43575644493103,0.23366843163967,0.6881228685379,-0.53103888034821,1.72039997577667,0.4989874958992,4.78362512588501,2.44305014610291,-6.23895025253296,-7.46700048446655,-10.2750005722046,6.46875047683716,-23.6437511444092,0.43406853079796,0.22312407195568,0.66496938467026,-0.56534576416016,1.6521999835968,0.66054999828339,4.44276237487793,2.03205013275146,-5.0179500579834,-7.89600038528442,-10.1625003814697,6.65625047683716,-23.4937515258789,0.43046388030052,0.21228216588497,0.6430247426033,-0.59678834676743,1.6521999835968,0.66054999828339,4.44276237487793,2.03205013275146,-5.0179500579834,-7.89600038528442,-10.1625003814697,6.65625047683716,-23.4937515258789,0.42617839574814,0.20110864937306,0.62009227275848,-0.62722623348236,1.57134997844696,0.74428749084473,4.04263734817505,1.77795004844666,-4.06800031661987,-8.11605072021484,-10.0687503814697,6.84375047683716,-23.34375,0.42063227295875,0.19022667407989,0.59880894422531,-0.65445417165756,1.51758754253387,0.77412497997284,3.67510008811951,2.03400015830994,-4.01999998092651,-8.68305015563965,-10.0125007629395,7.01250028610229,-23.2125015258789,0.4141740500927,0.18000082671642,0.57901614904404,-0.67882233858108,1.51057493686676,0.73411250114441,3.25861239433289,2.35995006561279,-3.42795014381409,-8.87505054473877,-9.99375057220459,7.10625028610229,-23.15625,0.40697467327118,0.17128579318523,0.56088149547577,-0.70031762123108,1.60847496986389,0.50352501869202,2.3174250125885,2.50305008888245,-2.00100016593933,-8.86305046081543,-10.0687503814697,7.10625028610229,-23.2312507629395,0.39058887958527,0.16096130013466,0.53041344881058,-0.734978556633,1.60847496986389,0.50352501869202,2.3174250125885,2.50305008888245,-2.00100016593933,-8.86305046081543,-10.0687503814697,7.10625028610229,-23.2312507629395,0.38187769055366,0.15707665681839,0.51585978269577,-0.75058978796005,SWING_LEFT
2.20481252670288,-0.00013749999925,0.51039999723434,1.37100005149841,-1.94595015048981,-8.88195037841797,-10.59375,7.18125009536743,-23.9437503814697,0.33570304512978,0.17037035524845,0.47610247135162,-0.79473495483398,2.20481252670288,-0.00013749999925,0.51039999723434,1.37100005149841,-1.94595015048981,-8.88195037841797,-10.59375,7.18125009536743,-23.9437503814697,0.32220456004143,0.17746220529079,0.46985656023026,-0.80245018005371,2.08821249008179,-0.26248750090599,0.0,1.11495006084442,-0.61005002260208,-8.7049503326416,-10.78125,7.16250038146973,-24.1312503814697,0.30968877673149,0.18718735873699,0.46631991863251,-0.80721718072891,1.98068749904633,-0.36300000548363,-0.41401249170303,1.37595009803772,1.16295003890991,-8.71905040740967,-10.9500007629395,7.14375019073486,-24.3187503814697,0.2975849211216,0.19822452962399,0.46527045965195,-0.8097368478775,1.85405004024506,-0.43958750367165,-0.83833748102188,1.60800004005432,3.04500007629395,-9.06599998474121,-11.1187505722046,7.06875038146973,-24.5062503814697,0.28583383560181,0.21030548214912,0.46689638495445,-0.80998665094376,1.02684998512268,-0.60788750648499,-1.57134997844696,2.60895013809204,10.40505027771,-15.3940505981445,-11.4375,6.86250019073486,-24.8250007629395,0.26846173405647,0.23408126831055,0.47859370708466,-0.8025473356247,1.02684998512268,-0.60788750648499,-1.57134997844696,2.60895013809204,10.40505027771,-15.3940505981445,-11.4375,6.86250019073486,-24.8250007629395,0.26133495569229,0.24559718370438,0.48576775193214,-0.79712980985642,0.15839999914169,-0.80011248588562,-2.10856246948242,4.2940502166748,23.9920520782471,-18.7579517364502,-11.5687503814697,6.73125028610229,-24.9750003814697,0.25946566462517,0.25597825646401,0.49763557314873,-0.78709053993225,-0.8788999915123,-1.01076245307922,-2.94731259346008,1.4230500459671,23.344051361084,-11.803050994873,-11.625,6.60000038146973,-25.1062507629395,0.26322808861733,0.26509436964989,0.5164520740509,-0.77052789926529,-1.8712375164032,-1.16283750534058,-3.79843759536743,-2.0310001373291,16.8529510498047,-1.45305001735687,-11.625,6.43125009536743,-25.2375011444092,0.27165645360947,0.2724791765213,0.54201471805572,-0.7471130490303,-2.68248748779297,-1.33457493782043,-4.50339984893799,-7.94205045700073,9.75795078277588,-3.21705007553101,-11.6062507629395,6.26250028610229,-25.3500003814697,0.28367024660111,0.27831181883812,0.57255417108536,-0.71711593866348,-3.16992497444153,-1.57478749752045,-4.98107481002808,-10.663950920105,2.10900020599365,-13.1989507675171,-11.6062507629395,6.26250028610229,-25.3500003814697,0.29796454310417,0.28354361653328,0.60534423589706,-0.68145328760147,-3.16992497444153,-1.57478749752045,-4.98107481002808,-10.663950920105,2.10900020599365,-13.1989507675171,-11.5875005722046,6.11250019073486,-25.4437503814697,0.31152260303497,0.28801333904266,0.63653492927551,-0.64406943321228,-3.24816250801086,-1.82201254367828,-5.0142126083374,-8.9209508895874,-10.3669500350952,-21.6199512481689,-11.5875005722046,6.05625009536743,-25.5375003814697,0.32592204213142,0.29260662198067,0.6658775806427,-0.60395640134811,-3.1382999420166,-1.95813751220703,-4.6298999786377,-1.59195005893707,-16.0890007019043,-22.5220508575439,-11.5687503814697,6.11250019073486,-25.5750007629395,0.34070992469788,0.29667431116104,0.69094741344452,-0.5643515586853,-2.91280007362366,-1.87976253032684,-3.61899995803833,3.24105024337769,-8.17094993591309,-9.05895042419434,-11.34375,6.48750019073486,-25.5187511444092,0.37001013755798,0.29993507266045,0.7291054725647,-0.49146378040314,-2.91280007362366,-1.87976253032684,-3.61899995803833,3.58305025100708,-8.76000022888184,-5.33100032806396,-11.34375,6.48750019073486,-25.5187511444092,0.38375252485275,0.30031377077103,0.74495780467987,-0.45561349391937,-2.54457497596741,-1.73689997196198,-2.97041249275208,3.58305025100708,-8.76000022888184,-5.33100032806396,-11.1937503814697,6.69375038146973,-25.4250011444092,0.39628690481186,0.29990839958191,0.75674611330032,-0.42467272281647,-1.81293749809265,-1.4528249502182,-2.00667500495911,5.28300046920776,-10.2259502410889,-3.75600028038025,-11.0062503814697,6.90000009536743,-25.3312511444092,0.40647330880165,0.29967203736305,0.76348584890366,-0.40257367491722,-0.94146251678467,-1.10453748703003,-0.74580001831055,5.21400022506714,-10.5319509506226,-2.86500024795532,-10.7625007629395,7.08750009536743,-25.2562503814697,0.41450941562653,0.29943084716797,0.76466727256775,-0.39218243956566,-0.23732499778271,-0.83572500944138,0.5876749753952,4.43100023269653,-11.0040006637573,-2.55195021629333,-10.5187501907349,7.23750019073486,-25.1812515258789,0.42180755734444,0.29816171526909,0.76055407524109,-0.39336416125298,0.31267499923706,-0.52002501487732,1.85831248760223,4.61295032501221,-10.4820003509521,-3.54000020027161,-10.2937507629395,7.35000038146973,-25.0875015258789,0.42840686440468,0.29480990767479,0.75188398361206,-0.40524718165398,0.31267499923706,-0.52002501487732,1.85831248760223,4.61295032501221,-10.4820003509521,-3.54000020027161,-10.2937507629395,7.35000038146973,-25.0875015258789,0.43488612771034,0.29137933254242,0.74300652742386,-0.41702926158905,0.69739997386932,-0.00013749999925,2.9855375289917,4.68705034255981,-10.4580001831055,-5.17995023727417,-10.0875005722046,7.48125028610229,-25.0125007629395,0.43936139345169,0.2842812538147,0.73081642389297,-0.43823862075806,0.84466248750687,0.26042500138283,3.68335008621216,4.05000019073486,-9.2629508972168,-6.25305032730103,-9.90000057220459,7.59375047683716,-24.9375019073486,0.44301006197929,0.27431207895279,0.71607786417007,-0.46446457505226,0.73356246948242,0.63593751192093,3.90252494812012,3.61695027351379,-6.15300035476685,-7.31595039367676,-9.58125019073486,7.85625028610229,-24.7687511444092,0.44666084647179,0.24840161204338,0.68544656038284,-0.51860737800598,0.73273748159409,0.69932502508163,3.88684988021851,3.5110502243042,-5.27400016784668,-7.21605014801025,-9.58125019073486,7.85625028610229,-24.7687511444092,0.44721379876137,0.2343258857727,0.6694883108139,-0.54486376047134,0.73273748159409,0.69932502508163,3.88684988021851,3.5110502243042,-5.27400016784668,-7.21605014801025,-9.46875,8.00625038146973,-24.6750011444092,0.44725677371025,0.21998083591461,0.65278798341751,-0.57047140598297,0.74346250295639,0.76725000143051,3.72941255569458,3.26505017280579,-3.71595025062561,-6.87600040435791,-9.375,8.15625,-24.6000003814697,0.44615676999092,0.20571653544903,0.63637220859528,-0.59468913078308,0.72311252355576,0.79048746824265,3.3764500617981,3.17400026321411,-2.96400022506714,-6.44700050354004,-9.33750057220459,8.30625057220459,-24.6187515258789,0.44403946399689,0.19236034154892,0.62123012542725,-0.61636000871658,SWING_LEFT
