gyro_x_0,gyro_y_0,gyro_z_0,accel_x_0,accel_y_0,accel_z_0,mag_x_0,mag_y_0,mag_z_0,ahrs_x_0,ahrs_y_0,ahrs_z_0,ahrs_w_0,gyro_x_1,gyro_y_1,gyro_z_1,accel_x_1,accel_y_1,accel_z_1,mag_x_1,mag_y_1,mag_z_1,ahrs_x_1,ahrs_y_1,ahrs_z_1,ahrs_w_1,gyro_x_2,gyro_y_2,gyro_z_2,accel_x_2,accel_y_2,accel_z_2,mag_x_2,mag_y_2,mag_z_2,ahrs_x_2,ahrs_y_2,ahrs_z_2,ahrs_w_2,gyro_x_3,gyro_y_3,gyro_z_3,accel_x_3,accel_y_3,accel_z_3,mag_x_3,mag_y_3,mag_z_3,ahrs_x_3,ahrs_y_3,ahrs_z_3,ahrs_w_3,gyro_x_4,gyro_y_4,gyro_z_4,accel_x_4,accel_y_4,accel_z_4,mag_x_4,mag_y_4,mag_z_4,ahrs_x_4,ahrs_y_4,ahrs_z_4,ahrs_w_4,gyro_x_5,gyro_y_5,gyro_z_5,accel_x_5,accel_y_5,accel_z_5,mag_x_5,mag_y_5,mag_z_5,ahrs_x_5,ahrs_y_5,ahrs_z_5,ahrs_w_5,gyro_x_6,gyro_y_6,gyro_z_6,accel_x_6,accel_y_6,accel_z_6,mag_x_6,mag_y_6,mag_z_6,ahrs_x_6,ahrs_y_6,ahrs_z_6,ahrs_w_6,gyro_x_7,gyro_y_7,gyro_z_7,accel_x_7,accel_y_7,accel_z_7,mag_x_7,mag_y_7,mag_z_7,ahrs_x_7,ahrs_y_7,ahrs_z_7,ahrs_w_7,gyro_x_8,gyro_y_8,gyro_z_8,accel_x_8,accel_y_8,accel_z_8,mag_x_8,mag_y_8,mag_z_8,ahrs_x_8,ahrs_y_8,ahrs_z_8,ahrs_w_8,gyro_x_9,gyro_y_9,gyro_z_9,accel_x_9,accel_y_9,accel_z_9,mag_x_9,mag_y_9,mag_z_9,ahrs_x_9,ahrs_y_9,ahrs_z_9,ahrs_w_9,gyro_x_10,gyro_y_10,gyro_z_10,accel_x_10,accel_y_10,accel_z_10,mag_x_10,mag_y_10,mag_z_10,ahrs_x_10,ahrs_y_10,ahrs_z_10,ahrs_w_10,gyro_x_11,gyro_y_11,gyro_z_11,accel_x_11,accel_y_11,accel_z_11,mag_x_11,mag_y_11,mag_z_11,ahrs_x_11,ahrs_y_11,ahrs_z_11,ahrs_w_11,gyro_x_12,gyro_y_12,gyro_z_12,accel_x_12,accel_y_12,accel_z_12,mag_x_12,mag_y_12,mag_z_12,ahrs_x_12,ahrs_y_12,ahrs_z_12,ahrs_w_12,gyro_x_13,gyro_y_13,gyro_z_13,accel_x_13,accel_y_13,accel_z_13,mag_x_13,mag_y_13,mag_z_13,ahrs_x_13,ahrs_y_13,ahrs_z_13,ahrs_w_13,gyro_x_14,gyro_y_14,gyro_z_14,accel_x_14,accel_y_14,accel_z_14,mag_x_14,mag_y_14,mag_z_14,ahrs_x_14,ahrs_y_14,ahrs_z_14,ahrs_w_14,gyro_x_15,gyro_y_15,gyro_z_15,accel_x_15,accel_y_15,accel_z_15,mag_x_15,mag_y_15,mag_z_15,ahrs_x_15,ahrs_y_15,ahrs_z_15,ahrs_w_15,gyro_x_16,gyro_y_16,gyro_z_16,accel_x_16,accel_y_16,accel_z_16,mag_x_16,mag_y_16,mag_z_16,ahrs_x_16,ahrs_y_16,ahrs_z_16,ahrs_w_16,gyro_x_17,gyro_y_17,gyro_z_17,accel_x_17,accel_y_17,accel_z_17,mag_x_17,mag_y_17,mag_z_17,ahrs_x_17,ahrs_y_17,ahrs_z_17,ahrs_w_17,gyro_x_18,gyro_y_18,gyro_z_18,accel_x_18,accel_y_18,accel_z_18,mag_x_18,mag_y_18,mag_z_18,ahrs_x_18,ahrs_y_18,ahrs_z_18,ahrs_w_18,gyro_x_19,gyro_y_19,gyro_z_19,accel_x_19,accel_y_19,accel_z_19,mag_x_19,mag_y_19,mag_z_19,ahrs_x_19,ahrs_y_19,ahrs_z_19,ahrs_w_19,gyro_x_20,gyro_y_20,gyro_z_20,accel_x_20,accel_y_20,accel_z_20,mag_x_20,mag_y_20,mag_z_20,ahrs_x_20,ahrs_y_20,ahrs_z_20,ahrs_w_20,gyro_x_21,gyro_y_21,gyro_z_21,accel_x_21,accel_y_21,accel_z_21,mag_x_21,mag_y_21,mag_z_21,ahrs_x_21,ahrs_y_21,ahrs_z_21,ahrs_w_21,gyro_x_22,gyro_y_22,gyro_z_22,accel_x_22,accel_y_22,accel_z_22,mag_x_22,mag_y_22,mag_z_22,ahrs_x_22,ahrs_y_22,ahrs_z_22,ahrs_w_22,gyro_x_23,gyro_y_23,gyro_z_23,accel_x_23,accel_y_23,accel_z_23,mag_x_23,mag_y_23,mag_z_23,ahrs_x_23,ahrs_y_23,ahrs_z_23,ahrs_w_23,gyro_x_24,gyro_y_24,gyro_z_24,accel_x_24,accel_y_24,accel_z_24,mag_x_24,mag_y_24,mag_z_24,ahrs_x_24,ahrs_y_24,ahrs_z_24,ahrs_w_24,gyro_x_25,gyro_y_25,gyro_z_25,accel_x_25,accel_y_25,accel_z_25,mag_x_25,mag_y_25,mag_z_25,ahrs_x_25,ahrs_y_25,ahrs_z_25,ahrs_w_25,gyro_x_26,gyro_y_26,gyro_z_26,accel_x_26,accel_y_26,accel_z_26,mag_x_26,mag_y_26,mag_z_26,ahrs_x_26,ahrs_y_26,ahrs_z_26,ahrs_w_26,gyro_x_27,gyro_y_27,gyro_z_27,accel_x_27,accel_y_27,accel_z_27,mag_x_27,mag_y_27,mag_z_27,ahrs_x_27,ahrs_y_27,ahrs_z_27,ahrs_w_27,gyro_x_28,gyro_y_28,gyro_z_28,accel_x_28,accel_y_28,accel_z_28,mag_x_28,mag_y_28,mag_z_28,ahrs_x_28,ahrs_y_28,ahrs_z_28,ahrs_w_28,gyro_x_29,gyro_y_29,gyro_z_29,accel_x_29,accel_y_29,accel_z_29,mag_x_29,mag_y_29,mag_z_29,ahrs_x_29,ahrs_y_29,ahrs_z_29,ahrs_w_29,motion_type
-1.27091252803802,-1.84800004959106,-1.5303750038147,31.8499507904053,-1.19895005226135,-1.32105004787445,-16.8375015258789,5.86875009536743,-10.8375005722046,0.02940530702472,0.64748328924179,-0.13916531205177,-0.7486879825592,-1.62593746185303,-0.92427498102188,-1.2002375125885,40.3860015869141,-24.5959510803223,-4.0290002822876,-16.8375015258789,5.86875009536743,-10.8375005722046,0.03235410898924,0.65539002418518,-0.12306719273329,-0.74449425935745,-1.15747499465942,-0.25519999861717,-0.54711252450943,34.3110008239746,-28.1490020751953,-5.76195049285889,-16.59375,5.90625,-10.7250003814697,0.03655751422048,0.65833908319473,-0.11333464086056,-0.74324190616608,-0.77783751487732,0.0,-0.00013749999925,23.8459510803223,-16.056001663208,-9.90900039672852,-16.40625,5.90625,-10.6125001907349,0.0418559461832,0.65912252664566,-0.10898820310831,-0.74291795492172,-0.52745002508163,0.00013749999925,0.27348750829697,10.5409507751465,-5.53800010681152,-6.34395027160645,-16.0687503814697,6.01875019073486,-10.4625005722046,0.05256358906627,0.6599697470665,-0.10640476644039,-0.74185913801193,-0.14409999549389,0.31404998898506,0.69190001487732,-3.24000024795532,-0.85005003213882,0.46905001997948,-15.9375009536743,6.11250019073486,-10.40625,0.05704927444458,0.65792107582092,-0.10932788997889,-0.7429216504097,0.25863748788834,0.57571250200272,1.15981245040894,-17.3110504150391,2.15205001831055,4.68795013427734,-15.9375009536743,6.11250019073486,-10.40625,0.06179805845022,0.65361088514328,-0.11723120510578,-0.74513804912567,0.70441251993179,0.95961248874664,1.70651245117188,-28.4280014038086,5.69505023956299,5.82300043106079,-15.8250007629395,6.24375009536743,-10.2937507629395,0.06712651997805,0.64607632160187,-0.13072380423546,-0.7489932179451,0.96621251106262,1.29566252231598,2.20714998245239,-25.8870010375977,13.7380504608154,0.22995001077652,-15.7312507629395,6.39375019073486,-10.2000007629395,0.07388982921839,0.63564258813858,-0.14846861362457,-0.75396007299423,1.24024999141693,1.00278747081757,2.57001256942749,-21.6829509735107,17.2879505157471,-6.74895048141479,-15.7312507629395,6.48750019073486,-10.2000007629395,0.08052421361208,0.62615549564362,-0.16998711228371,-0.75666999816894,1.24024999141693,1.00278747081757,2.57001256942749,-21.6829509735107,17.2879505157471,-6.74895048141479,-15.7687501907349,6.54375028610229,-10.2562503814697,0.08710258454084,0.6162948012352,-0.19140830636025,-0.75891822576523,1.23722493648529,0.00013749999925,2.41312503814697,-10.8850507736206,17.8300514221191,-10.1629505157471,-15.7875003814697,6.54375028610229,-10.3312501907349,0.0913852006197,0.61257088184357,-0.2124105244875,-0.75583553314209,0.54477500915527,-0.71417498588562,1.70541250705719,4.68000030517578,14.5420503616333,-3.8730001449585,-15.7875003814697,6.54375028610229,-10.3312501907349,0.09524967521429,0.61483389139175,-0.22605066001415,-0.74953830242157,-0.57021248340607,-0.87766247987747,0.95768749713898,27.9660015106201,8.05605030059814,3.25395011901855,-15.8250007629395,6.45000028610229,-10.3875007629395,0.10203426331282,0.6206139922142,-0.22962220013142,-0.74276578426361,-1.53092503547668,0.27527499198914,0.51314997673035,40.4550018310547,-37.6710014343262,7.5319504737854,-15.8812503814697,6.03750038146973,-10.5,0.1256438344717,0.62548953294754,-0.2216821461916,-0.73745077848434,-1.53092503547668,0.27527499198914,0.51314997673035,40.4550018310547,-37.6710014343262,7.5319504737854,-15.9375009536743,5.75625038146973,-10.5375003814697,0.138496696949,0.62596118450165,-0.21652926504612,-0.73627871274948,-1.67131245136261,0.85965001583099,0.42886251211166,32.5060501098633,-22.4220008850098,-2.77905011177063,-15.9375009536743,5.75625038146973,-10.5375003814697,0.15319357812405,0.6230633854866,-0.20944334566593,-0.73787343502045,-1.9013500213623,1.26926255226135,0.2056999951601,17.9440517425537,-6.83505010604858,-6.49305009841919,-15.9750003814697,5.49375009536743,-10.5750007629395,0.16876070201397,0.61816906929016,-0.19915165007114,-0.74143475294113,-2.10746240615845,1.50273752212524,-0.00013749999925,4.35900020599365,0.90000003576279,-1.97895014286041,-15.9937505722046,5.32500028610229,-10.59375,0.18464076519013,0.6122430562973,-0.18600255250931,-0.74596875905991,-2.02235007286072,1.61782503128052,-0.2774749994278,-7.39605045318604,3.98805022239685,2.7199501991272,-15.9937505722046,5.28750038146973,-10.6125001907349,0.19774608314037,0.60568046569824,-0.17102003097534,-0.75153160095215,-2.02235007286072,1.61782503128052,-0.2774749994278,-7.39605045318604,3.98805022239685,2.7199501991272,-15.9750003814697,5.34375,-10.5750007629395,0.21075902879238,0.59881067276001,-0.15596044063568,-0.75675815343857,-1.89983749389648,1.90231251716614,-0.434087485075,-18.1470012664795,3.76995015144348,5.55000019073486,-15.9187507629395,5.51250028610229,-10.5187501907349,0.22248284518719,0.5899430513382,-0.13994915783405,-0.763467669487,-1.6356999874115,2.32485008239746,-0.3588750064373,-22.1470508575439,7.6560001373291,4.69695043563843,-15.8437509536743,5.73750019073486,-10.4625005722046,0.23328174650669,0.5776030421257,-0.12484134733677,-0.7722492814064,-1.31821250915527,2.44557499885559,-0.20377500355244,-21.3550510406494,13.4890508651733,0.07605000585318,-15.8437509536743,5.73750019073486,-10.4625005722046,0.24282589554787,0.56352192163467,-0.1119222715497,-0.78163421154022,-0.76986247301102,1.38682496547699,0.0,-5.49000024795532,19.0309505462646,-11.157000541687,-15.6375007629395,6.22500038146973,-10.2562503814697,0.2570273578167,0.54220414161682,-0.09546598792076,-0.79425305128098,-0.76986247301102,1.38682496547699,0.0,-5.49000024795532,19.0309505462646,-11.157000541687,-15.5437507629395,6.43125009536743,-10.1812505722046,0.263088285923,0.53364753723144,-0.08849821984768,-0.79885739088059,-0.79447501897812,0.65009999275207,-0.18892499804497,11.086950302124,17.2570514678955,-4.05299997329712,-15.4875001907349,6.58125019073486,-10.125,0.26799786090851,0.53034394979477,-0.08198463916779,-0.80011945962906,-0.95810002088547,0.00013749999925,-0.45704999566078,30.4540519714355,9.03299999237061,1.71405005455017,-15.4875001907349,6.58125019073486,-10.125,0.27247479557991,0.53202092647553,-0.07457327842712,-0.79821676015854,-1.01681244373322,-0.00013749999925,-0.55384999513626,40.6060523986816,-21.7830009460449,3.64905023574829,-15.4312505722046,6.65625047683716,-10.0875005722046,0.27727353572845,0.53386014699936,-0.06641728430986,-0.79605370759964,-0.7957124710083,0.0,-0.16142499446869,32.452953338623,-35.2720527648926,4.73295021057129,-15.3750009536743,6.65625047683716,-10.0125007629395,0.28246864676476,0.53454250097275,-0.06182012334466,-0.79413735866547,SHAKE
-0.31707498431206,0.36877501010895,0.0,39.2290534973145,-34.2550506591797,-1.93605005741119,-14.9812507629395,7.21875047683716,-9.63750076293945,0.36622533202171,0.47493517398834,0.03146081417799,-0.79957848787308,0.21230000257492,-0.00013749999925,0.14712500572205,33.8350524902344,-41.449951171875,-0.77295005321503,-14.9812507629395,7.21875047683716,-9.63750076293945,0.36602345108986,0.47448453307152,0.02964398451149,-0.80000782012939,0.52772498130798,0.0,0.42776250839233,12.8940010070801,-6.40005016326904,-0.52395004034042,-14.7187509536743,7.35000038146973,-9.50625038146973,0.36320638656616,0.47417867183685,0.02066738530993,-0.80175334215164,0.52772498130798,0.0,0.42776250839233,12.8940010070801,-6.40005016326904,-0.52395004034042,-14.5500001907349,7.44375038146973,-9.46875,0.36183375120163,0.47301363945007,0.01570920273662,-0.80317348241806,0.60417497158051,0.21807499229908,0.76903748512268,-0.85995006561279,1.0480500459671,1.61100006103516,-14.4000005722046,7.57500028610229,-9.39375019073486,0.36028894782066,0.46923717856407,0.009138379246,-0.80617904663086,0.62713748216629,0.32917499542236,0.93018752336502,-15.4740009307861,6.09000015258789,4.35705041885376,-14.4000005722046,7.57500028610229,-9.39375019073486,0.35920676589012,0.4641834795475,0.0018351697363,-0.80963015556335,0.52910000085831,0.19580000638962,0.71843749284744,-23.2849502563477,14.3869504928589,3.58395028114319,-14.2875003814697,7.70625019073486,-9.33750057220459,0.35796782374382,0.46064528822899,-0.00403735600412,-0.81218767166138,0.40576249361038,-0.23072500526905,0.00013749999925,-22.8349514007568,23.3200511932373,-0.81300002336502,-14.2125005722046,7.85625028610229,-9.30000019073486,0.35482996702194,0.46214693784714,-0.0058244667016,-0.81270039081573,0.34911251068115,-0.66701251268387,-0.48991250991821,-19.981050491333,26.0370006561279,-5.95395040512085,-14.1750001907349,7.98750019073486,-9.28125,0.35020875930786,0.46805313229561,-0.00533722294495,-0.81132698059082,0.34911251068115,-0.66701251268387,-0.48991250991821,-19.981050491333,26.0370006561279,-5.95395040512085,-14.1562509536743,8.10000038146973,-9.30000019073486,0.34556424617767,0.4739345908165,-0.00484704645351,-0.80990606546402,0.14203749597073,-0.77660000324249,-0.90846252441406,-10.7530508041382,21.3660011291504,-6.19305038452148,-14.1375007629395,8.17500019073486,-9.31875038146973,0.3406867980957,0.48174613714218,-0.00103006558493,-0.80737364292145,-0.54834997653961,-0.28902500867844,-1.16242504119873,3.28905010223389,11.3190002441406,1.39305007457733,-14.1375007629395,8.17500019073486,-9.31875038146973,0.33944073319435,0.48697286844254,0.00848705228418,-0.80471444129944,0.15482500195503,0.59345000982285,0.60417497158051,37.2610511779785,-36.5340003967285,1.04595005512238,-14.1000003814697,8.21250057220459,-9.33750057220459,0.34481611847878,0.48050451278687,0.0150730740279,-0.80621963739395,1.83892500400543,-0.00013749999925,1.60751247406006,35.8579521179199,-39.3880500793457,-4.77600002288818,-14.0812501907349,8.17500019073486,-9.35625076293945,0.33943817019463,0.47602048516273,-0.00310170580633,-0.81128090620041,1.83892500400543,-0.00013749999925,1.60751247406006,35.8579521179199,-39.3880500793457,-4.77600002288818,-14.1000003814697,8.13750076293945,-9.375,0.33393111824989,0.47134241461754,-0.02128241583705,-0.81601059436798,1.9490624666214,-0.76711249351501,1.51923751831055,30.6600017547607,-22.2000007629395,-13.3930501937866,-14.1187505722046,8.10000038146973,-9.39375019073486,0.32705011963844,0.47193282842636,-0.04139424860477,-0.81768214702606,1.61136245727539,-1.23296248912811,1.17754995822906,18.7290000915527,-7.47900056838989,-12.7849502563477,-14.1187505722046,8.10000038146973,-9.39375019073486,0.32081028819084,0.47654923796654,-0.05905491113663,-0.81639093160629,1.6409250497818,-1.35066246986389,1.24052500724792,6.21195030212402,-1.41495001316071,-5.5969500541687,-14.1562509536743,8.08125019073486,-9.39375019073486,0.31442442536354,0.48158797621727,-0.07751303911209,-0.8143721818924,1.95497500896454,-1.12447500228882,1.77498745918274,-7.35795021057129,1.14900004863739,2.7529501914978,-14.1750001907349,8.0625,-9.375,0.30696982145309,0.48314017057419,-0.09992749989033,-0.81385481357574,2.20261240005493,-0.75267499685287,2.32993745803833,-21.0820503234863,8.18505001068115,8.89695072174072,-14.1750001907349,8.04375076293945,-9.375,0.30017974972725,0.48026350140572,-0.12607595324516,-0.81445932388306,2.20261240005493,-0.75267499685287,2.32993745803833,-21.0820503234863,8.18505001068115,8.89695072174072,-14.2125005722046,7.98750019073486,-9.39375019073486,0.29316318035126,0.47705689072609,-0.15212818980217,-0.81445020437241,2.25390005111694,-0.45512500405312,2.50387501716614,-21.5539512634277,20.0419502258301,10.0170001983643,-14.2312507629395,7.93125009536743,-9.43125057220459,0.28667184710503,0.4710174202919,-0.17870593070984,-0.81487786769867,1.90368747711182,-0.98642498254776,1.23323750495911,-12.07200050354,24.6199512481689,-4.48395013809204,-14.2500009536743,7.89375019073486,-9.45000076293945,0.26869758963585,0.46707144379616,-0.2200583666563,-0.81315451860428,0.71761250495911,-1.11416244506836,-0.16390000283718,-0.07395000010729,15.4279508590698,-3.33405017852783,-14.2687501907349,7.81875038146973,-9.45000076293945,0.26102203130722,0.47374713420868,-0.22377888858318,-0.81077378988266,0.71761250495911,-1.11416244506836,-0.16390000283718,-0.07395000010729,15.4279508590698,-3.33405017852783,-14.3062505722046,7.74375009536743,-9.45000076293945,0.25331035256386,0.48036894202232,-0.22747105360031,-0.80829226970673,-0.38788750767708,-0.62204998731613,-0.87999999523163,15.6649503707886,-2.90205025672913,-0.92295002937317,-14.3625001907349,7.63125038146973,-9.45000076293945,0.2516812980175,0.48714953660965,-0.22125874459744,-0.80646544694901,0.78457498550415,-0.40479999780655,-0.00013749999925,34.7140502929688,-31.9420509338379,-1.8550500869751,-14.4562501907349,7.50000047683716,-9.45000076293945,0.24628774821758,0.48840036988258,-0.22534412145615,-0.80624282360077,1.9128999710083,-0.30511251091957,0.65752500295639,33.5500526428223,-36.9199523925781,-3.83505010604858,-14.4562501907349,7.50000047683716,-9.45000076293945,0.23615188896656,0.48542901873589,-0.23820213973522,-0.80737274885178,1.46973752975464,-0.33756250143051,0.54229998588562,30.844051361084,-19.4580001831055,-15.7390508651733,-14.5312509536743,7.42500019073486,-9.48750019073486,0.22840219736099,0.48369142413139,-0.24845042824745,-0.80755645036697,0.62851250171661,-0.79612499475479,0.14437499642372,18.4540500640869,-7.04595041275024,-16.4929504394531,-14.6062507629395,7.40625047683716,-9.5625,0.22372648119927,0.48749205470085,-0.25342062115669,-0.80503171682358,SHAKE
0.3286249935627,0.49829998612404,0.22907499969006,27.2860507965088,-13.6810503005981,-21.6199512481689,-15.1312503814697,6.22500038146973,-9.99375057220459,0.20875807106495,0.56956458091736,-0.25651243329048,-0.75247436761856,0.3089624941349,0.17971250414848,0.14987500011921,14.66100025177,-4.12305021286011,-19.5799503326416,-15.2437505722046,6.13125038146973,-10.0875005722046,0.20853160321712,0.56753844022751,-0.25847804546356,-0.75339490175247,0.53748750686645,-0.17820000648498,0.2396624982357,0.97605001926422,-2.47305011749268,-6.33705043792725,-15.3375005722046,6.09375047683716,-10.2000007629395,0.20653988420963,0.56712877750397,-0.26263684034348,-0.75281351804733,0.53748750686645,-0.17820000648498,0.2396624982357,0.97605001926422,-2.47305011749268,-6.33705043792725,-15.4125003814697,6.05625009536743,-10.2937507629395,0.20454497635364,0.56670314073563,-0.26679173111916,-0.75221741199493,0.60898751020431,-0.43188750743866,0.21023750305176,-10.7959508895874,5.6980504989624,5.27400016784668,-15.4687509536743,6.0,-10.40625,0.20024514198303,0.56778615713119,-0.27132377028465,-0.75093549489975,0.26963749527931,-0.52621251344681,-0.00013749999925,-20.9740505218506,18.1620006561279,12.400050163269,-15.4687509536743,6.0,-10.40625,0.19686059653759,0.5705640912056,-0.27308332920075,-0.74908471107483,-0.28984999656677,-0.57956248521805,-0.48056250810623,-18.1150512695312,27.8760013580322,11.0689506530762,-15.4875001907349,5.94375038146973,-10.4625005722046,0.19459274411201,0.57572108507156,-0.26924899220467,-0.74711698293686,-0.68365001678467,-0.62260001897812,-0.73617500066757,-15.3330011367798,27.3490505218506,4.08900022506714,-15.4875001907349,5.86875009536743,-10.5,0.19348731637001,0.582410633564,-0.26194998621941,-0.74481046199799,-0.68365001678467,-0.62260001897812,-0.73617500066757,-15.3330011367798,27.3490505218506,4.08900022506714,-15.4875001907349,5.79375028610229,-10.5187501907349,0.19236277043819,0.58903688192368,-0.25462248921394,-0.74242806434631,-0.73603749275207,-0.4147000014782,-0.71499997377396,-7.33395051956177,16.6230010986328,0.76605004072189,-15.4875001907349,5.71875,-10.5187501907349,0.19212558865547,0.5943968296051,-0.24679869413376,-0.74085801839829,0.0,0.15551249682903,-0.1545500010252,26.5609512329102,-23.0419502258301,3.03600025177002,-15.4875001907349,5.58750009536743,-10.5,0.19302815198898,0.59552139043808,-0.23932096362114,-0.74217242002487,0.91368746757507,0.50269997119904,0.40383750200272,28.101001739502,-41.6599502563477,5.18595027923584,-15.4500007629395,5.45625019073486,-10.4437503814697,0.19093863666058,0.5897376537323,-0.24551723897457,-0.74530071020126,0.96085000038147,0.70606249570847,0.52992498874664,27.1639518737793,-26.5090503692627,-11.0730009078979,-15.3937501907349,5.36250019073486,-10.3500003814697,0.18967646360397,0.58245438337326,-0.25239324569702,-0.74904435873032,0.96085000038147,0.70606249570847,0.52992498874664,27.1639518737793,-26.5090503692627,-11.0730009078979,-15.4125003814697,5.28750038146973,-10.3312501907349,0.1883919686079,0.57510083913803,-0.25923803448677,-0.75270384550095,-0.00013749999925,0.30002498626709,0.00013749999925,10.1070003509521,1.20405006408691,-20.896951675415,-15.5062503814697,5.26875019073486,-10.4625005722046,0.18962831795216,0.57326251268387,-0.25856012105942,-0.75402766466141,0.0,0.0,0.22329999506474,-2.62200021743774,2.13300013542175,-6.92595052719116,-15.5062503814697,5.26875019073486,-10.4625005722046,0.19103014469147,0.57306861877441,-0.25940373539925,-0.75353139638901,0.00013749999925,-0.18163749575615,0.37317499518394,-15.5100011825562,9.28905010223389,4.19700002670288,-15.5437507629395,5.28750038146973,-10.5,0.191934928298,0.57372170686722,-0.26160687208176,-0.75204139947891,-0.27926251292229,-0.29562500119209,0.14176249504089,-20.1430511474609,25.9369506835938,9.8500509262085,-15.5812501907349,5.28750038146973,-10.5187501907349,0.19324825704098,0.57605463266373,-0.26122069358826,-0.75005340576172,-0.27926251292229,-0.29562500119209,0.14176249504089,-20.1430511474609,25.9369506835938,9.8500509262085,-15.5812501907349,5.28750038146973,-10.5,0.1945606470108,0.57838022708893,-0.26082983613014,-0.74805772304535,-1.06053745746613,-0.33343750238419,-0.38472500443459,-12.8190002441406,30.2059516906738,10.5510005950928,-15.5437507629395,5.28750038146973,-10.4625005722046,0.19813664257526,0.58345240354538,-0.25345435738563,-0.74571174383163,-2.33832502365112,-0.23402500152588,-0.88866251707077,-5.83305025100708,13.9840507507324,3.18900012969971,-15.4875001907349,5.26875019073486,-10.40625,0.21324379742145,0.59829258918762,-0.2233971953392,-0.73936915397644,-2.75495004653931,0.0,-0.85745000839233,5.18505001068115,3.35595011711121,0.47895002365112,-15.4312505722046,5.21250009536743,-10.3312501907349,0.22580428421497,0.6047797203064,-0.20410414040089,-0.7359316945076,-2.27878737449646,0.17833749949932,-0.43491250276566,24.2650508880615,-9.9190502166748,0.17505000531673,-15.3750009536743,5.13750028610229,-10.2562503814697,0.23822973668575,0.6081594824791,-0.18957240879536,-0.73311048746109,-2.27878737449646,0.17833749949932,-0.43491250276566,24.2650508880615,-9.9190502166748,0.17505000531673,-15.3187503814697,5.0625,-10.1625003814697,0.25053653120995,0.61130607128143,-0.17497082054615,-0.7300146818161,-1.16655004024506,0.52896249294281,0.31556248664856,33.3850517272949,-30.7350006103516,2.87295007705688,-15.2625007629395,5.00625038146973,-10.0875005722046,0.2604955136776,0.60882759094238,-0.16984379291534,-0.7298110127449,-0.59042501449585,0.76958751678467,0.6710000038147,25.2229518890381,-35.5189514160156,-2.29500007629395,-15.2250003814697,5.00625038146973,-10.0125007629395,0.26920560002327,0.60326111316681,-0.16921186447144,-0.73141759634018,-0.84947496652603,0.54628747701645,0.34911251068115,20.0250015258789,-15.3709506988525,-19.2010517120361,-15.2250003814697,5.00625038146973,-10.0125007629395,0.27752295136452,0.60027265548706,-0.16575783491135,-0.73155862092972,-1.08817493915558,0.28641250729561,0.0,10.2100505828857,-1.35195004940033,-22.8619518280029,-15.1500005722046,5.04375028610229,-9.97500038146973,0.28509920835495,0.60000544786453,-0.15942047536373,-0.73027193546295,-1.08817493915558,0.28641250729561,0.0,10.2100505828857,-1.35195004940033,-22.8619518280029,-15.0750007629395,5.11875009536743,-9.9375,0.29264372587204,0.59968197345734,-0.15306563675404,-0.72891163825989,-0.92166250944138,0.2230249941349,0.0,-2.55000019073486,1.72605013847351,-11.4940509796143,-15.0187501907349,5.21250009536743,-9.90000057220459,0.29891514778137,0.59952461719513,-0.14739678800106,-0.727663397789,SHAKE
-0.55027496814728,-0.00013749999925,0.0,36.6270027160645,-34.360050201416,3.74205017089844,-14.8312501907349,5.4375,-9.61875057220459,0.30378237366676,0.68334716558456,-0.02171363867819,-0.66353714466095,-0.55027496814728,-0.00013749999925,0.0,34.1130027770996,-29.812952041626,-3.80595016479492,-14.8125009536743,5.36250019073486,-9.5625,0.30673754215241,0.68298846483231,-0.01857729628682,-0.6626415848732,-0.14079999923706,0.14547500014305,0.3242250084877,34.1130027770996,-29.812952041626,-3.80595016479492,-14.7750005722046,5.32500028610229,-9.52500057220459,0.30928641557693,0.68092584609985,-0.01919362694025,-0.66356134414673,0.0,-0.00013749999925,0.00013749999925,15.5400009155273,-0.12405000627041,-20.4420013427734,-14.6812505722046,5.40000009536743,-9.50625038146973,0.31134954094887,0.68075525760651,-0.01779700629413,-0.66281002759934,0.40369999408722,0.41208750009537,0.95026248693466,2.32605004310608,0.40200001001358,-8.86800003051758,-14.6812505722046,5.40000009536743,-9.50625038146973,0.31502538919449,0.67585545778275,-0.02388927713037,-0.66588866710663,0.73617500066757,0.76972502470017,1.73909997940063,-12.4410009384155,2.90805006027222,2.34600019454956,-14.6062507629395,5.47500038146973,-9.48750019073486,0.32038304209709,0.66675245761871,-0.03522956743836,-0.67197823524475,0.73617500066757,0.76972502470017,1.73909997940063,-12.4410009384155,2.90805006027222,2.34600019454956,-14.5125007629395,5.56875038146973,-9.46875,0.32564663887024,0.65746772289276,-0.04656480252743,-0.67788052558899,0.4147000014782,1.01915001869202,1.64518749713898,-20.3730010986328,13.7880010604858,9.25095081329346,-14.4562501907349,5.66250038146973,-9.43125057220459,0.33219084143639,0.64698970317841,-0.05496381595731,-0.68412899971008,0.0,1.18318748474121,1.30762493610382,-17.8110008239746,20.5930519104004,10.0750503540039,-14.3812503814697,5.75625038146973,-9.39375019073486,0.33928015828133,0.63655430078507,-0.05875084921718,-0.69009846448898,0.0,0.79420000314713,0.77536249160767,-15.5419511795044,22.40505027771,3.76395010948181,-14.3812503814697,5.75625038146973,-9.39375019073486,0.34334874153137,0.62976783514023,-0.06053922697902,-0.69414633512497,-0.00013749999925,0.0,0.0,-10.9129505157471,18.7630500793457,-3.10200023651123,-14.3437509536743,5.8125,-9.35625076293945,0.34300929307938,0.62976890802383,-0.0600651986897,-0.69435435533524,-0.53968751430511,-0.63098752498627,-0.6348375082016,-0.60795003175735,14.4780006408691,-2.41695022583008,-14.3437509536743,5.85000038146973,-9.35625076293945,0.34219399094582,0.63548481464386,-0.05494772270322,-0.68995869159698,-0.53968751430511,-0.63098752498627,-0.6348375082016,-0.60795003175735,14.4780006408691,-2.41695022583008,-14.3437509536743,5.86875009536743,-9.375,0.34135118126869,0.64114785194397,-0.04982510209084,-0.68551176786423,-0.27018749713898,0.00013749999925,0.00013749999925,31.5840015411377,-14.1499509811401,1.45800006389618,-14.3062505722046,5.85000038146973,-9.33750057220459,0.34294310212135,0.64529639482498,-0.04316003620625,-0.68126344680786,0.00013749999925,0.21188749372959,0.54339998960495,31.0980014801025,-32.4469528198242,1.75695013999939,-14.3062505722046,5.85000038146973,-9.33750057220459,0.34569811820984,0.64215528964996,-0.04563889652491,-0.68267607688904,0.0,-0.00013749999925,0.37166249752045,26.4079513549805,-25.0080013275146,-3.96405029296875,-14.2875003814697,5.85000038146973,-9.31875038146973,0.34796223044395,0.64066469669342,-0.04776724800467,-0.68278056383133,-0.00013749999925,-0.26179999113083,0.14313749969006,20.4600009918213,-6.94095039367676,-10.7640008926392,-14.2312507629395,5.88750028610229,-9.28125,0.34905409812927,0.64163815975189,-0.04927529022098,-0.68120014667511,-0.00013749999925,-0.26179999113083,0.14313749969006,20.4600009918213,-6.94095039367676,-10.7640008926392,-14.1562509536743,5.98125028610229,-9.22500038146973,0.35014110803604,0.64260745048523,-0.05078367516398,-0.67961591482162,-0.16527499258518,0.0,0.260837495327,9.31305027008057,1.01700007915497,-7.74705028533936,-14.0250005722046,6.09375047683716,-9.13125038146973,0.35282972455025,0.64187228679657,-0.05119889229536,-0.67888873815536,-0.48977500200272,0.33274999260902,0.1883749961853,-3.92700028419495,2.95395016670227,-0.4279500246048,-14.0250005722046,6.09375047683716,-9.13125038146973,0.35636210441589,0.63962459564209,-0.04817799851298,-0.67938596010208,-1.12736248970032,0.72324997186661,-0.15716250240803,-18.5179500579834,6.57405042648315,5.87100028991699,-13.9125003814697,6.20625019073486,-9.01875019073486,0.36171334981918,0.63638550043106,-0.03872011229396,-0.68020421266556,-1.58757495880127,1.16929996013641,-0.28600001335144,-22.1809501647949,21.0400505065918,7.73295021057129,-13.8187503814697,6.31875038146973,-8.88750076293945,0.36907356977463,0.63102811574936,-0.02474618144333,-0.68189138174057,-1.58757495880127,1.16929996013641,-0.28600001335144,-22.1809501647949,21.0400505065918,7.73295021057129,-13.7437505722046,6.43125009536743,-8.75625038146973,0.37633284926415,0.6254797577858,-0.01077187154442,-0.68339788913727,-0.92234998941421,0.93692499399185,0.28971248865128,-14.5890007019043,20.60205078125,-1.11000001430511,-13.6687507629395,6.56250047683716,-8.66250038146973,0.39065831899643,0.61188346147537,0.00780296279117,-0.6876944899559,-0.5820375084877,0.55302500724793,0.35447499155998,-4.27200031280518,11.8680009841919,-3.45195007324219,-13.6687507629395,6.56250047683716,-8.66250038146973,0.39546346664429,0.60747516155243,0.01099935919046,-0.68881183862686,-0.54216247797012,0.44811248779297,0.22632500529289,13.1190004348755,-0.14295001327991,-2.71005010604858,-13.6687507629395,6.56250047683716,-8.64375019073486,0.39973506331444,0.60405266284943,0.01398940663785,-0.68930143117905,-0.18727499246597,0.51480001211166,0.4672249853611,35.5729522705078,-19.5370502471924,-2.35005021095276,-13.6500005722046,6.54375028610229,-8.60625076293945,0.40310367941856,0.59933876991272,0.01392302289605,-0.69145238399506,-0.18727499246597,0.51480001211166,0.4672249853611,35.5729522705078,-19.5370502471924,-2.35005021095276,-13.6500005722046,6.48750019073486,-8.56875038146973,0.40646910667419,0.59460979700089,0.01385870203376,-0.69356310367584,0.65903747081757,-0.30511251091957,0.51411247253418,34.711051940918,-21.7369518280029,-10.2679500579834,-13.8000001907349,6.43125009536743,-8.68125057220459,0.40556544065476,0.59452968835831,0.00658407900482,-0.69426792860031,1.01626253128052,-0.71238750219345,0.44549998641014,25.3420505523682,-11.1709508895874,-12.3919506072998,-13.8000001907349,6.43125009536743,-8.68125057220459,0.40230745077133,0.59707516431809,-0.00338577874936,-0.69400173425674,SHAKE
-0.18727499246597,0.51480001211166,0.4672249853611,35.5729522705078,-19.5370502471924,-2.35005021095276,-13.6500005722046,6.54375028610229,-8.60625076293945,0.40310367941856,0.59933876991272,0.01392302289605,-0.69145238399506,-0.18727499246597,0.51480001211166,0.4672249853611,35.5729522705078,-19.5370502471924,-2.35005021095276,-13.6500005722046,6.48750019073486,-8.56875038146973,0.40646910667419,0.59460979700089,0.01385870203376,-0.69356310367584,0.65903747081757,-0.30511251091957,0.51411247253418,34.711051940918,-21.7369518280029,-10.2679500579834,-13.8000001907349,6.43125009536743,-8.68125057220459,0.40556544065476,0.59452968835831,0.00658407900482,-0.69426792860031,1.01626253128052,-0.71238750219345,0.44549998641014,25.3420505523682,-11.1709508895874,-12.3919506072998,-13.8000001907349,6.43125009536743,-8.68125057220459,0.40230745077133,0.59707516431809,-0.00338577874936,-0.69400173425674,1.15417504310608,-0.61105000972748,0.59716248512268,13.042950630188,-3.57705020904541,-6.02100038528442,-13.8187503814697,6.45000028610229,-8.70000076293945,0.39889448881149,0.59846776723862,-0.01456267107278,-0.69462764263153,0.95424997806549,-0.28902500867844,0.61311250925064,1.25295007228851,-0.37995001673698,0.28695002198219,-13.7625007629395,6.46875047683716,-8.64375019073486,0.3961153626442,0.59787583351135,-0.02380400337279,-0.69647002220154,0.95424997806549,-0.28902500867844,0.61311250925064,1.25295007228851,-0.37995001673698,0.28695002198219,-13.6687507629395,6.50625038146973,-8.53125,0.39330500364304,0.59723252058029,-0.03303958103061,-0.69823557138443,0.2095499932766,0.25382500886917,0.00013749999925,-20.9359512329102,8.25,6.62505054473877,-13.5000009536743,6.56250047683716,-8.30625057220459,0.38991093635559,0.59445595741272,-0.03666024655104,-0.70231580734253,0.26853749155998,0.29205000400543,0.1575749963522,-19.4610004425049,13.9770002365112,4.14405012130737,-13.5000009536743,6.56250047683716,-8.30625057220459,0.38878199458122,0.59211891889572,-0.037533570081,-0.70486527681351,0.5351499915123,0.00013749999925,0.25299999117851,-15.3720006942749,17.6329517364502,-4.69695043563843,-13.4625005722046,6.58125019073486,-8.25,0.38655182719231,0.59110701084137,-0.04115873202682,-0.70673626661301,0.5351499915123,0.00013749999925,0.25299999117851,-15.3720006942749,17.6329517364502,-4.69695043563843,-13.4625005722046,6.60000038146973,-8.25,0.3843112885952,0.59008646011352,-0.04478211700916,-0.70858830213547,0.67691248655319,-0.16898749768734,0.26028749346733,-9.98205089569092,17.0509510040283,-11.5369501113892,-13.5000009536743,6.58125019073486,-8.26875019073486,0.3813379406929,0.5899857878685,-0.04963380098343,-0.70995396375656,0.76271247863769,-0.2578125,0.35901248455048,1.14105010032654,12.0859508514404,-7.83300018310547,-13.5375003814697,6.58125019073486,-8.28750038146973,0.37840795516968,0.59005957841873,-0.05586675554514,-0.71099644899368,0.83929997682571,-0.15950000286102,0.61847501993179,17.5579509735107,8.51595020294189,-1.30200004577637,-13.5750007629395,6.58125019073486,-8.30625057220459,0.37630355358124,0.58865070343018,-0.06396510452032,-0.71259689331055,0.83929997682571,-0.15950000286102,0.61847501993179,17.5579509735107,8.51595020294189,-1.30200004577637,-13.5750007629395,6.58125019073486,-8.30625057220459,0.37417608499527,0.58720028400421,-0.07205645740032,-0.71414005756378,0.6154500246048,-0.17888750135899,0.54051250219345,33.9139518737793,-0.7950000166893,2.24100017547607,-13.5750007629395,6.58125019073486,-8.30625057220459,0.37298431992531,0.58617317676544,-0.07874844223261,-0.7149001955986,0.24323749542236,-0.48372501134872,0.00013749999925,38.2210502624512,-17.2030506134033,3.24195003509521,-13.5937509536743,6.58125019073486,-8.30625057220459,0.37122908234596,0.58879959583283,-0.08142568916082,-0.71335387229919,0.00013749999925,-0.72792500257492,-0.00013749999925,29.9610023498535,-20.3659515380859,2.02800011634827,-13.5187501907349,6.61875009536743,-8.26875019073486,0.36900898814201,0.59556782245636,-0.08635380864143,-0.70828980207443,0.0,-0.60197502374649,0.0,20.881950378418,-13.2040510177612,1.59900009632111,-13.4437503814697,6.63750028610229,-8.17500019073486,0.36859908699989,0.59897315502167,-0.08821327984333,-0.70539659261704,-0.23278750479221,-0.24227499961853,0.14506250619888,10.2870006561279,-5.83500051498413,3.25095009803772,-13.4437503814697,6.63750028610229,-8.17500019073486,0.37023785710335,0.60000890493393,-0.08862555027008,-0.70360410213471,-0.63511252403259,0.14836250245571,0.00013749999925,-2.04000020027161,-1.60095012187958,5.33700037002563,-13.3687505722046,6.61875009536743,-8.08125019073486,0.37353080511093,0.59956085681915,-0.08475036919117,-0.70272248983383,-0.95287501811981,0.52236247062683,0.15771250426769,-15.5490007400513,1.1010000705719,6.28995037078857,-13.2750005722046,6.58125019073486,-7.96875047683716,0.37978833913803,0.5966369509697,-0.07889293134212,-0.70253902673721,-0.95287501811981,0.52236247062683,0.15771250426769,-15.5490007400513,1.1010000705719,6.28995037078857,-13.2000007629395,6.52500009536743,-7.85625028610229,0.38601714372635,0.5936541557312,-0.07303192466497,-0.70230478048325,-0.8592374920845,0.79736250638962,0.45526251196861,-19.3750514984131,6.2440505027771,4.72905015945435,-13.1437501907349,6.45000028610229,-7.78125047683716,0.393325984478,0.5879927277565,-0.06844892352819,-0.70347273349762,-0.49101248383522,0.78925001621246,0.76642501354217,-16.2240009307861,12.9190502166748,-3.84705018997192,-13.1250009536743,6.35625028610229,-7.76250028610229,0.40005531907082,0.58109939098358,-0.06742889434099,-0.70550167560577,-0.00013749999925,0.61627501249313,0.91025000810623,-13.0590009689331,16.4790000915527,-10.6110000610352,-13.1250009536743,6.35625028610229,-7.76250028610229,0.40458017587662,0.57442480325699,-0.0701587870717,-0.70811635255814,0.24433749914169,0.34402498602867,1.00567495822906,-3.16995024681091,15.868950843811,-12.598051071167,-13.1437501907349,6.26250028610229,-7.78125047683716,0.40807840228081,0.56886506080627,-0.07557617872953,-0.71003711223602,0.59207499027252,0.00013749999925,1.09958744049072,11.0340003967285,12.201000213623,-6.97095012664795,-13.2187509536743,6.20625019073486,-7.91250038146973,0.41318607330322,0.55909764766693,-0.0899763405323,-0.7131559252739,0.42789998650551,0.0,0.75061249732971,27.3460521697998,5.47695016860962,0.63900005817413,-13.2187509536743,6.22500038146973,-7.96875047683716,0.41408377885818,0.55618280172348,-0.09627937525511,-0.71409070491791,0.0,-0.28586250543594,0.0,38.3269500732422,-11.8270502090454,4.69500017166138,-13.2187509536743,6.22500038146973,-7.96875047683716,0.41385129094124,0.55783015489578,-0.09721405804157,-0.71281272172928,SHAKE
-0.95026248693466,0.90420001745224,0.39448750019073,23.5660514831543,9.22005081176758,2.83005023002625,-12.8437509536743,6.01875019073486,-7.12500047683716,0.51073461771011,0.46965682506561,0.01371734123677,-0.71998929977417,-1.26651251316071,0.38252499699593,-0.5791500210762,34.9870529174805,-1.06800007820129,3.11700010299683,-12.8437509536743,6.07500028610229,-7.14375019073486,0.51592874526977,0.46967560052872,0.02386035397649,-0.71599793434143,-1.21893751621246,0.00013749999925,-0.82871252298355,36.7420501708984,-25.5730514526367,0.29399999976158,-12.8437509536743,6.09375047683716,-7.18125009536743,0.51997888088226,0.47292426228523,0.03356512635946,-0.71051943302154,-0.96085000038147,0.0,-0.33371248841286,30.832052230835,-28.4509506225586,-1.87395012378693,-12.8437509536743,6.09375047683716,-7.18125009536743,0.52443009614945,0.47400903701782,0.03930650651455,-0.70621764659882,-0.65271252393723,0.0,0.0,23.8990516662598,-13.2810010910034,-4.04805040359497,-12.8812503814697,6.0,-7.20000028610229,0.53232049942017,0.47352546453476,0.04447796195745,-0.70030730962753,-0.51466250419617,-0.00013749999925,0.00013749999925,13.0500001907349,-3.94800019264221,-2.72595024108887,-12.9187507629395,5.92500019073486,-7.21875047683716,0.53541487455368,0.47334390878677,0.04655056446791,-0.69793230295181,-0.33109998703003,-0.2910875082016,0.0,0.37200000882149,-1.00305008888245,0.4279500246048,-12.9375009536743,5.83125019073486,-7.25625038146973,0.5370854139328,0.47469872236252,0.04661845043302,-0.69572049379349,0.0,-0.51782500743866,0.0,-10.5019502639771,2.44095015525818,2.96400022506714,-12.9750003814697,5.73750019073486,-7.27500009536743,0.53690421581268,0.47755274176598,0.04467981308699,-0.69403237104416,0.44247499108314,-0.54834997653961,0.15468749403954,-19.9489517211914,7.29000043869019,7.01505041122437,-12.9750003814697,5.73750019073486,-7.27500009536743,0.53477400541305,0.48005720973015,0.0399422571063,-0.69423806667328,0.52786248922348,-0.25987499952316,0.33797499537468,-19.4800510406494,14.4630002975464,7.33605051040649,-12.9937505722046,5.66250038146973,-7.27500009536743,0.532779276371,0.48011583089829,0.03509409353137,-0.69599086046219,0.52786248922348,-0.25987499952316,0.33797499537468,-19.4800510406494,14.4630002975464,7.33605051040649,-12.9750003814697,5.625,-7.25625038146973,0.53076720237732,0.48016452789307,0.0302473437041,-0.69771999120712,0.33508750796318,0.18397499620915,0.55618751049042,-17.5139999389648,18.271951675415,3.19905018806458,-12.9375009536743,5.66250038146973,-7.23750019073486,0.53064870834351,0.47662237286568,0.02689338102937,-0.70037120580673,0.00013749999925,0.60774999856949,0.92482501268387,-12.5800504684448,19.8120002746582,-0.96405005455017,-12.9562501907349,5.70000028610229,-7.25625038146973,0.53386324644089,0.46889701485634,0.02460888959467,-0.70322120189667,-0.41745001077652,0.87463748455048,0.57543748617172,-1.18800008296967,16.3210506439209,-3.35595011711121,-12.9750003814697,5.79375028610229,-7.33125019073486,0.53813970088959,0.46108385920525,0.02715611085296,-0.7050319314003,-0.81468749046326,0.82376247644424,-0.68255001306534,16.3159503936768,6.69600009918213,-8.64495086669922,-12.9750003814697,5.88750028610229,-7.38750028610229,0.54210776090622,0.45713698863983,0.04919735714793,-0.70336651802063,-0.49114999175072,0.42652499675751,-1.69606244564056,32.1850509643555,-19.8790512084961,-13.8499507904053,-12.9750003814697,5.94375038146973,-7.48125028610229,0.53853672742844,0.46203556656838,0.06295196712017,-0.70181089639664,0.52305001020431,0.00013749999925,-1.27393746376038,31.2750015258789,-45.5629539489746,-13.8330001831055,-13.0500001907349,5.90625,-7.55625009536743,0.53082495927811,0.46782702207565,0.06839703768492,-0.70333820581436,2.02303743362427,-0.60898751020431,-0.60747498273849,28.3950004577637,-31.4490013122559,-23.2450504302979,-13.1625003814697,5.83125019073486,-7.65000009536743,0.51727366447449,0.47507780790329,0.06143622100353,-0.70919293165207,2.62762498855591,-1.449387550354,-0.52346247434616,18.6480007171631,-12.5070009231567,-24.3229503631592,-13.1625003814697,5.83125019073486,-7.65000009536743,0.50068718194962,0.48706594109535,0.04801549389958,-0.71398437023163,2.86522507667542,-2.0239999294281,-0.64391249418259,4.70805025100708,-5.46105003356934,-11.6329507827759,-13.3312501907349,5.71875,-7.80000019073486,0.48211339116097,0.50266724824905,0.03198086097836,-0.71684694290161,2.86522507667542,-2.0239999294281,-0.64391249418259,4.70805025100708,-5.46105003356934,-11.6329507827759,-13.5000009536743,5.625,-7.96875047683716,0.46314278244972,0.51782631874084,0.01590637490153,-0.71909773349762,3.39501237869263,-2.46922492980957,-0.68158751726151,-9.20400047302246,-0.82095003128052,1.19700002670288,-13.6500005722046,5.51250028610229,-8.13750076293945,0.4395240843296,0.53522604703903,-0.00376142724417,-0.7213442325592,4.16473770141602,-2.78946256637573,-0.62246251106262,-20.8950004577637,11.5330505371094,11.2980003356934,-13.7250003814697,5.41875028610229,-8.26875019073486,0.41083511710167,0.55356997251511,-0.02840888686478,-0.72385621070862,4.67252492904663,-2.69431257247925,-0.52305001020431,-17.5530014038086,28.6230010986328,18.2539501190186,-13.7625007629395,5.32500028610229,-8.32500076293945,0.37879467010498,0.56987917423248,-0.05561492219567,-0.7270895242691,4.31860017776489,-1.78158748149872,0.14712500572205,-12.03600025177,22.1460018157959,5.54505014419556,-13.7812509536743,5.25,-8.32500076293945,0.31965407729149,0.58887439966202,-0.10886238515377,-0.73430049419403,4.31860017776489,-1.78158748149872,0.14712500572205,-12.03600025177,22.1460018157959,5.54505014419556,-13.7812509536743,5.19375038146973,-8.34375,0.29171079397201,0.59503245353699,-0.13517771661282,-0.73659229278564,3.47434997558594,-1.1171875,0.64941251277924,-1.06605005264282,9.98805046081543,1.05599999427795,-13.7812509536743,5.13750028610229,-8.36250019073486,0.27188178896904,0.59615439176559,-0.15862596035004,-0.73859196901321,2.85780000686646,-0.73699998855591,0.35969999432564,13.5910511016846,-11.4160509109497,-5.08005046844482,-13.8000001907349,5.10000038146973,-8.38125038146973,0.25565502047539,0.5958439707756,-0.17663870751858,-0.74054652452469,2.76952505111694,-0.5710374712944,0.42171248793602,31.4860515594482,-42.8550033569336,-12.517050743103,-13.8000001907349,5.10000038146973,-8.38125038146973,0.24041059613228,0.5941389799118,-0.19412989914417,-0.74264061450958,2.76952505111694,-0.5710374712944,0.42171248793602,31.4860515594482,-42.8550033569336,-12.517050743103,-13.8750009536743,5.04375028610229,-8.41875076293945,0.22503420710564,0.59210538864136,-0.21151821315288,-0.74433243274689,SHAKE
-2.27301239967346,-0.74676251411438,-0.23388749361038,11.731050491333,-12.4260005950928,-1.45005011558533,-14.5125007629395,4.59375,-8.96250057220459,0.18315571546555,0.70475512742996,-0.31512984633446,-0.6086602807045,-0.52346247434616,0.17929999530315,0.44714999198914,31.8910522460938,-45.3829536437988,-2.49600005149841,-14.5312509536743,4.51875019073486,-8.94375038146973,0.18936088681221,0.70419752597809,-0.31395423412323,-0.60801386833191,1.07497501373291,0.58643752336502,1.09917497634888,29.4919509887695,-48.1750526428223,-6.99495029449463,-14.5875005722046,4.46250009536743,-8.98125076293945,0.19244149327278,0.69638413190842,-0.32477790117264,-0.61035615205765,0.95768749713898,0.79062497615814,0.89980000257492,30.0690021514893,-16.8990001678467,-21.8610019683838,-14.5875005722046,4.46250009536743,-8.98125076293945,0.19550879299641,0.68819975852966,-0.33351537585259,-0.61394214630127,0.14162500202656,0.89773750305176,0.34402498602867,18.4519500732422,-2.03205013275146,-19.980001449585,-14.7187509536743,4.38750028610229,-9.15000057220459,0.20402944087982,0.67698687314987,-0.33531257510185,-0.62259638309479,0.0,1.14413750171661,0.00013749999925,4.39499998092651,-1.53900003433228,-6.48105049133301,-14.7562503814697,4.36875009536743,-9.24375057220459,0.20780764520168,0.67100763320923,-0.3331688940525,-0.62893807888031,0.64088749885559,1.35547494888306,0.45636248588562,-10.1779508590698,4.38300037384033,6.76095008850098,-14.8125009536743,4.33125019073486,-9.375,0.21022148430347,0.66141963005066,-0.33641487360001,-0.63651883602142,0.96676248311997,1.67832493782043,0.54917502403259,-20.6749515533447,20.32200050354,15.1339511871338,-14.8125009536743,4.33125019073486,-9.46875,0.21228697896004,0.64889800548554,-0.34129908680916,-0.64605009555817,0.0,2.24743747711182,-0.18493749201298,-17.0400009155273,32.6740531921387,17.3419513702393,-14.8125009536743,4.33125019073486,-9.46875,0.21715401113033,0.63714921474457,-0.33589607477188,-0.65883147716522,-0.58946251869202,1.89254999160767,-0.67003750801086,-15.2950506210327,27.6679515838623,8.36295032501221,-14.7937507629395,4.3125,-9.48750019073486,0.22164914011955,0.62966674566269,-0.32520240545273,-0.66980212926865,-0.58946251869202,1.89254999160767,-0.67003750801086,-15.2950506210327,27.6679515838623,8.36295032501221,-14.7750005722046,4.27500009536743,-9.48750019073486,0.22607582807541,0.62197589874268,-0.31441205739975,-0.68057370185852,-0.7207750082016,0.96703749895096,-0.81771248579025,-11.3640003204346,17.7049503326416,0.74400001764297,-14.7562503814697,4.20000028610229,-9.46875,0.22805792093277,0.62001484632492,-0.30372735857964,-0.68652808666229,-1.26486253738403,0.45182499289513,-0.99110001325607,0.11100000888109,3.50895023345947,-2.58000016212463,-14.7562503814697,4.10625028610229,-9.48750019073486,0.23135298490524,0.62257194519043,-0.29014602303505,-0.68898129463196,-1.61988747119904,0.58959996700287,-1.111412525177,19.9770011901855,-14.9779510498047,-4.78305006027222,-14.7750005722046,3.97500014305115,-9.50625038146973,0.23684610426426,0.62500411272049,-0.27417036890984,-0.69145089387894,0.62878751754761,0.69795000553131,0.00013749999925,28.7850017547607,-37.5610504150391,-13.7160005569458,-14.8125009536743,3.84375023841858,-9.52500057220459,0.23798406124115,0.6170494556427,-0.26853901147842,-0.70035725831985,0.62878751754761,0.69795000553131,0.00013749999925,28.7850017547607,-37.5610504150391,-13.7160005569458,-14.8687505722046,3.73125004768372,-9.5625,0.23652312159538,0.61140924692154,-0.27035504579544,-0.70508420467377,0.22013749182224,0.5791500210762,-0.17888750135899,25.9500007629395,-10.9870500564575,-22.4029502868652,-14.9062509536743,3.65625023841858,-9.61875057220459,0.23621186614037,0.60779744386673,-0.26918929815292,-0.70874780416489,-0.39393749833107,0.38706248998642,-0.55618751049042,15.0180006027222,-2.72895002365112,-15.3730506896973,-14.9437503814697,3.65625023841858,-9.67500019073486,0.23714996874332,0.60744118690491,-0.26301226019859,-0.71105527877808,0.0,0.1861750036478,-0.25148749351501,3.05205011367798,-2.29800009727478,-3.5310001373291,-14.9437503814697,3.65625023841858,-9.71250057220459,0.23691764473915,0.60677802562714,-0.26106441020966,-0.71241557598114,1.28672504425049,-0.13983750343323,0.63800001144409,-9.66795063018799,3.14805006980896,7.50600051879883,-14.9437503814697,3.65625023841858,-9.71250057220459,0.23166805505753,0.603570997715,-0.27124953269959,-0.71306073665619,0.97583746910095,0.37771248817444,0.50765001773834,-19.8390007019043,19.3930511474609,15.4980010986328,-14.9062509536743,3.73125004768372,-9.71250057220459,0.22877898812294,0.59819430112839,-0.2780444920063,-0.71590155363083,-1.0228625535965,1.25358748435974,-0.78897500038147,-15.2209510803223,32.2290000915527,16.5250511169434,-14.8312501907349,3.76875019073486,-9.67500019073486,0.23337477445602,0.59460318088532,-0.2654327750206,-0.72216951847076,-1.79629993438721,1.41776251792908,-1.32082498073578,-13.2450008392334,29.0320510864258,7.61805057525635,-14.7750005722046,3.80625009536743,-9.63750076293945,0.24031068384647,0.59255224466324,-0.24534794688225,-0.72865426540375,-1.79629993438721,1.2557874917984,-1.18690001964569,-10.2499504089355,18.1600513458252,2.17095017433167,-14.7937507629395,3.76875019073486,-9.63750076293945,0.24749045073986,0.59092968702316,-0.22625802457333,-0.7337287068367,-1.69152498245239,1.1620124578476,-0.92303746938705,-0.78105002641678,5.09205007553101,-0.63105005025864,-14.8125009536743,3.67500019073486,-9.65625,0.26279944181442,0.58661299943924,-0.19248127937317,-0.74146658182144,-1.30487501621246,1.203125,-0.6374499797821,15.6100511550903,-11.7289505004883,-4.09095001220703,-14.8312501907349,3.56250023841858,-9.61875057220459,0.27022391557693,0.58247596025467,-0.17950642108917,-0.74530404806137,0.16279999911785,1.02038753032684,0.28338751196861,30.2839508056641,-38.7510032653809,-5.8840503692627,-14.8312501907349,3.43125009536743,-9.5625,0.27273973822594,0.57506018877029,-0.17974428832531,-0.75007390975952,1.00402498245239,0.75116246938705,0.84754997491837,25.9650020599365,-40.6710014343262,-6.55500030517578,-14.8500003814697,3.28125023841858,-9.50625038146973,0.27227881550789,0.56671732664108,-0.18811120092869,-0.75452619791031,0.21573749184609,0.42501249909401,0.43477499485016,24.5689506530762,-14.824951171875,-16.9530010223389,-14.8500003814697,3.28125023841858,-9.50625038146973,0.27423867583275,0.56265115737915,-0.19085206091404,-0.75616937875748,-0.52827501296997,0.16279999911785,0.0,15.399001121521,-0.00195000006352,-15.4780511856079,-14.8312501907349,3.22500014305115,-9.43125057220459,0.27835127711296,0.56243896484375,-0.18786861002445,-0.75557160377502,SHAKE
-1.0867999792099,1.1339625120163,-0.27623748779297,32.8219528198242,-30.3949508666992,-3.56700015068054,-13.9125003814697,3.71250009536743,-8.66250038146973,0.34340831637383,0.55713093280792,-0.098598331213,-0.749636054039,-1.0867999792099,1.1339625120163,-0.27623748779297,32.8219528198242,-30.3949508666992,-3.56700015068054,-13.9125003814697,3.65625023841858,-8.58750057220459,0.35031196475029,0.55152589082718,-0.08858132362366,-0.7518338561058,0.1710499972105,1.19226253032684,0.50503748655319,26.8720512390137,-47.4930038452148,-3.49005007743835,-13.9125003814697,3.58125019073486,-8.55000019073486,0.35301253199577,0.54215854406357,-0.08899064362049,-0.75731557607651,0.2403499931097,1.07799994945526,0.50943750143051,22.92405128479,-25.03005027771,-10.0290002822876,-13.8750009536743,3.58125019073486,-8.51250076293945,0.35516327619553,0.53354400396347,-0.09009807556868,-0.76228088140488,0.0,1.07621252536774,0.29177498817444,16.9619998931885,-0.28200000524521,-13.1700010299683,-13.7812509536743,3.63750004768372,-8.47500038146973,0.35770654678345,0.5258179306984,-0.08864363282919,-0.76661849021912,0.0,1.1617374420166,0.33151251077652,-5.59605026245117,6.50895023345947,-2.42204999923706,-13.6687507629395,3.73125004768372,-8.41875076293945,0.36258140206337,0.50874096155167,-0.08540599048138,-0.77615916728973,0.0,1.1617374420166,0.33151251077652,-5.59605026245117,6.50895023345947,-2.42204999923706,-13.5562505722046,3.84375023841858,-8.38125038146973,0.36457562446594,0.50018614530563,-0.08350767940283,-0.78097695112228,-0.65890002250671,1.15321254730225,-0.29301249980927,-14.9719505310059,14.6620502471924,6.09105014801025,-13.4625005722046,4.01250028610229,-8.34375,0.36803501844406,0.49396258592606,-0.07492396235466,-0.78417950868607,-1.49517500400543,1.07717502117157,-1.09449994564056,-16.1260509490967,26.6640014648438,13.6069507598877,-13.3687505722046,4.16250038146973,-8.32500076293945,0.37352937459946,0.49110335111618,-0.05792582780123,-0.78481715917587,-1.80069994926453,0.86528748273849,-1.31106245517731,-12.2920503616333,27.7680015563965,13.8000001907349,-13.3500003814697,4.27500009536743,-8.28750038146973,0.37990847229958,0.49026402831078,-0.03892013803124,-0.7834512591362,-1.86628746986389,0.72118747234345,-1.18428754806519,-10.1449508666992,20.3790016174316,9.43605041503906,-13.3500003814697,4.35000038146973,-8.25,0.38703885674477,0.48977828025818,-0.02091230638325,-0.78094869852066,-2.1293249130249,0.77233749628067,-1.07786250114441,-4.58295011520386,10.1010007858276,6.81405019760132,-13.3500003814697,4.35000038146973,-8.25,0.39614608883858,0.48844426870346,-0.00238209310919,-0.77748608589172,-2.1293249130249,0.77233749628067,-1.07786250114441,-4.58295011520386,10.1010007858276,6.81405019760132,-13.3687505722046,4.35000038146973,-8.25,0.40508243441582,0.48687902092934,0.01614215038717,-0.77369010448456,-2.47252488136292,0.90571248531342,-1.06232500076294,7.5930004119873,-0.33705002069473,2.59305024147034,-13.3687505722046,4.33125019073486,-8.23125076293945,0.41641312837601,0.48414152860642,0.03613666445017,-0.76870101690292,-2.04228758811951,0.87422502040863,-0.63318747282028,26.6950511932373,-19.8720016479492,-2.14394998550415,-13.3687505722046,4.29375028610229,-8.25,0.42697414755821,0.47997885942459,0.05144271999598,-0.76463520526886,-0.97432500123978,0.33508750796318,0.0,24.0900020599365,-29.0230522155762,-7.27800035476685,-13.3875007629395,4.25625038146973,-8.26875019073486,0.44176355004311,0.47244071960449,0.06391046196222,-0.7599738240242,-0.97432500123978,0.33508750796318,0.0,24.0900020599365,-29.0230522155762,-7.27800035476685,-13.3687505722046,4.27500009536743,-8.30625057220459,0.44822910428047,0.46966800093651,0.06900557875633,-0.75745689868927,-0.90420001745224,0.22439999878407,-0.00013749999925,19.8550510406494,-4.72605037689209,-14.8150510787964,-13.3125009536743,4.36875009536743,-8.36250019073486,0.4542051255703,0.4677326977253,0.07347869127989,-0.75466865301132,-0.7567999958992,0.38513749837875,0.00013749999925,10.6650009155273,4.60395002365112,-12.9829502105713,-13.2562503814697,4.48125028610229,-8.38125038146973,0.45902380347252,0.46485239267349,0.0780977383256,-0.75306713581085,-0.64789998531342,0.59014999866486,0.42033749818802,1.49505007266998,5.71395015716553,-6.84705018997192,-13.2562503814697,4.57500028610229,-8.45625019073486,0.46444165706634,0.45908412337303,0.08059930801392,-0.75302016735077,-0.84727501869202,0.64721250534058,0.15991249680519,-7.86495018005371,9.03495025634766,1.10400009155273,-13.2750005722046,4.66875028610229,-8.53125,0.46957066655159,0.45370799303055,0.08572846651077,-0.75253123044968,-1.01653754711151,0.50943750143051,-0.3299999833107,-14.7919502258301,19.2450008392334,10.1280002593994,-13.2750005722046,4.66875028610229,-8.53125,0.47392779588699,0.45095032453537,0.0939631536603,-0.75047141313553,-1.01653754711151,0.50943750143051,-0.3299999833107,-14.7919502258301,19.2450008392334,10.1280002593994,-13.2562503814697,4.76250028610229,-8.55000019073486,0.47823938727379,0.44814068078995,0.10218331962824,-0.74834197759628,-1.04431247711182,0.22522500157356,-0.77178752422333,-11.8570508956909,26.6070003509521,13.1560506820679,-13.3125009536743,4.81875038146973,-8.56875038146973,0.48128134012222,0.44879856705666,0.11209336668253,-0.74456918239593,-0.97748750448227,0.0,-0.9787250161171,-8.59305000305176,24.8020515441895,10.326000213623,-13.3500003814697,4.83750009536743,-8.58750057220459,0.48329916596413,0.45168548822403,0.1221160069108,-0.73992562294006,-1.18854999542236,0.0,-1.15541243553162,5.45100021362305,3.46905016899109,4.36905002593994,-13.3500003814697,4.85625028610229,-8.60625076293945,0.4879632294178,0.45824620127678,0.14517886936665,-0.72857773303986,-1.18854999542236,0.0,-1.15541243553162,5.45100021362305,3.46905016899109,4.36905002593994,-13.3875007629395,4.83750009536743,-8.60625076293945,0.49041473865509,0.4614135324955,0.1568486392498,-0.72248840332031,-0.48042500019073,0.0,-0.45842498540878,21.7579517364502,-17.5830001831055,-0.19800001382828,-13.4062509536743,4.81875038146973,-8.58750057220459,0.49156746268272,0.46250998973846,0.16144150495529,-0.71998780965805,0.7899374961853,0.0,0.71623748540878,27.9450016021729,-43.6039505004883,-3.96195030212402,-13.4062509536743,4.80000019073486,-8.55000019073486,0.48960661888123,0.46020823717117,0.15419913828373,-0.7243732213974,1.13712501525879,-0.00013749999925,0.87793749570847,20.275951385498,-33.2419509887695,-9.42300033569336,-13.4250001907349,4.80000019073486,-8.55000019073486,0.48646238446236,0.4576940536499,0.14468306303024,-0.73002552986145,SHAKE
0.7899374961853,0.0,0.71623748540878,27.9450016021729,-43.6039505004883,-3.96195030212402,-13.4062509536743,4.80000019073486,-8.55000019073486,0.48960661888123,0.46020823717117,0.15419913828373,-0.7243732213974,1.13712501525879,-0.00013749999925,0.87793749570847,20.275951385498,-33.2419509887695,-9.42300033569336,-13.4250001907349,4.80000019073486,-8.55000019073486,0.48646238446236,0.4576940536499,0.14468306303024,-0.73002552986145,0.82637500762939,-0.53198748826981,0.17091250419617,18.1759510040283,-5.10705041885376,-18.1840515136719,-13.4250001907349,4.85625028610229,-8.55000019073486,0.48310872912407,0.46120628714562,0.13847476243973,-0.73124521970749,0.68529999256134,-0.67003750801086,-0.00013749999925,7.50495052337646,5.08695030212402,-13.9840507507324,-13.4250001907349,4.85625028610229,-8.55000019073486,0.47995299100876,0.46604153513908,0.13341921567917,-0.73119747638702,0.68529999256134,-0.67003750801086,-0.00013749999925,7.50495052337646,5.08695030212402,-13.9840507507324,-13.3875007629395,4.95000028610229,-8.55000019073486,0.47677204012871,0.47084760665894,0.1283555328846,-0.73110580444336,0.54285001754761,-0.60238748788834,-0.00013749999925,-0.79800003767014,7.62705039978027,-6.67005014419556,-13.3312501907349,5.04375028610229,-8.55000019073486,0.47405588626862,0.47500503063202,0.12425469607115,-0.73089128732681,0.00013749999925,-0.44054999947548,-0.3631374835968,-8.73495006561279,14.7049503326416,3.03105020523071,-13.2937507629395,5.17500019073486,-8.55000019073486,0.47270917892456,0.47900357842445,0.1250718832016,-0.72901207208633,-0.52579998970032,-0.35392498970032,-1.03386247158051,-8.9640007019043,27.4710006713867,10.8670501708984,-13.2000007629395,5.38125038146973,-8.49375057220459,0.47094824910164,0.48897162079811,0.13852825760841,-0.72105783224106,-0.52579998970032,-0.35392498970032,-1.03386247158051,-5.12400007247925,20.7289505004883,7.56300020217896,-13.2000007629395,5.38125038146973,-8.49375057220459,0.46990898251534,0.49442407488823,0.14577999711037,-0.71657419204712,-0.25959998369217,-0.57859998941421,-0.94599997997284,-5.12400007247925,20.7289505004883,7.56300020217896,-13.2562503814697,5.40000009536743,-8.55000019073486,0.46787017583847,0.50114279985428,0.15051783621311,-0.71224838495255,-0.34732499718666,-0.61971247196197,-0.97831249237061,2.45295000076294,10.7659502029419,8.60700035095215,-13.2937507629395,5.38125038146973,-8.58750057220459,0.46620532870293,0.50808906555176,0.15556447207928,-0.70731723308563,-0.7734375,-0.52841252088547,-1.17232501506805,15.6690006256104,-2.15700006484985,5.53095006942749,-13.3312501907349,5.34375,-8.58750057220459,0.46616044640541,0.51464587450027,0.16371087729931,-0.70073729753494,-0.00013749999925,-0.4159374833107,-0.39311251044273,28.6609516143799,-25.1160011291504,1.24200010299683,-13.3312501907349,5.34375,-8.58750057220459,0.46482816338539,0.51832926273346,0.16437588632107,-0.69874900579453,1.29855000972748,-0.00013749999925,1.203125,22.2559509277344,-38.7010536193848,-2.65695023536682,-13.3500003814697,5.28750038146973,-8.60625076293945,0.46219301223755,0.51494240760803,0.15188305079937,-0.70579278469086,1.29855000972748,-0.00013749999925,1.203125,22.2559509277344,-38.7010536193848,-2.65695023536682,-13.3687505722046,5.25,-8.60625076293945,0.45948871970177,0.51142209768295,0.13936787843704,-0.71266692876816,1.31793749332428,0.0,1.42340004444122,17.7430515289307,-15.3570003509521,-6.30105018615723,-13.3500003814697,5.28750038146973,-8.64375019073486,0.45804733037949,0.5072209239006,0.1253238171339,-0.71917563676834,0.53350001573563,-0.00013749999925,0.59001249074936,10.9360504150391,2.00805020332336,-8.7049503326416,-13.3125009536743,5.38125038146973,-8.68125057220459,0.45760583877563,0.50550037622452,0.11969538033009,-0.72162264585495,-0.3920125067234,0.0,-0.56017500162125,-16.6330509185791,26.707950592041,3.55995011329651,-13.2187509536743,5.66250038146973,-8.71875,0.45691636204719,0.50699079036713,0.12551088631153,-0.72002416849136,-1.14991247653961,0.34759998321533,-2.03348755836487,-14.1720008850098,37.5490531921387,13.3189506530762,-13.2187509536743,5.66250038146973,-8.71875,0.45438548922539,0.51124286651611,0.14417371153832,-0.71510726213455,-1.14991247653961,0.34759998321533,-2.03348755836487,-14.1720008850098,37.5490531921387,13.3189506530762,-13.1812505722046,5.79375028610229,-8.71875,0.4516769349575,0.51527982950211,0.16277679800987,-0.70991426706314,-1.85707497596741,0.75583750009537,-3.1663498878479,-11.5380001068115,27.0450019836426,14.4490509033203,-13.1625003814697,5.86875009536743,-8.71875,0.44740530848503,0.51983428001404,0.19251026213169,-0.70181232690811,-2.10471248626709,0.70963752269745,-3.45840001106262,-1.59495007991791,12.282000541687,1.41000008583069,-13.1625003814697,5.88750028610229,-8.73750019073486,0.4429897069931,0.52477312088013,0.22464850544929,-0.69130772352219,-2.11021256446838,0.35296249389648,-2.77970004081726,11.8510503768921,-13.6210508346558,-5.59200048446655,-13.2562503814697,5.77500009536743,-8.79375076293945,0.44247379899025,0.5283100605011,0.25130373239517,-0.67967045307159,-1.32165002822876,0.18314999341965,-0.5713124871254,23.5129508972168,-51.493953704834,-7.81695032119751,-13.4062509536743,5.60625028610229,-8.90625,0.4468140900135,0.52621704339981,0.261225014925,-0.67469567060471,1.30803751945496,-0.69217497110367,1.21659994125366,15.3370504379272,-44.7940521240234,-14.8459510803223,-13.4062509536743,5.60625028610229,-8.90625,0.44615951180458,0.52797818183899,0.24631296098232,-0.67934572696686,1.30803751945496,-0.69217497110367,1.21659994125366,15.3370504379272,-44.7940521240234,-14.8459510803223,-13.5750007629395,5.40000009536743,-9.0,0.44540145993233,0.52959638834,0.23134984076023,-0.68382930755615,2.42041254043579,-1.83163750171661,1.9629499912262,20.7600002288818,-9.14100074768066,-31.0099506378174,-13.7625007629395,5.25,-9.15000057220459,0.44408413767815,0.53699946403503,0.2028339356184,-0.687952876091,2.72153759002686,-2.76553750038147,2.95583748817444,6.29595041275024,4.213050365448,-16.1730003356934,-14.1562509536743,5.13750028610229,-9.5625,0.44455707073212,0.55229067802429,0.12568420171738,-0.69393628835678,2.46565008163452,-3.37741255760193,3.23908758163452,-3.70905017852783,2.86500024795532,-4.29000043869019,-14.2687501907349,5.19375038146973,-9.75,0.44817447662353,0.56168925762177,0.08356922119856,-0.69040644168854,2.45162487030029,-3.81658744812012,4.21038770675659,-11.4570007324219,7.70400047302246,4.6210503578186,-14.2687501907349,5.19375038146973,-9.75,0.45541900396347,0.56876927614212,0.03394299000502,-0.68406355381012,SHAKE
-0.81207501888275,-0.79488748311997,1.08019995689392,23.0800514221191,-36.1099510192871,-15.6049509048462,-14.8875007629395,4.89375019073486,-10.21875,0.63535869121552,0.60083043575287,-0.29622685909271,-0.38415083289146,-0.81207501888275,-0.79488748311997,1.08019995689392,23.0800514221191,-36.1099510192871,-15.6049509048462,-15.0000009536743,4.70625019073486,-10.2937507629395,0.64156299829483,0.59923040866852,-0.29975324869156,-0.37345403432846,-0.81936252117157,-0.55398750305176,0.83324998617172,20.0370006561279,-6.96705055236816,-24.1380004882812,-15.1500005722046,4.51875019073486,-10.40625,0.64712136983872,0.59833860397339,-0.30092796683312,-0.3642350435257,-1.0225875377655,-0.38568750023842,0.48551249504089,7.03800010681152,4.75005006790161,-16.6950016021729,-15.3000001907349,4.40625,-10.5562505722046,0.65189719200134,0.59937870502472,-0.29889044165611,-0.35558354854584,-0.91863751411438,-0.00013749999925,0.49527499079704,-9.75195026397705,7.26600027084351,-4.63500022888184,-15.3937501907349,4.36875009536743,-10.6875,0.65709608793259,0.59898018836975,-0.29520887136459,-0.34971302747726,-0.88082498311997,0.28063750267029,0.54477500915527,-24.9079513549805,20.7409515380859,7.09200048446655,-15.4312505722046,4.44375038146973,-10.8000001907349,0.66290205717087,0.59738200902939,-0.29045656323433,-0.3454427421093,-1.25688743591309,0.34264999628067,0.0,-21.3880500793457,36.952953338623,19.9200000762939,-15.4312505722046,4.44375038146973,-10.8000001907349,0.66710191965103,0.59949320554733,-0.28194481134415,-0.3407199382782,-1.25688743591309,0.34264999628067,0.0,-21.3880500793457,36.952953338623,19.9200000762939,-15.4312505722046,4.59375,-10.8187503814697,0.6712287068367,0.6015265583992,-0.27340078353882,-0.33596125245094,-2.78684997558594,0.26413750648499,-2.15930008888245,-1.54200005531311,17.0539512634277,4.31895017623901,-15.2625007629395,4.91250038146973,-10.7437505722046,0.66768884658813,0.62913125753403,-0.23598164319992,-0.32046547532082,-3.69600009918213,0.00013749999925,-2.38727498054504,11.038950920105,-14.9640007019043,-2.47500014305115,-15.1875009536743,4.96875,-10.6875,0.66457056999206,0.64897680282593,-0.21018043160438,-0.30495753884316,-3.69600009918213,0.00013749999925,-2.38727498054504,29.1319522857666,-44.6440505981445,-9.55005073547363,-15.1875009536743,4.96875,-10.6875,0.66060477495194,0.66794008016586,-0.1841284185648,-0.28905725479126,-3.53746247291565,0.0,-0.79433751106262,29.1319522857666,-44.6440505981445,-9.55005073547363,-15.1687507629395,4.91250038146973,-10.6312503814697,0.6643813252449,0.67717349529266,-0.16260714828968,-0.27127918601036,-2.05191254615784,-0.29603749513626,0.61325001716614,27.856050491333,-35.4760513305664,-15.3589506149292,-15.1875009536743,4.80000019073486,-10.6125001907349,0.67199772596359,0.67683464288712,-0.15420068800449,-0.25794589519501,0.00013749999925,-0.47685000300407,2.05837488174438,14.002950668335,5.41305017471313,-11.0779504776001,-15.3937501907349,4.48125028610229,-10.8000001907349,0.68281048536301,0.66620570421219,-0.16104692220688,-0.25298970937729,0.00013749999925,-0.49417498707771,2.13124990463257,-0.87405002117157,4.50795030593872,-2.14904999732971,-15.4875001907349,4.36875009536743,-10.875,0.69377022981644,0.65507692098618,-0.16781486570835,-0.24778062105179,-0.19263750314712,-0.55989998579025,1.96666252613068,-16.1640014648438,12.7180509567261,5.77695035934448,-15.5250005722046,4.33125019073486,-10.9500007629395,0.70387548208237,0.64508301019669,-0.17369748651981,-0.24136383831501,-0.19263750314712,-0.55989998579025,1.96666252613068,-18.4409999847412,29.7870006561279,15.8380508422852,-15.5250005722046,4.33125019073486,-10.9500007629395,0.71373707056045,0.63494569063187,-0.17957055568695,-0.23489990830421,-0.00013749999925,-0.67416250705719,2.15187501907349,-18.4409999847412,29.7870006561279,15.8380508422852,-15.5250005722046,4.36875009536743,-11.0062503814697,0.72381484508514,0.62344253063202,-0.18745577335358,-0.22863075137138,-0.95823746919632,-0.48413750529289,0.64405000209808,-4.51095008850098,19.8460502624512,4.13700008392334,-15.4312505722046,4.63125038146973,-11.0625,0.73539197444916,0.61486905813217,-0.19067053496838,-0.21161197125912,-1.38737499713898,-0.39311251044273,-0.21133749186993,5.22795009613037,-2.48700022697449,-2.53695011138916,-15.3750009536743,4.74375009536743,-11.0625,0.73599231243134,0.61890816688538,-0.18564780056477,-0.20199754834175,-2.43869996070862,-0.67801249027252,-1.04623746871948,26.310001373291,-26.3110504150391,-9.39000034332275,-15.3562507629395,4.80000019073486,-11.0437507629395,0.73339635133743,0.62992107868195,-0.17558248341083,-0.1857416331768,-2.43869996070862,-0.67801249027252,-1.04623746871948,26.310001373291,-26.3110504150391,-9.39000034332275,-15.3562507629395,4.80000019073486,-11.0437507629395,0.73042982816696,0.64062857627869,-0.16544382274151,-0.16939820349217,-2.58926248550415,-0.41635000705719,-0.00013749999925,30.1090507507324,-36.3930015563965,-13.956000328064,-15.3562507629395,4.74375009536743,-11.0625,0.73330098390579,0.64447379112244,-0.15432707965374,-0.15200743079186,-1.58070003986359,-0.40727499127388,0.69148749113083,28.4380512237549,-19.1640014648438,-17.5590000152588,-15.4125003814697,4.63125038146973,-11.0625,0.7383719086647,0.64259523153305,-0.14937560260296,-0.13987532258034,-0.92482501268387,-0.45113748311996,1.07057499885559,21.0850505828857,-1.24695003032684,-13.2229509353638,-15.4687509536743,4.5,-11.1000003814697,0.74444341659546,0.63764601945877,-0.14846368134022,-0.13103424012661,-0.35475000739098,-0.37936249375343,1.38545000553131,11.860050201416,2.66700005531311,-6.11895036697388,-15.5437507629395,4.40625,-11.1375007629395,0.75148844718933,0.62996172904968,-0.15037566423416,-0.12570023536682,0.0,-0.31721249222755,1.64766252040863,1.16505002975464,2.17095017433167,0.57705003023148,-15.6000003814697,4.40625,-11.1750001907349,0.75945580005646,0.62010586261749,-0.15387812256813,-0.12254477292299,0.0,-0.31721249222755,1.64766252040863,1.16505002975464,2.17095017433167,0.57705003023148,-15.6000003814697,4.40625,-11.1750001907349,0.76728576421738,0.6101331114769,-0.15735650062561,-0.11936936527491,0.97240000963211,-0.43326249718666,3.13197493553162,-17.3880004882812,15.8539505004883,14.7850503921509,-15.3375005722046,4.74375009536743,-11.0625,0.79105281829834,0.57439428567886,-0.17395426332951,-0.11851812154055,0.26455000042915,-0.174899995327,2.93397498130798,-14.6200504302979,24.8899517059326,13.7719507217407,-15.1687507629395,5.02500009536743,-10.96875,0.80425202846527,0.55476373434067,-0.1789603382349,-0.11571126431227,SHAKE
0.34705001115799,0.49802500009537,-0.14245000481605,34.3950004577637,-35.425952911377,-6.61005020141602,-13.6875009536743,6.65625047683716,-10.1062507629395,0.84053552150726,0.53539502620697,-0.0047673964873,-0.08264121413231,1.84992504119873,0.29370000958443,1.01598751544952,29.4990005493164,-34.8889503479004,-6.93495035171509,-13.7625007629395,6.48750019073486,-10.1437501907349,0.84369659423828,0.52776509523392,-0.01194171700627,-0.09745540469885,1.84992504119873,0.29370000958443,1.01598751544952,29.4990005493164,-34.8889503479004,-6.93495035171509,-13.7625007629395,6.48750019073486,-10.1437501907349,0.84657293558121,0.51995331048965,-0.01910697109997,-0.11223942041397,2.51075005531311,0.0,1.44210004806519,23.0850009918213,-11.1139507293701,-9.65505027770996,-13.8562507629395,6.35625028610229,-10.1812505722046,0.85020142793655,0.50910514593124,-0.03155846521258,-0.13028281927109,2.24578738212585,-0.29370000958443,1.15568745136261,13.3249502182007,2.79795002937317,-7.83300018310547,-13.9125003814697,6.28125047683716,-10.2000007629395,0.8523263335228,0.50050264596939,-0.04434026032686,-0.14515805244446,2.18611240386963,-0.57887500524521,1.09078752994537,0.29100000858307,4.764000415802,-1.71795010566711,-13.9500007629395,6.30000019073486,-10.2562503814697,0.85379910469055,0.49248942732811,-0.05842212587595,-0.1583289951086,2.36018753051758,-0.62686252593994,1.68822503089905,-13.5570011138916,11.917950630188,6.22500038146973,-13.9312505722046,6.39375019073486,-10.2562503814697,0.85702216625214,0.47988897562027,-0.07447244971991,-0.17225983738899,1.21343743801117,-0.20377500355244,1.30116248130798,-19.3170013427734,25.3189506530762,14.743950843811,-13.8562507629395,6.54375028610229,-10.21875,0.86020934581757,0.4700026512146,-0.0823417827487,-0.17988122999668,-0.86666250228882,0.32890000939369,-1.04912495613098,-13.1190004348755,24.082950592041,1.65705013275146,-13.7062501907349,6.76875019073486,-10.1062507629395,0.85817033052445,0.47713232040405,-0.07068027555943,-0.17576357722282,-0.86666250228882,0.32890000939369,-1.04912495613098,-13.1190004348755,24.082950592041,1.65705013275146,-13.7062501907349,6.76875019073486,-10.1062507629395,0.8553763628006,0.48453620076179,-0.06294859945774,-0.17202726006508,-1.0896874666214,0.0,-1.62566244602203,-5.67900037765503,10.525050163269,-1.13595008850098,-13.6687507629395,6.80625009536743,-10.0687503814697,0.85025501251221,0.49651622772217,-0.05578229576349,-0.16560928523541,-1.23461246490479,0.0,-1.3055624961853,10.4569501876831,-6.16695022583008,-1.4719500541687,-13.6875009536743,6.76875019073486,-10.0687503814697,0.8463876247406,0.50619649887085,-0.04903783276677,-0.15807634592056,-1.01832497119904,0.30181249976158,-0.72201251983643,32.3359527587891,-25.8940505981445,-4.0770001411438,-13.7250003814697,6.65625047683716,-10.0875005722046,0.84470689296722,0.51115953922272,-0.04186529666185,-0.15308041870594,-1.01832497119904,0.30181249976158,-0.72201251983643,32.3359527587891,-25.8940505981445,-4.0770001411438,-13.7250003814697,6.65625047683716,-10.0875005722046,0.84294068813324,0.51606488227844,-0.03469328954816,-0.14806880056858,-0.24584999680519,0.41236248612404,-0.00013749999925,29.4319515228271,-44.3509521484375,-7.93905019760132,-13.8375005722046,6.48750019073486,-10.1062507629395,0.84337323904037,0.51540875434875,-0.03098740056157,-0.14871188998222,0.87037497758865,0.00013749999925,0.61228752136231,24.0090007781982,-25.2120018005371,-17.8870506286621,-13.9500007629395,6.31875038146973,-10.1625003814697,0.84496593475342,0.51056396961212,-0.03575085103512,-0.15517343580723,1.23158752918243,-0.00013749999925,0.88316249847412,17.6299514770508,-1.84800004959106,-17.7649517059326,-14.0437507629395,6.22500038146973,-10.21875,0.84713286161423,0.50370639562607,-0.04212421178818,-0.16392488777638,1.07181251049042,-0.34141248464584,0.75308752059937,6.72000026702881,3.93795013427734,-7.66305017471313,-14.1000003814697,6.22500038146973,-10.2375001907349,0.84867060184479,0.49833416938782,-0.04976432770491,-0.1701313406229,1.65123748779297,-0.4823499917984,1.33539998531342,-7.18800020217896,5.11800003051758,2.76300024986267,-14.1000003814697,6.28125047683716,-10.2562503814697,0.85276240110397,0.48314696550369,-0.0692320689559,-0.18593588471413,1.7410249710083,-0.28764998912811,1.94686245918274,-17.7469501495361,18.8760013580322,14.521050453186,-14.0437507629395,6.37500047683716,-10.21875,0.8574709892273,0.46854722499847,-0.08100494742393,-0.19658380746841,0.22605000436306,0.23842500150204,1.04293751716614,-14.2990503311157,28.1490020751953,18.3589515686035,-13.9500007629395,6.46875047683716,-10.125,0.86121648550034,0.46047461032867,-0.08160018920898,-0.19902460277081,-0.69891250133514,0.43463748693466,-0.00013749999925,-10.3840503692627,27.0550518035889,10.0530004501343,-13.8375005722046,6.56250047683716,-10.0500001907349,0.86257702112198,0.46016183495522,-0.07546234875917,-0.19625881314278,-1.0535249710083,0.00013749999925,-0.96964997053146,-6.24900007247925,16.8670501708984,2.6620500087738,-13.8562507629395,6.56250047683716,-10.03125,0.86046588420868,0.46768987178803,-0.06945300847292,-0.18984453380108,-1.0535249710083,0.00013749999925,-0.96964997053146,-6.24900007247925,16.8670501708984,2.6620500087738,-13.8562507629395,6.56250047683716,-10.03125,0.85823804140091,0.47514960169792,-0.06343299895525,-0.18340292572975,-1.37651252746582,-0.17778749763966,-1.21879994869232,4.22205018997192,0.45900002121925,-1.21605002880096,-13.9312505722046,6.46875047683716,-10.1062507629395,0.85519766807556,0.48482823371887,-0.05731614679098,-0.17404952645302,-1.33168745040894,0.00013749999925,-0.82871252298355,26.3460006713867,-16.7359504699707,-4.48605012893677,-14.0250005722046,6.31875038146973,-10.1812505722046,0.85364007949829,0.49122053384781,-0.05089930444956,-0.16556034982204,-0.61558747291565,0.35268750786781,-0.25231251120567,30.5280017852783,-37.4610023498535,-8.21205043792725,-14.1375007629395,6.11250019073486,-10.2562503814697,0.85358190536499,0.49257335066795,-0.045749604702,-0.1633290797472,0.83407497406006,0.24227499961853,0.72421246767044,21.9780006408691,-33.7639503479004,-14.1180009841919,-14.2312507629395,5.88750028610229,-10.3687505722046,0.85552442073822,0.48644933104515,-0.04868314042687,-0.17051395773888,1.38971245288849,0.0,1.24341249465942,15.8680505752563,-7.85295057296753,-21.3390007019043,-14.3625001907349,5.70000028610229,-10.4625005722046,0.86152970790863,0.46663048863411,-0.06349895894527,-0.18971185386181,0.81124997138977,-0.55921250581741,0.87931251525879,6.34605026245117,4.27995014190674,-15.3469505310059,-14.4750003814697,5.58750009536743,-10.59375,0.86346852779388,0.46048051118851,-0.07166388630867,-0.19298703968525,SHAKE
-0.94943749904633,-0.48592498898506,-0.23333749175072,29.2810516357422,-42.952953338623,-8.34105014801025,-14.7562503814697,5.34375,-10.96875,0.85457921028137,0.49714943766594,-0.14639182388783,-0.03326050937176,0.19483749568462,-0.32463750243187,0.39379999041557,27.5809516906738,-24.5839519500732,-15.7750511169434,-14.9250001907349,5.11875009536743,-11.0625,0.85571455955505,0.49414110183716,-0.1498591452837,-0.03345875442028,1.15857493877411,-0.20996250212192,1.02093744277954,19.5310516357422,-3.98595023155212,-17.0629501342773,-15.0562505722046,4.93125009536743,-11.15625,0.85919344425201,0.48546996712685,-0.15648297965527,-0.04023189470172,1.56846249103546,-0.20295000076294,1.47688746452332,8.70195007324219,2.58795022964478,-10.0189504623413,-15.1687507629395,4.81875038146973,-11.2312507629395,0.86417800188065,0.47294980287552,-0.16456581652165,-0.04932505637407,1.56846249103546,-0.20295000076294,1.47688746452332,-4.85805034637451,3.73200011253357,-1.4190000295639,-15.2437505722046,4.78125,-11.2875003814697,0.86902844905853,0.46006247401237,-0.17243990302086,-0.05828154832125,1.35808753967285,-0.31748750805855,1.51538753509521,-4.85805034637451,3.73200011253357,-1.4190000295639,-15.2437505722046,4.78125,-11.2875003814697,0.87368774414063,0.4471110701561,-0.18030373752117,-0.06520716100931,1.61741244792938,-0.27046251296997,2.11323738098145,-16.3459510803223,11.4150009155273,6.66795015335083,-15.2250003814697,4.85625028610229,-11.3250007629395,0.88008803129196,0.42927703261375,-0.18916888535023,-0.07335859537125,1.1316249370575,0.0,2.34451246261597,-18.0790500640869,25.8220520019531,10.5300006866455,-15.1687507629395,4.98750019073486,-11.3250007629395,0.88758307695389,0.41019576787949,-0.19434398412705,-0.0785258486867,-1.12117505073547,0.21670000255108,-0.27403751015663,-4.46595001220703,27.9190521240234,4.89600038528442,-15.0375003814697,5.28750038146973,-11.3250007629395,0.89152675867081,0.40557092428207,-0.18893559277058,-0.07067958265543,-1.12117505073547,0.21670000255108,-0.27403751015663,-4.46595001220703,27.9190521240234,4.89600038528442,-15.0375003814697,5.28750038146973,-11.3250007629395,0.8915513753891,0.40928554534912,-0.18306837975979,-0.06409019231796,-2.24523758888245,0.0,-1.41171252727509,4.66500043869019,8.62395000457764,4.06500005722046,-15.0000009536743,5.34375,-11.2875003814697,0.88765454292297,0.42323586344719,-0.17442372441292,-0.05017280951142,-3.11987495422363,0.0,-1.31560003757477,19.4140510559082,-21.7129516601562,0.61500000953674,-15.0000009536743,5.32500028610229,-11.2687501907349,0.88391500711441,0.43732580542564,-0.1629753112793,-0.02965274080634,-1.97628748416901,0.38307499885559,0.0,26.67405128479,-42.0049514770508,-1.4760000705719,-15.0562505722046,5.19375038146973,-11.25,0.88477402925491,0.43980693817139,-0.15313842892647,-0.01713158562779,-0.6153125166893,0.30579999089241,1.04692494869232,23.5110015869141,-32.7660026550293,-5.25705003738403,-15.1687507629395,4.98750019073486,-11.2875003814697,0.88901716470718,0.43275666236877,-0.14899981021881,-0.01301520410925,-0.6153125166893,0.30579999089241,1.04692494869232,23.5110015869141,-32.7660026550293,-5.25705003738403,-15.2812509536743,4.80000019073486,-11.3250007629395,0.89317095279694,0.425656914711,-0.14485427737236,-0.00889364350587,0.0,0.28215000033379,1.48431253433228,18.8059501647949,-6.66105031967163,-10.8450002670288,-15.2812509536743,4.80000019073486,-11.3250007629395,0.89864385128021,0.4146209359169,-0.14301019906998,-0.00875975098461,0.27183750271797,0.22055000066757,1.70678746700287,7.00005054473877,4.80000019073486,-8.87700080871582,-15.3937501907349,4.65000009536743,-11.3625001907349,0.90467101335526,0.40157771110535,-0.14213663339615,-0.01013493351638,0.16142499446869,-0.00013749999925,1.57354998588562,-6.98895025253296,9.08100032806396,-2.32395005226135,-15.4687509536743,4.57500028610229,-11.4000005722046,0.90994095802307,0.38937300443649,-0.14246362447739,-0.01000517979264,0.0,-0.00013749999925,1.51758754253387,-12.4429502487183,29.3479518890381,7.74300050735474,-15.4312505722046,4.74375009536743,-11.4562501907349,0.91955554485321,0.36480259895325,-0.14577221870422,-0.00932997092605,0.0,-0.00013749999925,1.51758754253387,-12.4429502487183,29.3479518890381,7.74300050735474,-15.3375005722046,4.89375019073486,-11.4187507629395,0.92414271831512,0.35311186313629,-0.14562660455704,-0.00807352736592,-0.77123749256134,0.0,0.66769999265671,-8.6220006942749,28.2690010070801,8.07600021362305,-15.3375005722046,4.89375019073486,-11.4187507629395,0.92616933584213,0.34887647628784,-0.14314964413643,-0.00191841355991,-1.33815002441406,0.00013749999925,-0.16156250238419,-0.50505000352859,16.0459499359131,5.43195009231567,-15.2437505722046,5.02500009536743,-11.3625001907349,0.92568969726563,0.35172972083092,-0.13902103900909,0.00760680809617,-2.03060007095337,0.0,-0.60664999485016,11.0770502090454,-6.90195035934448,2.16405010223389,-15.1687507629395,5.0625,-11.2875003814697,0.92361092567444,0.35876339673996,-0.13323597609997,0.02190734446049,-2.32677507400513,0.00013749999925,-0.14313749969006,28.006950378418,-34.8220520019531,0.28995001316071,-15.1312503814697,5.00625038146973,-11.2125005722046,0.92258876562118,0.36235997080803,-0.12650413811207,0.03901215642691,-1.11567497253418,0.00013749999925,0.78815001249313,24.306001663208,-44.8930511474609,-2.44095015525818,-15.1687507629395,4.85625028610229,-11.1937503814697,0.92457211017609,0.35738182067871,-0.12312553077936,0.04779944568872,-1.11567497253418,0.00013749999925,0.78815001249313,24.306001663208,-44.8930511474609,-2.44095015525818,-15.1687507629395,4.85625028610229,-11.1937503814697,0.92644613981247,0.35236006975174,-0.11974146217108,0.05658596009016,-0.19057500362396,-0.22041249275208,1.37183749675751,23.0580005645752,-20.0179500579834,-14.1970510482788,-15.3375005722046,4.63125038146973,-11.25,0.93011426925659,0.34179884195328,-0.12052411586046,0.05945644527674,0.2404875010252,-0.33756250143051,1.61933743953705,17.1610507965088,0.00405000010505,-18.2839508056641,-15.5250005722046,4.40625,-11.34375,0.93442630767822,0.32885250449181,-0.12313657253981,0.05950501561165,0.41731250286102,-0.50462502241135,1.89213752746582,-5.671950340271,3.17400026321411,-2.70000004768372,-15.7312507629395,4.18125009536743,-11.53125,0.94359117746353,0.29913631081581,-0.12928070127964,0.05864956974983,1.09766244888306,-0.61311250925064,2.66873741149902,-16.900951385498,11.0590505599976,6.69195032119751,-15.7687501907349,4.16250038146973,-11.5500001907349,0.94993978738785,0.27639916539192,-0.13535591959953,0.05382053554058,SHAKE
-1.9102874994278,0.19470000267029,-0.1553750038147,31.6729507446289,-47.344051361084,-4.74705028533936,-14.6062507629395,4.25625038146973,-10.6687507629395,0.92031097412109,0.08898751437664,-0.19903248548508,0.32479989528656,-0.27829998731613,-0.00013749999925,0.97913748025894,27.5280017852783,-33.8880004882812,-8.71695041656494,-14.6812505722046,4.06875038146973,-10.6687507629395,0.92032796144485,0.08196841180325,-0.19662524759769,0.32804915308952,0.71321249008179,-0.18424999713898,1.72768747806549,22.7179508209229,-7.44405031204224,-16.0120506286621,-14.7937507629395,3.86250019073486,-10.7062501907349,0.92308223247528,0.06715682893991,-0.19428381323814,0.32505834102631,0.68296247720718,-0.26056250929832,1.85762500762939,10.6560001373291,4.66095018386841,-14.2140007019043,-14.8875007629395,3.69375014305115,-10.78125,0.925432741642,0.05113077163696,-0.19217278063297,0.32253614068031,0.16376249492168,-0.60417497158051,1.5246000289917,-5.91405010223389,5.52300024032593,-5.23800039291382,-14.9625005722046,3.60000014305115,-10.8375005722046,0.92557263374329,0.03691948205233,-0.19294831156731,0.32360982894898,0.16376249492168,-0.60417497158051,1.5246000289917,-5.91405010223389,5.52300024032593,-5.23800039291382,-15.0000009536743,3.60000014305115,-10.8937501907349,0.92551881074905,0.02269878983498,-0.19369478523731,0.32462584972382,0.38513749837875,-0.83517497777939,1.6744749546051,-19.0519504547119,16.9129505157471,9.21795082092285,-15.0000009536743,3.60000014305115,-10.8937501907349,0.92558914422989,0.00659081712365,-0.19575622677803,0.32391503453255,-1.18552494049072,0.1515250056982,1.19033753871918,-12.7159509658813,27.7080020904541,11.752950668335,-14.8500003814697,3.84375023841858,-10.8937501907349,0.9228081703186,-0.00049162993673,-0.19134767353535,0.33438137173653,-1.99911248683929,-0.00013749999925,0.0,13.0500001907349,-10.6260004043579,-3.64095020294189,-14.6250009536743,4.06875038146973,-10.8000001907349,0.91275197267532,0.00331451464444,-0.18932768702507,0.36197757720947,-1.99911248683929,-0.00013749999925,0.0,13.0500001907349,-10.6260004043579,-3.64095020294189,-14.6062507629395,4.05000019073486,-10.78125,0.90669465065002,0.00651633646339,-0.18971593677998,0.37665662169456,-1.93146252632141,-0.17393749952316,0.2941125035286,29.5039520263672,-37.9870529174805,-9.6340503692627,-14.6062507629395,4.05000019073486,-10.78125,0.90034997463226,0.00680236937478,-0.19046601653099,0.39121147990227,-1.09078752994537,-0.3965499997139,0.82857501506805,29.0010013580322,-37.3410034179688,-10.9200000762939,-14.6625003814697,3.93750023841858,-10.7625007629395,0.89623951911926,0.00101920228917,-0.19117006659508,0.40025967359543,-0.47616249322891,-0.60417497158051,1.1950124502182,25.0570507049561,-11.2150506973267,-15.2149505615234,-14.7562503814697,3.78750014305115,-10.78125,0.89368629455566,-0.00910055916756,-0.19223862886429,0.40532261133194,0.25740000605583,-0.60995000600815,1.64559996128082,14.4120006561279,4.63500022888184,-13.3330507278442,-14.8500003814697,3.63750004768372,-10.8375005722046,0.89334094524384,-0.02378214150667,-0.19180262088776,0.40569460391998,0.58657497167587,-0.45594999194145,1.94246244430542,-1.89900004863739,6.63105010986328,-4.43595027923584,-14.9250001907349,3.56250023841858,-10.8937501907349,0.89408606290817,-0.04133427888155,-0.18869635462761,0.404098123312,0.58657497167587,-0.45594999194145,1.94246244430542,-1.89900004863739,6.63105010986328,-4.43595027923584,-14.9250001907349,3.56250023841858,-10.9312505722046,0.89454001188278,-0.05887841805816,-0.18552275002003,0.40238392353058,0.0,-0.61930000782013,1.68739998340607,-17.6050510406494,15.3390007019043,7.9699501991272,-14.9250001907349,3.56250023841858,-10.9312505722046,0.89282035827637,-0.07392031699419,-0.18461352586746,0.40413528680801,-0.22288750112057,-1.17425000667572,1.31037497520447,-17.064001083374,29.9370021820068,18.5220012664795,-14.9250001907349,3.61875009536743,-10.9500007629395,0.8895503282547,-0.08759943395853,-0.18917426466942,0.40649676322937,-1.11127495765686,-1.24107503890991,0.00013749999925,-6.92205047607422,15.2749509811401,2.88705015182495,-14.7187509536743,3.93750023841858,-10.9125003814697,0.87908393144608,-0.10079868882894,-0.20693336427212,0.41740825772286,-1.11127495765686,-1.24107503890991,0.00013749999925,-6.92205047607422,15.2749509811401,2.88705015182495,-14.5875005722046,4.06875038146973,-10.8562507629395,0.87315684556961,-0.1036087423563,-0.21705578267574,0.42396846413612,-1.84552502632141,-1.16215002536774,-0.68901246786118,9.14700031280518,-6.24195051193237,-3.04500007629395,-14.5875005722046,4.06875038146973,-10.8562507629395,0.86505722999573,-0.09928930550814,-0.23001044988632,0.43464118242264,-2.9739875793457,-0.86143749952316,-0.55137497186661,28.207950592041,-32.9239501953125,-9.22395038604736,-14.5312509536743,4.08750009536743,-10.8000001907349,0.85288423299789,-0.0926805883646,-0.24111250042915,0.45372182130814,-1.77100002765656,-0.58244997262955,0.60486251115799,28.8640518188477,-49.4820022583008,-12.0019502639771,-14.5312509536743,4.01250028610229,-10.7625007629395,0.84451639652252,-0.09562188386917,-0.24483089148998,0.46659010648727,-0.94132500886917,-0.856625020504,1.20408749580383,25.4599514007568,-20.7850513458252,-15.3030004501343,-14.6062507629395,3.91875004768372,-10.7625007629395,0.83808755874634,-0.10545819252729,-0.24748639762402,0.47459274530411,-0.68035000562668,-0.96277499198914,1.40071249008179,17.2620010375977,2.07795000076294,-15.1740007400513,-14.7000007629395,3.78750014305115,-10.8187503814697,0.83196008205414,-0.11759665608406,-0.24989172816277,0.48121485114098,-0.68035000562668,-0.96277499198914,1.40071249008179,17.2620010375977,2.07795000076294,-15.1740007400513,-14.8125009536743,3.65625023841858,-10.8937501907349,0.82561868429184,-0.12971469759941,-0.25223788619041,0.48775398731232,-0.30057498812675,-1.03454995155334,1.63872504234314,3.53295016288757,7.18200016021729,-7.03605031967163,-14.8125009536743,3.65625023841858,-10.8937501907349,0.82002782821655,-0.14490805566311,-0.25343489646912,0.49226701259613,0.30167499184608,-1.07745003700256,2.06607508659363,-12.8580007553101,10.0099506378174,4.42200040817261,-14.8875007629395,3.58125019073486,-10.9875001907349,0.81643855571747,-0.16450886428356,-0.25213718414307,0.49273890256882,0.70757502317429,-1.55911254882812,2.84363746643066,-12.7330503463745,32.8939514160156,12.5200510025024,-14.8687505722046,3.60000014305115,-11.0437507629395,0.80822366476059,-0.21661159396172,-0.24752941727638,0.48844963312149,0.0,-1.69317495822906,2.35564994812012,-8.0110502243042,22.3720512390137,3.5269501209259,-14.7937507629395,3.73125004768372,-11.0250005722046,0.80030137300491,-0.23981094360352,-0.24942657351494,0.48968857526779,SHAKE
-0.00013749999925,-0.00013749999925,0.65766251087189,20.1540012359619,2.48895001411438,-13.3690509796143,-15.2812509536743,3.46875023841858,-11.0437507629395,0.52033889293671,-0.43073132634163,-0.33288678526878,0.65795475244522,-0.00013749999925,-0.00013749999925,0.65766251087189,20.1540012359619,2.48895001411438,-13.3690509796143,-15.3187503814697,3.43125009536743,-11.0625,0.51752066612244,-0.43377071619034,-0.32951954007149,0.65987288951874,0.43243750929832,-0.32807499170303,1.21316254138947,1.18605005741119,8.18100070953369,-2.23800015449524,-15.3937501907349,3.37500023841858,-11.1000003814697,0.51405894756317,-0.44239410758018,-0.3227342069149,0.66020709276199,0.43243750929832,-0.32807499170303,1.21316254138947,1.18605005741119,8.18100070953369,-2.23800015449524,-15.3937501907349,3.37500023841858,-11.1000003814697,0.51052963733673,-0.45095956325531,-0.31590583920479,0.66045325994492,0.87422502040863,-0.53872501850128,1.52253746986389,-9.31605052947998,9.95505046844482,5.93805027008057,-15.4875001907349,3.31875014305115,-11.1750001907349,0.50814509391785,-0.46308201551437,-0.30673229694366,0.65822404623032,1.48871254920959,-0.94283747673035,1.87302494049072,-11.1960000991821,19.6969509124756,10.6620006561279,-15.5250005722046,3.28125023841858,-11.1750001907349,0.50653791427612,-0.48034766316414,-0.29484114050865,0.65249836444855,1.64752495288849,-1.09835004806519,2.35248756408691,-7.32900047302246,23.752950668335,10.4920501708984,-15.5250005722046,3.28125023841858,-11.15625,0.50315022468567,-0.50063437223434,-0.28016969561577,0.64630478620529,1.64752495288849,-1.09835004806519,2.35248756408691,-7.32900047302246,23.752950668335,10.4920501708984,-15.5437507629395,3.31875014305115,-11.1750001907349,0.49944996833801,-0.52056592702866,-0.26532188057899,0.63966000080109,-0.59455001354217,-0.89595001935959,0.40136250853539,1.46400010585785,7.29900026321411,6.21795034408569,-15.5062503814697,3.37500023841858,-11.15625,0.48625400662422,-0.54160368442535,-0.26054257154465,0.63430279493332,-3.2181875705719,-0.53597497940063,-0.9509499669075,14.4319505691528,-6.96495056152344,-0.4420500099659,-15.4500007629395,3.45000004768372,-11.1000003814697,0.47216254472733,-0.53350824117661,-0.28247368335724,0.64237070083618,-2.90771245956421,0.30167499184608,-0.40053749084473,26.8320007324219,-32.0089530944824,-6.48495054244995,-15.4125003814697,3.48750019073486,-11.0437507629395,0.45894095301628,-0.52339363098144,-0.29668438434601,0.65376657247543,-2.90771245956421,0.30167499184608,-0.40053749084473,26.8320007324219,-32.0089530944824,-6.48495054244995,-15.4125003814697,3.45000004768372,-11.0062503814697,0.44542816281319,-0.51295459270477,-0.31071692705154,0.66477537155151,-1.49242496490479,0.0,0.55646252632141,20.0250015258789,-35.8399505615234,-7.94295024871826,-15.4687509536743,3.35625004768372,-10.96875,0.43471693992615,-0.5111842751503,-0.31443414092064,0.67144852876663,-0.94104999303818,-0.00013749999925,0.90873748064041,18.7050018310547,-11.4040508270264,-10.9240503311157,-15.4687509536743,3.35625004768372,-10.96875,0.42527034878731,-0.51210534572601,-0.31367829442024,0.67712569236755,-0.94971251487732,-0.00013749999925,0.76876246929169,7.65300035476685,3.15705013275146,-8.23095035552979,-15.5812501907349,3.22500014305115,-10.9875001907349,0.41605564951897,-0.51251989603043,-0.3135270178318,0.68258464336395,-1.22842502593994,0.0,0.39036250114441,-10.4700002670288,13.9530010223389,0.02895000204444,-15.6937503814697,3.11250019073486,-11.0250005722046,0.40712663531303,-0.51103049516678,-0.31677457690239,0.6875678896904,-1.60668754577637,0.0,-0.15881249308586,-12.8719501495361,36.2610015869141,8.00895023345947,-15.7687501907349,3.03750014305115,-11.0812501907349,0.39831858873367,-0.5066847205162,-0.32467216253281,0.69224333763123,-1.60668754577637,0.0,-0.15881249308586,-12.8719501495361,36.2610015869141,8.00895023345947,-15.7875003814697,3.01875019073486,-11.0812501907349,0.38942420482635,-0.50224357843399,-0.33250978589058,0.69680511951447,-1.78997504711151,0.18383750319481,-0.40727499127388,6.47100019454956,14.4970502853394,12.5940008163452,-15.6750001907349,3.07500004768372,-10.96875,0.37264001369476,-0.48837289214134,-0.35343769192696,0.70548790693283,-1.79052495956421,0.14753749966621,0.17063750326634,7.78500032424927,-29.4109516143799,5.33400011062622,-15.6750001907349,3.07500004768372,-10.96875,0.36192646622658,-0.48277679085732,-0.35965332388878,0.71174812316894,-1.42463743686676,0.35488748550415,1.49916243553162,15.1399507522583,-51.2929534912109,-0.41295000910759,-15.6187505722046,3.05625009536743,-10.8562507629395,0.34848541021347,-0.48092368245125,-0.35581064224243,0.72157418727875,0.0,-0.19607499241829,2.27548742294312,18.1740016937256,-25.7959518432617,-9.81600093841553,-15.6000003814697,2.96250009536743,-10.7437505722046,0.33852392435074,-0.48872062563896,-0.3430123925209,0.72725242376328,0.0,-0.19607499241829,2.27548742294312,18.1740016937256,-25.7959518432617,-9.81600093841553,-15.6187505722046,2.85000014305115,-10.6687507629395,0.32843598723412,-0.49633434414864,-0.33008068799973,0.732685983181,-0.83297497034073,-0.58052498102188,1.79299998283386,22.5550518035889,0.36600002646446,-20.6119518280029,-15.6750001907349,2.73750019073486,-10.6312503814697,0.31373971700668,-0.5025640130043,-0.3242644071579,0.73746138811111,-1.14509999752045,-0.8925125002861,1.6579749584198,10.0020008087158,4.29000043869019,-17.4919509887695,-15.6750001907349,2.73750019073486,-10.6312503814697,0.29667821526527,-0.50934314727783,-0.32127112150192,0.74117243289947,-0.96813750267029,-1.16297495365143,1.83686244487762,-2.6290500164032,6.57900047302246,-7.70205020904541,-15.7875003814697,2.60625004768372,-10.7062501907349,0.27910929918289,-0.51854461431503,-0.31699082255363,0.74345576763153,-1.10577499866486,-1.21811246871948,1.80124998092651,-11.6460008621216,21.340051651001,4.61100006103516,-15.9000005722046,2.49375009536743,-10.78125,0.26101258397102,-0.52758538722992,-0.31362456083298,0.7450944185257,-1.10577499866486,-1.21811246871948,1.80124998092651,-11.6460008621216,21.340051651001,4.61100006103516,-15.9750003814697,2.36250019073486,-10.8375005722046,0.24283917248249,-0.53636652231216,-0.31015357375145,0.74642133712769,-1.98962497711182,-1.16613745689392,2.00983738899231,-1.84905004501343,25.1419506072998,17.8090515136719,-16.03125,2.15625,-10.8375005722046,0.19670821726322,-0.54816603660583,-0.30950006842613,0.75168436765671,-1.97395002841949,-1.25826251506805,2.28029990196228,3.78405022621155,4.90995025634766,8.36505031585693,-16.03125,2.15625,-10.8375005722046,0.17090719938278,-0.55479526519775,-0.30641031265259,0.75439083576202,SHAKE
-1.81981253623962,1.25345003604889,-1.1643500328064,32.1880531311035,-8.35095024108887,1.36695003509521,-14.6625003814697,3.31875014305115,-9.80625057220459,-0.67099744081497,-0.51682579517365,-0.25410875678062,0.4669928252697,-0.86033749580383,1.02671253681183,-0.42583748698235,38.800952911377,-19.7329502105713,-8.37705039978027,-14.6437501907349,3.33750009536743,-9.76875019073486,-0.67010748386383,-0.51319938898087,-0.26504969596863,0.4661877155304,-0.86033749580383,1.02671253681183,-0.42583748698235,38.800952911377,-19.7329502105713,-8.37705039978027,-14.6812505722046,3.31875014305115,-9.80625057220459,-0.66912740468979,-0.50949859619141,-0.27595633268356,0.46532562375069,0.25671249628067,0.60238748788834,0.26441249251366,32.2879524230957,-16.8030014038086,-8.21895027160645,-14.7375001907349,3.28125023841858,-9.88125038146973,-0.66767394542694,-0.50610357522965,-0.27705642580986,0.47043642401695,0.66632497310638,0.16224999725819,0.27678748965263,24.1810512542725,-3.96195030212402,-2.19195008277893,-14.7750005722046,3.28125023841858,-9.90000057220459,-0.66560995578766,-0.50535482168198,-0.27397456765175,0.47593882679939,1.13616251945496,-0.23512500524521,0.32436248660088,10.6339502334595,-0.483000010252,1.93395006656647,-14.7750005722046,3.28125023841858,-9.90000057220459,-0.66268759965897,-0.50697940587997,-0.26654148101807,0.48246517777443,1.52913749217987,-0.00013749999925,1.02327501773834,-17.5139999389648,10.8619508743286,9.80700016021729,-14.6062507629395,3.52500009536743,-9.86250019073486,-0.6580690741539,-0.50187414884567,-0.24569262564182,0.50468057394028,0.85208749771118,0.53680002689362,1.33375000953674,-17.5139999389648,10.8619508743286,9.80700016021729,-14.3812503814697,3.75000023841858,-9.75,-0.65857619047165,-0.49380797147751,-0.23967614769936,0.51476830244064,-0.28545001149178,1.13300001621246,0.54381251335144,-21.0990009307861,16.7550010681152,4.65900039672852,-14.1562509536743,3.99375009536743,-9.63750076293945,-0.65942931175232,-0.48515993356705,-0.24499253928661,0.51937597990036,-0.80272501707077,1.15444993972778,-0.42886251211166,-19.8460502624512,19.8790512084961,-8.8410005569458,-14.1562509536743,3.99375009536743,-9.63750076293945,-0.65850901603699,-0.48060405254364,-0.25674206018448,0.5191040635109,-0.82486248016357,0.49156248569488,-1.21398746967316,-10.5370502471924,17.67405128479,-13.9459505081177,-14.0250005722046,4.20000028610229,-9.58125019073486,-0.65590691566467,-0.48308524489403,-0.268306016922,0.51422429084778,-0.85538750886917,0.0,-1.46753752231598,7.47405052185059,9.99105072021484,-6.88800048828125,-13.9312505722046,4.36875009536743,-9.58125019073486,-0.65342903137207,-0.48901164531708,-0.27818319201469,0.50647050142288,-0.85538750886917,0.0,-1.46753752231598,7.47405052185059,9.99105072021484,-6.88800048828125,-13.8562507629395,4.48125028610229,-9.58125019073486,-0.65082198381424,-0.49482980370522,-0.28799983859062,0.49862840771675,-0.86597502231598,0.19662499427795,-1.29126250743866,31.0890007019043,-10.0960502624512,0.65595000982285,-13.8750009536743,4.5,-9.60000038146973,-0.64831382036209,-0.49878245592117,-0.29787859320641,0.4921113550663,-0.16775000095367,0.50036251544952,-0.49926251173019,36.8950500488281,-48.2179527282715,3.57000017166138,-13.9312505722046,4.46250009536743,-9.63750076293945,-0.64541757106781,-0.49880427122116,-0.30323252081871,0.49262604117393,1.20243752002716,0.52758747339249,0.59812498092651,31.4550018310547,-33.5010032653809,2.41800022125244,-13.9312505722046,4.46250009536743,-9.63750076293945,-0.64132463932037,-0.49623534083366,-0.29849690198898,0.50334173440933,1.69441246986389,0.0,0.77261251211166,6.08295011520386,6.15705013275146,0.4570500254631,-14.0625009536743,4.36875009536743,-9.76875019073486,-0.63254237174988,-0.49360930919647,-0.27908161282539,0.52759230136871,1.69441246986389,0.0,0.77261251211166,6.08295011520386,6.15705013275146,0.4570500254631,-14.0250005722046,4.44375038146973,-9.78750038146973,-0.62791550159454,-0.4933243393898,-0.26879534125328,0.53861147165298,1.87921249866486,-0.27843749523163,0.84521251916885,-11.4070501327515,8.75505065917969,6.75600051879883,-13.8937501907349,4.59375,-9.75,-0.62313967943191,-0.4940918982029,-0.25601649284363,0.54956871271133,1.70266246795654,-0.21573749184609,0.9757000207901,-23.8230018615723,15.0019502639771,8.39205074310303,-13.7250003814697,4.81875038146973,-9.67500019073486,-0.61939668655395,-0.49337100982666,-0.24364583194256,0.55997282266617,0.72558748722076,0.0,0.36465001106262,-26.0550003051758,24.79905128479,-0.50400000810623,-13.7250003814697,4.81875038146973,-9.67500019073486,-0.61718457937241,-0.49273765087128,-0.23925973474979,0.56484282016754,0.0,-0.20405000448227,-0.67196249961853,-20.5980014801025,26.9970016479492,-11.752950668335,-13.5562505722046,5.02500009536743,-9.58125019073486,-0.61455881595612,-0.49692153930664,-0.24170963466167,0.5629945397377,-0.00013749999925,-0.58079999685287,-1.36042499542236,-13.9830007553101,15.2719507217407,-8.68800067901611,-13.4062509536743,5.21250009536743,-9.50625038146973,-0.60979682207108,-0.50633382797241,-0.2454529851675,0.55814599990845,-0.00013749999925,-0.58079999685287,-1.36042499542236,-13.9830007553101,15.2719507217407,-8.68800067901611,-13.3312501907349,5.34375,-9.46875,-0.60494560003281,-0.51566636562347,-0.2491637468338,0.55321478843689,-0.20295000076294,-0.59193748235703,-1.34475004673004,-1.41300010681152,-3.72495007514954,0.06000000238419,-13.3125009536743,5.36250019073486,-9.46875,-0.60101103782654,-0.5244135260582,-0.25337806344032,0.54733526706696,-0.49871250987053,-0.00013749999925,-1.08831250667572,25.0309505462646,-16.5229511260986,6.32295036315918,-13.3125009536743,5.30625009536743,-9.43125057220459,-0.59818279743195,-0.52863830327988,-0.26042604446411,0.54304438829422,1.25688743591309,0.00013749999925,0.42776250839233,37.9819526672363,-36.0889511108398,-1.20795011520386,-13.3500003814697,5.17500019073486,-9.41250038146973,-0.59162932634354,-0.53015613555908,-0.25746098160744,0.55011183023453,1.25688743591309,0.00013749999925,0.42776250839233,37.9819526672363,-36.0889511108398,-1.20795011520386,-13.4625005722046,5.00625038146973,-9.48750019073486,-0.58745086193085,-0.5304844379425,-0.24983704090118,0.55773574113846,2.26627492904663,-0.26152500510216,1.10811245441437,30.1669521331787,-12.517050743103,-10.5409507751465,-13.5375003814697,4.89375019073486,-9.54375076293945,-0.58211034536362,-0.53065878152847,-0.23324911296368,0.57021355628967,2.46977496147156,-0.53570002317429,1.1921249628067,16.7520008087158,-0.22995001077652,-9.78495025634766,-13.5750007629395,4.85625028610229,-9.54375076293945,-0.576520383358,-0.53191733360291,-0.2140416353941,0.58212924003601,SHAKE
-0.23485000431538,-0.22412499785423,-0.76725000143051,39.730052947998,-34.5520515441895,3.60795021057129,-13.5375003814697,4.29375028610229,-9.33750057220459,-0.51335179805756,-0.5055268406868,-0.0882805660367,0.6878365278244,0.73356246948242,-0.36437499523163,-0.30030000209808,37.8330001831055,-40.0819511413574,2.4300000667572,-13.5375003814697,4.29375028610229,-9.33750057220459,-0.50804233551025,-0.50917905569077,-0.0853229239583,0.68945604562759,0.73356246948242,-0.36437499523163,-0.30030000209808,37.8330001831055,-40.0819511413574,2.4300000667572,-13.6500005722046,4.05000019073486,-9.35625076293945,-0.50271582603455,-0.51279896497726,-0.08236698061228,0.69103533029556,2.04833745956421,-0.59399998188019,0.46846249699593,32.5369529724121,-13.7329502105713,-0.91605001688003,-13.7625007629395,3.84375023841858,-9.35625076293945,-0.49324771761894,-0.51546090841293,-0.0684222355485,0.69737017154694,1.87109994888306,-0.45539999008179,0.26592499017715,20.1370506286621,-0.22995001077652,-1.20600008964539,-13.8375005722046,3.73125004768372,-9.375,-0.48370581865311,-0.51795524358749,-0.05703162029386,0.70320576429367,1.68630003929138,-0.35296249389648,0.0,4.72995042800903,0.79200005531311,2.82300019264221,-13.8375005722046,3.69375014305115,-9.375,-0.47366034984589,-0.52070039510727,-0.04843376204371,0.708640396595,2.3368124961853,0.92661249637604,0.68131250143051,-19.8940505981445,20.3770503997803,10.2810001373291,-13.8000001907349,3.71250009536743,-9.33750057220459,-0.44884032011032,-0.51124495267868,-0.02358769997954,0.73253989219666,2.3368124961853,0.92661249637604,0.68131250143051,-19.8940505981445,20.3770503997803,10.2810001373291,-13.7250003814697,3.76875019073486,-9.26250076293945,-0.43680965900421,-0.50328248739243,-0.0133096370846,0.74547094106674,0.0,1.86051249504089,-0.55646252632141,-21.5820007324219,23.2930507659912,1.42905008792877,-13.6500005722046,3.84375023841858,-9.22500038146973,-0.43387880921364,-0.49359315633774,-0.02395992726088,0.75335317850113,-1.08872497081757,0.98793751001358,-1.94727504253387,-16.5400505065918,20.0419502258301,-12.4930505752563,-13.5937509536743,3.90000009536743,-9.20625019073486,-0.43223667144775,-0.49401593208313,-0.04472579061985,0.75307327508926,-1.20573747158051,-0.20006249845028,-2.36568737030029,-5.62005043029785,7.82895040512085,-12.7729501724243,-13.5937509536743,3.90000009536743,-9.20625019073486,-0.43009665608406,-0.50311994552612,-0.0643217638135,0.74682658910751,-0.84026247262955,-0.40562498569488,-1.97601246833801,13.771050453186,-6.22995042800903,-7.34505033493042,-13.5937509536743,3.88125014305115,-9.22500038146973,-0.42761823534965,-0.51214003562927,-0.07872161269188,0.74071472883224,-0.35859999060631,0.0,-1.67282497882843,34.2300033569336,-23.7510013580322,-3.46395015716553,-13.6875009536743,3.76875019073486,-9.28125,-0.4229202568531,-0.51766556501389,-0.09055791795254,0.73821419477463,-0.35859999060631,0.0,-1.67282497882843,34.2300033569336,-23.7510013580322,-3.46395015716553,-13.8000001907349,3.58125019073486,-9.33750057220459,-0.41813161969185,-0.52307188510895,-0.10237654298544,0.73558193445206,1.89708745479584,0.0,-0.21889999508858,30.9109516143799,-19.1299514770508,2.11199998855591,-13.9687509536743,3.15000009536743,-9.33750057220459,-0.4055683016777,-0.52521067857742,-0.09543804079294,0.74199718236923,1.89708745479584,0.0,-0.21889999508858,30.9109516143799,-19.1299514770508,2.11199998855591,-13.9687509536743,3.15000009536743,-9.33750057220459,-0.39293852448463,-0.52721834182739,-0.08847880363464,0.74820560216904,1.3194500207901,-0.49101248383522,-0.44701248407364,5.16795015335083,2.80305004119873,3.07605004310608,-14.0437507629395,3.0,-9.30000019073486,-0.36931571364403,-0.53541207313538,-0.07369730621576,0.75598186254501,0.88866251707077,-0.79983747005463,-0.63249999284744,-10.3219509124756,7.87395048141479,7.71405029296875,-14.0437507629395,2.92500019073486,-9.28125,-0.36091163754463,-0.54279959201813,-0.07158789038658,0.75497460365295,0.88866251707077,-0.79983747005463,-0.63249999284744,-10.3219509124756,7.87395048141479,7.71405029296875,-14.0062503814697,2.96250009536743,-9.24375057220459,-0.3524569272995,-0.55012369155884,-0.06947579234838,0.75386410951614,1.67598748207092,-0.4672249853611,0.0,-19.8870010375977,19.756950378418,11.3700008392334,-13.9125003814697,3.03750014305115,-9.16875076293945,-0.34172731637955,-0.55387359857559,-0.06077244505286,0.75680476427078,0.24983750283718,0.68970000743866,-0.2895750105381,-20.8350009918213,25.4980506896973,1.97700011730194,-13.8375005722046,3.13125014305115,-9.11250019073486,-0.33808302879334,-0.55037450790405,-0.06381388753653,0.76073360443115,-0.95246249437332,0.80245000123978,-1.30047500133514,-18.3450012207031,21.7900505065918,-11.1349506378174,-13.8375005722046,3.13125014305115,-9.11250019073486,-0.33744198083878,-0.54828500747681,-0.07915994524956,0.76108473539352,-0.93981248140335,0.00013749999925,-1.66594994068146,-9.14205074310303,5.63505029678345,-11.0989503860474,-13.8187503814697,3.16875004768372,-9.11250019073486,-0.33568269014358,-0.55214494466782,-0.09459782391787,0.75730067491531,-0.93981248140335,0.00013749999925,-1.66594994068146,-9.14205074310303,5.63505029678345,-11.0989503860474,-13.8375005722046,3.13125014305115,-9.13125038146973,-0.33383077383041,-0.5558477640152,-0.11000625044107,0.75331860780716,-0.83929997682571,-0.14464999735355,-1.49792504310608,10.1460008621216,-7.87905025482178,-5.79795026779175,-13.8937501907349,3.01875019073486,-9.16875076293945,-0.33288297057152,-0.55998009443283,-0.12297108769417,0.7486584186554,-0.4839999973774,0.31721249222755,-1.33141243457794,31.7419509887695,-25.900951385498,-3.98595023155212,-13.9875001907349,2.83125019073486,-9.20625019073486,-0.32989421486855,-0.56082689762116,-0.13449537754059,0.74736458063126,1.08336246013641,0.15193749964237,-0.58684998750687,31.6320018768311,-26.1360015869141,-5.17605018615723,-14.1187505722046,2.55000019073486,-9.20625019073486,-0.31389832496643,-0.56272435188294,-0.13932685554028,0.75192904472351,1.61947500705719,-0.00013749999925,-0.28338751196861,23.9680519104004,-3.37800025939941,-6.33900022506714,-14.2312507629395,2.32500004768372,-9.20625019073486,-0.30283322930336,-0.56523114442825,-0.13352531194687,0.7556300163269,1.61947500705719,-0.00013749999925,-0.28338751196861,23.9680519104004,-3.37800025939941,-6.33900022506714,-14.3250007629395,2.17500019073486,-9.20625019073486,-0.29173302650452,-0.5676366686821,-0.12769770622253,0.75919276475906,1.68698751926422,-0.40149998664856,-0.28448748588562,12.0300006866455,2.67405009269714,-0.70095002651215,-14.3812503814697,2.11875009536743,-9.28125,-0.28027954697609,-0.57255059480667,-0.12058793008327,0.76097810268402,SHAKE
-0.40163749456406,0.0,-1.06974995136261,34.9150505065918,-44.2579536437988,-7.51500034332275,-14.1750001907349,2.23125004768372,-9.09375,-0.2233018130064,-0.59885603189468,-0.11367320269346,0.76064836978912,-0.40163749456406,0.0,-1.06974995136261,34.9150505065918,-44.2579536437988,-7.51500034332275,-14.3062505722046,2.00625014305115,-9.13125038146973,-0.2207242846489,-0.60029411315918,-0.12267643213272,0.75886642932892,0.7178875207901,-0.00013749999925,-0.33151251077652,28.9819507598877,-37.47705078125,-8.01000022888184,-14.4562501907349,1.76250004768372,-9.1875,-0.21476510167122,-0.60148370265961,-0.12140603363514,0.75983816385269,1.5778124332428,-0.27348750829697,0.24832500517368,26.1300010681152,-6.41400051116943,-11.2140007019043,-14.5875005722046,1.55625009536743,-9.22500038146973,-0.20692470669746,-0.60425978899002,-0.11147502064705,0.76133149862289,1.49558746814728,-0.34622499346733,0.21092499792576,10.4119501113892,3.22005009651184,-5.61900043487549,-14.6625003814697,1.44375002384186,-9.24375057220459,-0.19928608834744,-0.60739278793335,-0.10209672152996,0.76219111680984,0.77701246738434,-0.56787496805191,-0.00013749999925,-8.43000030517578,7.34700012207031,4.77405023574829,-14.6625003814697,1.44375002384186,-9.24375057220459,-0.19432802498341,-0.61155652999878,-0.0975714251399,0.76073324680328,0.89113748073578,-0.83847498893738,0.0,-20.4949512481689,24.201000213623,15.8880004882812,-14.7000007629395,1.38750004768372,-9.26250076293945,-0.18885247409344,-0.61748552322388,-0.0920022726059,0.75801187753677,0.89113748073578,-0.83847498893738,0.0,-20.4949512481689,24.201000213623,15.8880004882812,-14.6625003814697,1.42500007152557,-9.22500038146973,-0.18335548043251,-0.62335765361786,-0.08642958849669,0.75520586967468,0.78017497062683,-0.33948749303818,0.0,-15.7500009536743,34.7839508056641,14.6550006866455,-14.5312509536743,1.51875007152557,-9.11250019073486,-0.17822390794754,-0.62597233057022,-0.08218428492546,0.75474542379379,-1.3087249994278,0.00013749999925,-1.10082495212555,2.95305013656616,1.2520500421524,-3.20505023002625,-14.3625001907349,1.63125002384186,-8.98125076293945,-0.182008638978,-0.6271048784256,-0.10738687217236,0.74972021579742,-0.4311999976635,-0.00013749999925,-0.37468749284744,24.4900512695312,-33.1680030822754,-8.79300022125244,-14.3625001907349,1.63125002384186,-8.98125076293945,-0.18294161558151,-0.62717270851135,-0.11221797019243,0.74872821569443,0.28874999284744,-0.56155002117157,0.21889999508858,18.7249507904053,-54.8770523071289,-17.6809501647949,-14.4187507629395,1.55625009536743,-8.98125076293945,-0.18287880718708,-0.63049471378326,-0.10880868136883,0.74645328521729,0.28874999284744,-0.56155002117157,0.21889999508858,18.7249507904053,-54.8770523071289,-17.6809501647949,-14.5125007629395,1.40625,-9.01875019073486,-0.18281039595604,-0.63379383087158,-0.10540039092302,0.74416160583496,0.0,-0.64968746900559,0.0,23.7169513702393,-16.1400012969971,-24.9190521240234,-14.6437501907349,1.23750007152557,-9.09375,-0.18400873243809,-0.63773840665817,-0.10459082573652,0.74060189723968,-0.16197499632835,-0.65284997224808,-0.17049999535084,13.9500007629395,7.02705049514771,-17.6329517364502,-14.7750005722046,1.08750009536743,-9.16875076293945,-0.18518355488777,-0.64181268215179,-0.10569742321968,0.73662179708481,0.15001249313355,-0.74882501363754,0.0,-3.39105010032654,9.82500076293945,-3.97905015945435,-14.8500003814697,0.97500002384186,-9.20625019073486,-0.18472282588482,-0.64643234014511,-0.10415826737881,0.73290777206421,-0.00013749999925,-0.71211248636246,-0.00013749999925,-17.7990016937256,22.4460010528564,10.7170505523682,-14.8500003814697,0.97500002384186,-9.20625019073486,-0.18485200405121,-0.65068942308426,-0.10340864211321,0.72920477390289,-0.00013749999925,-0.71211248636246,-0.00013749999925,-17.7990016937256,22.4460010528564,10.7170505523682,-14.8500003814697,0.93750005960465,-9.1875,-0.18497602641583,-0.654924929142,-0.10265862196684,0.7254781126976,-1.99485003948212,-0.69272500276566,-1.17548751831055,-12.4720506668091,35.8150520324707,22.6759510040283,-14.7937507629395,0.97500002384186,-9.13125038146973,-0.19067367911339,-0.65901207923889,-0.11984669417143,0.71762347221375,-2.23052501678467,-1.09711253643036,-1.67612504959106,2.96805024147034,1.41195011138916,7.23795032501221,-14.5687503814697,1.16250002384186,-8.96250057220459,-0.20206299424171,-0.67314255237579,-0.16618780791759,0.69168728590012,-2.5202374458313,-0.66838747262955,-1.00773751735687,18.8800506591797,-27.8380508422852,-0.70095002651215,-14.4750003814697,1.20000004768372,-8.88750076293945,-0.21153929829598,-0.67487210035324,-0.18521004915237,0.68227285146713,-1.65041244029999,-0.39613750576973,0.24750000238419,19.5120010375977,-44.9689521789551,-12.1020002365112,-14.4750003814697,1.20000004768372,-8.88750076293945,-0.2227828502655,-0.67389833927154,-0.19269333779812,0.6775678396225,-1.65041244029999,-0.39613750576973,0.24750000238419,19.5120010375977,-44.9689521789551,-12.1020002365112,-14.4750003814697,1.16250002384186,-8.85000038146973,-0.233972042799,-0.67277091741562,-0.20013462007046,0.672742664814,-1.55155003070831,-0.90873748064041,0.25025001168251,19.0090503692627,-18.8880004882812,-20.6950511932373,-14.5312509536743,1.06875002384186,-8.86875057220459,-0.24603518843651,-0.67448616027832,-0.20594000816345,0.66492384672165,-1.66484999656677,-1.01956248283386,0.00013749999925,16.3780498504639,5.82195043563843,-18.5359516143799,-14.6062507629395,0.99375003576279,-8.92500019073486,-0.25743797421455,-0.67702358961105,-0.21337081491947,0.65562003850937,-1.28191244602203,-0.85868752002716,0.27610000967979,7.20300054550171,11.0940008163452,-8.7049503326416,-14.6812505722046,0.90000003576279,-8.96250057220459,-0.2675998210907,-0.67862832546234,-0.21747310459614,0.64850550889969,-0.89691251516342,-0.59771251678467,0.40163749456406,-5.5290002822876,10.1850004196167,0.64095002412796,-14.6812505722046,0.90000003576279,-8.96250057220459,-0.27538484334946,-0.67916005849838,-0.21936745941639,0.64403629302979,-0.32065001130104,-0.37111249566078,0.66742497682571,-10.7940006256104,22.2469501495361,11.2309503555298,-14.7375001907349,0.78750002384186,-8.96250057220459,-0.28107914328575,-0.67889380455017,-0.21702490746975,0.64264911413193,-0.32065001130104,-0.37111249566078,0.66742497682571,-10.7940006256104,22.2469501495361,11.2309503555298,-14.7750005722046,0.69375002384186,-8.94375038146973,-0.28676295280456,-0.67859828472137,-0.21467210352421,0.64123886823654,0.0,0.0,0.89223748445511,-2.41605019569397,13.078950881958,12.9430503845215,-14.7187509536743,0.63750004768372,-8.73750019073486,-0.29467260837555,-0.67437052726746,-0.20290371775627,0.64592754840851,SHAKE
