gyro_x_0,gyro_y_0,gyro_z_0,acc_x_0,acc_y_0,acc_z_0,gyro_x_1,gyro_y_1,gyro_z_1,acc_x_1,acc_y_1,acc_z_1,gyro_x_2,gyro_y_2,gyro_z_2,acc_x_2,acc_y_2,acc_z_2,gyro_x_3,gyro_y_3,gyro_z_3,acc_x_3,acc_y_3,acc_z_3,gyro_x_4,gyro_y_4,gyro_z_4,acc_x_4,acc_y_4,acc_z_4,gyro_x_5,gyro_y_5,gyro_z_5,acc_x_5,acc_y_5,acc_z_5,gyro_x_6,gyro_y_6,gyro_z_6,acc_x_6,acc_y_6,acc_z_6,gyro_x_7,gyro_y_7,gyro_z_7,acc_x_7,acc_y_7,acc_z_7,gyro_x_8,gyro_y_8,gyro_z_8,acc_x_8,acc_y_8,acc_z_8,gyro_x_9,gyro_y_9,gyro_z_9,acc_x_9,acc_y_9,acc_z_9,gyro_x_10,gyro_y_10,gyro_z_10,acc_x_10,acc_y_10,acc_z_10,gyro_x_11,gyro_y_11,gyro_z_11,acc_x_11,acc_y_11,acc_z_11,gyro_x_12,gyro_y_12,gyro_z_12,acc_x_12,acc_y_12,acc_z_12,gyro_x_13,gyro_y_13,gyro_z_13,acc_x_13,acc_y_13,acc_z_13,gyro_x_14,gyro_y_14,gyro_z_14,acc_x_14,acc_y_14,acc_z_14,motion_type
-0.32216250896454,-0.39311251044273,-0.15358750522137,0.52318751811981,1.04733753204346,0.63676249980927,0.45484998822212,0.48771250247955,0.61366248130798,0.02103750035167,0.86281251907349,1.25138747692108,1.11333751678467,2.05150008201599,1.99168753623962,-0.03451250120997,-0.30195000767708,-0.82981246709824,-0.69781249761581,-1.76192498207092,-1.99897503852844,-1.90616250038147,-2.56588745117188,-2.64522504806519,-2.98361253738403,-2.75274991989136,-2.46565008163452,-2.69293737411499,-2.51570010185242,-1.89750003814697,0.75061249732971,0.88384997844696,0.86061251163483,-0.16926249861717,-2.23643755912781,-5.57287502288818,-9.83675003051758,-14.5023994445801,-16.0539493560791,-12.1665496826172,-9.07678699493408,-7.17818737030029,-4.24861240386963,-1.34942495822906,1.09766244888306,0.6730500459671,1.88295006752014,6.31995010375977,14.3580007553101,25.1710510253906,34.4010009765625,41.6920509338379,31.8619518280029,13.9960508346558,-10.2790508270264,-9.12795066833496,-16.7610015869141,-22.0159511566162,-22.3129501342773,-17.659049987793,2.9760000705719,3.08295011520386,2.86500024795532,1.41300010681152,-0.58905005455017,-5.17605018615723,-18.9259510040283,-38.8129501342773,-56.662052154541,-44.8720512390137,-35.2720527648926,-27.400951385498,-18.3199501037598,-11.0080509185791,-4.66605043411255,8.66295051574707,9.84495067596436,11.8450508117676,14.2069511413574,15.0280504226685,13.6969509124756,14.4439506530762,15.8770503997803,14.7550506591797,17.9280014038086,21.1819515228271,16.818000793457,14.7259502410889,16.2319507598877,10.0579500198364,SWING_RIGHT
-0.34292501211166,-0.37592500448227,-0.14506250619888,0.29961249232292,0.2727999985218,-0.78278750181198,-0.09501250088215,-0.03382499888539,0.45237499475479,-0.09253749996424,0.32037499547005,-0.12430000305176,-0.84631252288818,-0.24406249821186,0.86157500743866,-0.00027499999851,0.19401249289513,0.12319999933243,-0.17132499814034,-0.5157625079155,-1.1779625415802,-1.2696750164032,-1.03014993667603,-1.26953744888306,-2.21154999732971,-3.79981255531311,-3.55299997329712,-1.43701243400574,-1.85597503185272,-3.2181875705719,-0.13268749415874,-0.16568750143051,-0.02392499893904,0.67732501029968,1.50081253051758,1.4360499382019,-0.99274998903275,-4.25837516784668,-8.2130126953125,-11.7694501876831,-11.922212600708,-12.0515995025635,-11.6216373443604,-8.85321235656738,-5.29320001602173,0.52905005216599,0.03105000220239,-0.87900006771088,-2.45205020904541,-1.24800002574921,9.21300029754639,26.5759506225586,34.7860527038574,39.0049514770508,30.3660011291504,15.6880502700806,13.2450008392334,2.94105005264282,-8.55795001983643,-13.2049503326416,2.65305018424988,2.27205014228821,1.84605014324188,2.0179500579834,1.63305008411407,2.07300019264221,1.99695014953613,-0.45195001363754,-9.62895011901855,-26.1450004577637,-33.1609497070313,-36.0400505065918,-35.9680519104004,-26.6140518188477,-21.1080017089844,9.20595073699951,9.33795070648193,9.27105045318604,8.28705024719238,6.50895023345947,11.5990505218506,14.5470008850098,15.327000617981,14.8270511627197,13.231050491333,20.4690017700195,16.6120510101318,15.5539503097534,15.4440011978149,17.9689502716064,SWING_RIGHT
-0.42239999771118,-0.52621251344681,-0.70454996824265,-0.90612500905991,-0.91712498664856,-1.00154995918274,1.71187496185303,5.88046264648438,7.46253728866577,6.47418737411499,3.72171258926392,2.26655006408691,2.84322500228882,3.6287624835968,2.8359375,-0.06132499873638,-0.6318125128746,-0.79928749799728,-1.63006246089935,-2.92985010147095,2.90867495536804,5.33500003814697,2.41381239891052,0.55316251516342,-0.50242501497269,-0.50118750333786,1.02726244926453,1.64903748035431,1.369225025177,1.08459997177124,0.2924624979496,0.41098749637604,0.71527498960495,1.46038746833801,-0.72036248445511,-8.226487159729,-13.5287628173828,-17.8890247344971,-18.5267505645752,-16.5048122406006,-10.9423875808716,-3.17350006103516,1.95525002479553,3.24417495727539,2.78355002403259,-0.01800000108778,-0.62100005149841,-0.29295000433922,4.79295015335083,30.5359516143799,55.630054473877,44.017951965332,34.6900520324707,24.7450504302979,6.72405052185059,-12.6619510650635,-22.8700504302979,-15.5700006484985,-7.24500036239624,-3.38205027580261,1.78905010223389,1.62795007228851,1.35300004482269,1.68105006217957,5.35395002365112,-5.89200019836426,-24.445951461792,-46.9750518798828,-62.7469520568848,-62.2879524230957,-45.1470031738281,-29.8519515991211,-19.7899513244629,-10.9170007705688,-1.32300007343292,9.03600025177002,9.42900085449219,9.43605041503906,10.8090009689331,15.8610010147095,18.3330001831055,24.0090007781982,21.1080017089844,9.28695011138916,5.83200025558472,4.7310004234314,9.57405090332031,10.0410003662109,6.02805042266846,0.4240500330925,SWING_RIGHT
-1.06383752822876,-0.75831252336502,-0.16706250607967,0.17132499814034,-1.04541254043579,-2.03142499923706,-1.64532494544983,5.49436235427856,6.88215017318726,6.24084997177124,0.48661249876022,-1.56956243515015,1.20367503166199,3.00451254844666,3.24032497406006,0.02419999986887,-0.86157500743866,-1.43824994564056,-0.80533748865128,-0.06132499873638,2.85491251945496,2.79014992713928,2.95267486572266,-0.87986248731613,-3.11437487602234,-2.91280007362366,-1.1669625043869,-0.5047624707222,0.77797502279282,1.19088745117188,0.66756248474121,-0.20597499608994,-0.28173750638962,0.21917499601841,1.44581246376038,1.33704996109009,-4.31090021133423,-12.2715997695923,-19.5113868713379,-20.2811126708984,-17.7227878570557,-13.1671371459961,-7.17942476272583,-1.40690004825592,1.558149933815,4.89795017242432,6.088050365448,4.56300020217896,6.31695032119751,6.30105018615723,27.3679504394531,49.1100006103516,61.267951965332,54.5269508361816,34.3000526428223,23.7670516967773,5.78400039672852,-11.0880002975464,-15.2320508956909,-9.98895072937012,-0.45195001363754,-1.30395007133484,-1.06995010375977,0.13005000352859,1.84095013141632,-0.53400003910065,-8.14605045318604,-21.8119506835938,-51.4290008544922,-67.3320007324219,-61.7869529724121,-50.6490020751953,-39.9709510803223,-26.3920516967773,-16.1550006866455,9.03600025177002,10.5030002593994,10.0600500106812,8.73705005645752,10.3900508880615,11.0130004882813,30.9310512542725,29.6920509338379,13.5660009384155,4.75305032730103,-1.18500006198883,12.4600505828857,21.832950592041,15.0160503387451,9.4549503326416,SWING_RIGHT
-0.80726248025894,-1.15541243553162,-2.21347498893738,-2.77667498588562,-0.84878748655319,2.08944988250732,3.71304988861084,6.47047519683838,9.4379997253418,5.62141227722168,0.59166252613068,2.77722501754761,3.44437503814697,3.16580009460449,1.47730004787445,0.29782500863075,-0.32766249775887,-0.51823747158051,-0.82981246709824,-0.23485000431538,0.06077500060201,2.36623740196228,2.20123744010925,-0.78828752040863,-2.01368737220764,1.08212494850159,0.9013124704361,1.56227493286133,0.91973751783371,0.65944999456406,0.42322498559952,0.71637499332428,1.30047500133514,2.14706254005432,-0.96098750829697,-7.93938732147217,-16.2775249481201,-19.4955749511719,-19.9402503967285,-16.8139133453369,-9.6619873046875,0.85566252470016,5.9991250038147,6.92766237258911,5.0498251914978,-0.69495004415512,0.01200000010431,2.2350001335144,9.31800079345703,36.4060516357422,54.7309532165527,53.896053314209,34.4580001831055,19.7200508117676,-2.03295016288757,-26.2009506225586,-39.9100532531738,-18.3570003509521,-6.21795034408569,2.2020001411438,1.557000041008,1.34400010108948,1.46100008487701,-0.33795002102852,-3.40095019340515,-12.7660503387451,-38.8780517578125,-65.0440521240234,-78.3730545043945,-73.5180053710938,-49.4950523376465,-31.2490520477295,-20.5339508056641,-7.86795043945313,1.91595005989075,9.00495052337646,9.2629508972168,9.59805011749268,14.6350507736206,26.0500507354736,31.5510005950928,23.1040515899658,16.453950881958,11.0650501251221,-1.69005012512207,2.51805019378662,16.6410007476807,4.53000020980835,0.36900001764297,-3.51900005340576,SWING_RIGHT
-1.50851249694824,-0.89155000448227,-0.52497500181198,0.01003750041127,-0.36616250872612,2.05521249771118,4.40948724746704,7.24748754501343,6.81381225585938,2.32278752326965,1.53601253032684,1.55072498321533,1.09738755226135,0.52195000648499,-1.21288752555847,1.7907999753952,0.73149996995926,-1.49434995651245,-2.87251257896423,0.46158748865128,4.83532476425171,3.26782488822937,1.55251252651215,-0.62947499752045,0.6239749789238,0.10601250082254,0.68392497301102,0.36753749847412,0.48963749408722,0.14519999921322,0.59303748607635,0.3964124917984,1.35781252384186,1.8379625082016,-5.83192491531372,-10.6063375473022,-16.0271377563477,-17.6897869110107,-17.680025100708,-13.6068620681763,-3.77341246604919,3.45056247711182,5.36992502212524,5.79878759384155,5.00225019454956,1.31595003604889,0.40695002675056,-0.53205001354218,16.6330509185791,52.1560516357422,42.178050994873,41.5600509643555,23.3190002441406,11.6340007781982,-8.39595031738281,-37.6680030822754,-21.5280017852783,-11.193000793457,-5.3730001449585,0.04605000093579,0.59895002841949,0.34800001978874,1.10699999332428,1.17105007171631,-7.69095039367676,-19.0000514984131,-37.105052947998,-52.3189506530762,-66.9900054931641,-57.8770523071289,-33.8239517211914,-24.6229515075684,-13.2469511032104,-3.78105020523071,-0.74400001764297,10.1869506835938,12.1609506607056,12.8170509338379,14.6980504989624,20.4720001220703,24.0640506744385,16.381950378418,10.5910501480103,-0.63495004177094,-4.65495014190674,9.37800025939941,3.97995018959045,2.01300001144409,2.82600021362305,1.21605002880096,SWING_RIGHT
0.00027499999851,-0.00206249998882,0.07479999959469,-0.05706249922514,0.03327500075102,0.20679999887943,0.46090000867844,1.11210000514984,-0.33811250329018,0.54395002126694,2.87127494812012,1.62882494926453,-0.06572499871254,1.32467496395111,2.3900249004364,0.08277499675751,0.0314874984324,0.18782499432564,0.01196249946952,-0.4131875038147,-0.1553750038147,-0.89705002307892,-1.77540004253387,-1.9904500246048,0.5458750128746,0.96126252412796,-0.28984999656677,-0.0930875018239,-0.53776252269745,-0.18713749945164,0.24612499773502,0.2374625056982,0.29370000958443,0.29012501239777,0.5429875254631,0.90584999322891,1.58757495880127,-0.94998747110367,-7.72186231613159,-13.0424251556396,-15.2831249237061,-15.5970373153687,-13.8256244659424,-9.68398761749268,-3.91875004768372,1.7370001077652,1.66605007648468,1.49595010280609,1.63200008869171,1.74705004692078,3.75195026397705,8.17005062103271,30.6079521179199,52.9819526672363,44.2120513916016,24.9370517730713,10.3900508880615,-2.78205013275146,-14.5930509567261,-20.9460010528564,0.70500004291534,0.70200002193451,0.5830500125885,0.70005005598068,1.35600006580353,1.28895008563995,2.76705002784729,3.42105007171631,-13.4320507049561,-17.953950881958,-30.2320518493652,-42.1990509033203,-44.1109504699707,-33.3649520874023,-21.8640003204346,9.28995037078857,9.49605083465576,9.55305004119873,9.39705085754395,10.6780500411987,10.1779508590698,11.8429508209229,13.6710004806519,10.8090009689331,21.7930507659912,14.0560503005981,5.31495046615601,4.33605003356934,11.6659507751465,6.96900033950806,SWING_RIGHT
-0.24158750474453,-0.55068749189377,-0.58121252059937,1.47124993801117,2.42659997940063,3.07656240463257,2.25321245193481,2.58912491798401,0.38513749837875,1.86216247081757,5.35755014419556,3.99410009384155,0.40590000152588,-0.70221251249313,-0.17929999530315,0.3075875043869,0.29906249046326,-1.73387503623962,-3.41618752479553,-2.28854990005493,-1.02643752098084,-1.75339996814728,-0.49142500758171,2.32223749160767,2.00708746910095,-0.59152501821518,-1.88045001029968,-0.29713749885559,0.00096249999478,-0.79557502269745,0.82266247272491,-0.1522125005722,0.1055999994278,-1.05627501010895,-2.81558752059937,-6.6884126663208,-9.64493751525879,-11.9649753570557,-13.9966745376587,-10.0651378631592,-5.97973728179932,-2.67382502555847,1.71214997768402,3.9869499206543,3.71566247940063,-1.52295005321503,0.36405003070831,3.22605013847351,20.3850002288818,32.9170532226563,37.4899520874023,28.4659519195557,22.9219512939453,15.2760009765625,-10.9300508499146,-9.903000831604,-19.6710014343262,-23.0590515136719,-16.1890506744385,-9.00600051879883,2.82195019721985,3.1600501537323,4.73400020599365,6.48405027389526,10.2690000534058,3.21195006370544,-7.3609504699707,-22.5960006713867,-41.2350006103516,-41.0359535217285,-36.1039505004883,-25.0279502868652,-13.068000793457,-6.55005025863647,-0.61305004358292,8.02905082702637,9.9859504699707,15.199951171875,21.586950302124,21.4980010986328,19.0290012359619,21.0960006713867,20.5819511413574,3.39795017242432,11.4409503936768,5.43000030517578,-4.56704998016357,-5.83500051498413,2.36505007743835,5.21895027160645,SWING_RIGHT
-0.80726248025894,-0.34540000557899,0.62823748588562,2.09797501564026,1.28548753261566,-0.98312497138977,-1.35451245307922,0.80423748493195,3.83776259422302,3.9916250705719,2.11873745918274,1.83892500400543,0.77123749256134,-0.76326251029968,-2.03376245498657,-1.61287498474121,-0.07603749632835,-1.19143748283386,-1.05462503433228,1.11031246185303,1.11031246185303,2.69362497329712,4.23046255111694,3.31663751602173,0.23058749735355,-1.3857250213623,0.2428250014782,1.42065000534058,0.15001249313354,-0.50366252660751,-1.20037496089935,-0.72393751144409,-0.24378749728203,-3.06226253509521,-4.86928749084473,-8.65040016174316,-12.3534126281738,-14.3948745727539,-13.8341503143311,-11.5079250335693,-6.37188768386841,1.09889996051788,5.17934989929199,6.26174974441528,4.8347749710083,4.03695011138916,3.75195026397705,11.5720500946045,25.7980518341064,31.5390014648438,36.0900001525879,33.8650512695313,22.1149501800537,10.2150001525879,0.16305001080036,-19.1539516448975,-25.9620018005371,-14.4829511642456,-6.38295030593872,2.00805020332336,1.22400009632111,2.38905000686646,3.23400020599365,5.75895023345947,5.47905015945435,-3.70695018768311,-18.4999504089355,-34.8619499206543,-46.8990020751953,-47.7390022277832,-34.6260032653809,-23.109001159668,-15.0900011062622,-7.57095050811768,-3.02505016326904,10.6900501251221,13.4170503616333,16.453950881958,15.2740507125854,8.20305061340332,6.76800012588501,10.0219507217407,9.24705028533936,6.38700008392334,0.16605000197887,1.62300002574921,4.37505006790161,2.44605016708374,2.91495013237,4.68300008773804,SWING_RIGHT
-0.03506249934435,0.15784999728203,-0.02172499895096,-0.13406249880791,-0.3075875043869,-0.32339999079704,-0.61173748970032,1.1279125213623,0.82376247644424,-1.01131248474121,1.63253748416901,4.81139993667603,4.31048727035522,2.76993751525879,1.25372505187988,-0.03079999983311,0.0082499999553,0.00467499997467,0.16101250052452,-0.74428749084473,-2.3203125,-2.26407504081726,-1.8156875371933,0.21477499604225,4.36246252059937,4.60432481765747,2.49810004234314,1.70898747444153,0.42487499117851,-0.50352501869202,0.22769999504089,0.11164999753237,0.26565000414848,-0.30002498626709,0.35846251249313,1.20518743991852,1.35781252384186,-1.74047493934631,-9.75727462768555,-13.659387588501,-15.4724626541138,-14.3411121368408,-11.1879625320435,-7.12456226348877,-2.32691240310669,1.19895005226135,0.55500000715256,-0.16395001113415,0.47205001115799,-3.72000026702881,2.15400004386902,14.496000289917,43.8259506225586,55.0900535583496,42.8119506835938,31.1560516357422,17.3989505767822,2.88795018196106,-9.09705066680908,-15.3589506149292,1.91805005073547,2.05695009231567,2.34405016899109,0.56595003604889,2.31495022773743,2.9800500869751,8.61795043945313,13.2270002365112,4.15500020980835,-15.5419511795044,-34.2360000610352,-46.6810531616211,-42.5080528259277,-32.9460029602051,-24.5730018615723,10.5030002593994,9.21795082092285,9.32595062255859,8.60100078582764,9.61500072479248,9.57705020904541,11.9080505371094,19.7250003814697,11.9460000991821,9.92400074005127,18.3799514770508,8.17005062103271,1.09395003318787,-0.23295001685619,0.04395000264049,SWING_RIGHT
-0.09858749806881,-0.01072499994189,-0.06324999779463,0.01003750041127,-0.10835000127554,-0.04482499882579,0.28503748774529,0.62823748588562,2.10897493362427,0.56718748807907,-0.69121247529984,1.29043745994568,4.53653764724731,5.76069974899292,4.02215003967285,0.06696250289679,0.06077500060201,0.01196249946952,-0.11879999935627,0.0314874984324,-0.09184999763966,-0.93981248140335,-2.18707489967346,-1.75339996814728,2.36004996299744,5.37776231765747,6.15477514266968,5.54015016555786,1.04926252365112,1.14688754081726,0.14341250061989,-0.02021249942482,-0.05568749830127,-0.09473749995232,-0.11921250075102,0.00302499998361,0.54051250219345,0.1544124931097,-6.28636264801025,-11.5825872421265,-15.3966999053955,-16.3167133331299,-13.2599496841431,-7.8171501159668,-4.42571258544922,1.0200001001358,1.5700501203537,1.45695006847382,1.63200008869171,1.83105003833771,2.050950050354,4.12800025939941,18.3349514007568,44.1970520019531,42.1750526428223,33.75,24.0630016326904,5.16600036621094,0.28695002198219,-3.65505027770996,0.85995006561279,0.75705003738403,1.37205004692078,1.66695010662079,1.95105004310608,2.67195010185242,5.56500005722046,7.35000038146973,0.28095000982285,-7.81800031661987,-21.0340518951416,-32.5699501037598,-35.7070503234863,-33.7950019836426,-30.211051940918,9.79905033111572,9.82605075836182,9.54795074462891,9.77805042266846,9.4480504989624,10.8450002670288,13.3219509124756,17.9190006256104,21.5340003967285,11.2710008621216,9.20595073699951,9.83295059204102,6.95205020904541,4.27695035934448,-4.14105033874512,SWING_RIGHT
-0.56773751974106,-0.84754997491837,-1.70280003547668,-2.43210005760193,-0.51163750886917,2.61717510223389,3.85728740692139,5.46988725662231,6.07956266403198,6.0526123046875,5.09245014190674,4.22867488861084,3.13280010223389,1.26362502574921,-0.63126248121262,0.04977500066161,0.06324999779463,-0.51218748092651,-2.83827495574951,-1.23777496814728,4.33922481536865,4.41993761062622,5.55362510681152,6.71797513961792,4.5885124206543,2.47005009651184,1.67598748207092,-1.10220003128052,0.50792497396469,0.93307501077652,1.10000002384186,2.52821254730225,5.40168762207031,5.2453498840332,-2.72387504577637,-6.49660015106201,-12.0785503387451,-15.821849822998,-16.1346626281738,-14.1872501373291,-11.8354501724243,-9.48117542266846,-2.54306244850159,4.62467479705811,7.36614990234375,-0.37500002980232,-3.17895007133484,-3.58800005912781,13.6399507522583,46.5900039672852,38.5159530639648,48.9450035095215,34.992000579834,26.7289505004883,10.2870006561279,4.00305032730103,-2.74095010757446,-25.3780517578125,-19.9099502563477,-10.5229501724243,0.5830500125885,3.02595019340515,1.50600004196167,-4.6210503578186,-9.46905040740967,-12.3210010528564,-30.1960506439209,-43.0489501953125,-53.6179542541504,-52.7640037536621,-46.1950531005859,-43.6129531860352,-29.1510009765625,-20.4949512481689,-14.6710510253906,9.16499996185303,8.79705047607422,8.59305000305176,10.921950340271,22.9390506744385,23.5440006256104,16.8199501037598,11.5990505218506,-1.42005002498627,-2.43495011329651,-3.50205016136169,-3.38895010948181,-0.87405002117157,-3.60000014305115,-0.8029500246048,SWING_RIGHT
-0.25863748788834,-0.57268750667572,-0.81083750724792,0.32161250710487,1.15610003471375,0.60623747110367,0.29356250166893,3.6007125377655,7.87421226501465,7.82539987564087,2.50112509727478,-0.1095874980092,-0.69121247529984,-0.66426247358322,-1.49874997138977,-0.00508749997243,-0.21037499606609,-0.60128748416901,-0.63552498817444,-0.26661249995232,2.47005009651184,5.09066247940063,4.59332513809204,4.60927486419678,1.76151251792908,0.54216247797012,0.98078751564026,0.39930000901222,1.37417495250702,0.37235000729561,0.07741250097752,0.32174998521805,0.84108752012253,0.59798747301102,-3.18326258659363,-10.1763753890991,-14.6148748397827,-17.054536819458,-16.8749618530273,-12.4047002792358,-3.53017497062683,5.87454986572266,8.62207508087158,8.15292453765869,6.50484991073608,0.68505001068115,0.06495000422001,2.44305014610291,15.8389511108398,37.1089515686035,55.0800018310547,38.9779510498047,40.7389526367188,20.2939510345459,-3.12900018692017,-32.5500030517578,-26.4570007324219,-10.0710000991821,-0.98505002260208,0.58905005455017,0.63105005025864,0.93405002355576,1.72905004024506,3.64605021476746,8.56305027008057,-0.16095000505447,-21.4909515380859,-50.6580009460449,-69.8659515380859,-66.340950012207,-40.9549522399902,-25.0060520172119,-15.0949506759644,-7.13595056533813,-1.66995012760162,8.94495010375977,9.05505084991455,11.7829504013062,17.4259510040283,19.4119510650635,16.3339500427246,14.9200506210327,16.1650505065918,5.18805027008057,-6.639000415802,-9.76905059814453,-1.67400002479553,1.97700011730194,3.39405012130737,6.45705032348633,SWING_RIGHT
-0.21463750302792,-0.17434999346733,-0.18287499248981,0.5378999710083,2.59888744354248,3.15603756904602,0.78347498178482,-2.40762495994568,-1.2531750202179,2.16768741607666,4.56582498550415,3.62628746032715,1.08886253833771,-0.57516247034073,-1.58179998397827,-0.2909500002861,-0.64281249046326,-0.29342499375343,-0.45471251010895,-1.18414998054504,-1.66787493228912,-1.0228625535965,2.7913875579834,5.31052494049072,4.16459989547729,1.79203748703003,0.26234999299049,0.32958748936653,-0.56099998950958,-0.37894999980927,0.87642496824265,1.40909993648529,0.94489997625351,0.28888750076294,-2.71163749694824,-7.86733722686768,-12.8420877456665,-16.1467628479004,-16.337474822998,-12.9716119766235,-8.02614974975586,-1.81252503395081,4.24352502822876,6.31427478790283,5.7902626991272,-0.49395000934601,0.93105006217957,7.22400045394897,13.0129508972168,32.0340003967285,39.1270523071289,45.7500038146973,38.7990036010742,25.3650016784668,5.63505029678345,-7.71105051040649,-21.0589504241943,-18.2520008087158,-8.1870002746582,-2.24295020103455,0.43395000696182,1.91295003890991,4.20795011520386,9.95805072784424,11.8870506286621,8.30205059051514,-4.85805034637451,-27.8230514526367,-46.4539527893066,-50.0070037841797,-42.9739532470703,-30.8710517883301,-20.0860500335693,-12.9240007400513,-7.7029504776001,9.28695011138916,10.1920509338379,11.0989503860474,16.1530513763428,20.496000289917,14.5489511489868,9.13695049285889,5.22705030441284,9.05805015563965,6.67905044555664,1.64205002784729,-5.17005014419556,-4.5930004119873,-0.81195002794266,2.40300011634827,SWING_RIGHT
-0.38692501187325,-0.20982499420643,0.67718750238419,1.74006247520447,2.60493755340576,1.52006244659424,-2.59943747520447,-1.66361248493195,2.34960007667542,5.66046237945557,4.3935375213623,1.47977495193481,0.40108749270439,0.53913748264313,0.0662750005722,-0.78828752040863,-0.59894996881485,-0.6318125128746,-0.67952501773834,-2.60493755340576,-1.33677494525909,3.94831252098084,6.25734996795654,5.78696250915527,3.71621251106262,1.62222504615784,0.49582499265671,-0.24337500333786,-0.34471249580383,-0.09679999947548,0.52456247806549,0.42198750376701,0.4794625043869,-0.80465000867844,-3.58641242980957,-11.2807750701904,-14.83473777771,-17.793737411499,-16.5805740356445,-10.2434749603271,-4.73123741149902,0.08841250091791,4.99482488632202,7.2098126411438,6.65266227722168,2.37405014038086,4.11405038833618,7.34595012664795,17.8750514984131,34.8000030517578,49.0330505371094,38.1910514831543,26.1379508972168,12.7849502563477,-7.54095029830933,-9.76005077362061,-17.053050994873,-16.1650505065918,-7.88595056533813,-0.98700004816055,1.27695000171661,1.1380500793457,2.44695019721985,5.31105041503906,7.44600057601929,-4.08494997024536,-20.4190502166748,-39.847053527832,-52.8670539855957,-43.1869506835938,-35.4490509033203,-24.9319515228271,-16.420051574707,-10.8709506988525,-7.94505023956299,11.2849502563477,12.6370506286621,14.5519504547119,13.8390007019043,18.1319999694824,10.0960502624512,2.45100021362305,9.58605003356934,7.99005031585693,4.71705007553101,-5.02395009994507,-6.64395046234131,-1.15905010700226,1.125,0.05805000290275,SWING_RIGHT
0.2910875082016,0.71747499704361,1.65577495098114,1.05338752269745,-0.09748750180006,-1.18593752384186,-2.32952499389648,-0.30016249418259,3.67028737068176,5.06068754196167,1.97697496414185,0.43642500042915,0.07603749632835,-0.02172499895096,0.56966251134872,0.0082499999553,-0.53776252269745,-1.25372505187988,-0.21408750116825,-0.24818749725819,0.22701250016689,3.99231243133545,5.80415010452271,3.50734996795654,1.82503747940063,-0.30689999461174,-0.76876246929169,-1.04843747615814,-0.14561249315739,-0.79804998636246,0.78361248970032,1.2722874879837,0.21670000255108,-2.43924999237061,-8.46106243133545,-15.051025390625,-18.2017002105713,-18.461986541748,-15.3832244873047,-6.5931248664856,3.00464987754822,6.00269985198975,4.13723754882813,1.74143743515015,-0.34154999256134,3.24300026893616,4.6710000038147,16.4710502624512,30.7369518280029,48.6049537658691,47.3130035400391,36.1330528259277,24.5200519561768,12.3139505386353,-25.5360012054443,-28.5990009307861,-6.8779501914978,6.15000009536743,3.65895009040833,0.87105005979538,0.93195003271103,1.94700014591217,4.33200025558472,5.04300022125244,-0.20400001108646,-16.3219509124756,-34.7670021057129,-48.9660034179688,-62.0029525756836,-46.1689529418945,-28.3660507202148,-12.3690004348755,2.10195016860962,5.42100048065186,3.91395020484924,11.9170503616333,13.0129508972168,12.8620510101318,7.52400016784668,7.03995037078857,7.94295024871826,4.31205034255981,8.21295070648193,8.57895088195801,-1.43205010890961,-8.03400039672852,1.48395001888275,4.3840503692627,9.69195079803467,10.4650506973267,SWING_RIGHT
-0.27706250548363,-0.87436246871948,-2.24276256561279,-4.48827505111694,-0.72297501564026,5.73622512817383,3.77533745765686,0.33989998698235,2.80169987678528,5.59569978713989,4.81139993667603,1.23296248912811,0.76023751497269,0.72847497463226,-0.35763749480247,0.20129999518394,0.50916248559952,1.42065000534058,2.23795008659363,-2.84556245803833,-3.40642499923706,1.05407500267029,6.03253746032715,5.78819990158081,3.49511241912842,-0.40947499871254,-0.38513749837875,-0.95933747291565,-1.16820001602173,-0.77109998464584,-0.14726249873638,-0.17297500371933,-0.04344999790192,0.49651250243187,0.36946249008179,-6.07144975662231,-12.667462348938,-15.719274520874,-17.2573490142822,-14.9995994567871,-10.881199836731,-4.29261255264282,2.73597502708435,5.08406257629395,4.00647497177124,1.97700011730194,0.66495001316071,0.57000005245209,1.3900500535965,16.7239513397217,45.2790031433105,49.9780540466309,34.972053527832,31.4550018310547,12.2299509048462,-2.90100002288818,-20.7000007629395,-21.6640510559082,-9.71895027160645,0.16005000472069,1.81005012989044,1.73805010318756,1.45800006389618,0.12105000764132,2.7240002155304,-1.56000006198883,-11.1730508804321,-27.4590015411377,-48.2050514221191,-52.8019523620605,-47.3059539794922,-35.4580535888672,-24.6349506378174,-12.9169502258301,-3.7020001411438,8.37600040435791,8.4330005645752,6.64605045318604,9.64395046234131,36.8580017089844,34.9540519714355,9.38505077362061,1.17105007171631,5.61900043487549,0.4650000333786,-4.72695016860962,-5.23695039749146,2.95305013656616,3.21405005455017,3.06795024871826,SWING_RIGHT
-0.169537499547,-0.1095874980092,0.11508750170469,-0.40768748521805,-0.7070249915123,0.08951249718666,0.27761250734329,2.1041624546051,4.09186267852783,1.6275874376297,-0.5654000043869,1.71434998512268,5.26583766937256,5.36483764648438,2.05273747444153,-0.02103750035167,-0.24942499399185,-0.81152498722076,-1.65811252593994,-2.38988757133484,-1.19391250610352,-0.53171247243881,-0.01374999992549,2.2404248714447,1.73951244354248,3.86526250839233,3.9397873878479,1.07126247882843,-1.09738755226135,-1.46506249904633,-0.06063750013709,0.06764999777079,0.08841250091791,-0.17297500371933,-0.01663750037551,0.26688748598099,-0.60060000419617,-5.46782493591309,-10.953387260437,-14.7454996109009,-15.6520376205444,-13.8231496810913,-7.6987624168396,-3.25778746604919,0.11536250263453,1.12200009822845,0.89700001478195,1.97700011730194,2.52000021934509,3.69705009460449,7.75995016098022,18.8899517059326,38.5279502868652,46.7980537414551,33.5869522094727,20.5030517578125,8.91900062561035,-11.5159502029419,-8.35004997253418,-15.9949502944946,1.33605003356934,1.24095010757446,1.0440000295639,0.89400005340576,0.93405002355576,0.75000005960464,4.54800033569336,8.27595043182373,0.44400003552437,-10.6819505691528,-30.5500507354736,-44.1589508056641,-33.4240531921387,-31.0030517578125,-16.4970016479492,8.99505043029785,10.0150508880615,9.45705032348633,7.55700016021729,9.28995037078857,10.5630006790161,12.867000579834,20.1439514160156,16.0540504455566,7.68900012969971,7.34400033950806,11.6850004196167,8.26995086669922,-1.24800002574921,-6.54105043411255,SWING_RIGHT
0.0417999997735,-0.28558748960495,-0.41868749260902,-0.47740000486374,-0.33439999818802,0.54147499799728,2.00021243095398,2.57317495346069,0.2080374956131,-0.92702502012253,1.35891246795654,3.50666236877441,2.46812510490417,1.25496244430542,1.09133744239807,-0.16761249303818,0.12430000305176,0.07919999957085,0.11096250265837,-0.7345250248909,-1.03620004653931,-2.42288756370544,-2.2005500793457,1.86284995079041,3.01496243476868,4.06188726425171,0.82678747177124,-0.57805001735687,-0.4657124876976,0.37963750958443,0.10312499850988,0.1409374922514,0.43051248788834,0.28146249055862,0.1385999917984,0.05431250110269,-1.54123747348785,-7.04879999160767,-12.2336502075195,-16.8394870758057,-16.3777618408203,-12.2068376541138,-7.09761238098145,-1.09051251411438,3.6643750667572,1.3950001001358,0.63405001163483,0.55305004119873,1.91895008087158,3.12000012397766,6.85605049133301,21.4909515380859,41.2950019836426,44.8650016784668,35.0710525512695,19.5240001678467,-0.08700000494719,-9.52995014190674,-19.7640018463135,-14.3370008468628,1.65495002269745,1.99005007743835,2.36100006103516,2.41305017471313,3.18900012969971,4.73895025253296,8.4460506439209,8.62800025939941,0.85995006561279,-21.5719509124756,-39.6600036621094,-38.2390518188477,-35.5039520263672,-25.8079509735107,-15.9079504013062,9.78299999237061,8.69895076751709,9.41895008087158,9.92100048065186,11.7930002212524,14.8530006408691,20.826000213623,16.2750015258789,6.37305021286011,7.53600025177002,7.71300029754639,7.171950340271,0.05100000277162,3.42000007629395,4.77195024490356,SWING_RIGHT
-0.30511251091957,-0.22563749551773,-0.07658749818802,-1.41803753376007,-1.05036246776581,-1.93242502212524,0.67347496747971,3.72528743743896,3.45771241188049,2.5500750541687,2.13592505455017,1.84882497787476,1.42243754863739,0.64542502164841,-0.15111249685287,-0.03327500075102,0.47382500767708,1.01750004291534,0.70840001106262,-0.40823748707771,1.36193752288818,3.29958748817444,2.00818753242493,2.17689990997314,0.28682500123978,0.35653749108315,-0.18713749945164,-0.10161250084639,-0.02461249940097,-0.24213749170303,0.58079999685287,0.24241249263287,-0.43807500600815,-0.21944999694824,-3.06226253509521,-9.3333625793457,-14.4168748855591,-17.3098754882813,-17.5566883087158,-13.6545753479004,-8.84344959259033,-2.51748752593994,2.35839986801147,4.29852485656738,4.08347511291504,4.36695003509521,5.12295007705688,7.20795011520386,9.90705013275146,36.8610000610352,52.8120040893555,46.618953704834,34.9150505065918,18.9760513305664,1.41195011138916,-10.0540504455566,-19.2589511871338,-14.4589509963989,-9.30705070495605,-2.27205014228821,1.73805010318756,1.65000009536743,3.04695010185242,3.61005020141602,3.01605010032654,-8.39505004882813,-22.4700012207031,-37.6099510192871,-60.6010513305664,-51.985954284668,-39.8610000610352,-25.6210517883301,-16.4160003662109,-7.00395011901855,-3.0990002155304,10.4959506988525,10.7730007171631,9.62505054473877,8.05695056915283,15.0370502471924,12.5080509185791,24.2599506378174,14.1619510650635,-0.18795001506805,-0.41295000910759,1.92900013923645,4.51095008850098,3.04695010185242,3.67605018615723,4.74600028991699,SWING_RIGHT
-0.09501250088215,-0.20487499237061,-0.43587499856949,0.59894996881485,-0.17077499628067,1.36372494697571,2.90303754806519,0.44742500782013,-3.43997502326965,-0.6434999704361,3.66299986839294,3.30261254310608,0.98862498998642,0.40342500805855,0.04675000160933,-0.56099998950958,-0.47423750162125,-1.15225005149841,-2.41188740730286,0.0449624992907,-1.39053750038147,-1.08515000343323,-0.51947498321533,1.68932497501373,0.58368748426437,-2.52917504310608,-0.34718748927116,-0.02103750035167,-0.15413749217987,-0.08332499861717,-0.35502499341965,-0.55536252260208,-0.0299750007689,-0.67760002613068,-2.2034375667572,-6.5344123840332,-14.0492000579834,-17.7094497680664,-18.7233753204346,-14.6661624908447,-8.54287528991699,-0.91451251506805,3.58984994888306,4.70896244049072,3.02060008049011,3.19695019721985,3.70005011558533,3.99195027351379,17.4319515228271,26.4030017852783,46.8990020751953,47.0470504760742,34.8379516601563,22.1029510498047,-0.69300001859665,-17.9530506134033,-19.5919513702393,-12.9949502944946,-4.17000007629395,3.19005012512207,0.82005006074905,1.21395003795624,2.49705004692078,3.07395005226135,0.9300000667572,1.03995001316071,-17.7100505828857,-37.0969505310059,-60.868953704834,-54.846004486084,-38.0590515136719,-23.9680519104004,-11.8810501098633,-4.28805017471313,2.03805017471313,10.0030508041382,9.17700004577637,11.90505027771,16.2670516967773,12.5730009078979,26.7460517883301,15.0139503479004,3.25695013999939,-5.53095006942749,10.4599504470825,11.1970500946045,3.72405028343201,4.99395036697388,7.06905031204224,6.47805023193359,SWING_RIGHT
-0.03506249934435,0.34966251254082,0.13598750531673,-0.34058749675751,0.22632500529289,3.14008736610413,0.44013750553131,-1.58427500724792,3.39666247367859,5.63722515106201,4.5132999420166,3.44313740730286,2.70888757705688,1.63253748416901,0.65876251459122,-0.40947499871254,-0.24461250007153,-0.35694998502731,-0.08208750188351,-0.98491251468658,-2.42659997940063,0.60692501068115,6.40268754959106,3.9030749797821,2.10842490196228,0.71321249008179,-0.27018749713898,-0.70276248455048,-0.29589998722076,0.20982499420643,0.90584999322891,1.19528746604919,1.42752504348755,1.30776250362396,-0.98175001144409,-6.20207500457764,-13.9049625396729,-16.6221008300781,-17.2353496551514,-14.09801197052,-11.0914373397827,-6.77874994277954,0.23512500524521,4.05171251296997,5.31863737106323,0.44805002212524,2.73300004005432,4.08000040054321,11.3110504150391,22.465051651001,47.6569519042969,49.3630523681641,34.3909530639648,21.4930515289307,7.54305028915405,-0.88395005464554,-15.6390008926392,-23.0950508117676,-11.9250001907349,-6.1560001373291,-0.35400000214577,-0.0430500023067,2.36295008659363,2.94900012016296,3.56700015068054,-0.74895006418228,-18.6460514068604,-31.5960006713867,-47.112003326416,-51.003002166748,-43.7089538574219,-31.2660007476807,-18.9019508361816,-14.0299510955811,-8.61495018005371,11.6920509338379,10.6969509124756,10.900050163269,10.7329502105713,18.8569507598877,22.8190517425537,5.67900037765503,8.26800060272217,18.1000499725342,5.889000415802,-0.84300005435944,0.88305002450943,3.10905003547668,2.07000017166138,3.70695018768311,SWING_RIGHT
0.03575000166893,1.24286246299744,2.60988759994507,2.42659997940063,1.94521248340607,0.01127499993891,2.01740002632141,2.52064990997314,1.31972503662109,1.74006247520447,5.56393766403198,4.78211259841919,1.87934994697571,-0.3588750064373,-2.08999991416931,-0.26908749341965,-1.65439999103546,-1.85597503185272,-2.01121258735657,-0.62699997425079,1.63680005073547,2.37228751182556,0.90873748064041,2.86948752403259,5.26171255111694,-0.71252501010895,-0.37771248817444,0.25258749723434,0.10601250082254,0.33934998512268,0.71403747797012,1.13671255111694,-0.61641252040863,-2.95721244812012,-7.90886259078979,-10.0908498764038,-13.412712097168,-16.1174755096436,-16.0124244689941,-11.2294874191284,-3.76722502708435,2.35963749885559,5.32840013504028,6.55503749847412,6.6941876411438,-0.47505003213882,4.48200035095215,15.9270009994507,27.1740016937256,38.203052520752,33.9360008239746,32.0010032653809,21.3330001831055,17.1910514831543,-3.82995009422302,-24.0739517211914,-18.6990013122559,-13.123950958252,-9.69000053405762,-6.64905023574829,0.57105004787445,3.61005020141602,6.94995021820068,7.74495029449463,-0.73995006084442,-13.4170503616333,-17.707950592041,-33.8410530090332,-47.9520034790039,-44.9650535583496,-32.6710510253906,-26.7480010986328,-17.6190013885498,-9.94005012512207,-3.58200025558472,12.3240003585815,15.4969511032104,15.7339506149292,15.4540510177612,10.9740009307861,11.3280000686646,19.534049987793,11.238000869751,1.79505014419556,1.00800001621246,5.83395004272461,-5.49495029449463,-3.91305017471313,-1.47000002861023,2.0749499797821,SWING_RIGHT
1.22443747520447,1.00209999084473,-0.73026251792908,-1.62827503681183,-1.5549875497818,-2.45533752441406,-1.52075004577637,1.52377498149872,4.31543731689453,3.47971248626709,3.72776246070862,3.76804995536804,3.70204997062683,3.3709499835968,1.58606255054474,-0.41799998283386,-0.56704998016357,0.6766374707222,0.58134996891022,0.1915374994278,-0.72833746671677,1.18607497215271,0.40782499313354,1.82008743286133,4.12541246414185,4.73261260986328,4.30622482299805,2.142662525177,-0.39242500066757,-1.54811251163483,0.4159374833107,0.09817499667406,-0.10216250270605,0.06283749639988,-0.30126249790192,0.95466250181198,0.07507500052452,-3.13073754310608,-9.82575035095215,-12.9190874099731,-15.3624620437622,-14.1933002471924,-11.2355375289917,-6.85822486877441,-1.24685001373291,2.07705020904541,1.45005011558533,1.28805005550385,1.91400003433228,4.92705011367798,5.53005027770996,25.828950881958,37.3099517822266,48.6739540100098,37.4899520874023,29.7870006561279,15.6640510559082,2.89995002746582,-12.4540510177612,-19.4290504455566,0.05595000088215,1.41495001316071,1.60695004463196,1.59705007076263,2.9800500869751,9.66405010223389,1.60200011730194,1.32705008983612,-13.8379507064819,-25.7530517578125,-39.3870010375977,-45.8599510192871,-44.1210021972656,-34.7239532470703,-24.3270015716553,11.6560506820679,9.12900066375732,5.5090503692627,9.9529504776001,9.21105003356934,10.8139505386353,17.9160003662109,30.4890022277832,21.2970008850098,10.3500003814697,5.53305006027222,-1.03500008583069,-2.6140501499176,-4.09305000305176,-5.02800035476685,SWING_RIGHT
-0.28682500123978,0.10298749804497,1.08033752441406,1.06081247329712,0.518374979496,0.88852500915527,-0.06806249916553,2.40102505683899,2.82493758201599,4.19196224212646,6.08808755874634,5.56641244888306,1.71311247348785,-0.92702502012253,-1.3582249879837,0.28201249241829,-0.87381249666214,-2.06373739242554,-2.1455500125885,-0.58052498102188,1.85679996013641,2.01066255569458,4.93418741226196,7.73080015182495,6.19382476806641,0.84768748283386,-1.51030004024506,-1.2170125246048,-1.22567498683929,-1.50658750534058,0.21436250209808,1.36510002613068,2.32539987564087,2.17263746261597,-0.83517497777939,-6.47583723068237,-10.9581995010376,-15.8145627975464,-18.2421245574951,-13.9013872146606,-7.36147499084473,-2.25967502593994,2.40721249580383,5.90259981155396,6.08588743209839,0.79005002975464,0.54105001688004,4.08195018768311,13.2709503173828,27.5020503997803,43.6110038757324,35.8290023803711,42.751953125,25.9660511016846,1.46505010128021,-12.4969501495361,-16.7830505371094,-21.973051071167,-14.8180503845215,-4.78005027770996,-0.0409500002861,1.47300004959106,0.30300000309944,-1.42905008792877,0.61905002593994,-3.97005009651184,-13.2829504013062,-30.1009521484375,-53.427001953125,-50.4979515075684,-43.9390525817871,-40.101001739502,-24.6619510650635,-14.4319505691528,-6.93195009231567,9.58605003356934,12.5149507522583,11.6710510253906,8.86395072937012,12.6970510482788,12.2209501266479,14.0490007400513,18.0049514770508,0.59205001592636,-0.77400004863739,-0.46005001664162,-8.34495067596436,-10.8409509658813,-3.20700025558472,2.49900007247925,SWING_RIGHT
0.20927499234676,0.04551250115037,-0.13282500207424,-0.50297498703003,-0.4822124838829,-0.54821246862411,-0.44440001249313,2.25321245193481,-0.2403499931097,-3.59397506713867,-0.59950000047684,2.02592492103577,2.92751240730286,2.22145009040833,1.92816245555878,0.15619999170303,-0.174899995327,-0.0173249989748,0.20377500355244,0.01319999992847,0.24653749167919,-2.40707492828369,-3.55299997329712,-0.26661249995232,4.61051225662231,4.36246252059937,2.44199991226196,0.30634999275208,0.23677499592304,-0.46323749423027,0.31322500109673,0.09817499667406,-0.06187500059605,-0.08868750184774,0.12512500584126,0.54175001382828,1.1611875295639,-2.01904988288879,-10.1556119918823,-15.7363252639771,-18.3129367828369,-16.1809997558594,-10.695574760437,-5.20272493362427,0.68103748559952,1.23705005645752,1.70400011539459,1.77300012111664,1.54605007171631,1.41405010223389,3.18495011329651,10.3780508041382,39.9739532470703,54.9919509887695,44.3530502319336,29.3850021362305,13.558051109314,-1.96305012702942,-14.4300003051758,-18.9079513549805,0.30705001950264,0.54704999923706,0.52995002269745,0.38895002007484,0.89100003242493,2.29800009727478,5.79900026321411,7.45005035400391,-5.28600025177002,-24.2980518341064,-42.4909515380859,-51.8020515441895,-41.2900505065918,-33.9360008239746,-20.7229518890381,9.01500034332275,8.79705047607422,8.55300045013428,8.57700061798096,9.89805030822754,8.92605018615723,14.8530006408691,18.598051071167,2.34300017356873,2.76705002784729,11.1780004501343,5.62395048141479,5.06595039367676,3.24300026893616,5.2150502204895,SWING_RIGHT
-0.62645000219345,-0.6044499874115,0.38032498955727,0.63676249980927,3.3246123790741,3.29532504081726,1.55429995059967,1.66801249980927,3.67028737068176,5.62993764877319,2.63793754577637,-0.50297498703003,-0.45292499661446,0.0015124999918,-0.65326249599457,0.32835000753403,0.21230000257492,-0.88481247425079,-0.856625020504,-2.18459987640381,-1.54453754425049,3.00148749351501,2.92696237564087,1.90437495708466,-1.32096254825592,-0.95810002088547,0.01814999990165,-0.83228749036789,-0.39971250295639,-0.35694998502731,-0.38183748722076,-0.00316249998286,-0.77288746833801,-0.97446250915527,-3.04768753051758,-10.9338626861572,-13.754674911499,-16.6978626251221,-12.639274597168,-7.30771255493164,-2.54072499275208,2.53316259384155,3.39074993133545,3.1073625087738,2.5367374420166,0.30600002408028,3.45105028152466,10.53600025177,14.0179510116577,38.6310005187988,45.3979530334473,36.0919532775879,23.002950668335,-4.04295015335083,-13.6150503158569,-23.0899505615234,-19.8670501708984,-7.93395042419434,-5.84205007553101,-2.65305018424988,1.18095004558563,1.82505011558533,3.35805010795593,4.30395030975342,1.85805010795593,-7.19100046157837,-19.0330505371094,-42.0799522399902,-51.1650009155273,-42.7710037231445,-26.9520015716553,-14.2950010299683,-6.44400024414063,1.399050116539,4.85895013809204,8.31300067901611,12.8140506744385,15.9919509887695,16.8780002593994,27.9349517822266,16.0999507904053,12.7360506057739,7.57200050354004,9.08400058746338,1.32105004787445,-6.2509503364563,-2.00894999504089,5.61195039749146,6.02295017242432,7.22895050048828,SWING_RIGHT
-0.53473746776581,-0.49087500572205,-0.83283752202988,-0.39668750762939,-0.169537499547,-0.18177500367165,3.10351252555847,5.07649993896484,4.75763750076294,4.19196224212646,1.70458745956421,1.38448750972748,-0.0937749966979,-0.09253749996424,0.04427500069141,0.05224999785423,-0.02227500081062,-0.45718750357628,-1.34048748016357,0.18906250596046,3.74178743362427,4.26346254348755,4.2879376411438,4.34417486190796,1.43770003318787,0.15619999170303,-0.75033748149872,-0.66123747825623,-1.3087249994278,-0.50352501869202,-0.64817500114441,-0.40273749828339,-1.15279996395111,-1.82957494258881,-5.78916263580322,-10.1873750686646,-12.5697002410889,-14.3070125579834,-14.3057746887207,-11.275824546814,-2.69706249237061,0.19717499613762,3.17941236495972,3.54461240768433,2.40721249580383,2.08695006370544,1.24905002117157,5.61900043487549,15.4990510940552,40.5529518127441,41.3740501403809,35.3149528503418,32.6299514770508,24.4270515441895,6.24600028991699,-12.8419504165649,-11.5399503707886,-14.3629503250122,-5.09805011749268,-3.17895007133484,-0.67995005846024,0.27195000648499,2.41800022125244,7.66095018386841,11.121000289917,-0.64905005693436,-15.7980003356934,-30.3760509490967,-44.226001739502,-42.0720024108887,-25.9819507598877,-19.9360504150391,-13.0080003738403,-6.8100004196167,-1.54605007171631,8.57895088195801,10.0870504379272,9.20100021362305,17.344051361084,16.525951385498,20.5360507965088,26.8699512481689,15.0880508422852,1.86195003986359,-0.04200000315905,-2.4060001373291,0.59595000743866,0.72300004959106,7.03995037078857,8.07705020904541,SWING_RIGHT
-0.17201249301434,0.04427500069141,0.07122500240803,0.21779999136925,2.22626256942749,1.14743745326996,1.18291246891022,-0.26358750462532,2.42659997940063,2.23478746414185,2.14926242828369,3.47366237640381,3.59947490692139,1.57753753662109,1.69111251831055,-0.09913749992847,0.0559624992311,-0.15056249499321,-2.36307501792908,-1.18043744564056,0.32229998707771,-1.21096253395081,-1.21825003623962,1.15059995651245,3.20182490348816,3.33629989624023,1.90932500362396,-0.36918750405312,0.69121247529984,-0.05884999781847,-0.07287500053644,0.17393749952316,0.28517499566078,1.45557498931885,1.00223743915558,-0.52607500553131,-6.04449987411499,-10.8861503601074,-16.7026748657227,-17.5346870422363,-16.1028995513916,-11.7316370010376,-5.30777502059937,0.27169999480247,4.14823770523071,1.32600009441376,1.56495010852814,2.04105019569397,1.29705011844635,15.2449502944946,21.6010513305664,45.577953338623,42.9460525512695,42.0700531005859,24.5940017700195,12.2950506210327,-8.53905010223389,-17.814001083374,-17.742000579834,-13.4830503463745,1.03500008583069,0.99900007247925,1.45095002651215,4.35900020599365,2.34105014801025,8.29305076599121,5.59305047988892,-7.36605024337769,-29.7970504760742,-47.5639533996582,-52.2210006713867,-45.4060516357422,-32.8000526428223,-24.2380504608154,-14.9970006942749,8.58105087280273,9.41895008087158,8.7679500579834,12.3720006942749,16.1119499206543,13.3459510803223,14.9970006942749,21.1200008392334,23.4990005493164,6.17400026321411,0.98205006122589,1.78095006942749,-0.19695000350475,-1.24305009841919,3.3550500869751,SWING_RIGHT
0.12127500027418,-0.08030000329018,-0.04853750020266,0.43037500977516,0.73576247692108,1.58124995231628,2.38507509231567,2.34602499008179,2.07721257209778,3.41137504577637,4.98245000839233,3.57871246337891,2.72965002059937,2.71012496948242,1.31848752498627,-0.28242498636246,-0.04303750023246,-0.06984999775887,-0.5682874917984,-1.22924995422363,-1.83768749237061,-2.97880005836487,-2.27631258964539,0.98573750257492,3.55739998817444,2.44433736801147,2.93067502975464,2.28552508354187,-0.03932499885559,0.62411248683929,0.26922500133514,0.1214125007391,0.16417500376701,-0.0496375001967,0.49279999732971,0.5820375084877,-0.99879997968674,-2.68977499008179,-10.5758123397827,-15.0313625335693,-16.6660995483398,-16.651388168335,-12.4596996307373,-4.51247501373291,3.62532496452332,2.56800007820129,1.50795006752014,1.04295003414154,1.20405006408691,-0.11595000326633,5.57595014572144,15.4339504241943,29.3869514465332,61.2799530029297,42.9409523010254,37.9369506835938,25.5610504150391,-0.87900006771088,-27.3379516601563,-26.3850021362305,0.68805003166199,1.05195009708405,1.31700003147125,0.93195003271103,2.26500010490417,3.93000030517578,6.85695028305054,13.1430006027222,2.77500009536743,-15.901050567627,-35.2879524230957,-53.6730041503906,-52.5559539794922,-39.2269515991211,-29.4210014343262,10.1800508499146,9.58200073242188,10.5580501556396,11.0100002288818,12.3790502548218,15.6690006256104,18.2940006256104,22.4560508728027,22.1590518951416,19.8420009613037,9.73500061035156,-1.69305002689362,-1.57305002212524,1.28100001811981,-0.2569500207901,SWING_RIGHT
0.33384999632835,0.36437499523163,1.24396252632141,2.25554990768433,0.5378999710083,-0.63992500305176,0.56718748807907,1.20614993572235,1.57753753662109,3.56042504310608,2.30931258201599,1.29414999485016,2.39236259460449,2.86646246910095,1.77787494659424,-0.70028752088547,-0.7930999994278,-2.67217493057251,-4.1637749671936,-1.81445002555847,1.4719375371933,1.93737494945526,-0.93733751773834,0.05719999969006,2.35152506828308,1.5940375328064,0.26606249809265,0.43587499856949,-0.13337500393391,0.43711251020432,0.27788749337196,0.26798748970032,0.5380374789238,0.80066251754761,1.41762495040894,0.48427498340607,-2.25720000267029,-7.57294988632202,-15.9098501205444,-17.8315505981445,-17.0374870300293,-13.8573875427246,-8.50753784179688,-0.22178749740124,4.02600002288818,2.56095004081726,2.99400019645691,2.32395005226135,3.22605013847351,8.17005062103271,18.9090003967285,33.2970008850098,53.8840522766113,57.9559516906738,34.0870513916016,16.8150005340576,2.02005004882813,-18.1590003967285,-26.6580009460449,-13.2480010986328,1.47795009613037,1.66200006008148,2.18805003166199,1.75305008888245,2.85405015945435,5.8759503364563,7.70895051956177,5.92605018615723,-18.1650009155273,-39.0810012817383,-53.6130027770996,-55.993953704834,-42.7900505065918,-25.2330017089844,-15.621000289917,10.0890007019043,9.925950050354,14.0680503845215,12.106050491333,4.16205024719238,6.33000040054321,11.2180509567261,14.2810506820679,16.6309509277344,14.5830011367798,3.5350501537323,4.52505016326904,6.67905044555664,3.0990002155304,-0.14699999988079,SWING_RIGHT
-0.0082499999553,0.088275000453,0.16156250238419,0.06379999965429,-0.3979249894619,-0.35763749480247,0.27156248688698,0.8592374920845,-0.72531247138977,-0.43821248412132,0.47189998626709,0.24227499961853,-0.63992500305176,0.21285000443459,3.06927490234375,0.20624999701977,0.06819999963045,-0.01856249943376,-0.10037499666214,-0.32766249775887,-0.65381246805191,-1.08515000343323,-1.03496253490448,0.31858751177788,3.47187495231628,1.98013746738434,2.81819987297058,1.11759996414185,2.98924994468689,1.40222501754761,0.74690002202988,0.74208748340607,0.91313749551773,1.06342494487762,1.42133748531342,1.88677501678467,1.32605004310608,-1.60118746757507,-8.59182453155518,-12.9776620864868,-16.6196250915527,-17.2402992248535,-13.8719625473022,-7.12456226348877,-2.65553736686707,1.00005006790161,1.01700007915497,0.74700003862381,0.96900004148483,0.35400000214577,2.2110002040863,9.03795051574707,23.496000289917,40.8160514831543,37.9710006713867,28.851001739502,21.2869510650635,7.35105037689209,-2.68800020217896,-6.86895036697388,0.06599999964237,0.1540500074625,0.26205000281334,-0.02700000070035,0.32205000519753,0.11805000901222,0.84105002880096,3.31500005722046,0.49695003032684,-5.61405038833618,-19.6789512634277,-30.7249507904053,-36.0520515441895,-32.7090034484863,-28.4689521789551,9.99105072021484,9.99795055389404,9.31800079345703,8.35605049133301,8.33295059204102,10.8139505386353,12.3670501708984,11.3719501495361,5.6380500793457,10.6990509033203,11.9869508743286,8.83005046844482,9.33300018310547,6.14505052566528,8.52195072174072,SWING_RIGHT
0.15427500009537,0.27761250734329,0.08703749626875,0.76147496700287,1.08886253833771,0.89457499980927,1.17314994335175,-0.44068750739098,0.85304999351501,2.90303754806519,4.73206233978271,5.79617500305176,4.43025016784668,2.3900249004364,1.20243752002716,-1.65439999103546,-1.4968249797821,-1.84263753890991,-2.35812497138977,-0.82238751649857,-1.64216244220734,-2.73803758621216,0.10972499847412,2.70709991455078,4.62027502059937,5.16271257400513,3.2153000831604,1.46574997901917,-0.43023750185966,-0.0527999997139,-0.05816249921918,-0.40273749828339,-0.45526251196861,0.05788749828935,0.35969999432564,1.96872496604919,1.47510004043579,-3.53388738632202,-11.4530620574951,-15.9343252182007,-17.5371627807617,-16.4890003204346,-13.3479499816895,-7.3651876449585,0.8984249830246,1.77105009555817,3.58005023002625,1.29195010662079,1.75395011901855,2.98200011253357,2.05605006217957,21.6460514068604,50.5240516662598,59.3899536132813,49.4280014038086,39.1050033569336,24.1110019683838,2.80200004577637,-16.6390514373779,-22.8220520019531,1.07595002651215,0.4200000166893,1.14705002307892,0.87900006771088,0.95400005578995,5.59095048904419,8.78295040130615,12.7099504470825,-1.42200005054474,-23.9920520782471,-43.5340538024902,-51.3660011291504,-46.9369506835938,-38.2560005187988,-30.2730007171631,9.96900081634521,8.94495010375977,9.59400081634521,12.0390005111694,8.96895027160645,10.0720500946045,10.885950088501,14.5710010528564,23.3290519714355,18.9589500427246,6.54495048522949,0.54795002937317,-3.3510000705719,-2.23095011711121,2.49405002593994,SWING_RIGHT
-0.21463750302792,-0.12677499651909,0.03822499886155,-0.15729999542236,-0.33687499165535,-0.18535000085831,0.47918748855591,-2.08752489089966,-1.96171247959137,1.18291246891022,6.37395000457764,8.50946235656738,5.84251260757446,0.59289997816086,-0.29287499189377,-0.48647499084473,-0.44976249337196,-0.13461250066757,-0.06256250292063,-0.20913749933243,-0.89457499980927,-0.65752500295639,-0.99838751554489,1.39617502689362,5.14676237106323,4.66908740997314,4.65451240539551,2.11695003509521,1.57698750495911,1.2971750497818,0.00412499997765,-0.14616249501705,-0.05321250110865,-0.06916250288486,0.02488750033081,1.13918745517731,-0.04221250116825,-3.43860006332397,-10.1116123199463,-14.3485374450684,-14.9935503005981,-16.5207614898682,-15.0448369979858,-10.9228620529175,-4.73605012893677,0.94500005245209,1.6750500202179,1.13895010948181,1.50495004653931,1.26105010509491,3.05100011825562,21.4140014648438,31.5310516357422,56.1280517578125,36.9900016784668,35.9869499206543,37.1209526062012,17.401050567627,0.62205004692078,-18.5729999542236,3.25995016098022,2.87295007705688,3.02100014686584,2.9520001411438,4.24905014038086,6.94500017166138,9.64905071258545,9.33600044250488,-8.89500045776367,-24.5710506439209,-31.101001739502,-50.2939529418945,-53.4600028991699,-43.6090507507324,-35.800952911377,10.0939502716064,10.1299505233765,9.98400020599365,8.90700054168701,9.38505077362061,12.0799503326416,12.2449502944946,11.3599500656128,27.6859512329102,28.0840511322021,22.3740005493164,3.9340500831604,-5.68605041503906,-3.88500022888184,8.36805057525635,SWING_RIGHT
-0.18411250412464,-0.18177500367165,-1.3582249879837,-2.73391246795654,-1.46079993247986,1.12310004234314,6.4154748916626,6.76609992980957,7.2450122833252,5.51265001296997,0.85552501678467,1.12186253070831,3.93428754806519,3.36737489700317,0.97886252403259,-0.00879999995232,-0.00384999997914,0.88921248912811,-1.13148748874664,-3.20237493515015,-0.5352874994278,2.10718750953674,4.90861225128174,4.41141223907471,1.18854999542236,0.51163750886917,-0.62204998731613,0.10353749990463,0.84768748283386,0.58987498283386,-0.07039999961853,0.08607500046492,0.81290000677109,2.51226258277893,3.97966241836548,-3.53883743286133,-14.1640119552612,-17.2855377197266,-17.3465881347656,-13.2697124481201,-8.79697513580322,-1.67076253890991,4.40591239929199,5.37239980697632,3.36269998550415,2.16105008125305,1.43100011348724,0.925950050354,0.91395002603531,19.4280014038086,54.7159538269043,50.9809532165527,45.9559516906738,32.0580024719238,8.68395042419434,-13.9729509353638,-28.4290504455566,-17.8120517730713,-2.01405000686646,2.2110002040863,1.9939501285553,2.19495010375977,2.00205016136169,3.25800013542175,5.40405035018921,-2.1780002117157,-29.2459506988525,-49.3950004577637,-62.1610527038574,-58.819953918457,-47.2770004272461,-35.0680503845215,-23.3880004882813,-12.6750001907349,-2.81700015068054,9.70800018310547,9.57900047302246,6.07800006866455,10.8910503387451,21.6949501037598,34.7119522094727,29.8470020294189,11.8879508972168,3.82005023956299,-7.61505031585693,-12.1570501327515,6.75795030593872,4.546950340271,-2.49705004692078,-5.7940502166748,SWING_RIGHT
0.05403750017285,0.13103750348091,0.2788499891758,0.44990000128746,0.54395002126694,0.434087485075,0.01251249946654,-0.15482500195503,1.0729124546051,2.07349991798401,4.86639976501465,6.19189977645874,4.85416269302368,2.52436256408691,0.7627124786377,-0.08813749998808,-0.25685000419617,-0.3619000017643,-1.1339625120163,-1.28672504425049,-0.92386251688004,-1.16324996948242,-1.47853744029999,-0.04661250114441,2.20618748664856,2.95624995231628,0.40906250476837,-0.01979999989271,0.92702502012253,1.31312501430511,0.42927500605583,0.22893749177456,0.54175001382828,1.11828744411469,0.9094250202179,1.01571249961853,0.98395001888275,-0.68365001678467,-7.56923723220825,-14.1285371780396,-16.2409496307373,-17.922025680542,-16.1089496612549,-12.0700244903564,-8.2130126953125,3.63705015182495,4.12800025939941,2.18204998970032,1.90500009059906,5.91495037078857,6.37005043029785,15.8509511947632,32.9650497436523,66.0250549316406,57.2650527954102,44.8840522766113,34.2259521484375,15.3120002746582,-2.47305011749268,-12.118950843811,1.95900011062622,1.14705002307892,1.41105008125305,1.62405002117157,1.05405008792877,2.89905023574829,6.26805019378662,10.7980508804321,3.52095007896423,-18.65505027771,-36.8629531860352,-56.7460517883301,-59.2219543457031,-47.6190032958984,-43.5420036315918,9.26100063323975,8.86605072021484,8.21100044250488,8.44005012512207,8.25104999542236,8.49105072021484,9.42900085449219,16.0380001068115,21.8959503173828,23.3599510192871,17.3130016326904,13.9819507598877,3.97695016860962,1.42200005054474,2.0419499874115,SWING_RIGHT
0.26303750276566,-0.12925000488758,-0.53845000267029,0.0614624992013,0.73094999790192,0.19085000455379,1.33567500114441,5.54936265945435,2.88117504119873,0.75528746843338,0.74194997549057,0.86404997110367,2.14692497253418,2.85051250457764,2.01368737220764,-0.33495000004768,0.04001250118017,-0.19689999520779,-2.15531253814697,-2.65141248703003,-2.57922506332397,-1.73140001296997,-2.14802503585815,-2.98003745079041,1.14812505245209,0.6374499797821,0.54834997653961,1.68327498435974,1.56970000267029,1.34969997406006,0.42198750376701,0.38774999976158,1.26128745079041,1.33086252212524,-0.53955000638962,-7.15632486343384,-12.3448877334595,-18.5035133361816,-20.4692115783691,-15.940375328064,-12.2068376541138,-6.90222501754761,2.29487490653992,7.1047625541687,5.84636259078979,2.40300011634827,1.16295003890991,1.6750500202179,13.0510501861572,33.6180000305176,55.4700012207031,52.1730041503906,51.3760528564453,29.5570507049561,9.62895011901855,-5.23200035095215,-20.2570514678955,-32.5690498352051,-12.363000869751,4.27095031738281,1.25505006313324,1.79100012779236,2.61900019645691,4.16505002975464,6.57195043563843,0.49395000934601,-17.2510509490967,-46.0279502868652,-67.0609512329102,-61.9960517883301,-54.7399520874023,-41.0959510803223,-23.3140506744385,-17.6839504241943,-9.43095016479492,9.28005027770996,8.90205001831055,10.5030002593994,14.6140508651733,16.0810508728027,18.4210510253906,32.1589508056641,27.189001083374,13.9099502563477,9.35700035095215,10.6249504089355,9.09405040740967,11.6850004196167,3.66195011138916,-2.59995007514954,SWING_RIGHT
-0.15358750522137,-0.91960000991821,-2.050950050354,-2.78891253471375,-1.38503754138947,-0.43463748693466,2.79565000534058,5.39907503128052,6.44242477416992,5.08873748779297,1.77540004253387,-0.49087500572205,2.19326257705688,3.33189988136292,1.53972494602203,-0.22742499411106,-0.23608750104904,-0.65504997968674,-2.06621241569519,-2.09907507896423,2.98801255226135,4.43946266174316,6.71921253204346,4.37098741531372,3.12001252174377,1.00650000572205,0.47740000486374,-0.65023750066757,-0.30071249604225,0.00343749998137,0.24241249263287,0.84589999914169,1.34186244010925,-0.57488751411438,-3.04040002822876,-11.139012336731,-15.5567502975464,-17.50168800354,-18.0111255645752,-14.4095878601074,-9.70598697662354,-4.73123741149902,4.0199499130249,7.83653736114502,6.46332502365112,2.69205021858215,1.29195010662079,7.546950340271,20.1960010528564,51.3690032958984,58.5499534606934,48.4039535522461,42.1660537719727,37.5760536193848,10.8229503631592,-7.24695014953613,-20.4970512390137,-32.2189521789551,-8.89095020294189,5.89395046234131,1.63995003700256,1.9080001115799,1.30305004119873,2.07795000076294,2.04000020027161,-9.64395046234131,-32.8879508972168,-52.6039543151855,-67.5499496459961,-56.7580528259277,-45.8719520568848,-41.6770515441895,-27.7440013885498,-20.4330005645752,-8.82299995422363,8.45700073242188,6.83505010604858,7.18605041503906,11.2399501800537,20.3020515441895,22.0849514007568,24.2239513397217,8.50500011444092,-2.74605011940002,-8.30700016021729,-9.65595054626465,-2.5570502281189,9.01200008392334,0.57705003023148,-5.11905002593994,SWING_RIGHT
-0.13901250064373,-0.15977500379086,-0.09501250088215,-0.04482499882579,0.03822499886155,-0.41992500424385,-1.901899933815,-1.71256244182587,0.55123752355576,5.6006498336792,7.62134981155396,7.32572507858276,4.85168743133545,1.60325002670288,-0.2758249938488,-0.24942499399185,0.04867500066757,-0.28613749146461,-0.77109998464584,-0.94214999675751,-0.7735750079155,-0.45842498540878,0.31982499361038,2.84514999389648,4.85361242294312,5.09671258926392,2.69733738899231,1.55746245384216,0.36134999990463,-1.0509124994278,-0.0629749968648,0.05307500064373,0.19717499613762,0.53198748826981,0.99618750810623,1.01199996471405,0.80561250448227,-2.48201251029968,-10.4720001220703,-15.6032247543335,-17.9660243988037,-18.0771255493164,-14.5561628341675,-9.11102485656738,-1.44966244697571,3.41505026817322,2.77095007896423,2.21595001220703,2.0749499797821,2.72100019454956,6.50400018692017,13.0560007095337,49.2130508422852,66.0640563964844,54.5490036010742,46.935001373291,29.2699508666992,5.79300022125244,-14.2030506134033,-27.2850017547607,1.20495009422302,0.50805002450943,0.44895002245903,0.74505001306534,1.19505000114441,1.75800013542175,6.12900018692017,6.03600025177002,-11.2639503479004,-33.0820503234863,-57.0709533691406,-69.6960067749023,-59.2390518188477,-45.8050537109375,-30.9790515899658,8.97105026245117,9.01005077362061,8.94795036315918,8.3730001449585,8.17695045471191,6.17400026321411,10.0339508056641,19.9429512023926,37.6120529174805,25.9710006713867,7.18395042419434,-4.50195026397705,-9.24195003509521,-8.66295051574707,1.53900003433228,SWING_RIGHT
0.07356250286102,-0.26963749527931,-0.90254998207092,-2.21828746795654,-1.2971750497818,-0.00453749997541,1.61535000801086,4.2421498298645,6.9933876991272,6.92381238937378,2.39359998703003,1.6435375213623,2.43031239509583,1.17919993400574,0.60623747110367,0.40782499313354,0.04248749837279,-0.67457497119904,-0.84933751821518,-1.82792496681213,-0.27266249060631,5.9030122756958,6.94636249542236,6.23906230926514,2.94043755531311,3.88354992866516,2.4505250453949,0.16719999909401,0.24777500331402,-0.04056249931455,0.18136249482632,0.12636250257492,0.5710374712944,2.49397492408752,2.36692500114441,-6.96808767318726,-12.7248001098633,-15.6692247390747,-18.1663627624512,-16.8774375915527,-13.926962852478,-7.4689998626709,3.29546236991882,7.93182516098022,6.76871252059937,5.86005020141602,4.51800012588501,1.67805004119873,1.04595005512238,23.9080505371094,72.8209533691406,53.2399520874023,50.6080513000488,51.6370506286621,25.9699516296387,8.31300067901611,-19.9770011901855,-35.1000022888184,-11.1330003738403,2.43900012969971,3.23895025253296,3.37995004653931,4.51695013046265,5.69400024414063,7.26795053482056,2.38500022888184,-13.312050819397,-34.5900001525879,-58.7680511474609,-64.9770050048828,-58.0380020141602,-47.1960029602051,-31.0000514984131,-22.7380504608154,-10.2870006561279,6.30795049667358,6.94005012512207,6.81300020217896,7.78695058822632,18.6960010528564,25.1160011291504,25.8319511413574,14.7619504928589,0.95505005121231,-8.02695083618164,-17.5720500946045,-3.0949501991272,-3.26505017280579,-5.30805015563965,-2.33895015716553,SWING_RIGHT
-0.34292501211166,-0.47616249322891,-0.15111249685287,-1.01488745212555,-1.94218754768372,-0.99054998159409,0.57447499036789,1.05338752269745,2.07349991798401,2.41807508468628,5.56393766403198,9.88267517089844,4.19691228866577,-2.02166247367859,-0.14382499456406,-0.38747498393059,-0.90557497739792,-0.93733751773834,-0.31171250343323,-0.63305002450943,-1.92568743228912,-1.11938750743866,0.05101250112057,4.52869987487793,8.58109951019287,9.67449951171875,1.58070003986359,-0.73576247692108,-0.51947498321533,-0.96167498826981,0.85813748836517,0.89718747138977,0.81908750534058,0.28022500872612,0.53680002689362,1.74143743515015,0.34017500281334,-3.8894624710083,-12.151837348938,-14.4120626449585,-13.3319997787476,-12.4914627075195,-9.16478729248047,-3.16978740692139,2.49149990081787,3.67305016517639,3.85305023193359,4.80495023727417,7.02300024032593,4.81500005722046,8.84400081634521,24.7020015716553,46.300952911377,61.0770034790039,34.2139511108398,29.1769504547119,6.67200040817261,-20.6209506988525,-32.7840003967285,-24.9450016021729,0.32895001769066,0.16395001113415,0.6280500292778,0.46800002455711,1.33200001716614,1.60200011730194,0.84105002880096,-1.31400001049042,-13.3069505691528,-28.3609504699707,-42.8599510192871,-56.226001739502,-43.7190017700195,-26.8300514221191,-14.0779504776001,8.21805000305176,8.36805057525635,9.17700004577637,6.17700052261353,8.5290002822876,14.3320503234863,15.5299510955811,20.4810009002686,15.9610509872437,8.87805080413818,0.39300000667572,-4.41600036621094,-28.2349510192871,-9.90495014190674,7.95000028610229,SWING_RIGHT
-0.24158750474453,-0.10601250082254,0.09803749620914,0.0369874984026,0.25327500700951,0.36808750033379,-0.1205874979496,-1.47798752784729,-1.03207504749298,2.44131255149841,4.42172479629517,7.02886247634888,5.7056999206543,1.80235004425049,1.0558625459671,0.10367500036955,-0.21532499790192,-0.40466248989105,-0.7039999961853,-1.41748750209808,-2.38617491722107,-2.66846251487732,-1.23048746585846,0.68145000934601,3.62821245193481,5.8602499961853,4.45527505874634,0.26730000972748,-0.69300001859665,0.04124999791384,0.26798748970032,0.34251248836517,0.44398748874664,0.56003749370575,1.14771246910095,1.50933754444122,2.01025009155273,0.28641250729561,-8.78116226196289,-15.9355621337891,-17.937837600708,-17.6349258422852,-11.3895378112793,-5.91263723373413,3.25393748283386,3.47205018997192,3.11295008659363,3.20700025558472,2.87895011901855,3.3120002746582,6.08295011520386,14.7019510269165,38.5810508728027,74.2140045166016,56.8099517822266,42.2040023803711,24.1710014343262,-8.82600021362305,-31.5300006866455,-35.8810501098633,1.15005004405975,1.15200006961823,1.26495003700256,1.65000009536743,1.7980500459671,2.02305006980896,1.93500006198883,6.31605052947998,-7.4850001335144,-30.808952331543,-50.6340026855469,-71.3059539794922,-54.577953338623,-44.4960021972656,-26.7070503234863,9.26100063323975,9.64095020294189,9.25395011901855,8.85195064544678,8.84505081176758,7.50195026397705,5.800950050354,9.95505046844482,24.0250511169434,28.3830013275146,12.2449502944946,0.71595001220703,-8.84505081176758,-9.31695079803467,2.46000003814697,SWING_RIGHT
-0.00096249999478,0.10051249712706,-0.94036251306534,-1.41075003147125,-1.63927495479584,-0.76931250095367,0.61971247196198,5.80098724365234,7.16567516326904,6.33489990234375,3.48094987869263,1.09986245632172,0.93376249074936,-0.36492499709129,-0.46392500400543,-1.07662498950958,-0.31294998526573,0.01924999989569,-1.30253744125366,-3.18642497062683,0.62768751382828,5.75162506103516,5.97520017623901,5.59514999389648,3.64773750305176,0.73397499322891,0.10724999755621,-0.52799999713898,-0.11261250078678,-0.59399998188019,0.42570000886917,0.32051250338554,0.12512500584126,0.9424250125885,2.53302502632141,-5.55582475662231,-14.9875001907349,-15.6300373077393,-17.85107421875,-14.7406873703003,-8.88868713378906,-3.18821239471436,3.56303739547729,5.20368766784668,2.77502489089966,-0.26895001530647,2.49405002593994,2.1780002117157,1.8880500793457,14.0539503097534,64.3669509887695,53.5459518432617,36.6379508972168,41.7040519714355,12.1080007553101,-5.81805038452148,-15.4909505844116,-21.5130004882813,-2.99205017089844,0.44295001029968,1.52295005321503,1.43505001068115,2.60895013809204,3.84405016899109,5.49300003051758,1.73400008678436,-20.3830509185791,-29.9569511413574,-54.4870529174805,-53.6250038146973,-41.4139518737793,-36.8629531860352,-21.2089519500732,-11.5720500946045,-3.01995015144348,10.9890003204346,9.36405086517334,8.13899993896484,10.3740005493164,13.4920501708984,19.1820011138916,26.3490009307861,23.3860511779785,2.34105014801025,-5.1820502281189,-7.45995044708252,-4.71495008468628,0.50805002450943,-0.47700002789497,5.75505018234253,SWING_RIGHT
-0.05706249922514,-0.37592500448227,-1.00031244754791,0.09927500039339,0.40466248989105,2.67217493057251,1.76811254024506,1.28438746929169,3.7705249786377,6.23108768463135,4.05033731460571,1.03386247158051,1.09986245632172,1.41267502307892,0.13227500021458,-0.49018749594688,0.01443750038743,-1.26101243495941,-2.28854990005493,-1.50534999370575,-1.28796243667603,2.89148759841919,5.32881259918213,5.16642475128174,3.32763743400574,0.2428250014782,0.24653749167919,-0.97638750076294,-0.33989998698235,-0.33137500286102,-0.03244999796152,-1.16875004768372,-0.17916250228882,0.25698751211166,-1.55966246128082,-7.13913726806641,-15.1915502548218,-17.9892616271973,-18.7173252105713,-14.3753499984741,-8.75311279296875,-3.60236239433289,2.12011241912842,4.34609985351563,3.23922491073608,4.11105012893677,5.37000036239624,1.06005001068115,11.1820507049561,27.1260013580322,57.5710525512695,61.9500045776367,42.8260536193848,38.6700019836426,9.8899507522583,-3.54495024681091,-16.0500011444092,-20.5780506134033,-9.00795078277588,-1.16895008087158,-0.71595001220703,-1.03905010223389,0.54704999923706,1.49400007724762,4.03995037078857,4.71300029754639,-16.5280513763428,-37.3699531555176,-61.4670028686523,-59.6719512939453,-46.2840003967285,-34.2120018005371,-21.7690505981445,-11.8830003738403,-3.52995014190674,9.90495014190674,7.66500043869019,10.7850008010864,15.1669511795044,16.8439502716064,28.1719512939453,10.5100507736206,11.3910007476807,7.71000051498413,3.75300025939941,-6.92805051803589,-2.382000207901,4.67895030975342,2.90100002288818,1.47705006599426,SWING_RIGHT
-0.30511251091957,-0.47987499833107,-0.59097498655319,-1.29222500324249,0.65023750066757,3.04356241226196,3.46018743515015,6.0538501739502,7.35377502441406,4.63182497024536,-1.02588748931885,-0.33563750982285,-0.25258749723434,-0.81083750724792,-2.1987624168396,0.04867500066757,-0.01856249943376,-0.58671247959137,-0.34842500090599,-0.88591247797012,2.79014992713928,5.30928754806519,6.42111253738403,3.66121244430542,0.95273751020432,-0.51947498321533,-0.34347498416901,-0.35089999437332,-1.39658749103546,-0.28366249799728,0.55879998207092,1.08294999599457,1.68272495269775,1.52033746242523,-2.6860625743866,-11.9234495162964,-17.47487449646,-18.3484115600586,-17.4418754577637,-13.5530996322632,-1.83823752403259,4.49267482757568,6.41327476501465,5.11211252212524,3.38579988479614,2.34300017356873,1.92900013923645,5.96100044250488,17.8320007324219,51.4240531921387,60.2149543762207,50.8159523010254,38.9610023498535,23.4700508117676,-0.56400001049042,-28.3549518585205,-20.7619514465332,-8.94105052947998,0.00705000013113,-1.4230500459671,0.15900000929832,0.61095005273819,1.99905014038086,5.14095020294189,2.36805009841919,-13.9339504241943,-40.560001373291,-55.6570510864258,-67.5829544067383,-58.3180541992188,-34.4080505371094,-22.4719505310059,-12.9720010757446,-5.50605010986328,0.55200004577637,9.37095069885254,10.8570003509521,11.4529504776001,14.3320503234863,31.8379516601563,23.6899509429932,11.2330503463745,4.6429500579834,-5.58105039596558,-12.0949506759644,-1.76205003261566,2.47995018959045,1.84800004959106,1.98705005645752,1.83600008487701,SWING_RIGHT
0.12375000119209,-0.93307501077652,-1.57932496070862,-1.90671253204346,-0.82555001974106,1.21096253395081,2.64164996147156,2.67341256141663,2.03073740005493,3.67276239395142,4.55358743667603,5.90356254577637,2.79798746109009,-0.90736252069473,1.55072498321533,-2.01850008964539,-0.47671249508858,-0.52428752183914,1.33264994621277,2.35523748397827,-0.34842500090599,-1.17672502994537,2.400475025177,3.82249999046326,6.46140003204346,4.71927499771118,1.17260003089905,1.26912498474121,0.22206249833107,-0.37647500634193,0.21188749372959,1.48857498168945,1.88925004005432,2.66750001907349,2.99007487297058,0.94613748788834,-3.1246874332428,-8.30224990844727,-15.2696495056152,-16.2727127075195,-15.5837001800537,-14.6111621856689,-10.1971378326416,-4.34018754959106,1.73896253108978,2.94105005264282,4.54905033111572,4.73594999313354,6.61395025253296,10.3090505599976,21.7230014801025,37.6840515136719,51.1249542236328,54.2520027160645,31.5460510253906,25.2880516052246,12.4699506759644,-11.4150009155273,-24.6340503692627,-26.332950592041,0.94395005702972,1.02795004844666,1.88205003738403,0.46995002031326,-1.83300006389618,-2.39805006980896,-4.36995029449463,-10.0669507980347,-34.2210006713867,-41.9809532165527,-43.7740516662598,-53.6250038146973,-44.0010032653809,-33.8050498962402,-22.2640514373779,8.17005062103271,7.08600044250488,9.19905090332031,10.7730007171631,16.5640506744385,19.3090515136719,16.806001663208,10.85205078125,7.04505014419556,5.43705034255981,0.6319500207901,3.81195020675659,-11.8549509048462,-1.89900004863739,8.94795036315918,SWING_RIGHT
0.02474999986589,-0.50792497396469,-1.59885001182556,0.80052500963211,2.19945001602173,2.154212474823,1.31725001335144,1.00938749313354,3.82428741455078,5.66541242599487,3.20980000495911,0.81152498722076,1.49572503566742,0.56223750114441,-0.2880625128746,-1.29153752326965,-1.01915001869202,-2.74298739433289,-2.65993738174438,-1.94273746013641,-2.70875000953674,1.82737493515015,5.86643743515015,4.92813730239868,2.86715006828308,-0.9922000169754,0.20748749375343,-0.9178124666214,-0.15413749217987,-0.17008750140667,0.5575624704361,0.92413747310638,2.38768744468689,1.97724997997284,-1.25908744335175,-7.78305006027222,-14.0760126113892,-18.4779376983643,-19.7031993865967,-16.6648616790771,-8.86297512054443,-1.036749958992,4.22757482528687,4.79572486877441,2.28511238098145,3.71895027160645,4.20900011062622,4.27605009078979,21.9910507202148,33.8860511779785,51.6529541015625,50.3610038757324,33.8190002441406,25.0969505310059,1.1580001115799,-21.9970512390137,-27.4380016326904,-18.5340003967285,-4.88295030593872,0.08400000631809,1.50195002555847,2.19300007820129,1.95105004310608,-1.85700011253357,-0.86205005645752,-6.15705013275146,-23.826000213623,-48.555004119873,-64.3459548950195,-61.7320518493652,-44.2830009460449,-31.8949508666992,-17.8920001983643,-5.29095029830933,3.04005002975464,11.8999509811401,7.78200054168701,10.5169506072998,18.2850017547607,17.4930000305176,19.1989517211914,11.3809509277344,4.02495002746582,1.64895009994507,-5.12205028533936,-8.8210506439209,0.24195000529289,2.60400009155273,0.40995001792908,3.00405025482178,SWING_RIGHT
-0.23911249637604,-1.63432502746582,-1.91537499427795,2.74188756942749,2.66846251487732,1.65453743934631,1.59348750114441,3.83528757095337,6.22008752822876,5.51883745193481,2.82851243019104,0.84081250429153,0.27156248688698,-0.10106249898672,-1.21288752555847,0.18672500550747,1.40222501754761,-0.36671251058578,-2.33859992027283,-0.45223748683929,2.99901247024536,5.66967487335205,6.74478769302368,4.95742511749268,1.31064999103546,-0.43147498369217,-1.68134999275208,-1.20491254329681,-1.87921249866486,-1.78763747215271,0.15070000290871,-0.91574996709824,1.04871249198914,-2.41477489471436,-6.82770013809204,-11.399299621582,-15.09255027771,-16.025899887085,-14.8994998931885,-11.9490251541138,-6.90098762512207,0.67237502336502,5.53973770141602,6.51832485198975,5.12187480926514,9.31605052947998,4.89405012130737,4.75200033187866,34.9750518798828,35.4250526428223,45.9679527282715,37.699951171875,31.1650524139404,18.201000213623,-0.29100000858307,-14.2939510345459,-25.8330020904541,-14.0950508117676,-4.41900014877319,0.37095001339912,0.90105003118515,1.47795009613037,2.86995005607605,1.70505011081696,2.00400018692017,-11.0479507446289,-29.4430522918701,-47.3730010986328,-55.4220008850098,-48.2100028991699,-38.5309524536133,-25.6039505004883,-17.9160003662109,-10.3330507278442,-4.58295011520386,9.60300064086914,7.4520001411438,17.2650012969971,27.4900512695313,15.8200511932373,12.9990005493164,8.32800006866455,4.25699996948242,-1.3819500207901,-6.63600015640259,-7.83300018310547,-3.33705019950867,-0.19695000350475,2.00805020332336,3.09405016899109,SWING_RIGHT
-0.2428250014782,-0.62026250362396,-0.36492499709129,-0.43711251020432,0.36066249012947,-1.08583748340607,-0.38692501187325,-0.31487500667572,1.00209999084473,4.5292501449585,5.53217506408691,2.26421236991882,0.48289999365807,1.08281254768372,1.37224996089935,0.29425001144409,0.49706250429153,-1.79011249542236,-2.88832497596741,-1.98426246643066,-2.28112506866455,2.65938758850098,4.47370004653931,5.574387550354,3.38263750076294,-1.78268754482269,0.2953499853611,1.2751749753952,0.47740000486374,0.23430000245571,-0.06792499870062,0.5380374789238,0.859375,0.48427498340607,-0.81317502260208,-7.49100017547607,-14.0882501602173,-18.9176616668701,-19.868200302124,-15.5482244491577,-9.42136287689209,-1.0978000164032,6.06622505187988,6.96299982070923,3.08893752098084,0.2490000128746,-0.2569500207901,4.52505016326904,16.7389507293701,37.818000793457,52.8139533996582,48.5670013427734,36.400951385498,20.3590507507324,-2.25495004653931,-17.8429508209229,-31.771951675415,-22.2619514465332,-3.93495011329651,10.407000541687,1.72200012207031,3.34200024604797,5.75400018692017,6.33495044708252,3.46395015716553,-2.02500009536743,-27.0780010223389,-51.4069519042969,-73.069953918457,-58.3920021057129,-44.0110511779785,-29.1750011444092,-18.1410007476807,-7.17405033111572,2.71005010604858,8.93295001983643,10.6440000534058,14.568000793457,14.4940509796143,14.2930507659912,9.41400051116943,11.0220003128052,2.67795014381409,-1.61100006103516,2.65695023536682,1.79295003414154,-1.83600008487701,5.08500003814697,7.22205018997192,5.47995042800903,SWING_RIGHT
0.01127499993891,-1.07717502117157,-3.29092502593994,-3.93236255645752,-0.8622624874115,1.81087493896484,1.23915004730225,5.10702514648438,10.3494873046875,8.81251239776611,1.66058754920959,0.70771247148514,1.59582495689392,-0.26358750462532,-1.43274998664856,-0.12732499837875,-0.17132499814034,-0.03327500075102,0.00591249996796,-1.43453752994537,0.54958748817444,4.82789993286133,7.84561252593994,4.19883728027344,-1.57258749008179,-0.24213749170303,-1.86463749408722,-0.81028747558594,-0.26413750648499,0.06819999963045,0.82637500762939,0.94366252422333,0.68585002422333,1.33457493782043,0.07383749634027,-7.66699981689453,-15.159649848938,-17.0692501068115,-16.6806755065918,-11.1549625396729,-4.94257497787476,1.69867503643036,2.85078740119934,1.4470499753952,0.64556246995926,1.58700013160706,2.24205017089844,5.13300037384033,6.61695051193237,26.8729515075684,58.6459541320801,52.7830543518066,31.9549522399902,19.0639514923096,-16.1029510498047,-21.4270515441895,-21.9870014190674,-7.59405040740967,-2.24100017547607,-5.74395036697388,1.99005007743835,2.1739501953125,-0.99300003051758,-3.49905014038086,-1.95300006866455,-7.2529501914978,-28.2919521331787,-49.7989540100098,-66.2239532470703,-57.1549530029297,-38.5789527893066,-17.181001663208,-6.08295011520386,2.04495000839233,3.62595009803772,8.87595081329346,6.97800016403198,5.14005041122437,10.3900508880615,22.7239513397217,21.8070011138916,13.8340511322021,19.6129512786865,10.7920503616333,-4.84905004501343,-13.1190004348755,7.3609504699707,3.04200005531311,0.46695002913475,4.88895034790039,SWING_RIGHT
-0.25134998559952,-0.14258749783039,0.01498750038445,0.13832500576973,0.45113748311996,0.65642499923706,0.60995000600815,0.17379999160767,0.80423748493195,0.47561249136925,1.43453752994537,4.90187501907349,6.05756235122681,4.06986236572266,1.36372494697571,0.05719999969006,-0.04303750023246,-0.4657124876976,-0.57076251506805,-0.98614996671677,-1.51401245594025,-2.09673738479614,-2.55488753318787,0.96373748779297,4.6215124130249,6.12658739089966,4.79613733291626,0.55935001373291,0.12430000305176,0.73768746852875,0.21312500536442,0.36093750596046,0.44522500038147,0.40974998474121,0.78485000133514,0.7873250246048,0.60651248693466,-1.9102874994278,-9.0915002822876,-14.5476369857788,-16.6258125305176,-14.7565002441406,-10.3815250396729,-6.23383760452271,2.05301237106323,-0.59205001592636,-0.81195002794266,-0.12795001268387,0.34500002861023,0.60105001926422,4.66395044326782,11.5549507141113,31.1869506835938,53.6299514770508,42.4960517883301,30.0450019836426,10.1220006942749,-5.46900033950806,-16.4620513916016,-31.5250511169434,0.83895003795624,0.91305005550385,1.18605005741119,1.80795013904572,3.74100017547607,4.5930004119873,9.14400005340576,10.5630006790161,2.20995020866394,-19.525951385498,-41.1630020141602,-54.1249542236328,-47.2189521789551,-36.6619529724121,-17.6479511260986,9.40694999694824,9.77100086212158,9.8569507598877,9.54795074462891,10.7370004653931,10.8709506988525,13.6300506591797,17.8680000305176,19.396951675415,9.54795074462891,8.01405048370361,6.73200035095215,0.97905004024506,-5.32800006866455,-2.49405002593994,SWING_RIGHT
0.09322500228882,-0.06324999779463,-0.29287499189377,-0.32463750243187,2.37050008773804,3.13884997367859,-1.203125,0.1175625026226,2.82975006103516,5.07278728485107,5.77169990539551,2.43278741836548,0.23003749549389,0.434087485075,-0.12182500213385,0.01924999989569,-0.17008750140667,-0.4974749982357,-1.47358751296997,-4.78073740005493,-0.80905002355576,1.92884993553162,3.71868753433228,4.67280006408691,3.07119989395142,-0.05884999781847,-0.62328749895096,0.21106250584126,-0.51342499256134,-0.64171248674393,0.43669998645782,0.37674999237061,0.57832497358322,1.62043750286102,1.13671255111694,-6.84103727340698,-11.7534999847412,-15.7998495101929,-17.9427871704102,-14.706449508667,-10.300950050354,-4.2363748550415,2.07130002975464,4.49886226654053,4.44633769989014,0.69195002317429,1.04100000858307,0.6730500459671,2.27805018424988,30.2700023651123,56.3580017089844,47.6980514526367,41.2420501708984,32.0029525756836,5.58000040054321,-3.13395023345947,-18.5920505523682,-20.2549514770508,-9.58995056152344,-5.13195037841797,0.40995001792908,0.15195000171661,0.20205001533031,1.47300004959106,8.07705020904541,4.47795009613037,-5.13795042037964,-28.9450511932373,-55.6260032653809,-54.6540031433105,-48.7050018310547,-31.7470512390137,-19.7680511474609,-13.0339508056641,-6.07605028152466,8.73000049591064,8.22495079040527,8.67495059967041,11.9029502868652,24.5059509277344,11.4289503097534,6.95700025558472,21.1369514465332,9.40500068664551,6.35100030899048,-1.13505005836487,-5.92305040359497,0.29700002074242,4.19295024871826,2.50605010986328,SWING_RIGHT
-0.11082500219345,-0.80602496862411,-1.11883747577667,-0.9147874712944,2.50854992866516,2.58183741569519,2.19945001602173,3.15232491493225,3.37837505340576,4.64763736724854,3.55066251754761,2.05892491340637,1.78887498378754,0.31679999828339,-1.34227502346039,0.37606251239777,-0.08208750188351,-0.91657501459122,-3.04108738899231,-2.86275005340576,-0.47918748855591,0.63511252403259,2.30395007133484,3.94459986686707,1.64779996871948,-0.62947499752045,-1.51277494430542,-1.99773752689362,-1.122962474823,-0.65628749132156,0.75061249732971,1.4030499458313,1.75615000724792,4.67115020751953,3.15369987487793,-6.93027496337891,-13.0376119613647,-17.0142498016357,-18.9323749542236,-14.9837875366211,-11.5018749237061,-6.60769987106323,2.92778754234314,5.85612487792969,4.27157497406006,-2.37495017051697,-1.39605009555817,0.87600004673004,1.78500008583069,44.8930511474609,58.9590034484863,44.0059509277344,35.370002746582,27.6880512237549,0.17700000107288,-10.9969501495361,-27.1729507446289,-36.0720024108887,-10.8439502716064,-1.41105008125305,-1.26600003242493,-1.09395003318787,-0.02205000072718,4.75800037384033,2.08995008468628,-2.17500019073486,-24.7519512176514,-48.4780540466309,-72.1920013427734,-61.5480041503906,-47.9059524536133,-35.1040534973145,-19.6870517730713,-13.3360509872437,-4.12800025939941,7.57200050354004,7.72995042800903,10.042950630188,20.2399501800537,25.3459510803223,18.7420501708984,17.566951751709,13.3980007171631,-0.18000000715256,0.73695003986359,-3.81300020217896,-1.38900005817413,4.7839503288269,0.58200001716614,4.27905035018921,SWING_RIGHT
0.38032498955727,0.6014249920845,0.40961250662804,0.24584999680519,-0.05348749831319,0.10656250268221,0.18108749389648,0.67223751544952,1.25743746757507,-1.21288752555847,3.27937507629395,5.79493761062622,3.54076242446899,1.96239995956421,1.93187499046326,0.42239999771118,0.35406249761581,0.28682500123978,0.33453750610352,0.26124998927116,-0.33618751168251,-0.7039999961853,-2.7112250328064,-1.32577502727509,5.15899991989136,1.78956246376038,0.18672500550747,2.21223759651184,0.31377500295639,-0.84328746795654,0.71156251430511,1.10371243953705,1.35176253318787,1.29552495479584,0.88137501478195,0.54656249284744,-1.08308744430542,-1.56818747520447,-8.5905876159668,-14.5513496398926,-14.8004999160767,-15.4479875564575,-14.930025100708,-9.90151214599609,-2.77034997940063,-0.09000000357628,0.04995000362396,0.64905005693436,2.33805012702942,2.9479501247406,5.57295036315918,11.0239505767822,23.5180511474609,60.1579513549805,49.1149520874023,22.7640018463135,28.9020004272461,10.371000289917,-12.657000541687,-24.4399509429932,-1.24500000476837,-1.25400006771088,-0.27300000190735,0.53700000047684,1.19295001029968,2.69100022315979,5.34900045394897,12.0900001525879,0.97995007038116,-19.1820011138916,-29.6560516357422,-47.6689529418945,-56.0710525512695,-43.1989517211914,-25.9780521392822,10.8979501724243,9.49995040893555,8.40000057220459,8.6650505065918,8.68695068359375,10.6800003051758,9.86595058441162,18.4950008392334,17.1379508972168,10.1080503463745,30.6370506286621,14.5129508972168,-1.59705007076263,0.96195006370544,2.56305003166199,SWING_RIGHT
0.09679999947548,-0.19511249661446,-0.53721249103546,-0.44687500596046,0.13474999368191,0.76394999027252,-0.14135000109673,-0.8927875161171,0.52071249485016,5.13754987716675,7.74839973449707,1.76082503795624,-1.76137495040894,0.93857496976852,1.2306250333786,-0.32890000939369,-0.10779999941587,-1.37582504749298,-2.38507509231567,-1.43453752994537,-1.01310002803802,0.19401249289513,4.72037506103516,6.17911243438721,3.99712491035461,0.6289250254631,-0.25066250562668,0.88797497749329,-0.69300001859665,0.21353749930859,0.62356251478195,0.71156251430511,1.64986252784729,1.45309996604919,-0.80093747377396,-7.64733743667603,-14.3521127700806,-18.8065624237061,-19.113187789917,-15.0008373260498,-7.81481266021729,-0.254787504673,4.17876243591309,4.09571266174316,1.92953753471375,0.50700002908707,1.09395003318787,1.39305007457733,14.3149509429932,30.0100517272949,45.5299530029297,44.401050567627,37.4590530395508,19.1190013885498,-3.2749502658844,-18.8980503082275,-26.3059520721436,-12.7150506973267,-0.1710000038147,3.54600024223328,2.14800000190735,2.38005018234253,3.91605019569397,5.08605003356934,0.81000006198883,-2.91195011138916,-20.814001083374,-40.4160003662109,-53.8909530639648,-52.0390510559082,-45.9730529785156,-28.7869510650635,-17.3869514465332,-5.38905048370361,0.26700001955032,9.55500030517578,8.17905044555664,9.97200012207031,10.9500007629395,17.2249507904053,15.3490505218506,15.6979503631592,5.21895027160645,4.0090503692627,6.54495048522949,3.64500021934509,-11.776050567627,4.83195018768311,12.6450004577637,5.39400005340576,SWING_RIGHT
0.38389998674393,0.17627499997616,0.53418749570847,1.90011250972748,0.12608750164509,0.0417999997735,1.14014995098114,0.30085000395775,1.58358752727509,6.20537519454956,5.76922512054443,0.64776247739792,0.3936625123024,1.70582497119904,0.32161250710487,-0.93967497348785,-1.66292500495911,-2.64041256904602,-0.02461249940097,1.14454996585846,-0.71981251239777,1.01007497310638,5.12723731994629,5.05023765563965,1.03454995155334,0.08401250094175,0.2050125002861,-0.45100000500679,-0.61971247196198,-0.42899999022484,1.14647495746613,1.48486244678497,2.74931240081787,-0.73369997739792,-6.34383726119995,-11.4750623703003,-16.6306247711182,-18.4742240905762,-17.9427871704102,-10.5965747833252,-3.47407507896423,0.1214125007391,3.30274987220764,4.00771236419678,2.28263759613037,1.76595008373261,2.73000001907349,7.18605041503906,36.9970512390137,39.1480522155762,39.5050506591797,36.6040534973145,22.443000793457,11.826000213623,-19.6639518737793,-11.9440507888794,-12.9060001373291,-14.824951171875,-5.75400018692017,-1.32195007801056,0.73095005750656,0.68295001983643,2.57400012016296,2.14800000190735,-2.65605020523071,-12.4819507598877,-33.3190498352051,-47.5380020141602,-59.055004119873,-42.9460525512695,-37.6140022277832,-24.5590515136719,-13.8859510421753,-5.28600025177002,1.89900004863739,9.73200035095215,8.57400035858154,12.8170509338379,13.2360010147095,9.54795074462891,19.2180004119873,15.1039505004883,3.18300008773804,4.65195035934448,12.5560503005981,-2.91495013237,-7.77300024032593,6.60000038146973,5.67405033111572,1.70700013637543,SWING_RIGHT
0.32532501220703,-0.02172499895096,-0.0082499999553,-0.02296249940991,-0.27829998731613,-0.37592500448227,-1.19693744182587,-0.51521247625351,0.6209499835968,2.90303754806519,4.02586269378662,5.31960010528564,4.70029973983765,0.92028748989105,-0.01306249946356,0.13901250064373,0.21848750114441,-0.28861248493195,-0.45594999194145,-0.342375010252,-1.68863749504089,-3.30866241455078,-1.54206252098084,3.55863738059998,3.57445001602173,5.06371259689331,3.71868753433228,0.58368748426437,0.74373751878738,0.83050000667572,-0.20968750119209,0.06641250103712,0.27046251296997,0.1568875014782,0.41098749637604,0.81042498350143,0.29741248488426,-2.76058745384216,-11.3955869674683,-15.0057878494263,-16.6550998687744,-15.0180244445801,-9.88803768157959,-2.42219996452332,1.2282874584198,-0.13500000536442,-1.46595001220703,-0.82905006408691,-0.32400000095367,-0.95100003480911,0.32595002651215,11.017050743103,40.9429512023926,53.7139511108398,37.2510032653809,29.7199516296387,10.7299509048462,-11.5110006332397,-21.8320503234863,-12.6979503631592,-0.37800002098083,0.20700001716614,0.86295002698898,1.00095009803772,1.05405008792877,2.25795006752014,7.15095043182373,8.6419506072998,-6.73905038833618,-23.320951461792,-40.6840515136719,-47.623950958252,-42.2610015869141,-27.2100009918213,-20.5290012359619,8.05995082855225,7.42800045013428,8.7610502243042,8.7940502166748,9.11295032501221,11.9550008773804,13.2379503250122,24.7069511413574,21.9220504760742,17.7889499664307,3.42705011367798,2.48400020599365,-2.81295013427734,-4.49505043029785,3.95805025100708,SWING_RIGHT
-0.01553750038147,-0.57144999504089,-0.39544999599457,-0.00206249998882,-0.01677500084043,1.33815002441406,4.91645002365112,8.19431209564209,7.34401226043701,2.81641244888306,0.2727999985218,1.23420000076294,1.83535003662109,-0.06324999779463,-1.45846247673035,-0.2788499891758,-1.00938749313354,-1.44306254386902,-3.29518747329712,0.4493499994278,6.75097513198853,6.89755010604858,5.53162479400635,3.41687488555908,0.4493499994278,-0.45100000500679,0.26124998927116,-0.36066249012947,0.01443750038743,0.17448750138283,0.77385002374649,1.28205001354218,1.6131500005722,1.70238745212555,-4.78252506256104,-12.0284996032715,-14.5708751678467,-16.7088623046875,-14.8334999084473,-9.68646240234375,-0.86075001955032,5.68383741378784,5.54468727111816,2.88736248016357,1.67791247367859,-2.40900015830994,0.31095001101494,5.26500034332275,18.3319511413574,50.347053527832,50.9640007019043,31.711051940918,33.9360008239746,12.2110509872437,-10.1110506057739,-30.0750007629395,-19.3189506530762,-2.44905018806458,1.59105002880096,-4.67204999923706,2.28600001335144,3.24105024337769,3.21705007553101,6.01905012130737,1.92000007629395,-11.5579509735107,-27.1840515136719,-51.0580520629883,-60.061954498291,-49.1629524230957,-33.1870498657227,-24.0559520721436,-9.78194999694824,2.581050157547,5.55300045013428,9.12495040893555,11.0050506591797,14.0250005722046,19.3039512634277,20.4430503845215,23.1520519256592,17.7270011901855,2.61105012893677,-10.1899509429932,-12.1500005722046,-1.34100008010864,4.20195007324219,1.53195011615753,-3.29595017433167,3.81195020675659,SWING_RIGHT
0.3436124920845,-0.72902500629425,-1.29964995384216,-1.79561245441437,-0.27706250548363,0.79323750734329,-1.20064997673035,1.27696251869202,2.57441258430481,5.45641231536865,7.29753732681274,5.55060005187988,1.80358743667603,-0.65326249599457,-1.13836252689362,-0.865149974823,-0.36671251058578,-0.06503749638796,0.22206249833107,-0.34718748927116,-2.26655006408691,0.42734998464584,6.1327748298645,5.02466249465942,6.91212511062622,1.8298499584198,0.83668750524521,-0.85304999351501,-0.46200001239777,-0.59276247024536,0.99123752117157,0.82389998435974,1.21852505207062,2.39387488365173,2.06758737564087,-4.20461225509644,-10.0566120147705,-13.9257249832153,-17.9843120574951,-14.4633502960205,-11.5568752288818,-9.26378726959229,-2.09591245651245,4.35957479476929,4.97529983520508,2.13495016098022,1.33095002174377,1.34295010566711,1.80900013446808,16.03005027771,39.8110504150391,42.8760032653809,37.2390022277832,30.5839519500732,2.26395010948181,4.70700025558472,-5.89500045776367,-26.7319507598877,-19.420051574707,-4.8880500793457,2.16900014877319,2.39895009994507,1.84605014324188,2.19495010375977,2.96595025062561,0.12300000339746,-12.3930006027222,-25.5130519866943,-43.6110038757324,-44.2000503540039,-44.5039520263672,-41.7330017089844,-26.0830516815186,-17.3869514465332,-11.9910001754761,7.23705053329468,6.91800022125244,8.10000038146973,8.53605079650879,17.1840000152588,15.5400009155273,17.0479507446289,21.9790515899658,12.7069501876831,4.55400037765503,-0.08205000311136,-8.68695068359375,-7.28700017929077,-2.16195011138916,3.13500022888184,SWING_RIGHT
-0.24887499213219,-0.64226251840591,-0.68502497673035,-0.05101250112057,1.65206253528595,2.16645002365112,0.83957499265671,1.93063747882843,4.0613374710083,5.01049995422363,2.24454998970032,0.15056249499321,-0.18177500367165,-0.41868749260902,-0.8927875161171,0.14630000293255,-0.03079999983311,-0.66605001688004,-2.71370005607605,-3.41852498054504,-1.87921249866486,4.1218376159668,4.90985012054443,4.00578737258911,-0.4974749982357,-1.10096251964569,-0.04784999787807,-0.32766249775887,-0.19937500357628,0.08772499859333,0.86185002326965,0.88013750314713,1.06342494487762,-0.65560001134872,-3.89798736572266,-9.62898731231689,-15.2061252593994,-18.1773624420166,-15.9354248046875,-12.4328870773315,-5.55706262588501,3.36998748779297,5.8940749168396,4.24228763580322,1.70967495441437,0.55800002813339,1.39995002746582,4.84305000305176,18.1410007476807,32.2639503479004,52.2400512695313,44.9490013122559,26.9110507965088,12.1969509124756,-4.83495044708252,-25.6699504852295,-31.5160522460938,-10.2210006713867,3.26205015182495,1.52700006961823,1.36800003051758,2.26500010490417,3.09795022010803,4.66500043869019,2.10900020599365,-2.79000020027161,-20.9140510559082,-45.8910026550293,-57.3490524291992,-55.3080024719238,-39.1339530944824,-22.2829513549805,-11.4600009918213,0.53700000047684,5.51205015182495,9.39495086669922,10.7209501266479,13.3189506530762,16.2649517059326,23.355001449585,18.8110504150391,10.8120002746582,9.25605010986328,3.08295011520386,-1.28805005550385,-6.72000026702881,0.07200000435114,4.28595018386841,5.11200046539307,7.44195032119751,SWING_RIGHT
0.690524995327,0.34732499718666,0.43642500042915,0.80781251192093,1.51401245594025,1.00581252574921,0.168850004673,-0.18782499432564,-0.15111249685287,1.36991250514984,3.55066251754761,6.75757503509521,5.51512479782104,1.98921251296997,0.64899998903275,0.00343749998137,-0.18961249291897,-0.13337500393391,-0.74057501554489,-1.46258747577667,-0.52676248550415,0.5654000043869,-0.73699998855591,-1.08762502670288,5.24328756332397,6.49921226501465,4.86584997177124,-0.78581249713898,0.26853749155998,-0.44247499108315,0.767662525177,0.89361250400543,0.79089999198914,1.26499998569489,1.14276254177094,-0.03368749842048,-0.86941248178482,-4.0225625038147,-10.8726749420166,-14.9495496749878,-16.6648616790771,-13.8036251068115,-6.96327495574951,-0.64459997415543,4.0199499130249,2.59395003318787,1.81200003623962,2.70405006408691,2.61600017547607,6.98505020141602,8.49495029449463,13.6680002212524,30.9979515075684,49.3680038452148,36.8010025024414,17.7119998931885,-7.3690505027771,-24.6049518585205,-28.5409507751465,-23.8110008239746,-0.32100000977516,0.48495003581047,0.01095000095665,0.15000000596046,-0.87405002117157,-0.46200001239777,-0.04605000093579,-3.24300026893616,-17.3940010070801,-30.9930019378662,-50.6530532836914,-54.2260513305664,-41.0460014343262,-27.9880504608154,-15.657000541687,10.4380502700806,8.90205001831055,10.326000213623,11.5459508895874,11.4769506454468,7.67505025863647,8.30400085449219,15.2650508880615,21.0079517364502,13.7959508895874,-0.04905000329018,-1.77195012569427,-10.4629507064819,-8.04300022125244,-1.93005013465881,SWING_RIGHT
-0.01196249946952,0.1127500012517,0.1395625025034,0.2727999985218,0.19456249475479,-0.45539999008179,-1.47922503948212,-1.46574997901917,-1.18964993953705,2.23973751068115,5.63241243362427,5.18650007247925,0.68076246976852,1.02409994602203,2.06497502326965,-0.14685000479221,-0.1370874941349,-0.22261250019073,-1.27448749542236,-1.72039997577667,0.15001249313354,0.23553749918938,-1.99168753623962,1.0920250415802,7.36422491073608,3.73944997787476,-0.57323747873306,0.4823499917984,-0.12113749980927,0.05472499877214,0.31569999456406,0.29864999651909,0.3962749838829,1.07566249370575,0.78966248035431,-1.43990004062653,-2.96463751792908,-5.29443740844727,-15.3649377822876,-15.7656126022339,-16.9202003479004,-12.5757503509521,-6.37188768386841,-0.19249999523163,2.6967875957489,0.50700002908707,2.44995021820068,2.58705019950867,3.85305023193359,9.00195026397705,16.3390502929688,13.0560007095337,31.6579513549805,59.5909538269043,24.0439510345459,18.4540500640869,-6.92895030975342,-18.4480514526367,-20.3599510192871,-12.1549501419067,0.8029500246048,0.89400005340576,1.50600004196167,1.61205005645752,1.96305012702942,0.8359500169754,-0.4120500087738,-2.77800011634827,-26.4180011749268,-38.8399505615234,-55.6590042114258,-50.4930038452148,-34.6210517883301,-23.3410511016846,-13.7160005569458,10.7110500335693,10.0960502624512,9.82605075836182,9.37604999542236,8.28194999694824,6.31800031661987,8.28194999694824,15.4420509338379,23.4370517730713,7.11495018005371,4.98195028305054,-5.39205026626587,-4.62405014038086,7.33695030212402,4.60395002365112,SWING_RIGHT
0.16403749585152,-0.30634999275208,-0.49321249127388,0.23003749549389,0.98986250162125,0.36684998869896,-0.37235000729561,0.11398749798536,0.66495001316071,1.25991249084473,1.46272504329681,3.36737489700317,6.33737516403198,4.69906234741211,1.97463750839233,-0.51094996929169,-0.23113749921322,-0.14313749969006,-0.49252501130104,-0.75157499313354,-1.21825003623962,-1.80097496509552,-3.49923753738403,0.12677499651909,4.54822492599487,4.05583763122559,5.87991237640381,1.26664996147156,0.04248749837279,-0.22866250574589,0.42570000886917,0.51122498512268,0.79832500219345,0.92042499780655,0.52098751068115,0.52579998970032,1.32605004310608,0.62961250543594,-4.90833759307861,-11.9685497283936,-16.3105239868164,-16.3557624816895,-14.662449836731,-9.35659980773926,-1.58523750305176,-2.23395013809204,-2.18595004081726,-2.55900001525879,-1.675950050354,0.52695000171661,-1.46100008487701,1.43595004081726,20.826000213623,53.5249519348145,50.2920036315918,36.6480026245117,25.5660018920898,8.53995037078857,-5.97900009155273,-20.4180011749268,0.45300000905991,0.80805003643036,0.56805002689362,0.61095005273819,0.55605000257492,1.60395002365112,2.65005016326904,7.04595041275024,6.54795026779175,-9.18195056915283,-24.2599506378174,-40.4310035705566,-46.8390007019043,-41.4880523681641,-28.4209518432617,8.07900047302246,7.67205047607422,8.83695030212402,10.5439500808716,9.28695011138916,7.74600028991699,10.0699501037598,19.8900012969971,23.8860015869141,15.9130506515503,9.07200050354004,7.1980504989624,6.86295032501221,-1.40295004844666,2.48400020599365,SWING_RIGHT
0.11398749798536,-0.01072499994189,-0.08758749812841,-0.00329999998212,-0.24763749539852,-0.3979249894619,0.83228749036789,1.56901252269745,-0.16211250424385,0.45237499475479,2.50359988212585,4.45953750610352,4.81387519836426,3.95009994506836,2.73212504386902,-0.18356250226498,-0.24337500333786,0.05224999785423,-0.45347499847412,-0.34842500090599,-0.76752501726151,-0.94709998369217,-3.66286253929138,0.5849249958992,3.82978749275208,2.55433750152588,2.68386244773865,-1.34296250343323,-1.88045001029968,-1.15472495555878,0.38651248812675,0.14341250061989,0.36946249008179,0.36217498779297,0.66385000944138,1.50438749790192,1.77567493915558,-4.47218751907349,-12.1970748901367,-15.0900745391846,-16.7723865509033,-14.799262046814,-10.8178119659424,-5.40924978256226,0.54532498121262,-0.48000001907349,-0.60405004024506,-1.84095013141632,-0.25500002503395,-0.52799999713898,3.54600024223328,10.3849506378174,46.2070503234863,49.4569511413574,33.0529518127441,28.3420505523682,10.2559509277344,-0.61395001411438,-11.3359508514404,-9.92505073547363,0.1540500074625,0.62595003843307,1.42500007152557,1.99005007743835,3.11700010299683,4.08105039596558,1.53705012798309,3.01905012130737,-9.98295021057129,-20.5429515838623,-40.4020500183105,-46.2259521484375,-42.5320510864258,-30.3829517364502,-19.5670509338379,9.78705024719238,9.26805019378662,9.79500007629395,10.0410003662109,9.68205070495605,12.4240503311157,15.937050819397,13.2120008468628,15.4540510177612,15.4039506912231,14.4199504852295,8.97105026245117,7.03605031967163,5.0179500579834,5.80605030059814,SWING_RIGHT
-0.70950001478195,-1.03331243991852,-0.79502499103546,-1.98013746738434,-1.21893751621246,1.82792496681213,2.24702501296997,1.85487496852875,2.48407506942749,4.23348760604858,2.37778759002686,2.83841252326965,2.99475002288818,1.77911245822906,0.63800001144409,0.02296249940991,-0.94214999675751,-1.35506248474121,-1.25619995594025,-1.8437374830246,-0.69781249761581,0.2404875010252,3.59645009040833,3.082200050354,0.00219999998808,0.21601249277592,-0.36918750405312,-0.62204998731613,-0.08208750188351,-0.32890000939369,-0.11563749611378,0.82142502069473,1.34186244010925,0.59785002470016,0.6846125125885,-4.13503742218018,-9.60464954376221,-16.7101001739502,-14.8359746932983,-8.03110027313232,-2.85463738441467,1.31876254081726,1.42381250858307,0.60774999856949,0.79708749055862,-0.1540500074625,-1.89600014686584,2.76195001602173,6.94695043563843,16.0470008850098,42.2659530639648,45.6760520935059,32.0050506591797,9.97395038604736,-10.267050743103,-13.7490005493164,-13.7130002975464,-2.64795017242432,-4.96200037002563,-7.58205032348633,1.12305009365082,2.45400023460388,2.4060001373291,4.13895034790039,11.3509502410889,9.70200061798096,0.50805002450943,-41.8350028991699,-52.0870513916016,-43.5559501647949,-30.7660522460938,-16.570951461792,-10.0500001907349,-4.25699996948242,-2.08695006370544,7.59600019454956,8.18400001525879,8.97405052185059,8.2630500793457,23.9970016479492,27.5449504852295,20.6110515594482,4.40805006027222,5.49900007247925,7.46205043792725,1.35000002384186,7.25595045089722,5.07300043106079,2.88600015640259,4.26000022888184,SWING_RIGHT
-0.57144999504089,-0.84383749961853,-1.46203744411469,-1.09793746471405,1.69977498054504,3.10956239700317,1.42243754863739,0.84823751449585,3.13156247138977,5.24383735656738,5.49807500839233,3.30632495880127,1.24520003795624,0.87999999523163,0.0027499999851,0.21230000257492,0.5543999671936,-0.39971250295639,-0.97267496585846,-2.85174989700317,-1.14138746261597,0.74621248245239,2.61786246299744,5.37652492523193,2.04118752479553,0.47134998440742,-0.80905002355576,-0.67952501773834,-1.12419998645782,-0.54518747329712,-0.19621250033379,-0.27555000782013,0.11893749982119,1.3113374710083,0.26565000414848,-4.1472749710083,-10.3474245071411,-15.7020874023438,-16.61838722229,-12.3888874053955,-6.23259973526001,-0.57983750104904,2.52821254730225,2.77983736991882,1.22952497005463,0.2080500125885,-0.4200000166893,-2.15505003929138,3.07005023956299,24.7909507751465,44.0340003967285,48.7249526977539,39.9760513305664,23.3190002441406,-4.44705009460449,-15.5809507369995,-20.2720508575439,-12.8490009307861,-5.24205017089844,-1.28100001811981,1.52805006504059,0.68295001983643,1.85295009613037,3.72195029258728,6.34995031356812,6.39000034332275,-4.59900045394897,-26.6170520782471,-51.1009521484375,-50.0790023803711,-43.1440505981445,-28.7010021209717,-15.1260004043579,-3.01995015144348,3.27000021934509,9.36195087432861,8.98095035552979,10.4530506134033,15.3700504302979,24.0610504150391,17.7679500579834,10.9309501647949,19.6819515228271,14.4780006408691,8.70600032806396,-0.46800002455711,-5.64600038528442,-1.60905003547668,3.89100027084351,3.00405025482178,SWING_RIGHT
-0.16335000097752,-0.31363749504089,-0.07548750191927,0.11027500033379,-0.00948750041425,0.07356250286102,1.27091252803802,2.81270003318787,2.69541239738464,2.88351249694824,3.49923753738403,-0.19030000269413,-0.49445000290871,3.59823751449585,4.25920009613037,0.80602496862411,0.58011251688004,-0.28242498636246,-0.5292375087738,-0.52442497014999,-0.72105002403259,-1.18772494792938,-0.70633751153946,1.10178744792938,2.62404990196228,1.4499374628067,-0.19566249847412,0.07301250100136,-0.96786248683929,-1.00567495822906,-0.34773749113083,0.00907499995083,0.50875002145767,0.67608749866486,0.99247497320175,1.21481251716614,0.7041375041008,-4.03232479095459,-9.67175006866455,-12.9875621795654,-14.6734495162964,-9.7865629196167,-5.33225011825562,1.33704996109009,1.74638748168945,0.39495003223419,-0.79095005989075,-0.91800004243851,1.0200001001358,1.4479501247406,6.62100028991699,17.3460006713867,40.7250022888184,44.2279510498047,34.6369514465332,25.3699512481689,-2.52795004844666,-19.5850505828857,-22.7100009918213,-7.48395013809204,-0.26595002412796,0.08295000344515,0.82200002670288,1.27395009994507,2.59995007514954,4.18605041503906,5.08395004272461,7.12500047683716,-1.68705010414124,-19.359001159668,-30.6409511566162,-37.6740036010742,-34.6110000610352,-25.3270511627197,-18.1150512695313,8.13899993896484,8.11695003509521,9.51000022888184,9.57705020904541,10.1629505157471,13.6590003967285,18.3970508575439,22.735050201416,19.1220016479492,12.7789506912231,9.72795009613037,-0.50805002450943,9.77295017242432,12.702000617981,4.20000028610229,SWING_RIGHT
-0.53597497940063,-0.24653749167919,0.96428751945496,1.69853746891022,0.29713749885559,-0.09748750180006,0.24956250190735,0.6514750123024,3.04727506637573,5.07773733139038,2.91774988174438,3.36489987373352,2.94470000267029,1.49572503566742,-0.30882498621941,-0.61599999666214,-1.07662498950958,-2.99585008621216,-4.76368761062622,-2.2372624874115,0.48606249690056,0.35653749108315,4.3636999130249,1.80537497997284,1.66732501983643,0.68639999628067,0.51658749580383,0.20253749191761,0.21725000441074,-0.1370874941349,0.66756248474121,1.43110001087189,1.84772503376007,0.43793749809265,-3.58393740653992,-9.59241199493408,-16.4998626708984,-18.6220378875732,-19.2462882995605,-11.8892126083374,-4.21684980392456,3.42980003356934,5.02906227111816,2.6417875289917,1.59238743782043,-1.34595000743866,-1.45095002651215,7.66695022583008,26.9950504302979,48.4609527587891,52.9309539794922,46.4629516601563,37.1260528564453,21.8280010223389,-5.94300031661987,-20.97705078125,-25.2270011901855,-3.44205021858215,1.25400006771088,-2.32995009422302,1.55400002002716,3.11205005645752,4.2529501914978,3.67005014419556,1.45395004749298,-7.2529501914978,-29.0929508209229,-48.2910041809082,-71.9089508056641,-60.9330024719238,-44.2399520874023,-29.5020008087158,-14.1660003662109,-0.31395000219345,3.89205026626587,8.08605003356934,12.0540008544922,15.4350004196167,15.9799509048462,12.901050567627,16.7629508972168,16.4250011444092,8.76600074768066,14.7790508270264,5.889000415802,2.16405010223389,6.67695045471191,2.09700012207031,0.26100000739098,1.24695003032684,SWING_RIGHT
-0.14135000109673,0.04551250115037,1.20614993572235,1.28438746929169,-1.0393625497818,-1.11759996414185,-0.12553749978542,2.07721257209778,2.53041243553162,0.37908750772476,-0.07658749818802,1.47730004787445,1.75711250305176,1.30996251106262,0.33632498979568,0.36258751153946,0.39311251044273,-0.51823747158051,-1.08143746852875,-3.09856247901917,-0.42542499303818,2.63614988327026,1.9325624704361,0.9013124704361,0.33701249957085,0.512875020504,0.01567500084639,-0.67952501773834,-0.93857496976852,-0.75157499313354,0.34869998693466,0.23622499406338,-0.54931247234344,-3.55712509155273,-5.35053730010986,-7.49471235275269,-13.2379503250122,-14.3900623321533,-14.6356372833252,-11.4322996139526,-5.5668249130249,-0.76669996976852,1.67914998531342,2.89231252670288,2.78478741645813,1.90005004405975,5.35095024108887,10.9519500732422,20.566951751709,21.6490516662598,38.5039520263672,42.3670501708984,21.1699504852295,20.8039512634277,2.06805014610291,-11.8650007247925,-11.8290004730225,-9.2160005569458,-7.13205051422119,-3.23895025253296,1.557000041008,2.24805021286011,2.81505012512207,1.932000041008,4.69395017623901,5.75895023345947,-11.4450006484985,-22.465051651001,-41.2350006103516,-42.9619522094727,-32.3119506835938,-23.8810520172119,-15.5850009918213,-7.38495016098022,-2.5770001411438,9.18195056915283,12.8359508514404,14.6070003509521,10.1989507675171,9.37305068969727,15.364951133728,13.7070007324219,15.901050567627,4.60200023651123,0.81195002794266,6.42795038223267,6.8299503326416,4.85100030899048,3.97305011749268,4.31205034255981,SWING_RIGHT
-0.16706250607967,-0.00329999998212,0.18356250226498,-0.19634999334812,-0.45663750171661,-1.02231252193451,-1.21288752555847,-2.09494996070862,-2.66172504425049,2.0992124080658,4.7528247833252,2.82975006103516,-0.96978747844696,-1.79437494277954,1.41872501373291,0.2050125002861,-0.15784999728203,-0.37771248817444,-0.24213749170303,-1.6776374578476,-0.7540500164032,-2.00502490997314,-1.29153752326965,2.59586238861084,2.78286242485046,2.6496250629425,1.16159999370575,1.203125,0.76092499494553,0.42363750934601,0.17888750135899,0.03107500076294,0.10917499661446,0.32546249032021,0.88013750314713,0.43174999952316,0.73108750581741,-0.29754999279976,-7.74276256561279,-11.2649621963501,-12.9545621871948,-13.7278623580933,-11.0241994857788,-7.18066263198853,-2.65553736686707,0.60600000619888,0.97395002841949,0.75600004196167,1.56495010852814,-0.20895001292229,7.35105037689209,2.95500016212463,22.6849517822266,57.9520530700684,30.4360523223877,38.4949531555176,23.4049510955811,13.7860507965088,-0.33900001645088,-7.26405048370361,1.96305012702942,1.99005007743835,2.62395024299622,2.91300010681152,3.12900018692017,2.70495009422302,4.95705032348633,8.01705074310303,-2.9719500541687,-1.27995002269745,-10.3140001296997,-23.0370006561279,-34.3219528198242,-37.3729515075684,-31.2280521392822,9.99600028991699,10.3980007171631,10.1059503555298,8.62695026397705,9.00300025939941,7.78005027770996,9.02895069122314,9.10500049591064,12.7210502624512,31.8790512084961,11.5729503631592,1.42905008792877,-3.25500011444092,6.80595016479492,10.6939506530762,SWING_RIGHT
-0.2073500007391,-0.71073746681213,-0.20006249845028,0.29603749513626,-0.54821246862411,-2.21099996566772,-0.08882500231266,5.677649974823,7.48206233978271,2.8920373916626,-0.03272499889135,1.47372496128082,0.99357497692108,0.65023750066757,-0.0692999958992,-0.65381246805191,-1.02162504196167,-2.07226252555847,-1.44553744792938,0.08277499675751,2.78519988059998,5.39604997634888,4.48098754882813,1.52817499637604,0.58616250753403,0.29658749699593,-0.21037499606609,0.01319999992847,-0.89691251516342,-0.82128751277924,1.34681248664856,1.12199997901917,-0.56883752346039,-1.51813745498657,-4.59318733215332,-7.61805009841919,-10.9546251296997,-13.0901374816895,-14.4878253936768,-11.6461124420166,-6.32307481765747,-0.43683749437332,3.6313750743866,4.76396226882935,4.56486225128174,-0.15705001354218,5.05200004577637,9.57195091247559,16.9870510101318,35.451000213623,40.4040031433105,40.0240516662598,32.6470527648926,24.9460506439209,3.04605007171631,-11.5570507049561,-20.5519504547119,-15.4999504089355,-8.09895038604736,-4.27695035934448,2.31300020217896,1.25505006313324,1.87995004653931,8.54100036621094,10.5040502548218,3.49200010299683,-11.8590002059937,-26.6500511169434,-47.3560523986816,-46.222053527832,-37.7440528869629,-28.0590019226074,-18.1840515136719,-10.0219507217407,-1.85700011253357,8.39205074310303,10.4290504455566,12.1920003890991,15.0420007705688,12.457950592041,14.5710010528564,21.1150512695313,20.6749515533447,3.43695020675659,-7.62195014953613,1.5940500497818,5.4060001373291,2.08500003814697,3.72900009155273,4.48200035095215,SWING_RIGHT
0.00879999995232,0.10656250268221,1.38324999809265,3.12661242485046,2.15297508239746,1.87316250801086,1.52501249313354,0.54766249656677,0.52071249485016,2.30078744888306,2.54883742332459,1.13891243934631,0.97281247377396,1.09738755226135,-0.28187498450279,-1.55182504653931,-3.71057486534119,-1.85844993591309,2.16218757629395,-0.63800001144409,-0.18356250226498,3.09553742408752,3.16153740882874,-0.0930875018239,-1.42353749275208,-1.70087504386902,-0.3814249932766,-0.3631374835968,-0.28737500309944,0.45539999008179,0.81290000677109,2.9606499671936,2.72607493400574,-2.1350998878479,-6.89122486114502,-11.3467750549316,-16.8249130249023,-17.0533008575439,-12.9984245300293,-6.07378768920898,1.59609997272491,4.50862503051758,2.52340006828308,0.17641249299049,-0.77770000696182,-0.4200000166893,4.23600006103516,25.6860008239746,38.8110008239746,33.2970008850098,37.2310523986816,29.1100521087646,4.58505010604858,-11.1450004577637,-31.252950668335,-26.0220012664795,-8.23799991607666,5.39595031738281,2.42895007133484,-1.82895004749298,3.26700019836426,4.25594997406006,-2.63205003738403,-5.08005046844482,-9.84705066680908,-16.3200016021729,-39.3870010375977,-54.6330032348633,-54.6850509643555,-40.4640007019043,-21.9480018615723,-8.14305019378662,1.15905010700226,4.97595024108887,3.55200028419495,12.5920505523682,14.2240505218506,15.6240005493164,14.0680503845215,9.47895050048828,10.4860506057739,1.5130500793457,-1.2280501127243,3.94395017623901,8.74200057983398,5.33700037002563,4.13505029678345,8.88300037384033,8.01405048370361,5.73900032043457,SWING_RIGHT
-0.74373751878738,0.20927499234676,0.59289997816086,0.3619000017643,2.60383749008179,2.74793744087219,1.53106248378754,1.35396254062653,2.06016254425049,2.4450249671936,1.42725002765656,1.01804995536804,0.36808750033379,-0.01801249943674,-0.31006249785423,-0.88481247425079,-2.17731237411499,-1.68492496013641,0.27953749895096,2.09990000724792,1.45364999771118,2.86343741416931,0.88302499055862,1.16888749599457,-0.72957497835159,0.08401250094175,0.2208250015974,0.1560624986887,-0.21532499790192,-0.03079999983311,-0.77165001630783,-2.74463748931885,-4.86433744430542,-6.99984979629517,-10.9129629135132,-13.7633371353149,-13.9464874267578,-13.5397624969482,-10.179949760437,-2.14610004425049,2.87883758544922,3.9722375869751,3.10969996452332,1.36276245117188,0.46103748679161,4.60605001449585,13.5030002593994,19.0020008087158,27.5710506439209,39.1720504760742,31.185001373291,26.3989505767822,18.1960506439209,-2.2219500541687,-23.988000869751,-14.3989505767822,-6.28995037078857,-2.67900013923645,-1.24605000019073,-4.11899995803833,3.20805025100708,3.2989501953125,4.98105001449585,3.82305026054382,1.94400012493134,-10.9330501556396,-22.2709503173828,-40.9960517883301,-45.6709518432617,-33.1990509033203,-20.8069515228271,-7.58295059204102,-0.01500000059605,3.01095008850098,2.64795017242432,12.3790502548218,17.2720508575439,17.9110507965088,17.3299503326416,19.2319507598877,7.80900049209595,3.7020001411438,6.6670503616333,4.89600038528442,6.59505033493042,3.31905007362366,4.52100038528442,5.30295038223267,6.6259503364563,6.95400047302246,SWING_RIGHT
-0.56045001745224,-0.62768751382828,-0.11701250076294,1.13533747196198,1.45420002937317,0.40713748335838,0.78471249341965,0.87257498502731,-0.04372499883175,2.34478759765625,3.70328736305237,2.44983744621277,1.28314995765686,0.79323750734329,0.35832500457764,0.10353749990463,-0.08084999769926,-1.66306245326996,-2.1956000328064,-1.18648743629456,1.27160000801086,2.73033738136292,2.89396238327026,3.04301238059998,1.38022494316101,0.41511249542236,-0.64528751373291,-0.98614996671677,-1.05696249008179,-1.0509124994278,-0.02144999988377,0.2411749958992,0.17159999907017,-0.39283749461174,-3.69998741149902,-9.27231216430664,-14.6001625061035,-17.1657752990723,-15.6800870895386,-10.7419128417969,-4.44399976730347,0.37070000171661,2.89354991912842,3.64003753662109,2.66502499580383,2.08905005455017,4.78605031967163,10.1629505157471,19.9759502410889,37.9639511108398,46.5420036315918,43.2349510192871,28.3200016021729,12.6559505462646,-2.41095018386841,-13.6069507598877,-14.8440008163452,-10.6039505004883,-6.25395011901855,-1.53000009059906,1.66200006008148,1.13505005836487,1.8510000705719,3.44895005226135,3.94200015068054,-2.81400012969971,-19.2889499664307,-38.7940521240234,-49.3110008239746,-44.194953918457,-34.3530006408691,-22.8379516601563,-13.6950006484985,-5.24100017547607,0.14699999988079,9.87105083465576,10.900050163269,13.4650506973267,14.202000617981,11.90505027771,10.1800508499146,10.7470502853394,4.33605003356934,1.53195011615753,9.48105049133301,4.87995004653931,0.73995006084442,3.22095012664795,5.4060001373291,6.70305013656616,SWING_RIGHT
-0.33934998512268,-0.59950000047684,-0.72902500629425,-0.3979249894619,-0.44316250085831,-1.08336246013641,-0.2245374917984,1.06809997558594,1.47730004787445,2.36307501792908,2.0992124080658,-0.02529999986291,-1.92747497558594,2.05892491340637,4.38625001907349,-0.38747498393059,-0.06132499873638,-0.08703749626875,-1.36125004291534,-0.60623747110367,1.15664994716644,-0.5157625079155,1.35712504386902,-0.26908749341965,2.89767503738403,2.02784991264343,-0.04908749833703,1.98261249065399,1.11388754844666,0.12801249325275,-0.34883749485016,-0.13144999742508,0.13612499833107,-0.15592500567436,-1.0587500333786,-1.00251245498657,-1.29937493801117,-4.20708751678467,-9.87332534790039,-14.5524501800537,-15.8670873641968,-14.6869249343872,-9.55570030212402,-3.25655007362366,0.083599999547,1.80000007152557,1.08405005931854,1.85205006599426,3.92700028419495,6.97305011749268,9.19095039367676,16.2739505767822,28.5360012054443,46.9470024108887,34.8910522460938,27.693000793457,14.1040506362915,-0.09705000370741,-9.87705039978027,-10.6069507598877,1.86300003528595,1.90095007419586,2.00894999504089,3.45705008506775,3.18900012969971,2.81805014610291,6.75600051879883,2.13300013542175,-3.20895004272461,-15.1230010986328,-23.6539516448975,-34.0870513916016,-39.1459503173828,-33.7450523376465,-26.3530521392822,10.7089500427246,10.3309507369995,11.7880506515503,12.951000213623,11.0320501327515,9.69405078887939,16.1410503387451,10.2040500640869,16.303050994873,8.92605018615723,6.28905010223389,3.54900026321411,3.66195011138916,14.8920011520386,5.7940502166748,SWING_RIGHT
