gyro_x_0,gyro_y_0,gyro_z_0,acc_x_0,acc_y_0,acc_z_0,gyro_x_1,gyro_y_1,gyro_z_1,acc_x_1,acc_y_1,acc_z_1,gyro_x_2,gyro_y_2,gyro_z_2,acc_x_2,acc_y_2,acc_z_2,gyro_x_3,gyro_y_3,gyro_z_3,acc_x_3,acc_y_3,acc_z_3,gyro_x_4,gyro_y_4,gyro_z_4,acc_x_4,acc_y_4,acc_z_4,gyro_x_5,gyro_y_5,gyro_z_5,acc_x_5,acc_y_5,acc_z_5,gyro_x_6,gyro_y_6,gyro_z_6,acc_x_6,acc_y_6,acc_z_6,gyro_x_7,gyro_y_7,gyro_z_7,acc_x_7,acc_y_7,acc_z_7,gyro_x_8,gyro_y_8,gyro_z_8,acc_x_8,acc_y_8,acc_z_8,gyro_x_9,gyro_y_9,gyro_z_9,acc_x_9,acc_y_9,acc_z_9,gyro_x_10,gyro_y_10,gyro_z_10,acc_x_10,acc_y_10,acc_z_10,gyro_x_11,gyro_y_11,gyro_z_11,acc_x_11,acc_y_11,acc_z_11,gyro_x_12,gyro_y_12,gyro_z_12,acc_x_12,acc_y_12,acc_z_12,gyro_x_13,gyro_y_13,gyro_z_13,acc_x_13,acc_y_13,acc_z_13,gyro_x_14,gyro_y_14,gyro_z_14,acc_x_14,acc_y_14,acc_z_14,motion_type
1.83741247653961,4.54024982452393,4.21189975738525,0.8457624912262,1.55952501296997,3.17212510108948,2.00131249427795,-3.39267492294312,-1.97408747673035,10.5081624984741,15.252875328064,5.8686375617981,-2.04283738136292,-0.12911249697208,3.12207508087158,-2.29501247406006,-8.96720027923584,-9.03485012054443,-1.97628748416901,-0.99412500858307,-2.68853759765625,5.28165006637573,17.2811374664307,14.1200122833252,9.70901203155518,14.3022003173828,9.90522480010986,-2.51047492027283,-7.45813751220703,-3.25104999542236,-6.41011238098145,-27.4258880615234,-28.2477245330811,-6.04903745651245,-2.056725025177,-2.37998747825623,8.32260036468506,12.0331745147705,-6.33118724822998,-18.1959247589111,-19.0625877380371,-14.9030752182007,-11.067099571228,-9.55872535705566,-5.60422515869141,-1.21695005893707,-0.55395001173019,-2.34300017356873,-0.45300000905991,1.30395007133484,-0.36405003070831,-21.9529514312744,-52.3870506286621,-38.8879508972168,-17.1420001983643,6.64005041122437,37.4569511413574,32.3220024108887,4.45305013656616,-4.00500011444092,1.68195009231567,3.25395011901855,3.20595026016235,4.08195018768311,7.59600019454956,7.51905012130737,5.36100006103516,-18.0280513763428,-44.6029510498047,-55.138053894043,-54.7500038146973,-40.7830505371094,-20.1109504699707,-13.1230506896973,-5.55000019073486,9.39795017242432,8.95500087738037,11.5440006256104,10.2630004882813,7.82205057144165,12.4729509353638,19.7490005493164,22.5109519958496,24.4410018920898,13.4700002670288,6.24900007247925,-6.75495052337646,2.79300022125244,7.48695039749146,12.2359504699707,SWING_LEFT
0.67540001869202,1.1562374830246,0.32174998521805,-0.56622499227524,-0.10051249712706,1.66677498817444,1.90079998970032,-0.70166248083115,-3.10158753395081,-0.28531250357628,4.88097476959229,5.52365016937256,0.03176249936223,-0.94311249256134,2.03940010070801,-2.92806243896484,-2.36995005607605,-0.40741249918938,0.84988749027252,-0.03506249934435,-2.64893746376038,-4.42268753051758,-2.82672500610352,8.2977123260498,14.0815124511719,8.96871280670166,5.54441261291504,-0.02612499892712,-5.60339975357056,-4.97708749771118,8.46422481536865,2.92545008659363,-0.509850025177,-2.1455500125885,-3.49029994010925,-2.54663753509521,-1.43481254577637,-3.76145005226135,-18.0600757598877,-23.6989498138428,-13.3759994506836,-11.6543626785278,-12.3928747177124,-10.3910121917725,-6.28842496871948,3.39195013046265,2.09895014762878,0.08700000494719,3.31995010375977,7.02105045318604,15.1210508346558,6.12000036239624,-26.2570514678955,-64.9890060424805,-24.8890514373779,-4.06995010375977,24.877950668335,37.7800521850586,14.3209505081177,-0.10605000704527,2.64300012588501,2.33100008964539,2.11094999313354,4.56795024871826,9.31800079345703,14.4120006561279,7.76100015640259,-1.84200012683868,-29.1979522705078,-51.0960006713867,-50.9929542541504,-42.8400001525879,-40.8400535583496,-18.2310009002686,-10.85205078125,9.66600036621094,8.41604995727539,10.3080005645752,14.1790504455566,16.7989501953125,19.4089508056641,14.0710506439209,10.2220506668091,5.02005004882813,28.113000869751,19.336950302124,-4.60500001907349,6.54600048065186,8.70105075836182,11.6179504394531,SWING_LEFT
-0.05169999971986,-0.23168750107288,-0.33742499351501,-0.29644998908043,0.23264999687672,0.2910875082016,-1.98467493057251,0.1915374994278,1.37720000743866,1.85130000114441,6.12768745422363,3.18683743476868,0.18259999155998,3.18793749809265,5.02067518234253,0.72297501564026,0.37881249189377,-1.65192496776581,-3.5425500869751,-4.08815002441406,-1.90946245193481,2.00309991836548,6.00586223602295,9.15859985351563,8.95276260375977,9.12532520294189,5.68246269226074,-3.93786239624023,-5.6380500793457,0.28696250915527,1.52391254901886,0.77742499113083,-1.07181251049042,-1.51497495174408,-1.65041244029999,-3.6701500415802,-11.9150629043579,-28.0542621612549,-24.364725112915,-11.141900062561,-11.7511625289917,-13.3574371337891,-13.4116125106812,-9.13673782348633,-2.58871245384216,2.91600012779236,3.2989501953125,8.1340503692627,11.7270002365112,7.41795015335083,-4.63500022888184,-30.5350513458252,-48.6670532226563,-37.1689529418945,-6.06195020675659,23.4630012512207,40.6369514465332,16.6080017089844,2.24805021286011,3.78495025634766,1.11000001430511,2.58300018310547,2.1780002117157,4.81500005722046,10.2109508514404,7.30095052719116,0.74100005626678,-28.2730522155762,-50.6119537353516,-58.5079536437988,-38.5480499267578,-23.5510501861572,-14.859001159668,-9.36495018005371,-5.9850001335144,12.1069507598877,11.0629501342773,13.7860507965088,14.0179510116577,14.9779510498047,19.7850017547607,24.0199508666992,-1.82400012016296,34.2390022277832,1.81305003166199,1.33905005455017,2.10300016403198,7.05795049667358,10.1190004348755,8.61000061035156,SWING_LEFT
-0.57749998569489,-0.68832498788834,-1.15376245975494,-0.9840874671936,0.8260999917984,1.63501250743866,-0.09968750178814,-5.49340009689331,-8.84578704833984,4.07508754730225,12.0898246765137,3.65598750114441,-0.09418749809265,2.79028749465942,4.9741997718811,-0.75900000333786,-1.83177495002747,-3.43681240081787,-4.70703744888306,-3.21131253242493,-0.37812501192093,2.65980005264282,10.1447496414185,14.1851873397827,12.1789245605469,10.7501621246338,4.93927478790283,-4.70318746566772,-6.3388876914978,0.02309999987483,-5.60463762283325,-6.89081239700317,-11.5084753036499,-16.3821620941162,-12.8459377288818,-5.04831266403198,0.25231251120567,4.85292482376099,0.45278748869896,-10.3140125274658,-14.0500249862671,-13.4942502975464,-13.3024377822876,-9.78422451019287,-3.19921255111694,1.3900500535965,1.182000041008,0.80805003643036,0.03000000119209,-1.60005009174347,-2.32395005226135,-21.2419509887695,-43.3120536804199,-39.5040016174316,-13.8799505233765,17.881950378418,37.0470008850098,21.0649509429932,5.07405042648315,-0.63705003261566,2.5570502281189,2.97795009613037,3.96495008468628,7.53600025177002,12.1030502319336,9.4950008392334,1.80900013446808,-17.1820507049561,-31.1479511260986,-50.344051361084,-40.3470001220703,-28.8270015716553,-17.998950958252,-12.0880508422852,-5.89005041122437,9.39300060272217,9.89595031738281,10.1880006790161,12.3940505981445,20.9970016479492,20.9130001068115,12.445050239563,10.3080005645752,16.3800010681152,6.56505012512207,-5.5290002822876,1.81095004081726,11.1510009765625,11.5060501098633,11.6280002593994,SWING_LEFT
-0.12168750166893,-0.11536250263453,-0.04344999790192,0.47354999184608,1.5940375328064,2.20838737487793,-4.96498727798462,-6.64482498168945,17.7702255249023,28.9126739501953,29.1296501159668,22.830774307251,1.65178751945496,-0.21504999697208,4.43079996109009,-0.29589998722076,-0.19552500545979,-0.45374998450279,-1.72438752651215,-4.00798749923706,-4.60776233673096,-6.03954982757568,3.37424993515015,11.8764247894287,7.41001224517822,15.1729869842529,14.9788370132446,0.04922499880195,-6.62351226806641,-4.52003765106201,-0.59386247396469,-0.47162500023842,-0.20790000259876,0.20061250030994,0.47382500767708,-0.09418749809265,-11.6590375900269,-16.7908115386963,-27.309700012207,-29.5395374298096,-16.9834499359131,-16.801399230957,-13.984712600708,-10.8025503158569,-6.48339986801147,1.06905007362366,1.85205006599426,3.75195026397705,8.76405048370361,13.9590005874634,5.46195030212402,-18.4420509338379,-47.3500518798828,-41.2930526733398,-25.945951461792,-1.50705003738403,32.1660003662109,23.5819511413574,10.6489505767822,4.94895029067993,1.56705009937286,1.80195009708405,2.28795003890991,5.01900005340576,7.68900012969971,7.80600023269653,7.01100015640259,-4.28295040130615,-33.9310531616211,-41.2980003356934,-42.1240501403809,-31.3150520324707,-17.7019500732422,-11.1010503768921,-7.03695011138916,11.0989503860474,10.6390504837036,12.1810503005981,12.8899507522583,11.9250001907349,15.4459505081177,23.7990016937256,2.72295022010803,8.72504997253418,-0.82500004768372,13.2490510940552,-2.53800010681152,4.12695026397705,10.1380500793457,11.5110006332397,SWING_LEFT
-0.06476250290871,-0.52621251344681,-0.63414996862411,-0.13695000112057,0.86171251535416,1.84758746623993,1.53202497959137,-3.47036242485046,-9.8191499710083,-0.82087498903275,8.58261203765869,1.74212503433228,-0.33453750610352,2.93424987792969,1.66938745975494,-0.79777497053146,0.52002501487732,-0.03093750029802,-0.33233749866486,0.73301249742508,-4.13490009307861,-4.33303737640381,4.61807489395142,6.31413745880127,8.01693725585938,12.224437713623,4.14974975585938,-7.82429981231689,-5.32221269607544,4.24352502822876,0.3284874856472,0.48565000295639,0.17008750140667,-2.21553754806519,-7.85234975814819,-20.871675491333,-23.409236907959,-10.3863372802734,-3.70163750648499,-9.22776222229004,-15.2915124893188,-14.4141244888306,-13.0978374481201,-8.79642486572266,-3.71043753623962,3.23205018043518,5.59800004959106,2.41995000839233,-0.63300001621246,-3.04695010185242,-12.4740009307861,-32.6230506896973,-31.7890510559082,-37.8270034790039,-1.92795014381409,28.8540019989014,33.2869529724121,17.953950881958,6.09405040740967,2.24805021286011,1.03605008125305,2.53005003929138,3.16995024681091,7.78500032424927,11.9790010452271,9.61005020141602,-6.92400026321411,-22.7599506378174,-41.8390502929688,-44.605052947998,-32.4600028991699,-21.4330501556396,-13.0050010681152,-6.57495021820068,-3.49200010299683,9.50595092773438,11.5870504379272,7.546950340271,16.4269504547119,16.8970508575439,20.7960014343262,19.0279502868652,12.8950510025024,21.2560501098633,1.32405006885529,-1.41405010223389,4.1100001335144,6.91200017929077,9.50100040435791,11.6160001754761,SWING_LEFT
0.46653750538826,0.11055000126362,-0.40768748521805,0.41552498936653,1.730299949646,1.86078751087189,2.78437495231628,5.14923763275146,-7.30812501907349,-20.8730506896973,-10.3343620300293,-2.41628742218018,-1.56694996356964,4.92428731918335,9.03429985046387,-0.72888749837875,-1.82751250267029,-1.24024999141693,4.58356237411499,10.5334625244141,9.5831995010376,2.83112502098084,2.52752494812012,2.72181248664856,-3.25627493858337,-4.7590126991272,-3.47393751144409,-4.72697496414185,-8.67982482910156,-7.35088729858398,-0.22646249830723,0.00398749997839,-0.35076248645782,-1.60710000991821,1.80977499485016,6.70972490310669,0.04166249930859,-12.3637247085571,-10.4567375183105,-2.67533755302429,-5.32345008850098,-9.82588768005371,-11.0614624023438,-8.51193714141846,-2.72662496566772,7.26000022888184,4.9350004196167,-1.15694999694824,-7.05105018615723,-9.44400024414063,-6.37800025939941,-28.2739505767822,-34.7070007324219,-33.844051361084,-7.83705043792725,15.6049509048462,32.9350509643555,34.3740005493164,8.79795074462891,-0.80805003643036,1.59900009632111,0.73200005292892,2.68800020217896,8.70705032348633,13.1209506988525,11.0569505691528,1.23195004463196,-21.3709506988525,-38.4979515075684,-42.8640022277832,-42.8830528259277,-27.0019512176514,-18.7030506134033,-13.9630508422852,-6.31800031661987,8.14800071716309,5.55900049209595,12.65505027771,21.1860008239746,19.2319507598877,13.2900009155273,8.14800071716309,11.2950000762939,9.06300067901611,22.7790012359619,0.28500002622604,4.99395036697388,7.65495014190674,10.9069509506226,10.8349504470825,SWING_LEFT
0.37963750958443,-0.08772499859333,-0.38348749279976,-0.07672499865294,1.12777495384216,2.25266242027283,3.97361254692078,2.15572500228882,-3.32942509651184,-8.0526876449585,-8.4445629119873,-7.61117506027222,-7.32544994354248,-4.94862508773804,-5.95182514190674,0.2065249979496,0.45471251010895,0.00082499999553,-0.80437499284744,-2.10072493553162,-3.66602492332459,-2.91926240921021,2.17263746261597,16.9321632385254,18.9892997741699,4.88152503967285,-3.33299994468689,-6.11751270294189,-3.59920001029968,2.24166250228882,-0.30744999647141,-0.26523751020432,-0.12663750350475,-0.00714999996126,0.15853749215603,0.6710000038147,0.65230000019073,-2.18707489967346,-9.05932521820068,-9.44900035858154,-4.24242496490479,-4.23651266098022,-8.75063705444336,-13.5590124130249,-12.7377252578735,4.09395027160645,4.98495006561279,6.43395042419434,6.67800045013428,15.9520511627197,11.7730503082275,2.66700005531311,-20.2240505218506,-55.1940040588379,-35.2170028686523,-18.8040008544922,10.9200000762939,33.8140525817871,36.1680030822754,12.82200050354,0.98505002260208,0.45105001330376,0.06300000101328,3.34500026702881,0.0709500014782,7.26300048828125,6.84600019454956,1.38105010986328,-14.943000793457,-26.9440517425537,-38.2009506225586,-40.1190032958984,-33.0349502563477,-13.2690010070801,-10.1190004348755,9.46005058288574,10.267050743103,10.335000038147,10.2150001525879,9.59205055236816,9.88200092315674,9.61395072937012,13.9459505081177,4.61295032501221,36.3730506896973,7.34805011749268,1.49505007266998,0.02205000072718,0.21105000376701,7.92495059967041,SWING_LEFT
-0.0082499999553,0.03616249933839,0.28118750452995,0.62204998731613,2.60342502593994,4.30870008468628,3.72129988670349,-6.81505012512207,-15.7957248687744,-11.7093620300293,-7.88356256484985,-6.01961231231689,-5.63791227340698,-8.67886257171631,-8.60956287384033,-0.40452501177788,-0.33384999632835,-0.8984249830246,-2.07487487792969,-3.81356239318848,-3.22616243362427,2.35743737220764,15.1816501617432,13.3871374130249,-0.20831249654293,-4.56183767318726,-4.15703725814819,1.95593750476837,8.96953773498535,12.2131624221802,-0.16967499256134,-0.1891999989748,-0.04551250115037,0.39971250295639,1.11663746833801,0.56773751974106,-4.81346225738525,-12.4924249649048,-10.5483121871948,-5.29787492752075,-8.50547504425049,-12.7898378372192,-13.3597745895386,-8.44250011444092,-4.12706232070923,2.09700012207031,3.54795026779175,6.13695049285889,12.400050163269,13.9540510177612,-1.49205005168915,-45.0630035400391,-35.0080528259277,-34.7040023803711,8.3860502243042,29.3539505004883,26.5980014801025,18.961950302124,6.6109504699707,2.94195008277893,3.1189501285553,3.85200023651123,4.92795038223267,9.97395038604736,10.993950843811,10.9609508514404,2.84400010108948,-29.0490016937256,-36.5940017700195,-41.403003692627,-30.048002243042,-18.5569515228271,-8.41200065612793,-6.28200006484985,-3.15000009536743,9.12705039978027,9.44400024414063,12.892050743103,9.17805004119873,5.90100049972534,4.44300031661987,18.5110511779785,19.2250499725342,18.5329513549805,2.74200010299683,-3.98400020599365,3.90405011177063,6.50505018234253,8.5290002822876,10.581000328064,SWING_LEFT
-0.02103750035167,0.15839999914169,0.37303748726845,0.39696249365807,0.30428749322891,1.1418000459671,3.27181243896484,2.84817504882813,-1.23048746585846,-2.44144988059998,-6.26394987106323,-13.0167121887207,-9.09191226959229,2.72662496566772,10.7729873657227,-1.00388753414154,-1.12241244316101,-1.19996249675751,-1.3252249956131,-1.15926253795624,0.97281247377396,5.21688747406006,10.2932500839233,10.9936752319336,6.44654989242554,-0.31391251087189,-9.99460029602051,-11.8966369628906,-15.6477746963501,-18.4652881622314,0.01072499994189,0.11481250077486,0.1009249985218,0.12099999934435,0.21862499415874,-0.1387374997139,0.68145000934601,1.28149998188019,-5.37734985351563,-12.9123497009277,-9.24371242523193,-3.82084989547729,-6.74382495880127,-7.96798753738403,-4.2421498298645,3.84000015258789,4.8270001411438,5.56500005722046,6.5779504776001,3.56205010414124,-0.35505002737045,-5.27700042724609,-33.949951171875,-38.1340522766113,-22.056001663208,2.37405014038086,20.635950088501,21.6160507202148,13.0390510559082,9.94500064849854,3.63195013999939,4.06500005722046,4.65495014190674,4.54200029373169,5.97000026702881,9.97395038604736,13.8799505233765,5.77095031738281,-30.3570022583008,-32.9149513244629,-38.5410003662109,-26.1300010681152,-17.7709503173828,-13.1010007858276,-8.37600040435791,9.7140007019043,9.85995006561279,10.6030502319336,9.02400016784668,10.1569509506226,15.5920505523682,11.5080003738403,26.3050518035889,10.1449508666992,27.5910015106201,10.8900003433228,2.02095007896423,2.54400014877319,5.77200031280518,8.08305072784424,SWING_LEFT
0.03877500072122,0.02598750032485,0.02131249941885,0.02777500078082,0.14588749408722,0.85511249303818,2.01891255378723,4.28876256942749,0.87381249666214,4.52430009841919,14.3356122970581,26.3351001739502,19.5406742095947,1.60998749732971,5.30859994888306,-1.43151247501373,-0.78292500972748,-0.00948750041425,-0.22412499785423,-1.83067500591278,-5.03800010681152,-5.12311267852783,3.60084986686707,22.3955879211426,21.6225624084473,7.75238752365112,22.5750255584717,19.7481632232666,-7.27526235580444,-12.4557123184204,0.0614624992013,-0.08098749816418,-0.23402500152588,-0.14987500011921,0.19910000264645,0.78031247854233,1.19143748283386,-0.61118751764297,-7.48976230621338,-13.5425128936768,-13.6701126098633,-15.8673620223999,-16.5369873046875,-12.4924249649048,-9.27712535858154,2.33400011062622,2.19195008277893,3.10500025749207,4.66395044326782,17.1010513305664,18.7849502563477,-8.00505065917969,-25.5499515533447,-62.055004119873,-29.2390518188477,-17.0170516967773,21.1800003051758,40.4890518188477,26.2579517364502,6.28800010681152,2.49900007247925,2.57595014572144,2.67195010185242,2.90100002288818,7.54800033569336,3.88800024986267,7.93800020217896,5.713050365448,-19.9080009460449,-51.3090019226074,-52.7460021972656,-45.6280517578125,-24.9760513305664,-13.8460502624512,-8.55000019073486,9.59205055236816,9.58500003814697,10.0930500030518,10.9570503234863,18.7030506134033,2.01405000686646,7.44900035858154,16.2430515289307,-9.62895011901855,25.4569511413574,2.2129499912262,3.88005018234253,3.55695009231567,5.31705045700073,11.731050491333,SWING_LEFT
-0.28572499752045,-0.45416250824928,-0.59565001726151,0.03368749842048,1.20711255073547,3.20182490348816,4.96416234970093,-0.83022499084473,6.57084989547729,30.5146865844727,28.5086994171143,11.251350402832,2.36389994621277,2.03142499923706,4.68558740615845,0.92949998378754,0.83242499828339,0.54119998216629,-1.17741250991821,-2.54842495918274,-2.23300004005432,6.57084989547729,22.9032382965088,24.4168376922607,19.8452377319336,19.2025623321533,12.9966373443604,2.34561252593994,-5.66651248931885,-3.60030007362366,-2.49122500419617,-2.31261253356934,-1.72479999065399,-1.3336124420166,-1.65123748779297,-2.28772497177124,7.52537488937378,16.058349609375,-3.36366248130798,-19.3302993774414,-15.2931623458862,-13.9438753128052,-12.9962253570557,-10.0594997406006,-5.86245012283325,1.61805009841919,-0.06300000101328,4.23105001449585,7.86105060577393,5.82300043106079,4.21905040740967,-28.348051071167,-42.6529502868652,-26.4750003814697,-14.5360507965088,7.75605058670044,33.2890510559082,29.1360015869141,13.9780502319336,4.47495031356812,0.83895003795624,1.66995012760162,2.43900012969971,5.54595041275024,13.1710510253906,10.396050453186,-0.90795004367828,-16.2169513702393,-41.8720512390137,-45.5920524597168,-40.0980033874512,-24.8770503997803,-16.7989501953125,-10.3950004577637,-7.8870005607605,8.52405071258545,11.6710510253906,12.5569505691528,20.731050491333,17.4430503845215,13.51305103302,15.1699504852295,-4.85100030899048,13.8820505142212,9.68505001068115,12.3390007019043,2.45295000076294,7.75800037384033,7.26900053024292,10.7029504776001,SWING_LEFT
0.05499999970198,-0.16486249864101,-0.46901249885559,-0.55096250772476,0.20611250400543,-1.3223375082016,-8.28162479400635,4.00427484512329,15.194299697876,15.1170253753662,15.4844245910645,3.62683749198914,-1.29153752326965,0.92468750476837,2.75935006141663,-0.68585002422333,-0.59482496976852,-0.3227125108242,0.18328750133514,-0.30250000953674,-4.34348726272583,-11.5208501815796,-10.2009878158569,1.96473753452301,12.6742000579834,13.9819622039795,7.53802490234375,-0.90337496995926,-3.49524998664856,0.46392500400543,0.16101250052452,0.7625749707222,0.9814749956131,-1.36798751354218,-6.91184997558594,-14.0534620285034,-27.6157741546631,-43.8154754638672,-34.9504356384277,-19.0551624298096,-16.804012298584,-14.7547121047974,-13.3519372940063,-9.83262538909912,-4.42832517623901,5.46600008010864,6.3600001335144,5.63400030136108,7.44000053405762,11.3580007553101,-4.97205018997192,-26.7859516143799,-41.3070030212402,-33.1350021362305,-4.10295009613037,20.6080513000488,32.1300010681152,25.1920509338379,12.1920003890991,5.54100036621094,0.6240000128746,-0.05505000427365,1.11495006084442,7.33200025558472,16.3420505523682,8.42205047607422,-1.43205010890961,-24.0370502471924,-40.4950523376465,-45.9300003051758,-34.5990028381348,-21.6079502105713,-14.1070508956909,-10.1809501647949,-5.72400045394897,9.95400047302246,9.17505073547363,11.122950553894,14.0850009918213,16.0660514831543,16.0729503631592,10.7250003814697,5.32200002670288,23.1190509796143,12.7009506225586,-4.6429500579834,4.67505025863647,6.22200012207031,6.94305038452148,8.425950050354,SWING_LEFT
0.75363749265671,2.55062508583069,1.91565001010895,1.22856247425079,2.63367509841919,4.39271259307861,0.26317501068115,-4.16927480697632,-19.723274230957,-17.1725120544434,6.98747491836548,5.90864992141724,-0.44591251015663,2.14280009269714,5.24370002746582,2.74381256103516,0.71334999799728,-0.61861246824265,-1.40868747234344,-2.136887550354,-2.5202374458313,-5.14263725280762,-3.53361248970032,7.03889989852905,11.127462387085,13.5393495559692,14.0307750701904,2.02262496948242,-4.76918745040894,-0.42171248793602,-8.64888763427734,-2.66777491569519,1.59981250762939,3.69214987754822,3.46004986763,-1.29071247577667,-10.1281127929688,-19.0044250488281,-3.65750002861023,1.59004998207092,-15.5007877349854,-17.7325496673584,-14.4637622833252,-9.35797500610352,-3.12537503242493,0.13305000960827,1.45500004291534,3.48795008659363,5.62500047683716,6.79305028915405,2.23800015449524,-25.677001953125,-40.6990509033203,-31.9930515289307,-8.06700038909912,23.3500518798828,29.2630519866943,16.92405128479,8.16795063018799,6.27105045318604,2.97105002403259,3.550950050354,3.5550000667572,6.83700037002563,17.1019515991211,19.2640514373779,2.75505018234253,-19.1530513763428,-38.4670524597168,-45.8509521484375,-32.6920509338379,-20.4589500427246,-14.413950920105,-9.63105010986328,-5.61900043487549,8.59800052642822,9.76500034332275,10.2870006561279,11.3260507583618,13.1340007781982,17.556001663208,26.7019519805908,8.14605045318604,16.9710006713867,14.0590505599976,-4.66200017929077,0.72600001096725,6.56700038909912,8.53605079650879,10.4110507965088,SWING_LEFT
-0.69987499713898,-0.89952498674393,-0.13969999551773,2.26545000076294,3.69105005264282,2.82878756523132,-6.48175001144409,-8.36453723907471,7.46542501449585,21.3577365875244,32.7273368835449,26.0210494995117,5.00128746032715,0.40287500619888,4.53474998474121,0.15083749592304,4.03507518768311,7.24171257019043,4.46352481842041,-2.42261242866516,-4.89169979095459,-11.3470497131348,-6.82041263580322,8.4321870803833,10.5957498550415,16.3484745025635,19.6938495635986,7.44150018692017,-4.34637498855591,-5.49271249771118,0.31157499551773,0.03684999793768,-5.40911245346069,-10.0398378372192,-3.7474250793457,0.81551247835159,-19.0294494628906,-24.6043872833252,-24.3179740905762,-28.7930507659912,-20.6047878265381,-19.0007133483887,-16.5460624694824,-12.9657001495361,-7.96743726730347,0.21900001168251,-2.53905010223389,0.6280500292778,5.85195016860962,7.15500020980835,9.3390007019043,-3.1039502620697,-35.2789535522461,-57.9910545349121,-27.4620018005371,-2.2110002040863,36.3529510498047,39.9310531616211,16.6699504852295,2.78895020484924,-1.64100003242493,0.84900003671646,1.89105010032654,4.18305015563965,6.04605007171631,9.56400012969971,8.10300064086914,-0.85305005311966,-28.3549518585205,-46.2360038757324,-52.4460029602051,-41.1060028076172,-20.8800010681152,-12.246000289917,-7.24305057525635,7.86000061035156,11.0700006484985,10.7989501953125,13.9800004959106,15.1720504760742,15.9529504776001,12.7819509506226,9.37395000457764,6.40200042724609,16.9110012054443,13.4620504379272,-7.69695043563843,6.80895042419434,9.11100006103516,11.5009508132935,SWING_LEFT
-0.15881249308586,-0.08635000139475,-0.16224999725819,-0.1134374961257,0.34993749856949,1.1866250038147,1.84194993972778,-0.16032500565052,-5.18883752822876,-9.85228729248047,-6.1950626373291,16.0366249084473,17.262300491333,0.10298749804497,3.14324998855591,0.03396249935031,-0.20157499611378,0.04551250115037,0.1538625061512,-0.73466247320175,-2.48091244697571,-4.050612449646,-2.55131244659424,8.70251274108887,15.7870626449585,7.93636226654053,17.3505744934082,19.2994995117188,-1.50947499275208,-9.1495246887207,-0.44137498736382,-0.76078748703003,-0.7459374666214,-0.8123499751091,-0.91245001554489,-1.12860000133514,-1.72837495803833,-4.04401254653931,-15.4353370666504,-15.8761625289917,-6.82329988479614,-16.198600769043,-21.1206874847412,-14.1054372787476,-10.0341997146606,4.08000040054321,3.82605028152466,4.19505023956299,5.80200004577637,9.62205028533936,15.7200012207031,8.10105037689209,-17.7330017089844,-53.2180519104004,-32.3160018920898,-17.9149513244629,21.106050491333,30.4609508514404,21.1990509033203,16.0740013122559,1.09605002403259,0.43005001544952,1.22295010089874,1.79700005054474,3.98895025253296,6.96105051040649,9.37800025939941,0.30795001983643,-16.4059505462646,-32.0220031738281,-49.359001159668,-39.6739501953125,-22.9249515533447,-16.9999504089355,-8.90295028686523,9.08895015716553,11.1109504699707,10.6290006637573,10.9069509506226,13.4149503707886,10.6290006637573,14.193000793457,11.4649505615234,9.87195014953613,29.2459506988525,10.4470500946045,2.49300003051758,1.04895007610321,7.19505023956299,7.33395051956177,SWING_LEFT
0.34416249394417,0.27788749337196,0.68048751354218,0.91121250391006,1.57547497749329,1.64821243286133,-0.01787500083447,-3.48191237449646,-2.72277498245239,7.7789249420166,14.0184001922607,5.27532482147217,1.1006875038147,5.12517499923706,5.80854988098145,1.97876250743866,1.83933746814728,-0.07975000143051,-2.76347494125366,-3.52247500419617,-2.75591254234314,-1.62524998188019,3.65144991874695,9.74187469482422,12.4203748703003,13.77818775177,6.35222482681274,-6.57964992523193,-7.81948757171631,0.74332499504089,-1.48857498168945,-2.07240009307861,-2.24963760375977,-1.01282501220703,-1.27132499217987,-2.7502748966217,-4.0969500541687,-10.5390996932983,-19.4947490692139,-20.4071998596191,-17.4680004119873,-16.5424880981445,-15.0966749191284,-9.50991249084473,-1.9571750164032,2.39100003242493,1.77105009555817,5.57400035858154,7.73895025253296,7.80405044555664,10.9729509353638,-17.2519512176514,-44.7180023193359,-49.0219535827637,-12.2220001220703,34.0170021057129,41.3460006713867,15.364951133728,2.7529501914978,4.49205017089844,2.65500020980835,4.00800037384033,4.60200023651123,8.0440502166748,14.5339508056641,17.3340015411377,4.69095039367676,-15.2520008087158,-34.795051574707,-53.22705078125,-40.6009521484375,-21.2560501098633,-14.8780508041382,-8.04495048522949,-3.44700026512146,9.16605091094971,9.96300029754639,9.21795082092285,11.2690505981445,15.0310506820679,17.8090515136719,22.8610515594482,11.3959503173828,16.3680000305176,9.07500076293945,-2.07795000076294,4.89795017242432,8.80695056915283,11.7880506515503,12.0450010299683,SWING_LEFT
-0.03987500071526,0.39833748340607,0.57763749361038,0.26785001158714,-0.31941249966621,0.20308749377728,1.88223743438721,1.78516244888306,-0.29975000023842,-3.51491236686707,5.39247512817383,19.0049743652344,9.10470008850098,-0.71527498960495,6.8375997543335,1.18153750896454,0.13034999370575,-2.17896246910095,-2.4400749206543,-0.55728751420975,0.32339999079704,-0.25671249628067,-0.38183748722076,3.94336247444153,7.62822484970093,9.76002502441406,15.5911245346069,8.15952491760254,-8.0852746963501,-14.2082872390747,-0.46887499094009,-1.50851249694824,-1.58647501468658,-0.50256252288818,0.19772499799728,-1.83026254177094,-6.08190011978149,-9.22033786773682,-15.5155000686646,-17.7021617889404,-16.0913505554199,-19.0789489746094,-16.8836250305176,-12.6511001586914,-9.85875034332275,3.706050157547,6.84105014801025,7.07100009918213,5.97705030441284,8.81895065307617,6.27795028686523,2.44395017623901,-21.4189510345459,-48.2479515075684,-35.1829528808594,-11.8050003051758,20.0209503173828,31.3519515991211,24.234001159668,13.2289505004883,2.25495004653931,2.19000005722046,3.08805012702942,1.72095012664795,4.93200016021729,11.1019506454468,16.5769500732422,7.1569504737854,-19.3189506530762,-32.953052520752,-50.1570014953613,-37.0800018310547,-23.3920516967773,-15.0030002593994,-9.12795066833496,8.3230504989624,6.85905027389526,9.23805046081543,11.1919507980347,13.407000541687,7.34805011749268,18.8269500732422,14.5380010604858,11.5219507217407,20.4630012512207,11.368950843811,0.12705001235008,-0.86595004796982,5.62395048141479,5.85795021057129,SWING_LEFT
0.08016250282526,0.34402498602867,0.51232498884201,0.81798750162125,1.41129994392395,2.52821254730225,2.39318752288818,-1.27242493629456,-2.36046242713928,-1.83878743648529,15.313512802124,17.9569492340088,0.83490002155304,5.06220006942749,7.62726259231567,1.70018744468689,0.02777500078082,-0.87367498874664,-1.7910749912262,-2.84391260147095,-3.29463744163513,-2.51075005531311,2.87416243553162,8.98617458343506,9.63022518157959,17.5162620544434,14.8868503570557,-6.16165018081665,-15.0213251113892,-7.65283727645874,-1.97752499580383,-2.74546241760254,-2.62377500534058,-1.91166245937347,-1.57286250591278,-2.28002500534058,-1.7549124956131,-4.84673738479614,-21.391975402832,-20.8764877319336,-15.7855501174927,-19.8354740142822,-14.9483127593994,-10.7322874069214,-5.35026264190674,1.80705010890961,2.12100005149841,3.10500025749207,5.64405012130737,9.71295070648193,13.0470008850098,0.46800002455711,-51.5320510864258,-38.5290031433105,-18.4680004119873,11.2720508575439,28.9330520629883,21.4320011138916,17.3119506835938,9.16394996643066,1.81695008277893,1.88100004196167,2.7940502166748,3.5310001373291,10.5540008544922,18.1000499725342,6.54705047607422,-10.6630506515503,-23.871000289917,-39.1129531860352,-32.7090034484863,-21.0330009460449,-16.10205078125,-9.95400047302246,-6.90000009536743,10.9740009307861,10.5409507751465,10.9879503250122,10.171950340271,15.1339511871338,21.6799507141113,17.1049499511719,13.0699510574341,32.4720001220703,2.14800000190735,1.93800008296967,2.52195000648499,4.1100001335144,4.92705011367798,7.60695028305054,SWING_LEFT
-0.23045000433922,-0.22783750295639,-0.18191249668598,-0.08648750185966,0.21298749744892,1.20546245574951,1.59898746013641,-0.85689997673035,-8.87603759765625,-12.7962999343872,-2.67877507209778,16.1929626464844,11.9246873855591,2.85202503204346,7.13927507400513,-0.40122500061989,-0.62342500686646,-0.62837499380112,-0.95260000228882,-2.88199996948242,-5.37487506866455,-4.31928730010986,1.00017499923706,10.3373870849609,10.1048746109009,5.49051237106323,20.9802989959717,11.663987159729,-14.2218999862671,-9.57275009155273,-1.93833744525909,-2.1487123966217,-1.92981243133545,-1.57519996166229,-1.01337504386902,-1.33732497692108,-2.15324997901917,-5.99664974212646,-19.4698619842529,-17.514612197876,-8.73991203308105,-19.8528003692627,-20.4495506286621,-10.6159620285034,-6.48243761062622,4.02705001831055,3.86400008201599,4.10400009155273,8.24895000457764,15.1519508361816,15.4080009460449,4.95405006408691,-46.0540504455566,-48.6769523620605,-26.3719520568848,4.68300008773804,37.1359519958496,29.0689506530762,11.650050163269,8.96295070648193,2.52495002746582,2.56605005264282,2.91795015335083,4.07295036315918,8.11995029449463,14.2080011367798,8.19900035858154,-2.73795008659363,-31.9519519805908,-45.903003692627,-48.7720527648926,-34.2439498901367,-17.5699501037598,-12.1380004882813,-6.60300016403198,9.72105026245117,9.49395084381104,9.68295001983643,10.4809503555298,8.3730001449585,9.87495040893555,7.49400043487549,19.2390003204346,19.431001663208,16.5880508422852,8.54505062103271,-3.64905023574829,2.3970000743866,8.68695068359375,8.18400001525879,SWING_LEFT
-0.17325000464916,-0.1142624989152,-0.02488750033081,0.15468749403954,1.57162499427795,3.10158753395081,4.0631251335144,2.8775999546051,5.17343759536743,8.18840026855469,19.2585258483887,14.66712474823,1.17012500762939,6.02085018157959,5.52076244354248,-0.25712499022484,-0.44068750739098,-0.65931248664856,-1.39741253852844,-3.4597749710083,-3.41426253318787,5.22967481613159,20.911413192749,19.1461868286133,8.10548782348633,16.8327503204346,11.1841125488281,-13.2867622375488,-16.0597248077393,-3.66052508354187,-0.23278750479221,0.14327499270439,0.29136249423027,0.68529999256134,0.01567500084639,-1.38421249389648,1.44553744792938,7.14683723449707,-7.19633722305298,-19.1376628875732,-17.6478500366211,-17.3237628936768,-11.7987375259399,-8.57009983062744,-4.8463249206543,2.81805014610291,3.03795003890991,4.71000003814697,11.6380500793457,12.7500009536743,0.00300000002608,-21.3900012969971,-38.8909530639648,-36.1650009155273,-10.4620504379272,14.9340009689331,34.9129524230957,27.855001449585,11.8560009002686,6.24495029449463,2.27895021438599,2.20905017852783,2.52105021476746,6.01005029678345,12.0580501556396,11.0970001220703,4.83705043792725,-12.3540010452271,-32.1270027160645,-41.3310012817383,-36.5629501342773,-23.6560516357422,-12.8899507522583,-10.5100507736206,-4.31400012969971,10.0759506225586,9.98505020141602,11.4529504776001,14.3820009231567,8.05005073547363,16.1280002593994,21.7060508728027,-2.73195004463196,27.3439521789551,9.75,6.14100027084351,1.58805012702942,6.93105030059814,7.97100019454956,13.6849508285522,SWING_LEFT
1.66594994068146,10.0002374649048,6.72292518615723,0.15344999730587,3.61157488822937,2.64233756065369,-4.97296237945557,-8.72327518463135,-17.2587242126465,-5.30172491073608,20.1121253967285,11.5442247390747,1.52789998054504,8.7345495223999,8.59388732910156,14.6540622711182,9.04598712921143,-0.4507249891758,-4.72669982910156,-5.22197484970093,-5.24342489242554,-11.3458127975464,-5.14126253128052,12.3884744644165,17.5300121307373,19.9941501617432,12.1191120147705,-9.72949981689453,-19.7521495819092,-9.21304988861084,-3.45468759536743,-18.4332504272461,-7.92439985275269,9.57577514648438,5.1638126373291,-2.03830003738403,-18.1709003448486,-18.5381622314453,7.72708749771118,1.26279997825623,-19.5293998718262,-16.7171115875244,-13.5195503234863,-9.81241226196289,-5.247962474823,-4.94400024414063,0.50894999504089,1.21800005435944,6.87705039978027,8.65200042724609,5.16495037078857,-12.7420501708984,-32.860050201416,-42.8880004882813,-16.651050567627,15.6019506454468,33.9049530029297,29.9910011291504,15.4660511016846,8.08200073242188,1.0480500459671,0.87795001268387,4.49895000457764,9.96900081634521,15.0160503387451,12.4500007629395,2.92995023727417,-15.4860010147095,-30.4069519042969,-43.1029510498047,-38.9959526062012,-26.0940017700195,-14.0929508209229,-8.95305061340332,-5.17605018615723,11.002950668335,11.6689500808716,12.3150005340576,14.8420505523682,20.5230007171631,19.2010517120361,18.8749504089355,14.3290510177612,22.4100017547607,-0.37305000424385,5.10105037689209,1.89195013046265,4.21500015258789,6.49500036239624,9.18495082855225,SWING_LEFT
-0.33068749308586,-0.29864999651909,-0.02227500081062,1.04939997196198,2.11640000343323,1.34791254997253,-4.17119979858398,-8.23501205444336,-17.4116249084473,-32.2221641540527,-25.3362998962402,-7.56841230392456,0.31006249785423,9.64026260375977,10.4550876617432,0.48454999923706,-0.11316250264645,-1.82682502269745,-3.46348738670349,-2.26324987411499,0.54216247797012,-11.1106872558594,-6.42248725891113,14.4533128738403,2.77254986763,-9.28826236724854,-4.05528736114502,-9.56037521362305,-18.8541374206543,-9.12436199188232,-1.56956243515015,-1.56241250038147,-1.46712493896484,-1.9267874956131,-3.04754996299744,-6.32596254348755,-25.4200382232666,-19.8379497528076,14.6110248565674,20.3621006011963,5.82202482223511,-6.75936269760132,-12.4278001785278,-10.1487379074097,-5.29925012588501,3.37305021286011,5.85195016860962,8.57295036315918,8.89095020294189,0.8320500254631,-3.15495014190674,-8.72294998168945,-26.9230518341064,-37.2379531860352,-16.6030502319336,12.3190507888794,32.2309532165527,34.5229530334473,22.9759502410889,8.30505084991455,1.58205008506775,2.14904999732971,4.6279501914978,9.41595077514648,14.1940507888794,11.3730001449585,4.58505010604858,-14.1330003738403,-28.2160511016846,-38.5290031433105,-33.4849510192871,-24.9180011749268,-15.0030002593994,-10.0930500030518,-6.5310001373291,9.56295013427734,11.7139501571655,8.68905067443848,14.064001083374,17.5650005340576,17.8170013427734,15.4000511169434,17.7810001373291,17.7349510192871,14.6500511169434,5.81295013427734,4.39499998092651,2.86005020141602,19.1340007781982,10.1050500869751,SWING_LEFT
0.45484998822212,0.20446249842644,0.41951251029968,1.11485004425049,0.88646250963211,-1.57190001010895,-4.21148729324341,-4.00592517852783,-21.9961490631104,-19.9885120391846,-1.06617498397827,2.08986258506775,14.0479621887207,13.2692995071411,3.34303736686707,-1.54742503166199,-2.66584992408752,-2.13496255874634,-0.13983750343323,3.31924986839294,8.02821254730225,13.1796503067017,11.6371746063232,-7.54874992370605,-12.0293245315552,-2.67368745803833,-8.3697624206543,-16.2386131286621,-9.48915004730225,2.82136249542236,-0.94751250743866,-0.36973750591278,-0.46543750166893,-1.71132504940033,-3.2289125919342,-4.69479990005493,-9.10841274261475,-9.64700031280518,-0.56127500534058,-2.45808744430542,-12.1224126815796,-13.0429744720459,-7.96262502670288,-3.0078125,-0.68708747625351,9.84705066680908,8.66895008087158,8.6419506072998,-0.70005005598068,-7.48995018005371,-27.0900020599365,-36.1050033569336,-33.2959518432617,-4.58205032348633,25.0170021057129,38.8240509033203,27.8689517974854,11.2309503555298,11.3800506591797,5.57895040512085,0.05100000277162,5.53605031967163,8.50605010986328,11.076000213623,2.56905007362366,-9.01995086669922,-19.0720500946045,-31.3650016784668,-50.8819541931152,-36.6780014038086,-18.7200012207031,-12.2920503616333,-9.19995021820068,-4.51995038986206,-3.35295009613037,10.9399509429932,11.1970500946045,10.6630506515503,18.2500514984131,16.3129501342773,10.4779500961304,4.9980001449585,11.0320501327515,10.0710000991821,-2.37495017051697,4.84500026702881,5.64300012588501,8.09295082092285,7.11795043945313,6.62895011901855,SWING_LEFT
-0.16568750143051,0.14822499454021,0.3619000017643,0.38307499885559,1.39383745193481,3.56372499465942,4.50298738479614,0.47891250252724,-8.76727485656738,-12.3799495697021,-16.5328617095947,-13.5485620498657,-2.61896252632141,6.0263500213623,9.22350025177002,0.93884998559952,0.69533747434616,-0.14231249690056,-1.5217125415802,-3.64938759803772,-4.06051254272461,-0.40067499876022,12.3663377761841,19.0335750579834,7.50172519683838,-7.6796498298645,-10.119725227356,-9.07170009613037,-16.2485122680664,-10.8690996170044,-1.43165004253387,-1.43948745727539,-1.16132497787476,-0.54106247425079,-0.28215000033379,-0.7735750079155,-0.21353749930859,-4.10602474212646,-8.6534252166748,-5.683424949646,-1.52391254901886,-5.83976268768311,-11.7038621902466,-8.88456249237061,-4.35311269760132,2.60700011253357,2.48205018043518,5.24100017547607,10.276050567627,12.7470006942749,13.0060510635376,-19.0860004425049,-44.3080520629883,-33.9570007324219,-15.1110010147095,11.9329509735107,33.5890502929688,27.07200050354,11.3970003128052,6.0600004196167,2.48700022697449,2.5639500617981,3.02400016784668,5.64600038528442,13.2739505767822,12.9460506439209,3.42600011825562,-12.0540008544922,-25.0399513244629,-40.8430519104004,-39.8770523071289,-27.8059520721436,-15.4819507598877,-11.4250507354736,-7.49700021743774,9.9060001373291,10.7539501190186,12.1140003204346,14.2980003356934,10.8690004348755,10.6080007553101,17.1889514923096,8.15700054168701,23.3539505004883,15.0840005874634,2.22495007514954,2.43300008773804,3.26205015182495,5.28795003890991,8.69595050811768,SWING_LEFT
-0.14478750526905,-0.07177499681711,-0.62796247005463,1.03785002231598,2.84789991378784,3.40862488746643,3.01620006561279,-0.19951249659061,-3.07010006904602,-20.0902614593506,-19.926362991333,-2.50827503204346,2.55736255645752,9.94413757324219,8.80550003051758,-2.49892497062683,-4.26634979248047,-1.74281251430511,6.13607501983643,10.7050628662109,5.40526247024536,-1.58936250209808,1.10989999771118,9.27781200408936,0.31803750991821,-5.90452480316162,-0.38403749465942,-9.20040035247803,-15.3341369628906,-5.84127473831177,-0.6484500169754,-0.3092375099659,0.59619998931885,3.55313754081726,12.4796371459961,8.12927532196045,-3.81012487411499,-6.433762550354,-10.6074371337891,-3.03434991836548,-0.50132501125336,-11.230037689209,-13.7475252151489,-9.33033752441406,-3.73037505149841,9.175950050354,6.3139500617981,-3.41805005073547,-5.0779504776001,-3.56700015068054,-0.64905005693436,-12.0090007781982,-37.4440536499023,-38.0089530944824,-12.282000541687,20.2890014648438,35.8930511474609,24.5809516906738,12.6420001983643,8.79795074462891,1.60605013370514,-0.59700000286102,0.29295000433922,6.1279501914978,9.7630500793457,10.0390501022339,1.11495006084442,-16.381950378418,-33.9420013427734,-43.3380012512207,-39.1230010986328,-22.090051651001,-14.4160509109497,-10.3920001983643,-6.56295013427734,8.68200016021729,8.0110502243042,13.4550008773804,20.1640510559082,21.3090019226074,23.110050201416,18.79905128479,4.25804996490479,16.7080516815186,0.29505002498627,1.38705003261566,5.35995006561279,7.52295017242432,7.53705024719238,9.5179500579834,SWING_LEFT
0.54656249284744,-0.02034999988973,-0.53157502412796,-0.14011250436306,2.00090003013611,2.72758746147156,0.29864999651909,-2.43319988250732,-6.14322519302368,-24.77956199646,-20.3084754943848,-0.07906249910593,0.04111250117421,4.22798728942871,5.00719976425171,-1.4192750453949,-0.84534996747971,0.04647500067949,0.84081250429153,0.20927499234676,0.4839999973774,1.16380000114441,2.50236248970032,7.58422517776489,10.1223373413086,7.06626224517822,3.2551748752594,-4.65946245193481,-17.3515377044678,-13.3436870574951,-1.03028750419617,-0.68997502326965,-0.70647501945496,-1.6472499370575,-3.79747486114502,-5.28907489776611,-1.42202496528625,1.8990124464035,1.56309998035431,14.7895002365112,10.124400138855,-9.37543773651123,-13.2103128433228,-11.2732124328613,-6.2525372505188,4.31895017623901,3.5220000743866,2.18505001068115,5.04300022125244,-0.31395000219345,3.43800020217896,2.77905011177063,-20.0350513458252,-36.5029525756836,-24.9660015106201,5.14605045318604,11.0419502258301,22.6750507354736,23.881950378418,15.2640008926392,2.49405002593994,2.66895008087158,2.7480001449585,8.30700016021729,17.1690006256104,14.6250009536743,4.97100019454956,-3.8539502620697,-11.1990003585815,-25.0159511566162,-25.10205078125,-21.7690505981445,-18.0970516204834,-11.5440006256104,-9.9060001373291,9.22800064086914,8.99100017547607,10.4830503463745,10.7059507369995,19.7520008087158,31.8990020751953,18.609001159668,10.701000213623,17.0479507446289,9.19500064849854,0.60105001926422,7.03695011138916,3.28395009040833,2.29695010185242,5.68605041503906,SWING_LEFT
0.80286252498627,2.43732500076294,3.27799987792969,1.48788750171661,-4.28161239624023,-5.09313726425171,0.13213749229908,-1.2997875213623,-10.5501003265381,-8.22964954376221,9.73307514190674,10.2264251708984,2.70627498626709,6.32445001602173,6.00338745117188,-0.33715000748634,-1.98440003395081,-3.13953757286072,-1.93792498111725,4.20928764343262,6.69019985198975,3.17116236686707,3.66506242752075,8.41321277618408,9.92461204528809,16.9101619720459,13.0558996200562,-7.88947486877441,-12.0614995956421,-3.83872509002686,1.00553750991821,1.91138744354248,4.21616268157959,4.13228750228882,-6.76843738555908,-23.66526222229,-20.0286617279053,-5.22445011138916,-0.11027500033379,-4.21946239471436,-12.7531251907349,-15.0140371322632,-13.4963121414185,-10.0141248703003,-5.42368745803833,8.25900077819824,11.4349508285522,7.42995023727417,0.08205000311136,-6.04800033569336,-9.05100059509277,-9.84195041656494,-32.4360008239746,-40.3540534973145,-10.0690507888794,21.0510005950928,35.4900016784668,33.4210510253906,15.2329511642456,9.50895023345947,2.83905005455017,2.55405020713806,-0.92205005884171,3.91500020027161,10.0939502716064,8.41499996185303,1.29195010662079,-18.3990001678467,-36.3379516601563,-44.1450004577637,-33.9949531555176,-23.4139518737793,-12.9090003967285,-8.44799995422363,-4.921950340271,7.36500024795532,7.02195024490356,5.20005035400391,14.3940010070801,21.6010513305664,22.6230010986328,20.7289505004883,9.42900085449219,10.9980001449585,0.86205005645752,8.1739501953125,3.60705018043518,0.97500002384186,7.83705043792725,6.82800054550171,SWING_LEFT
0.99110001325607,1.05971252918243,1.65907502174377,2.44365000724792,1.86106252670288,-0.68103748559952,-4.29302501678467,-1.65921247005463,5.93257474899292,8.42586231231689,3.56358742713928,0.33563750982285,2.54278755187988,2.9915874004364,2.04503750801086,3.59988737106323,0.90103751420975,-4.72986268997192,-7.00204992294312,-3.89413738250732,-0.22123749554157,3.09732508659363,7.23043727874756,11.3239498138428,10.5359373092651,4.20928764343262,-7.41908740997314,-12.6156253814697,-5.51760005950928,0.0930875018239,-0.512875020504,-3.23262500762939,-4.31461238861084,-3.45028758049011,-2.81297492980957,-3.81452488899231,-9.06564998626709,-21.9844627380371,-23.9193630218506,-15.4569253921509,-12.4473247528076,-11.8189496994019,-10.3672246932983,-6.03707504272461,-1.88443744182587,0.5059500336647,7.22895050048828,11.6620502471924,11.4990005493164,5.40705013275146,-10.8829507827759,-26.0800514221191,-42.6079521179199,-16.9210510253906,6.75705051422119,26.0040016174316,32.4679527282715,16.2559509277344,12.2490005493164,6.24705028533936,2.64495015144348,5.28000020980835,10.9390506744385,17.4580516815186,13.1310005187988,5.50200033187866,-9.91995048522949,-19.6110000610352,-42.001953125,-33.5279998779297,-27.1360511779785,-15.6370506286621,-13.6999502182007,-8.35200023651123,-6.26805019378662,9.11100006103516,11.1439504623413,11.367000579834,19.2270011901855,16.1539516448975,17.5360507965088,17.8840503692627,7.35000038146973,16.2720012664795,2.35395002365112,9.33300018310547,3.86805009841919,5.81505012512207,5.53695011138916,7.86000061035156,SWING_LEFT
-0.23430000245571,2.01121258735657,2.83992505073547,2.46867489814758,4.01335000991821,3.57940006256104,0.13928750157356,-12.2344751358032,-17.9260120391846,8.40427494049072,18.5792751312256,2.51487493515015,4.08058738708496,7.17640018463135,4.12004995346069,3.3659999370575,0.91616249084473,-1.6579749584198,-1.79506254196167,-2.23258757591248,-1.85212504863739,1.09931254386902,8.26058769226074,10.5142126083374,19.5988368988037,22.2224750518799,-1.21068751811981,-15.8142871856689,-8.09448719024658,1.04458749294281,-3.04397487640381,-22.9197368621826,-23.7950630187988,-4.01788759231567,-2.18899989128113,-2.07941246032715,-2.31866240501404,10.0687122344971,12.5240497589111,-11.7002878189087,-20.6112499237061,-14.4271869659424,-10.7754621505737,-6.16068744659424,-1.79382503032684,-1.68195009231567,-0.86700004339218,0.03195000067353,0.20700001716614,0.66195005178452,-4.15305042266846,-24.5329513549805,-33.6820526123047,-26.7169513702393,5.77500009536743,24.1950016021729,20.7730503082275,17.1970500946045,10.5319509506226,4.41495037078857,1.08105003833771,1.26105010509491,4.00305032730103,9.36795043945313,13.5190505981445,8.48895072937012,-4.90995025634766,-22.3069515228271,-34.0860023498535,-37.6240501403809,-26.3620510101318,-19.828950881958,-11.9779500961304,-9.4819507598877,-6.95100021362305,9.61395072937012,9.89400005340576,11.5060501098633,14.5399503707886,18.576000213623,19.9549503326416,24.5490016937256,14.4300003051758,3.83400011062622,-4.96395015716553,4.54800033569336,8.06205081939697,9.41700077056885,8.26005077362061,9.91305065155029,SWING_LEFT
-0.53446251153946,-0.16664999723434,0.2088624984026,0.69176250696182,1.18250000476837,0.8953999876976,1.72988748550415,-0.73809999227524,-7.3251748085022,7.01937484741211,14.1293621063232,2.11048746109009,3.84284996986389,5.62003755569458,3.99121236801147,-0.56443750858307,-1.72287499904633,-2.97440004348755,-3.31058740615845,-0.51081252098083,1.9322874546051,-2.19931244850159,1.85363745689392,9.43112468719482,13.9420871734619,12.6094369888306,-6.80748748779297,-17.6589870452881,-7.48385000228882,1.55113744735718,-1.98082494735718,-2.07789993286133,-1.30088746547699,-1.05311250686646,-3.92892503738403,-9.44308757781982,-21.4065494537354,-20.8356494903564,-8.77607536315918,-11.1814994812012,-14.804762840271,-13.7219495773315,-11.8192253112793,-6.7418999671936,-1.18236243724823,3.97695016860962,6.35295009613037,9.23100090026855,4.02495002746582,-4.25895023345947,-8.56005001068115,-30.3310508728027,-48.4999504089355,-28.5679512023926,6.26205015182495,30.3460521697998,34.6669502258301,13.3920001983643,6.06795024871826,4.34100008010864,2.08695006370544,2.0460000038147,3.56700015068054,6.64695024490356,14.8650007247925,8.13495063781738,-3.50400018692017,-19.5919513702393,-48.118953704834,-47.2279510498047,-33.5620498657227,-17.3500499725342,-12.8710508346558,-9.7669506072998,-7.07295036315918,11.8429508209229,10.8400506973267,12.2550001144409,11.9200506210327,21.4330501556396,20.4100513458252,7.46805047988892,16.7220001220703,0.86505001783371,-1.37400007247925,4.1100001335144,2.96700024604797,6.55500030517578,9.98700046539307,7.17795038223267,SWING_LEFT
-0.43931248784065,-0.2938374876976,-0.06971249729395,0.23264999687672,0.53693747520447,1.39933753013611,1.50067496299744,-2.41532492637634,-5.15198755264282,-5.65729999542236,3.18587493896484,13.2757625579834,6.09468746185303,0.92262500524521,4.36892509460449,0.2549250125885,-0.62342500686646,-1.44828748703003,-2.92448759078979,-3.31512498855591,-2.08491253852844,-2.27658748626709,-1.58619999885559,4.59786224365234,10.9968376159668,12.1180124282837,10.7622623443604,3.87461256980896,-10.6342496871948,-14.1690998077393,-2.20233750343323,-2.18033742904663,-1.52363753318787,-0.73548752069473,-0.88096249103546,-3.0405375957489,-3.26425004005432,-6.76898765563965,-21.4043502807617,-19.9638996124268,-10.16881275177,-12.3652372360229,-12.9590997695923,-11.3024997711182,-8.25275039672852,2.02005004882813,2.05395007133484,5.5570502281189,7.68405055999756,7.1980504989624,14.4760503768921,6.55395030975342,-31.7220020294189,-43.1350517272949,-27.5070018768311,-8.91495037078857,5.54805040359497,26.0730018615723,29.3880004882813,18.6409511566162,2.4250500202179,2.22105002403259,2.77005004882813,4.63095045089722,9.68895053863525,15.5380506515503,9.40605068206787,-4.22504997253418,-15.4960508346558,-28.150951385498,-33.5110511779785,-30.0840015411377,-24.9180011749268,-17.6400012969971,-14.9760007858276,9.08400058746338,10.9020004272461,11.4940509796143,10.8690004348755,20.4870014190674,17.5699501037598,19.0759506225586,16.9999504089355,4.11705017089844,16.2859516143799,4.86195039749146,4.92705011367798,5.04195022583008,5.29995012283325,7.00800037384033,SWING_LEFT
3.28666257858276,3.99107503890991,2.32017493247986,2.80238747596741,3.76585006713867,1.51786243915558,-4.14136266708374,-7.1862998008728,-11.1012001037598,1.45860004425049,16.8174877166748,8.63802528381348,2.78698754310608,5.34985017776489,4.32341241836548,4.04428768157959,-0.35640001296997,-2.64907503128052,-4.56335020065308,-5.21950006484985,-3.36971259117126,-3.88437509536743,1.26953744888306,12.9511251449585,14.8957872390747,12.2643127441406,5.58992481231689,-10.8726749420166,-14.2410125732422,-4.16762495040894,-10.9118623733521,-11.7957124710083,-2.30037498474121,1.71118748188019,0.81097501516342,-1.07057499885559,-9.55831241607666,-18.5774879455566,-10.7749128341675,-8.08004951477051,-13.7248373031616,-13.4795370101929,-12.0100746154785,-7.82539987564087,-3.62023758888245,-0.27795001864433,1.28205001354218,4.0009503364563,10.5529508590698,14.1220502853394,2.0179500579834,-20.506950378418,-37.1380500793457,-37.5690002441406,-10.6890001296997,8.04300022125244,26.3200511932373,22.7700004577637,12.9919509887695,6.14895009994507,2.08004999160767,2.46795010566711,4.67400026321411,13.2019510269165,15.4710006713867,8.67300033569336,2.0460000038147,-10.8499507904053,-27.0949516296387,-33.9070510864258,-29.0449504852295,-20.8900508880615,-15.9529504776001,-12.7920007705688,-9.25200080871582,9.94200038909912,8.99295043945313,10.5840005874634,14.9710502624512,23.29905128479,18.256950378418,13.2180004119873,-0.03195000067353,13.558051109314,0.23700001835823,12.318000793457,6.03795051574707,8.22705078125,7.4370002746582,8.31105041503906,SWING_LEFT
-0.45113748311996,-0.5682874917984,-0.48867499828339,0.23787499964237,1.40909993648529,1.67928743362427,-1.20175004005432,-4.56197500228882,-8.02271270751953,-1.13244998455048,11.6278247833252,7.55067491531372,0.17723749577999,3.78936243057251,5.41791248321533,-0.43862500786781,-1.1119624376297,-1.30680000782013,-1.90244996547699,-2.08340001106262,-1.2199000120163,-2.36389994621277,-2.1264374256134,6.1340126991272,14.025824546814,13.8252124786377,7.73781251907349,-6.75509977340698,-14.4416246414185,-6.17828750610352,-3.32529997825623,-2.82741236686707,-2.41505002975464,-2.57221245765686,-3.67427492141724,-5.67682504653931,-9.22418785095215,-16.0930004119873,-12.9522247314453,-9.86961269378662,-14.4614248275757,-13.3223752975464,-13.6299619674683,-12.3936996459961,-6.61182498931885,4.36005020141602,4.34805011749268,6.52995014190674,9.58095073699951,4.95900011062622,7.5120005607605,-8.76600074768066,-26.4319515228271,-36.6370506286621,-22.6860008239746,6.70905017852783,23.1079502105713,27.6559505462646,20.4330005645752,8.07495021820068,1.20600008964539,1.1869500875473,3.46905016899109,8.00505065917969,14.3980503082275,12.0940504074097,2.89905023574829,-7.59000015258789,-16.701000213623,-33.1470031738281,-30.0790519714355,-26.836051940918,-16.6380004882813,-10.8400506973267,-8.29200077056885,9.79800033569336,11.2849502563477,12.1930503845215,14.7510004043579,16.935001373291,23.5120506286621,14.6340007781982,11.8840503692627,14.2620010375977,8.69895076751709,0.07695000618696,-1.60800004005432,6.35205030441284,8.70600032806396,8.13105010986328,SWING_LEFT
-0.25327500700951,-0.20899999141693,0.49486249685287,1.95731246471405,2.72758746147156,1.59541249275208,-0.13543750345707,-0.14052499830723,1.82641243934631,11.0490875244141,13.4400749206543,2.3339250087738,0.33206251263618,4.51426267623901,3.85192489624023,-0.84397500753403,0.0,-1.32123744487762,-2.7025625705719,-2.25005006790161,-0.85621249675751,-0.25451248884201,1.9988374710083,8.1596622467041,10.122200012207,7.2143497467041,-0.41332501173019,-16.5907497406006,-15.4654502868652,-1.78213751316071,-0.59166252613068,-0.54202497005463,-0.40094998478889,-1.12351250648499,-2.11310005187988,-4.03892517089844,-9.70254993438721,-14.5216503143311,-16.3092880249023,-16.8004379272461,-13.6149749755859,-12.4349498748779,-13.8704500198364,-9.9643497467041,-3.79678750038147,1.76595008373261,4.46100044250488,6.30195045471191,9.55695056915283,2.81295013427734,-4.54395008087158,-13.0720510482788,-26.7240009307861,-53.9149513244629,-12.4519510269165,14.5819511413574,33.6289520263672,31.0980014801025,12.4410009384155,1.97205007076263,1.36905002593994,2.17305016517639,7.2529501914978,8.8410005569458,12.8910007476807,9.33705043792725,3.22005009651184,-2.25600004196167,-29.0400009155273,-36.0690002441406,-30.2899513244629,-28.3069515228271,-18.1140003204346,-11.8170003890991,-6.10305023193359,11.767050743103,13.9270505905151,13.9030504226685,15.7660503387451,17.6110515594482,14.1979503631592,7.09605026245117,7.54905033111572,15.0769510269165,4.60995006561279,5.19495010375977,5.40795040130615,7.4170503616333,9.12705039978027,7.77195024490356,SWING_LEFT
-0.37125000357628,-0.1017500013113,0.28215000033379,0.95149999856949,1.58317494392395,1.71819996833801,5.05738735198975,3.70672488212585,-15.6939744949341,-14.9549121856689,12.2209997177124,13.5750999450684,4.0937876701355,6.03020000457764,4.33867502212524,-0.70083749294281,-1.52569997310638,-1.53697502613068,-0.71499997377396,0.42872500419617,0.54463750123978,-9.35783767700195,-7.73245000839233,6.9591498374939,11.3782625198364,16.4455490112305,9.81970024108887,-10.5627498626709,-15.8024625778198,-6.19478750228882,-1.98440003395081,-1.60668754577637,-1.36441254615784,-2.1261625289917,-3.57073736190796,-6.11861228942871,-25.9307117462158,-26.6630382537842,0.01347499992698,1.3446124792099,-10.3311996459961,-12.7814502716064,-11.4388999938965,-9.13068771362305,-5.65207481384277,1.94595015048981,2.29995012283325,2.59500002861023,0.02295000106096,-3.21495008468628,-9.62805080413818,-10.6150503158569,-25.6969509124756,-35.8560028076172,-16.1550006866455,11.8780508041382,30.2190017700195,34.0579528808594,19.4680500030518,8.62995052337646,2.27400016784668,3.53895020484924,4.99695014953613,9.6670503616333,10.9849500656128,7.62000036239624,3.39495015144348,-9.81705093383789,-26.4799518585205,-39.703052520752,-33.4990501403809,-22.5610504150391,-12.6960010528564,-9.29505062103271,-7.16400051116943,9.07695007324219,8.77305030822754,16.3650016784668,15.502950668335,17.521951675415,20.7700500488281,16.8079509735107,-0.05205000191927,5.0179500579834,1.37205004692078,12.8400001525879,9.40305042266846,3.8730001449585,4.96500015258789,8.17695045471191,SWING_LEFT
-0.65188747644424,0.02158750034869,0.99742501974106,1.67942500114441,1.22691249847412,-0.34979999065399,-4.54382514953613,-2.98993754386902,13.7017374038696,33.6022491455078,22.7259998321533,0.06833750009537,1.57231247425079,5.08736228942871,2.92022490501404,0.22055000066757,-1.17369997501373,-2.87416243553162,-2.41078758239746,-0.12375000119209,6.50979995727539,14.9738874435425,16.9181365966797,16.1640872955322,27.5076999664307,20.9808502197266,-4.1085000038147,-12.3395252227783,-7.82237482070923,-0.4824874997139,-2.77653741836548,-1.724249958992,-0.91987496614456,-1.73057496547699,-2.92063736915588,6.09496259689331,21.157262802124,6.90181255340576,-16.8519992828369,-22.7570743560791,-18.8623867034912,-12.0113124847412,-10.2135000228882,-7.52606248855591,-3.14613747596741,2.23095011711121,5.85000038146973,6.07695007324219,3.4789502620697,-5.62905025482178,-19.1370010375977,-29.3899517059326,-25.4020519256592,-16.6120510101318,-0.72405004501343,30.693000793457,25.1440505981445,21.9630012512207,16.6729507446289,8.03595066070557,1.54095005989075,3.15105009078979,7.63905048370361,10.9699506759644,7.15500020980835,-0.93900007009506,-14.4250507354736,-26.5440006256104,-35.5620002746582,-31.7890510559082,-23.0280017852783,-18.3559513092041,-10.9669504165649,-7.36305046081543,-5.92800045013428,11.695050239563,12.8830509185791,16.3099498748779,24.6880512237549,24.1200008392334,18.1590003967285,0.88395005464554,13.3470010757446,10.8660001754761,12.8490009307861,-1.50795006752014,1.20495009422302,4.9699501991272,4.54605007171631,9.20205020904541,SWING_LEFT
-0.9454500079155,-0.73686248064041,-0.33426249027252,0.43986248970032,1.64285004138947,2.41821241378784,1.23035001754761,-1.94480001926422,-5.55280017852783,-0.55687499046326,13.9357624053955,13.009425163269,1.39356243610382,3.26122498512268,5.78297519683838,0.72586250305176,0.86528748273849,-0.13282500207424,-1.77196252346039,-2.47266244888306,-2.1203875541687,-0.58726251125336,1.81994998455048,8.8547248840332,10.6876001358032,11.6589002609253,11.0550003051758,-3.79926252365112,-14.9984998703003,-9.59433746337891,-1.83658754825592,-1.94493746757507,-2.03376245498657,-2.63174986839294,-3.94954991340637,-4.34046268463135,-4.14370012283325,-12.4184503555298,-17.6136131286621,-13.1320753097534,-15.2117624282837,-16.1280632019043,-13.417387008667,-11.0236501693726,-6.41382503509521,3.09300017356873,4.53495025634766,6.85305023193359,7.15995025634766,9.0400505065918,6.69000053405762,-15.9199504852295,-30.3430519104004,-46.1860504150391,-20.9500503540039,7.4040002822876,25.5970516204834,30.2170505523682,19.5730514526367,12.1960506439209,1.71105003356934,2.37495017051697,3.72495007514954,8.92995071411133,15.6240005493164,12.0769510269165,5.17200040817261,-7.75500059127808,-21.4399509429932,-41.9010009765625,-35.8920021057129,-25.8640518188477,-17.1169509887695,-12.0660009384155,-8.94795036315918,10.4110507965088,11.5009508132935,10.7490005493164,13.2280502319336,17.2729511260986,11.5009508132935,14.7580509185791,7.10400056838989,15.774001121521,17.8999500274658,7.25895023345947,2.03805017471313,2.19900012016296,3.17100024223328,6.33000040054321,SWING_LEFT
-0.73947501182556,-0.40411248803139,0.14877499639988,1.91152501106262,3.05153751373291,1.94232499599457,-1.52363753318787,-3.88698744773865,-6.73956251144409,-1.80908751487732,9.40018749237061,7.5981125831604,1.66980004310608,5.16023731231689,6.39704990386963,2.56960010528564,1.02492499351501,-1.08047497272491,-3.00066256523132,-2.76773738861084,-0.64253747463226,-0.71596246957779,-0.73122501373291,7.10847473144531,11.8603372573853,15.1487874984741,10.2481498718262,-9.61097526550293,-14.8178253173828,-5.57658767700195,-2.67602491378784,-3.5960373878479,-3.38167500495911,-3.82181239128113,-4.26813745498657,-4.88317489624023,-8.41720008850098,-17.7639007568359,-17.1567001342773,-11.0669622421265,-13.3280124664307,-13.4312753677368,-11.8303623199463,-10.0134372711182,-6.10087490081787,2.27100014686584,3.41895008087158,5.55300045013428,6.33600044250488,0.11595000326633,-1.6840500831604,-14.3389511108398,-36.631950378418,-37.2619514465332,-7.49700021743774,16.5360012054443,30.973051071167,32.9089508056641,19.1299514770508,8.80305004119873,2.0269501209259,2.65995001792908,6.99705028533936,12.3499507904053,13.4899501800537,10.9459505081177,-0.43605002760887,-22.5540008544922,-35.4319534301758,-48.1110038757324,-37.4850006103516,-24.480001449585,-14.9760007858276,-9.91095066070557,-8.47605037689209,11.5510501861572,12.3679504394531,9.89100074768066,15.4410009384155,15.0259504318237,22.1280002593994,22.2520503997803,-3.45705008506775,28.3789520263672,0.52005004882813,10.7700004577637,-7.16700029373169,5.56605005264282,5.96595048904419,9.21405029296875,SWING_LEFT
0.28723749518394,0.62741249799728,0.57626247406006,0.99000000953674,1.60201251506805,1.09298753738403,-4.8258376121521,-12.5384874343872,-17.523962020874,-6.72663736343384,10.6103248596191,9.78106212615967,3.56675004959106,4.32148742675781,5.19089984893799,-0.34127500653267,0.2426874935627,1.15128743648529,0.76230001449585,-0.97748750448227,-3.06418752670288,-12.2735252380371,-1.33292496204376,16.0274124145508,10.2080001831055,13.2468872070313,15.3756628036499,-3.69421243667603,-11.299750328064,-2.36802506446838,-1.70376253128052,-1.86559998989105,-2.71700000762939,-5.05284976959229,-6.60838747024536,-4.97062492370605,-18.0604877471924,-13.4963121414185,5.3414626121521,-2.85972499847412,-13.3867244720459,-16.5270881652832,-13.9881496429443,-9.0452995300293,-4.15071249008179,3.15000009536743,2.65695023536682,2.47695016860962,1.65795004367828,7.79700040817261,4.4320502281189,-24.844051361084,-44.6440505981445,-36.4210510253906,-5.27400016784668,18.2250003814697,33.1960525512695,19.0099506378174,10.2709503173828,12.2080507278442,2.7529501914978,2.19300007820129,6.00495052337646,12.4720506668091,16.5100517272949,7.65300035476685,-2.206050157547,-21.6559505462646,-38.0740509033203,-48.6289520263672,-31.840051651001,-18.0300006866455,-13.3380002975464,-10.9720506668091,-7.06305027008057,8.06895065307617,7.91595029830933,10.735050201416,16.3459510803223,19.7830505371094,13.792950630188,23.8090515136719,-3.38595008850098,26.5110015869141,7.0290002822876,0.01695000007749,1.96395003795624,4.33004999160767,7.49205017089844,5.85105037689209,SWING_LEFT
-0.03877500072122,0.21422499418259,1.019700050354,2.48833751678467,3.1217999458313,1.12213754653931,-2.17002487182617,-7.50612497329712,-6.87142515182495,7.07121229171753,14.9036245346069,6.06402492523193,1.54715001583099,3.46665000915527,1.73896253108978,-0.06875000149012,-0.05967500060797,-1.04362499713898,-2.16039991378784,-2.93534994125366,-4.80273723602295,-0.42638748884201,10.6048250198364,13.1714000701904,10.5227375030518,10.5335998535156,2.51748752593994,-11.4016370773315,-11.0288753509521,-2.03348755836487,-2.27617502212524,-2.35138750076294,-1.56571245193481,-1.5885374546051,-3.28748750686646,-6.52891254425049,-9.63558769226074,-5.52021265029907,-5.23764991760254,-11.6132497787476,-13.2004127502441,-14.09375,-12.5644750595093,-7.53376245498657,-4.35806226730347,0.05595000088215,2.54700016975403,5.83005046844482,4.93995046615601,5.9239501953125,-12.2290506362915,-19.3069515228271,-37.6050033569336,-35.4799499511719,-0.36195001006126,12.7189502716064,28.6690521240234,20.9170513153076,13.6480503082275,7.04700040817261,2.4250500202179,3.8689501285553,9.05400085449219,15.8010005950928,15.0750007629395,6.99900054931641,-5.48700046539307,-9.62805080413818,-32.5170021057129,-33.6599998474121,-30.4099521636963,-21.9550514221191,-13.3980007171631,-9.54705047607422,-7.56105041503906,10.3300504684448,12.9790506362915,15.9649505615234,17.9719505310059,13.6180505752563,19.4980506896973,2.95800018310547,7.77705049514771,9.42000007629395,8.06400012969971,6.94605016708374,2.60595011711121,2.50995016098022,4.91700029373169,6.42600011825562,SWING_LEFT
0.29851248860359,-0.11439999938011,0.06833750009537,1.76962494850159,4.25466251373291,5.37982511520386,3.51614999771118,-3.00973749160767,2.21553754806519,24.8619251251221,23.1637992858887,5.62457513809204,3.04232501983643,5.84966230392456,3.6704249382019,0.78979998826981,0.59207499027252,0.44976249337196,0.06806249916553,-1.45447504520416,-1.21247494220734,3.51436257362366,9.81309986114502,13.1294622421265,15.6366376876831,13.3436870574951,2.96546244621277,-13.9881496429443,-19.1763000488281,-7.72516250610352,-2.53453755378723,0.59606248140335,3.27854990959167,1.71091246604919,-0.2374625056982,0.27059999108315,0.70592498779297,-7.44961261749268,-17.7688503265381,-21.375337600708,-17.1637115478516,-12.2687120437622,-8.95331287384033,-5.04446268081665,-3.39019989967346,0.76695001125336,0.87000006437302,4.0290002822876,3.85905027389526,10.663950920105,-4.56300020217896,-23.1720008850098,-29.9670009613037,-44.8060531616211,-8.19900035858154,13.8589506149292,20.8039512634277,23.7840003967285,15.5880002975464,13.5300006866455,2.64795017242432,2.25195002555847,5.60805034637451,17.5279502868652,18.8159999847412,9.33000087738037,-1.0440000295639,-15.7210512161255,-26.2830009460449,-43.7329521179199,-29.1640510559082,-22.5520515441895,-16.7940006256104,-10.4689502716064,-10.021050453186,8.17905044555664,12.0330009460449,19.2990016937256,16.6360511779785,15.1009502410889,9.903000831604,15.774001121521,1.86600005626678,20.7499504089355,1.55205011367798,15.0859508514404,10.4040002822876,1.31295001506805,3.11595010757446,5.60700035095215,SWING_LEFT
1.26266252994537,1.37059998512268,1.27077496051788,3.13321256637573,4.25562477111816,4.03961229324341,2.9326000213623,0.05169999971986,5.53630018234253,30.8676490783691,30.2113628387451,4.55702495574951,3.4016125202179,10.7174377441406,7.05375003814697,6.20317506790161,1.84043753147125,-2.91004991531372,-5.16903734207153,-4.72230005264282,1.05118751525879,10.0733871459961,19.6530132293701,16.7487373352051,17.0583877563477,14.8814878463745,0.75638747215271,-14.5175247192383,-22.7119750976563,-9.46123790740967,-4.16941261291504,-3.3900625705719,-1.03248751163483,-0.19249999523163,0.74194997549057,6.51571226119995,11.4738245010376,-3.90238738059998,-15.4364376068115,-12.5273494720459,-12.6280002593994,-11.9827127456665,-10.1033620834351,-5.82106256484985,-3.05951237678528,-4.00995016098022,-0.46005001664162,1.90500009059906,6.26595020294189,11.6980504989624,-2.03400015830994,-32.9629516601563,-34.2400512695313,-37.9399528503418,-5.10405015945435,15.0319509506226,25.9750518798828,29.5270519256592,15.4660511016846,8.38800048828125,2.92500019073486,3.02805018424988,9.50895023345947,19.4389514923096,12.3979501724243,4.35300016403198,-7.10400056838989,-18.6289501190186,-30.3090019226074,-39.1969528198242,-32.6320533752441,-24.6829509735107,-16.6770000457764,-12.631950378418,-9.4150505065918,11.5630502700806,11.3209505081177,17.5440006256104,21.8760013580322,17.4859504699707,12.2430009841919,5.25195026397705,-10.2330007553101,9.91500091552734,15.1680011749268,2.30595016479492,5.83200025558472,2.79495024681091,6.11700010299683,8.33205032348633,SWING_LEFT
-1.34763753414154,-1.22636246681213,-0.64294999837875,0.56045001745224,2.6420624256134,4.285325050354,3.86031246185303,0.63607501983643,4.67802476882935,13.4527244567871,23.065486907959,17.8043251037598,2.40776252746582,5.33651256561279,7.04261255264282,0.53817498683929,0.53913748264313,-0.0449624992907,-0.92386251688004,-0.80547499656677,0.78966248035431,16.8331623077393,17.8771991729736,8.01941204071045,11.738374710083,21.9962882995605,20.4382743835449,-3.58544993400574,-16.0021133422852,-8.9700870513916,-2.08848738670349,-2.52834987640381,-2.91665005683899,-3.16580009460449,-4.27418756484985,-2.43595004081726,15.6890249252319,5.68562507629395,-25.0701007843018,-23.300199508667,-18.4775257110596,-17.7791614532471,-13.053150177002,-9.13096237182617,-5.82175016403198,3.42300009727478,2.28795003890991,3.33000016212463,3.76095008850098,-0.46695002913475,2.53005003929138,-17.7259502410889,-38.5050010681152,-37.7149505615234,-14.6340007781982,8.69700050354004,31.5289516448975,29.8090515136719,18.9220504760742,10.792950630188,2.78700017929077,2.51400017738342,5.14095020294189,11.8249502182007,22.4230518341064,8.98995018005371,-0.4909500181675,-14.4040508270264,-34.009952545166,-47.9269523620605,-40.5810012817383,-27.553050994873,-17.2729511260986,-11.6569509506226,-7.6279501914978,11.0479507446289,10.6750507354736,13.1680507659912,16.909049987793,15.481050491333,13.6009502410889,21.7060508728027,-0.78195005655289,33.5710525512695,-0.4279500246048,12.8040008544922,2.95995020866394,3.1519501209259,4.57905006408691,7.64295053482056,SWING_LEFT
-0.30387499928474,-0.0969374999404,0.28036248683929,1.66705000400543,2.96504998207092,2.14939999580383,-1.10123753547668,-6.13800001144409,-1.02877497673035,13.7186498641968,18.0274868011475,6.54568767547607,1.79437494277954,5.78476238250732,4.3249249458313,0.68516248464584,-0.52112501859665,-1.970787525177,-2.46262502670288,-2.03775000572205,-1.76783752441406,-0.0449624992907,11.7610626220703,15.3317995071411,10.4920749664307,11.1707754135132,5.48941230773926,-9.34216213226318,-14.8872623443604,-4.32891225814819,-3.03256249427795,-2.32471251487732,-1.48981249332428,-2.76375007629395,-4.09639978408813,-2.06607508659363,-3.77850008010864,-7.85963726043701,-11.4415121078491,-14.8186502456665,-15.8269376754761,-15.8870248794556,-12.4551620483398,-7.45992517471313,-2.94965004920959,1.74000012874603,4.37700033187866,5.27205038070679,4.37205028533936,10.19700050354,-0.19695000350475,-27.7129516601563,-36.5920524597168,-32.2330513000488,-8.93100070953369,16.0620002746582,32.2480506896973,24.8470516204834,5.53800010681152,6.15405035018921,2.90100002288818,3.39495015144348,8.21805000305176,20.5000514984131,14.5800008773804,5.11395025253296,-3.52800011634827,-14.7850503921509,-29.3269519805908,-39.0100517272949,-31.3729515075684,-21.8119506835938,-11.998950958252,-11.6880006790161,-7.59000015258789,9.2590503692627,11.3209505081177,14.9830503463745,19.4860515594482,18.375,11.1439504623413,4.91205024719238,9.22605037689209,15.1459503173828,15.6559505462646,3.67905020713806,4.46400022506714,2.2590000629425,6.29400014877319,9.48405075073242,SWING_LEFT
-0.00192499998957,0.35804998874664,0.97336250543594,0.92262500524521,0.2426874935627,-2.25018739700317,-5.85502481460571,-13.1470623016357,-16.6438255310059,-1.3917750120163,20.6419124603271,15.9147996902466,2.15173745155334,6.74643754959106,7.12882518768311,1.11842501163483,0.45897498726845,-1.99361252784729,-2.85463738441467,-1.94191253185272,-1.21687495708466,-4.86777496337891,2.92022490501404,12.2761373519897,9.12230014801025,20.916088104248,16.8246364593506,-11.5816249847412,-17.7410755157471,-6.1536750793457,-2.20426249504089,-2.94291257858276,-3.32158756256104,-3.1131374835968,-3.2465124130249,-7.78744983673096,-26.4094867706299,-10.9544878005981,10.9029245376587,-5.03043746948242,-17.6941871643066,-17.8234367370605,-11.1916751861572,-7.6279501914978,-4.44812488555908,2.74605011940002,5.88795042037964,6.35700035095215,5.05200004577637,2.66895008087158,-8.96505069732666,-15.502950668335,-37.4509506225586,-32.998950958252,-10.4500503540039,12.4240503311157,33.5050506591797,22.5000019073486,14.1169509887695,9.76095008850098,2.62395024299622,5.69595050811768,7.73205041885376,10.0360507965088,5.41095018386841,2.33895015716553,-3.37500023841858,-15.0630006790161,-33.9949531555176,-44.5000534057617,-36.3709526062012,-23.7970504760742,-15.6709508895874,-11.8290004730225,-7.24995040893555,9.50595092773438,10.0159502029419,11.0200500488281,16.6480503082275,14.274001121521,19.2799510955811,15.2659511566162,1.11900007724762,22.7260513305664,10.5000009536743,5.62800025939941,0.17505000531673,8.38005065917969,7.35495042800903,9.00300025939941,SWING_LEFT
-1.02712500095367,-0.63813751935959,-0.40479999780655,-0.08621250092983,1.17493748664856,0.70564997196198,-2.55062508583069,-8.40111255645752,-18.2334632873535,-11.4438495635986,1.86931252479553,0.74167501926422,3.65543746948242,9.79440021514893,7.08702516555786,-0.67223751544952,-1.43618750572205,-2.0952250957489,-1.7936874628067,-0.96868747472763,1.43165004253387,9.29981231689453,14.4658250808716,10.5373125076294,6.66820001602173,4.66028738021851,-0.17462499439716,-13.7087497711182,-17.1158618927002,-4.50477504730225,-0.18301250040531,-0.75143748521805,-1.27709996700287,-2.64811253547668,-4.29659986495972,-4.08333730697632,3.72858738899231,7.43146228790283,8.92306232452393,2.09220004081726,-9.17716217041016,-10.5947875976563,-12.1940498352051,-8.87562465667725,-4.72491264343262,3.95505023002625,4.57095003128052,7.07100009918213,7.09500026702881,2.05605006217957,-13.4580001831055,-24.4200019836426,-22.7650508880615,-37.2960014343262,-3.34605026245117,16.9069499969482,23.275951385498,27.4099521636963,14.9269504547119,9.36300086975098,2.90100002288818,2.48700022697449,4.50104999542236,12.8050508499146,12.2280006408691,5.32800006866455,-0.58005005121231,-16.2979507446289,-25.4520015716553,-37.159049987793,-23.3160018920898,-18.0610504150391,-9.528000831604,-5.95395040512085,-4.78995037078857,8.69595050811768,7.33395051956177,9.79605007171631,16.2649517059326,14.0370006561279,24.8080520629883,16.0830001831055,1.83705008029938,13.3690509796143,9.32400035858154,-1.21605002880096,7.22295045852661,3.75300025939941,8.62695026397705,6.58395051956177,SWING_LEFT
-0.96854996681213,-0.93706250190735,-0.18122500181198,1.28947496414185,2.87773752212524,2.49617505073547,-0.78086251020432,1.47441244125366,12.0829496383667,17.1855754852295,11.2301750183105,1.74831247329712,1.86381244659424,5.24548768997192,2.46015000343323,0.05335000157356,0.18603749573231,-0.64735001325607,-1.71654999256134,-2.83249998092651,-2.78973746299744,1.68753743171692,12.3642749786377,15.4053621292114,10.9540748596191,7.01648759841919,-2.99254989624023,-15.0353498458862,-12.6264877319336,-1.93091249465942,-1.26775002479553,-1.17837500572205,-1.30652499198914,-1.69812500476837,-1.30831253528595,0.01567500084639,-2.43457508087158,-19.5629501342773,-25.019775390625,-14.2829494476318,-11.7753620147705,-11.8696870803833,-10.2632751464844,-6.5165376663208,-3.06487488746643,1.83105003833771,3.33000016212463,5.63895034790039,10.2090005874634,15.5850009918213,-1.27500009536743,-37.5330009460449,-42.3130531311035,-37.0230026245117,-3.77505016326904,14.5699510574341,31.4070014953613,24.6070518493652,11.2669506072998,2.13705015182495,2.0269501209259,3.04800009727478,6.95400047302246,14.2350006103516,12.538950920105,3.56505012512207,-4.34205007553101,-17.0700016021729,-37.7550010681152,-42.7990531921387,-33.9949531555176,-23.0809516906738,-17.5990505218506,-13.2660007476807,-7.48005056381226,10.6990509033203,12.6720008850098,18.0010509490967,19.2940502166748,14.6929502487183,12.9589509963989,12.0180006027222,4.26300001144409,13.7040004730225,8.90205001831055,7.30005025863647,8.3899507522583,7.39305019378662,7.29795026779175,6.67995023727417,SWING_LEFT
-0.34718748927116,-0.11687500029802,0.42487499117851,1.98000001907349,2.16906237602234,3.45922493934631,4.26236248016357,0.68255001306534,-24.2202129364014,-44.0578880310059,-23.0779991149902,-2.94593739509583,6.5553126335144,8.2941370010376,1.78750002384186,-0.96813750267029,-1.66457498073578,-1.14812505245209,0.8234875202179,2.94621253013611,-1.49297499656677,-4.83010005950928,1.558149933815,3.15590000152588,-4.63251256942749,-5.95031261444092,-2.45849990844727,-22.7881507873535,-22.7224254608154,-0.77591252326965,-1.34914994239807,-0.72256249189377,-1.19088745117188,-3.7262499332428,-7.45469999313354,-17.7183876037598,-22.3287620544434,-12.9651498794556,7.14725017547607,14.2506370544434,-0.95149999856949,-11.5201625823975,-10.4553623199463,-6.63836240768433,-3.99437499046326,4.40100002288818,2.57805013656616,1.21800005435944,-6.4480504989624,-12.0780010223389,-5.14005041122437,-16.8469505310059,-26.2860012054443,-39.810001373291,-9.52305030822754,18.8280010223389,25.6800003051758,25.4670009613037,12.0019502639771,4.72905015945435,1.58700013160706,2.21205019950867,6.2310004234314,10.6090507507324,8.30205059051514,1.15995001792908,-1.60005009174347,-8.29200077056885,-23.248950958252,-39.1230010986328,-33.1110000610352,-24.4750518798828,-17.4070510864258,-12.4740009307861,-7.79805040359497,10.5930004119873,10.2910509109497,10.5619506835938,20.8489513397217,25.1449508666992,14.8009510040283,13.2370510101318,1.32405006885529,6.12900018692017,8.25300025939941,-0.20505000650883,7.25505018234253,4.62705039978027,5.50395011901855,6.97005033493042,SWING_LEFT
0.21463750302792,0.67691248655319,0.83627498149872,1.61713743209839,2.18020009994507,1.19556248188019,-1.77044999599457,-4.36919975280762,-0.48949998617172,-2.53990006446838,-9.74187469482422,-5.47813749313354,-1.46946251392365,-11.8553876876831,-12.0643873214722,-2.36389994621277,-1.08831250667572,-1.12103748321533,-0.9592000246048,0.50751250982285,3.05731248855591,9.46357536315918,13.5466375350952,13.2928123474121,6.8954873085022,-4.09983730316162,-5.96199989318848,-2.41724991798401,17.4358253479004,19.5076751708984,-1.55072498321533,-1.03454995155334,-0.41909998655319,-0.57598751783371,-1.47124993801117,-1.52143752574921,7.24487495422363,9.89449977874756,-5.42286252975464,-11.9226245880127,-7.17392492294312,-8.34831237792969,-12.2513875961304,-13.3211374282837,-9.13440036773682,1.96005010604858,2.82195019721985,3.78795027732849,1.69695007801056,-3.33195018768311,-7.67895030975342,-13.9540510177612,-27.1980018615723,-44.4180030822754,-14.1840009689331,0.20505000650883,22.6150512695313,32.191951751709,21.2640018463135,4.69005012512207,2.82000017166138,3.30900025367737,6.88695049285889,9.89700031280518,13.6620006561279,9.84705066680908,2.06595015525818,-7.70505046844482,-26.5849514007568,-38.4480018615723,-35.3869514465332,-34.651050567627,-21.4620018005371,-14.8330507278442,-11.3410501480103,8.94300079345703,10.0690507888794,12.0090007781982,14.9160003662109,22.1320514678955,21.760950088501,6.8860502243042,0.52905005216599,6.4980001449585,12.3199510574341,8.61705017089844,-0.51105004549026,2.61300015449524,5.97105026245117,8.67000007629395,SWING_LEFT
-0.00068749999627,-0.04592499881983,-0.22879999876022,0.39022499322891,3.16222500801086,5.0084376335144,3.39528751373291,-2.74615001678467,-8.52596282958984,-9.97177505493164,-9.15461254119873,-4.73508739471436,-11.6197128295898,-14.0866003036499,-3.08811259269714,-0.59482496976852,-1.0456874370575,-1.41446244716644,-1.51786243915558,-1.71764993667603,-1.32192504405975,2.89643740653992,11.9519128799438,15.0778369903564,4.75516223907471,-4.34568738937378,-2.65168738365173,21.8449001312256,26.8140125274658,8.09558773040771,-0.2058375030756,-0.09404999762774,0.02186249941587,-0.0141624994576,-0.13914999365807,0.1876875013113,-0.18658749759197,-5.11912488937378,-9.90096282958984,-8.55057525634766,-7.78098726272583,-11.680212020874,-15.0255870819092,-11.3407249450684,-4.30100011825562,1.7610000371933,2.44200015068054,4.23105001449585,6.23805046081543,8.34794998168945,0.95700001716614,-25.8910503387451,-45.7570533752441,-52.1419525146484,-3.22905015945435,32.6070022583008,42.7159538269043,15.7510509490967,5.42805004119873,4.93200016021729,2.64300012588501,2.5969500541687,3.44295024871826,11.4880504608154,17.5729503631592,9.53805065155029,3.00195002555847,-21.0880508422852,-45.5629539489746,-68.8309555053711,-46.300952911377,-22.0729503631592,-14.7730503082275,-8.5290002822876,-5.19000005722046,10.9090509414673,12.0540008544922,15.5440511703491,14.1520509719849,14.7270002365112,13.5630006790161,17.3740501403809,-3.43095016479492,33.7909507751465,2.04105019569397,-0.1950000077486,5.93295049667358,7.7839503288269,8.54505062103271,7.54395055770874,SWING_LEFT
-1.16957497596741,-1.07387495040894,-0.61393749713898,0.4101625084877,3.22300004959106,5.97313737869263,4.85003757476807,0.22563749551773,-8.2941370010376,-12.5046625137329,-10.3472871780396,-5.64946269989014,-1.40195000171661,-9.95142459869385,-12.625524520874,-1.09972500801086,-0.28091248869896,1.08047497272491,1.65673744678497,1.18731248378754,-0.76656252145767,-0.38568750023842,4.05487489700317,15.3161249160767,15.7768869400024,1.46189999580383,-3.62326240539551,-0.69905000925064,22.9582366943359,27.097261428833,-0.71816247701645,-0.92757499217987,-1.18167495727539,-1.2780624628067,-1.41446244716644,-0.02474999986589,4.41897487640381,3.65736246109009,-7.36408758163452,-8.67803764343262,-3.62642502784729,-7.04316234588623,-11.3795003890991,-14.5646877288818,-11.6980876922607,3.70395016670227,2.800950050354,2.54205012321472,2.5969500541687,6.55395030975342,25.6489505767822,-4.74300003051758,-37.381950378418,-54.7390518188477,-26.2399520874023,0.56894999742508,15.5040006637573,28.689001083374,22.0999507904053,15.0420007705688,0.76305001974106,0.64800000190735,2.0269501209259,6.67800045013428,21.9660015106201,16.2900009155273,-0.24705001711845,-12.153000831604,-25.6219520568848,-47.4700508117676,-45.9079513549805,-35.6809501647949,-25.2130508422852,-19.4790000915527,-15.4669504165649,10.3420505523682,11.5110006332397,11.3449506759644,14.3509502410889,20.1109504699707,25.2840003967285,16.94700050354,8.32500076293945,8.3230504989624,10.0570507049561,2.59095001220703,8.16900062561035,3.28395009040833,3.43695020675659,5.51295042037964,SWING_LEFT
-0.27073749899864,0.37317499518394,2.46441245079041,4.70676231384277,4.82308769226074,2.20082497596741,-3.20952486991882,-7.83983755111694,-17.634786605835,-14.5998878479004,-1.38586246967316,-0.16032500565052,7.1568751335144,8.9832878112793,1.78474998474121,1.97408747673035,0.75336247682571,-1.87907493114471,-3.06556248664856,0.45127499103546,5.9545750617981,10.9866628646851,14.627799987793,3.73078751564026,-5.89311265945435,-3.55410003662109,-5.11582517623901,-27.219087600708,-25.7584247589111,-1.31642496585846,-2.3918125629425,-2.4785749912262,-1.84538745880127,0.54326248168945,5.04968738555908,5.15858745574951,-4.82253742218018,-11.4760246276855,-7.30083751678467,-5.79356241226196,-8.2531623840332,-9.42411231994629,-6.07089996337891,-4.05102491378784,-4.19278764724731,-0.8479500412941,-0.78405004739761,6.89595031738281,8.65200042724609,-4.86495018005371,-17.97705078125,-26.0650520324707,-46.3320007324219,-27.7110004425049,2.12295007705688,18.855001449585,35.8879508972168,30.2119522094727,11.4400501251221,3.43800020217896,3.24405026435852,8.72100067138672,18.4720516204834,15.7219505310059,6.54705047607422,-3.48705005645752,-9.04605007171631,-28.7290515899658,-49.5150032043457,-52.4920539855957,-46.7200508117676,-32.0100021362305,-17.9410514831543,-13.206000328064,-8.91000080108643,13.8910503387451,16.7989501953125,19.9840507507324,15.03600025177,13.1509504318237,8.67705059051514,-1.70895004272461,-4.34100008010864,18.5449504852295,7.48005056381226,5.83905029296875,1.61400008201599,4.49295043945313,6.13395023345947,6.78795051574707,SWING_LEFT
-0.43477499485016,-0.16747500002384,-0.21642500162125,0.57653748989105,3.06789994239807,4.49061250686646,3.33148741722107,-1.22801244258881,-7.10008764266968,-17.1259002685547,-18.1601753234863,-5.94164991378784,-0.50160002708435,5.27683734893799,6.82261228561401,2.4450249671936,2.66035008430481,0.65546250343323,-0.67430001497269,-0.70001250505447,1.9186749458313,5.90026235580444,5.52131223678589,15.1329746246338,6.72429990768433,-11.2440624237061,-5.81377506256104,-11.7555627822876,-23.1928119659424,-13.6591119766235,-1.68519997596741,-2.43168759346008,-2.83030009269714,-3.64911246299744,-4.13916254043579,2.65856242179871,11.9948120117188,7.88328742980957,-10.8389873504639,-10.8732252120972,0.37963750958443,-6.44448757171631,-10.1272878646851,-6.06402492523193,-4.81387519836426,-1.15005004405975,1.90995013713837,-0.39105001091957,-2.57505011558533,3.68505024909973,6.42705011367798,6.69300031661987,-49.3210525512695,-43.1710510253906,-12.0570001602173,-0.47505003213882,27.9940509796143,24.3970508575439,19.2019500732422,14.4600009918213,2.2260000705719,2.50905013084412,3.91500020027161,12.2899503707886,21.3000011444092,12.5749502182007,-1.23600006103516,-18.2740516662598,-40.9840507507324,-39.6280517578125,-41.6950531005859,-31.5570011138916,-20.6410503387451,-16.6650009155273,-11.8150501251221,9.24495029449463,12.5640001296997,15.3570003509521,19.5580501556396,21.8380508422852,17.2009506225586,4.77300024032593,6.38295030593872,18.3910503387451,9.60600090026855,11.2830009460449,-3.45000004768372,7.14405012130737,7.29795026779175,9.35295009613037,SWING_LEFT
-0.73039996623993,-1.05503749847412,-0.64625000953674,0.26620000600815,2.95542502403259,4.44138765335083,2.27548742294312,4.81538724899292,5.54812479019165,9.40005016326904,25.5766506195068,22.1412124633789,3.99396252632141,2.33076238632202,5.18512487411499,0.03904999792576,0.56498748064041,0.93431252241135,0.007012499962,-2.85642504692078,-4.29453754425049,-1.05599999427795,15.313099861145,16.9624118804932,11.5255250930786,19.9704990386963,14.7131872177124,0.65491247177124,-16.8836250305176,-16.6170120239258,-4.6927375793457,-6.35236263275146,-7.11493730545044,-5.50247478485107,-2.21746253967285,-0.09047500044107,0.7039999961853,16.2558002471924,-10.1308622360229,-32.9109001159668,-14.7065877914429,-12.7432250976563,-11.9862871170044,-10.2938003540039,-6.67315006256104,-0.02400000020862,-0.93195003271103,-0.15795001387596,4.23495006561279,12.8380508422852,9.38505077362061,-7.02000045776367,-27.8160018920898,-37.1710510253906,-28.7530517578125,-7.44195032119751,12.9529504776001,28.3990516662598,24.7560005187988,14.1199502944946,2.12595009803772,2.1780002117157,2.45595002174377,9.96405029296875,18.9580516815186,13.945050239563,1.84800004959106,-11.4220504760742,-16.2070503234863,-29.5690517425537,-32.5530014038086,-29.7970504760742,-26.0820007324219,-16.7250003814697,-12.1570501327515,10.2460508346558,11.0119504928589,12.5119504928589,18.3049507141113,19.3210506439209,24.5230503082275,16.3009510040283,3.19695019721985,11.2180509567261,8.28000068664551,8.08095073699951,4.25804996490479,3.50205016136169,4.79700040817261,4.72500038146973,SWING_LEFT
0.74690002202988,1.18291246891022,0.65051251649857,1.85377502441406,4.26222515106201,3.15507507324219,-0.69629997014999,-4.64419984817505,-2.60479998588562,12.6902875900269,20.6801376342773,12.1041250228882,4.72587490081787,6.52932500839233,5.17976236343384,1.53229999542236,-1.11622500419617,-1.38352501392365,-0.04949999973178,0.28545001149178,1.5830374956131,9.79756259918213,7.68900012969971,11.0096244812012,19.2706241607666,18.3811378479004,12.2160501480103,-9.92433738708496,-20.0508003234863,-9.08682537078857,-5.4808874130249,-4.54478740692139,-3.33643746376038,-6.01809978485107,-6.11572504043579,2.47843742370605,10.8095626831055,-2.23382496833801,-17.7060127258301,-15.9319877624512,-13.3053245544434,-11.9902753829956,-10.4748878479004,-6.79194974899292,-4.42571258544922,3.2749502658844,0.11595000326633,-0.6690000295639,-4.25205039978027,7.07295036315918,-3.74100017547607,-18.2550010681152,-15.3360004425049,-54.1900520324707,-12.5860509872437,7.02600049972534,28.8199520111084,29.4070510864258,19.3909511566162,11.4439506530762,2.57805013656616,2.53500008583069,7.66995048522949,20.0020503997803,17.0659503936768,6.19005012512207,-1.90905010700226,-18.6379508972168,-22.1299514770508,-46.6960525512695,-36.0930023193359,-30.3259506225586,-19.8720016479492,-12.6630010604858,-10.5240001678467,8.80905055999756,10.5120000839233,14.1640510559082,19.1770515441895,17.0359516143799,15.0289506912231,15.5320510864258,1.68105006217957,5.27595043182373,6.03300046920776,14.6340007781982,8.3299503326416,2.60295009613037,7.12800025939941,5.58495044708252,SWING_LEFT
0.81468749046326,0.69685000181198,0.79461246728897,1.80578744411469,1.94700002670288,0.21862499415874,-2.51198744773865,-7.24831247329712,-8.88469982147217,12.6786003112793,21.4416122436523,3.79032492637634,2.19449996948242,4.92428731918335,1.45420002937317,-0.58162498474121,-0.2939749956131,0.48853749036789,1.03785002231598,-0.9424250125885,-3.90266251564026,-5.03002500534058,5.76069974899292,15.519624710083,19.6363754272461,16.7341632843018,-2.71589994430542,-19.9337882995605,-14.9451503753662,-1.91509997844696,-1.32219994068146,-2.04036259651184,-3.69792509078979,-5.75231266021729,-3.67276239395142,-3.50817489624023,-8.92924976348877,-5.75492477416992,-2.05232501029968,-9.42177486419678,-12.1826372146606,-10.8570003509521,-9.05959987640381,-5.66417503356934,-3.63811254501343,2.83905005455017,-0.27600002288818,-1.51395010948181,-0.26399999856949,8.71905040740967,-2.68500018119812,-21.7420501708984,-42.6250534057617,-37.3170013427734,0.09195000678301,13.4869508743286,10.0740003585815,18.9310512542725,17.2069511413574,9.81795024871826,3.1840500831604,3.87600016593933,7.47105026245117,15.1380004882813,15.292950630188,5.08305025100708,-5.6050500869751,-12.7870502471924,-35.8390502929688,-42.8860511779785,-21.0379505157471,-21.5170516967773,-19.3740005493164,-14.5669507980347,-13.2330007553101,8.72504997253418,9.80505084991455,9.96795082092285,26.7930011749268,24.7549514770508,22.1370010375977,14.1739511489868,-0.75105005502701,2.25600004196167,0.73500001430511,7.47000026702881,7.84905052185059,3.8970000743866,6.57900047302246,6.37800025939941,SWING_LEFT
0.54023748636246,0.5321249961853,-0.19580000638962,0.56072497367859,2.93672490119934,3.24706244468689,0.93128746747971,-3.89674997329712,-7.20761251449585,4.26511240005493,23.2296619415283,16.4070491790771,2.34960007667542,3.73889994621277,2.94016242027283,-0.02502499893308,-0.9259250164032,-0.06489999592304,1.0448625087738,-0.75858747959137,-2.65374994277954,-0.70743751525879,6.45809984207153,16.5644874572754,16.7611122131348,21.1226119995117,13.600811958313,-18.884937286377,-22.4195117950439,-5.55307483673096,-2.71108746528625,-2.76237487792969,-2.55970001220703,-4.53983736038208,-4.84151268005371,-2.01437497138977,0.70289999246597,-0.41978749632835,-7.59398746490479,-12.2560625076294,-15.4148502349854,-15.1791753768921,-8.59553718566895,-6.22545003890991,-5.4892749786377,1.84800004959106,1.82100009918213,-1.50195002555847,2.85795021057129,6.36900043487549,5.38305044174194,-11.998950958252,-42.9220504760742,-41.6980514526367,-10.5270004272461,10.5060005187988,28.1470508575439,30.9490509033203,18.117000579834,8.84295082092285,3.22500014305115,1.82100009918213,5.82300043106079,11.8540506362915,15.3799505233765,9.08805084228516,0.62100005149841,-19.1410503387451,-35.2210502624512,-46.4610023498535,-39.0409507751465,-32.776050567627,-19.4140510559082,-13.498950958252,-11.7550506591797,10.3609504699707,10.336950302124,14.943000793457,15.6280508041382,18.2670001983643,17.3089504241943,15.1680011749268,8.21700000762939,2.8090500831604,14.4589509963989,12.4399509429932,-0.49500003457069,1.04205000400543,4.51695013046265,6.51195049285889,SWING_LEFT
-0.31831249594688,0.21903750300407,0.76188749074936,1.73153746128082,3.70644998550415,4.19099998474121,2.23245000839233,-1.54426252841949,-3.74989986419678,0.48303750157356,6.85643768310547,6.82618761062622,2.70985007286072,5.47800016403198,4.99399995803833,1.77388751506805,2.57716250419617,1.77100002765656,-0.1357125043869,-3.19852495193481,-4.2065372467041,1.78172504901886,11.5834121704102,18.0512752532959,13.5078620910645,6.19011259078979,2.57564997673035,-14.1545248031616,-29.6474742889404,-16.6181125640869,-2.54375004768372,-2.84116244316101,-2.73569989204407,-2.04270005226135,-0.34017500281334,2.02193737030029,3.53099989891052,-0.2426874935627,-8.3996000289917,-8.96953773498535,-6.59271240234375,-9.73348712921143,-10.2147378921509,-5.24947500228882,-3.39886260032654,1.28205001354218,-0.77595001459122,0.69795000553131,6.09600019454956,20.5890007019043,6.33795022964478,-23.802001953125,-28.2780017852783,-42.529052734375,-22.5520515441895,-1.65105009078979,16.8570003509521,28.5210018157959,22.1980514526367,11.320050239563,2.32695007324219,2.80305004119873,4.26195001602173,12.3310508728027,17.2399501800537,9.76995086669922,-4.29900026321411,-5.97300004959106,-14.7580509185791,-29.5840511322021,-32.953052520752,-32.6539497375488,-24.0559520721436,-15.8050508499146,-11.60205078125,9.40305042266846,10.021050453186,13.1490001678467,16.6789512634277,20.3149509429932,17.8330516815186,12.4230003356934,-2.86095023155212,3.47295022010803,1.0110000371933,10.701000213623,8.60100078582764,8.16495037078857,6.41400051116943,7.45095014572144,SWING_LEFT
0.68791252374649,0.68227499723434,1.04610002040863,3.11244988441467,5.18278741836548,5.36222505569458,1.52336251735687,-5.75093746185303,-12.534912109375,-23.934211730957,-17.449987411499,-0.85222500562668,4.81085014343262,5.48446226119995,1.00553750991821,0.97679996490479,-0.55371248722076,-1.15417504310608,-0.62933748960495,0.55618751049042,2.85999989509583,3.96549987792969,7.0214376449585,11.3209247589111,1.44003748893738,-5.15666246414185,-3.15397500991821,-28.1305751800537,-27.9155254364014,-2.82136249542236,-2.04366254806519,-1.22223746776581,-0.27073749899864,-0.22522500157356,0.99000000953674,3.88396239280701,3.1382999420166,-8.29647541046143,-12.8873252868652,-2.70985007286072,-3.35967493057251,-10.672474861145,-4.91149997711182,-2.09178757667542,-4.71239995956421,1.95105004310608,1.89795005321503,2.15205001831055,2.72700023651123,4.48695039749146,3.88800024986267,-16.6189498901367,-38.7250518798828,-40.2030029296875,-8.40705013275146,14.4190502166748,18.3040504455566,24.2670021057129,20.7180004119873,10.1460008621216,3.85995006561279,4.20405006408691,10.3669500350952,18.1360511779785,17.2519512176514,8.59005069732666,-3.45900011062622,-12.9049501419067,-24.9199504852295,-45.3600006103516,-33.1230010986328,-27.2220020294189,-20.1060009002686,-14.3110504150391,-12.3319501876831,12.8179502487183,12.3889503479004,13.8889503479004,14.8990507125854,7.72395038604736,11.6830501556396,15.3690004348755,-0.35100001096725,8.61705017089844,5.33595037460327,11.3170509338379,8.05905055999756,4.0090503692627,3.97095012664795,5.32695007324219,SWING_LEFT
-1.3831125497818,-1.48857498168945,-0.88013750314713,0.39820000529289,2.34135007858276,3.23028755187988,1.33787500858307,-2.88378739356995,-4.22069978713989,-9.31686210632324,-15.7152872085571,-8.99139976501465,3.44451236724854,4.91823768615723,1.10522496700287,0.82252502441406,-1.14867496490479,-2.51611256599426,-1.62139999866486,0.70578747987747,2.65691256523132,5.85640001296997,11.1553745269775,13.0366497039795,3.31237506866455,-10.9294624328613,-11.1014747619629,-20.4170989990234,-17.9815616607666,0.09281250089407,-1.96528744697571,-1.85679996013641,-2.10333752632141,-2.41573739051819,-2.75756239891052,-2.11736249923706,2.23685002326965,0.38101249933243,-8.00937461853027,-8.28299999237061,-5.95471239089966,-10.0808124542236,-9.29513740539551,-5.23820018768311,-3.57609987258911,2.71500015258789,4.86495018005371,4.70700025558472,0.37500002980232,0.04905000329018,-3.14505004882813,-19.1820011138916,-53.4690017700195,-40.7280006408691,0.87495005130768,27.0310516357422,27.7429504394531,18.105001449585,14.7090005874634,8.79300022125244,0.95205003023148,1.74195003509521,2.85105013847351,9.32505035400391,13.7220010757446,7.95000028610229,-1.93995010852814,-16.6290016174316,-43.8600006103516,-57.9960021972656,-40.3560028076172,-24.8509502410889,-18.8110504150391,-11.8009510040283,-8.75594997406006,13.1389503479004,13.3039503097534,13.4269504547119,17.7780017852783,22.900951385498,16.6020011901855,11.7600002288818,2.62305021286011,19.6819515228271,10.0279502868652,0.47400003671646,1.61700010299683,5.22105026245117,5.61405038833618,2.79300022125244,SWING_LEFT
0.51356250047684,0.51301246881485,0.46956250071526,1.59458744525909,3.48370003700256,2.75907492637634,-0.94957500696182,-2.82424998283386,-1.66196250915527,-14.0897626876831,-19.7206630706787,-6.94677495956421,0.44604998826981,2.26297497749329,0.37674999237061,0.7735750079155,-0.17710000276566,-0.64130002260208,-0.6377249956131,0.44879999756813,4.91301250457764,9.84004974365234,8.42875003814697,8.68106269836426,3.60676240921021,-5.73526239395142,-5.85227489471436,-27.5235118865967,-27.9415130615234,-3.32695007324219,-2.3095874786377,-1.69069993495941,-1.35025000572205,-1.98137497901917,-2.47073745727539,4.20103740692139,9.82203769683838,-3.48232507705688,-13.5778503417969,-4.39477491378784,-1.37541246414185,-8.3252124786377,-5.44829988479614,-3.12138748168945,-5.3530125617981,1.0480500459671,2.62095022201538,0.98805004358292,-1.71495008468628,0.46605002880096,-8.80200004577637,-14.9760007858276,-25.7710514068604,-42.5599517822266,-16.0139999389648,12.3640508651733,14.0070009231567,21.4600505828857,20.7229518890381,10.0030508041382,2.67405009269714,2.34105014801025,6.00795030593872,16.1719512939453,16.0960502624512,7.33905029296875,-3.24795007705688,-9.78600025177002,-17.9290504455566,-36.6630020141602,-31.1860523223877,-26.9040012359619,-22.1329517364502,-14.3730010986328,-12.2320508956909,8.68395042419434,9.49395084381104,13.4599504470825,18.7030506134033,19.2970504760742,21.9240016937256,13.16100025177,1.39395010471344,12.4279508590698,7.48695039749146,9.64695072174072,8.20995044708252,1.96395003795624,3.67905020713806,5.83905029296875,SWING_LEFT
1.24685001373291,2.0431125164032,2.72717499732971,3.79500007629395,2.78946256637573,1.44498753547668,0.3271124958992,-3.13568758964539,-23.7228755950928,-23.8154125213623,-2.45134997367859,-2.916100025177,-4.09103727340698,-0.89058750867844,-0.59647500514984,1.69963753223419,1.92788743972778,1.06411254405975,0.57805001735687,-0.97432500123978,-2.00846242904663,0.04399999976158,10.5782871246338,16.6861743927002,7.69518756866455,0.30332499742508,-8.00607490539551,-29.2505130767822,-22.97487449646,-0.1199000030756,-2.39112496376038,-2.54045009613037,-2.1319375038147,-0.92743748426437,3.66781258583069,7.44493722915649,4.04167509078979,-5.15982484817505,-1.3553375005722,0.64226251840591,-8.32534980773926,-9.23340034484863,-4.67500019073486,-3.9395124912262,-4.95825004577637,-4.27995014190674,-2.92995023727417,-7.44195032119751,-1.87800014019012,18.4380016326904,-0.59205001592636,-26.5830020904541,-33.4999504089355,-33.4230003356934,-9.05595016479492,1.35900008678436,18.9889507293701,24.9430503845215,13.1760005950928,0.13995000720024,3.12900018692017,5.74200010299683,10.4530506134033,20.0550003051758,12.2470502853394,7.15995025634766,-0.37095001339912,-4.92705011367798,-21.1960506439209,-33.2670021057129,-28.6450519561768,-29.5860023498535,-23.086051940918,-17.0290508270264,-14.2099504470825,9.78600025177002,13.1010007858276,14.5950002670288,22.0320014953613,17.9080505371094,7.37895011901855,13.3789510726929,-0.35595002770424,11.131950378418,3.8730001449585,10.6600503921509,5.48895025253296,6.6820502281189,6.78795051574707,4.84800004959106,SWING_LEFT
0.34540000557899,0.26207500696182,0.00673749996349,0.18369999527931,0.43477499485016,0.3104749917984,0.88550001382828,1.68712496757507,2.82658743858337,0.70083749294281,-1.63996243476868,-1.41171252727509,-3.48232507705688,-18.2011489868164,-17.2167873382568,-0.64542502164841,-0.62782502174377,-0.39476248621941,0.27994999289513,-0.23608750104904,-0.83366250991821,0.18232500553131,1.17342495918274,2.94552493095398,4.02311229705811,4.63512516021729,1.41817498207092,5.89572477340698,13.5408620834351,9.03333759307861,-1.14345002174377,-0.86954998970032,-0.65491247177124,-0.91932499408722,-1.26376247406006,-1.48252499103546,-2.24180006980896,-2.93782496452332,-3.7060375213623,3.69668745994568,9.63764953613281,3.41893744468689,-2.25623750686646,3.0793125629425,2.80238747596741,1.29000008106232,1.68900012969971,0.22095000743866,1.49805009365082,3.4830002784729,-1.63095009326935,0.52995002269745,-7.46295022964478,-6.92205047607422,-2.85300016403198,-6.96495056152344,-8.94105052947998,-29.3419513702393,-25.8019504547119,-13.864951133728,1.42395007610321,1.78995013237,0.99000006914139,2.25495004653931,1.29900002479553,3.2989501953125,5.50995016098022,9.50895023345947,17.0490016937256,13.5780010223389,3.4830002784729,1.5940500497818,-4.94805002212524,-11.6899509429932,-22.2450008392334,10.7149505615234,9.65205001831055,8.86200046539307,10.9909505844116,8.56695079803467,10.2169504165649,12.9499502182007,16.9260005950928,26.5660514831543,25.9720516204834,4.92405033111572,11.6449508666992,-0.32205000519753,5.92305040359497,7.30005025863647,SWING_LEFT
0.70083749294281,-1.63996243476868,-1.41171252727509,-3.48232507705688,-18.2011489868164,-17.2167873382568,-1.17369997501373,-4.4478497505188,-6.44118738174438,-1.26884996891022,-0.48289999365807,-1.83328747749329,-1.60654997825623,-0.09501250088215,1.91152501106262,4.02311229705811,4.63512516021729,1.41817498207092,5.89572477340698,13.5408620834351,9.03333759307861,1.94589996337891,-11.2098245620728,-28.8678493499756,-22.2890243530273,-4.93803739547729,-0.80877500772476,1.12681245803833,1.34722495079041,0.61311250925064,3.69668745994568,9.63764953613281,3.41893744468689,-2.25623750686646,3.0793125629425,2.80238747596741,-6.45204973220825,-7.70494985580444,-3.47874999046326,-3.29780006408691,-4.62316226959229,-1.26596248149872,1.57107496261597,2.86316251754761,-0.09803749620914,-2.85300016403198,-6.96495056152344,-8.94105052947998,-29.3419513702393,-25.8019504547119,-13.864951133728,4.74300003051758,10.6660509109497,20.3130016326904,24.0330009460449,5.94495010375977,4.27095031738281,7.11705017089844,4.66395044326782,4.22294998168945,13.5780010223389,3.4830002784729,1.5940500497818,-4.94805002212524,-11.6899509429932,-22.2450008392334,-24.5560512542725,-25.006950378418,-25.8859519958496,-19.3399505615234,-17.6200504302979,-13.312050819397,-9.34305000305176,-8.05695056915283,-6.79995012283325,25.9720516204834,4.92405033111572,11.6449508666992,-0.32205000519753,5.92305040359497,7.30005025863647,9.97500038146973,10.2199506759644,7.03695011138916,1.59495007991791,3.27195024490356,3.00300025939941,0.43095001578331,5.29095029830933,4.86405038833618,SWING_LEFT
0.69231247901917,0.84039998054504,0.90076249837875,1.37816250324249,1.82833743095398,2.71686244010925,0.51438748836517,-0.65848749876022,1.05118751525879,-5.33623743057251,-15.4592628479004,-10.1107873916626,2.22530007362366,3.95573759078979,0.99054998159409,0.0323125012219,0.09996250271797,1.54316246509552,0.79048746824265,0.83737498521805,7.01497507095337,12.873987197876,8.74637508392334,4.42035007476807,0.23100000619888,-10.8237247467041,-15.4984502792358,-31.7350006103516,-24.7517871856689,-0.32518750429153,-1.94823753833771,-1.55388748645782,-1.74487495422363,-1.73084998130798,0.62919998168945,6.73997497558594,5.41076231002808,-6.31303739547729,-12.881275177002,-9.70763778686523,-5.63928747177124,-6.76279973983765,-5.41832494735718,-4.64750003814697,-5.43468761444092,1.79505014419556,-1.43700003623962,1.17495000362396,1.45695006847382,-6.64395046234131,-15.3480005264282,-33.0540008544922,-25.6609516143799,-32.9680519104004,-7.55400037765503,15.8820009231567,20.6770515441895,18.4669513702393,22.3800010681152,10.3039503097534,3.30600023269653,2.79900002479553,5.54295015335083,7.7509503364563,13.4970006942749,11.3820009231567,-1.96695005893707,-25.7749519348145,-29.9670009613037,-43.8700523376465,-34.1719512939453,-24.6430511474609,-20.988000869751,-12.046950340271,-9.65895080566406,8.25600051879883,10.4830503463745,15.6439504623413,12.4759502410889,12.2269506454468,14.076000213623,18.1020011901855,8.778000831604,6.06195020675659,0.94395005702972,6.38295030593872,4.38105010986328,0.63705003261566,4.72500038146973,6.35205030441284,SWING_LEFT
-0.27224999666214,0.40053749084473,1.96226251125336,3.82442498207092,4.04002475738525,-1.99911248683929,-5.54015016555786,-1.71696245670319,3.96357488632202,6.86619997024536,4.81139993667603,-0.20129999518394,0.97377496957779,3.62656259536743,0.57076251506805,2.25472497940063,2.64632487297058,1.66622495651245,-0.00728749996051,-0.11646249890327,10.5230121612549,12.6942749023438,2.88199996948242,8.25605010986328,10.7993869781494,3.92658758163452,-5.65523767471313,-25.1659374237061,-21.7926502227783,-2.9829249382019,-1.75188744068146,-3.92727494239807,-5.41323757171631,-5.42588758468628,-2.70173740386963,16.6915378570557,21.2416877746582,-6.353600025177,-21.7666625976563,-14.9601373672485,-9.65318775177002,-11.7921371459961,-8.96651268005371,-5.94329977035522,-3.75099992752075,-0.97800004482269,-2.16300010681152,-1.95495009422302,-5.40795040130615,-1.72695004940033,-1.17900002002716,-9.68295001983643,-39.7480506896973,-45.901050567627,-10.6729507446289,21.7740001678467,21.4960517883301,24.916051864624,17.32200050354,4.69500017166138,2.41500020027161,3.99600028991699,7.23405027389526,13.5450010299683,16.0879516601563,5.11905002593994,0.45105001330376,-7.42200040817261,-28.4749507904053,-46.7250022888184,-33.1949996948242,-27.6240005493164,-21.105001449585,-14.1790504455566,-11.5390501022339,9.6739501953125,10.5450000762939,10.4260501861572,16.3939514160156,27.8970012664795,22.6330509185791,7.72605037689209,5.63100004196167,5.28795003890991,9.6540002822876,4.74000024795532,4.08105039596558,-0.59295004606247,0.84300005435944,4.97400045394897,SWING_LEFT
-0.40741249918938,0.83421248197556,2.47156238555908,3.39831256866455,2.07487487792969,6.65334987640381,14.481499671936,6.79250001907349,-5.32441234588623,-0.9509499669075,4.57049989700317,0.71073746681213,1.68121254444122,2.31687498092651,0.84301251173019,-0.12251249700785,0.38513749837875,0.57887500524521,1.31862497329712,1.34873747825623,-3.68720006942749,-5.87331247329712,4.53585004806519,8.41390037536621,3.9638500213623,-3.22616243362427,-19.6178131103516,-19.8477115631104,-5.2288498878479,0.53556251525879,-1.73772501945496,-3.32983756065369,-5.02906227111816,-6.2511625289917,-6.00448751449585,-16.2618503570557,-30.6242752075195,-21.4718627929688,-4.47699975967407,-2.8136625289917,-8.04911231994629,-8.10906219482422,-6.03487491607666,-4.39738750457764,-0.92303746938705,-2.78805017471313,-0.22800001502037,-6.9940505027771,-13.5370502471924,-13.4010009765625,-12.081000328064,-11.7960004806519,-25.267951965332,-20.7630004882813,7.00395011901855,14.5170011520386,18.1699504852295,19.4269504547119,5.47800016403198,1.72995007038116,5.28495025634766,6.17100048065186,9.13800048828125,10.6999502182007,4.42500019073486,-5.37000036239624,-10.407000541687,-5.43705034255981,-22.068000793457,-22.8420009613037,-19.9170017242432,-20.0920505523682,-14.0809507369995,-11.6419506072998,-7.26705026626587,12.0280504226685,13.0819501876831,14.7799510955811,19.701000213623,19.1220016479492,18.6240005493164,-23.5369510650635,15.517050743103,6.67500019073486,6.67305040359497,7.0770001411438,9.29295063018799,9.62805080413818,7.05600023269653,7.6279501914978,SWING_LEFT
1.47633743286133,2.14706254005432,1.5772625207901,-0.43834999203682,-0.007012499962,5.32620000839233,18.5407752990723,14.5640001296997,-2.13949990272522,-7.9311375617981,-3.93387508392334,1.46588754653931,1.53106248378754,2.69692492485046,2.95006251335144,-0.13598750531673,-0.14519999921322,0.93816250562668,3.11258745193481,2.38603758811951,1.35300004482269,-4.22014999389648,-4.54753732681274,-2.70160007476807,-19.8305244445801,-22.0180130004883,-6.7062873840332,-1.43233752250671,0.69905000925064,1.86051249504089,-1.01516246795654,-1.24905002117157,0.46007499098778,3.22464990615845,2.45093750953674,-8.53806209564209,-21.5221881866455,-18.3133506774902,-10.7252750396729,-9.10758781433105,-6.89480018615723,-6.13263750076294,-2.22488737106323,1.27888751029968,0.87573748826981,-4.46700000762939,-6.36900043487549,-0.37395000457764,-2.87400007247925,-6.81900024414063,-31.8829517364502,-19.4119510650635,-10.6030502319336,22.6840515136719,23.1150016784668,15.4320011138916,12.1150503158569,2.39805006980896,5.51895046234131,7.59600019454956,11.1600008010864,20.1310501098633,8.28105068206787,3.43605017662048,8.32905006408691,-1.97895014286041,-13.0560007095337,-25.5930004119873,-27.5170516967773,-21.1549510955811,-16.9210510253906,-9.44895076751709,-7.55205059051514,-4.94595003128052,-4.71405029296875,14.3610010147095,23.1019515991211,18.7819499969482,-2.57100009918213,9.52305030822754,12.2239503860474,3.17100024223328,11.6209506988525,7.82205057144165,4.68495035171509,8.70105075836182,3.79605007171631,4.51905012130737,7.08705043792725,4.76595020294189,SWING_LEFT
1.03111255168915,0.9620875120163,0.02612499892712,0.30951249599457,2.01025009155273,2.21718740463257,-0.12484999746084,-4.10547494888306,-5.81941223144531,-17.199462890625,-15.347749710083,-3.92232489585876,0.19112500548363,3.79266238212585,1.33650004863739,-0.39751249551773,-0.19194999337196,-0.29727500677109,-0.12870000302792,-1.74116253852844,-0.36794999241829,7.12827491760254,14.5846252441406,12.1770000457764,1.79464995861053,-4.19113731384277,-5.12613725662231,-19.9318618774414,-18.458137512207,-0.81138747930527,-2.80403757095337,-3.28047490119934,-2.41656255722046,-2.09371256828308,-1.29030001163483,0.33618751168251,6.67686223983765,6.00338745117188,-4.5413498878479,-3.1264750957489,-4.22042512893677,-11.5398244857788,-8.56033706665039,-4.652174949646,-3.3764500617981,-1.06605005264282,1.52205002307892,0.10200000554323,4.64700031280518,2.61900019645691,-1.25505006313324,-27.4639511108398,-28.9320011138916,-31.2289524078369,-2.08395004272461,17.1780014038086,9.31500053405762,19.6860008239746,12.5460004806519,10.3309507369995,4.0339503288269,3.22500014305115,4.30305004119873,11.19105052948,17.1060009002686,9.09000015258789,-5.56905031204224,-12.28005027771,-25.9740009307861,-34.0480499267578,-22.9039516448975,-19.8550510406494,-17.2300510406494,-13.5390005111694,-10.4689502716064,9.91995048522949,9.57495021820068,11.9970006942749,17.556001663208,24.1830005645752,24.7980003356934,15.2179508209229,6.01395034790039,-3.95295023918152,8.50005054473877,0.07395000010729,6.35595035552979,3.79395008087158,5.98305034637451,5.56095027923584,SWING_LEFT
-0.80355000495911,-0.80836248397827,-0.35433748364449,1.5885374546051,4.34156227111816,0.93293750286102,-1.83480000495911,3.94982504844666,6.70394992828369,-8.12061214447021,-15.7544746398926,-5.51801252365112,-2.02991247177124,-2.40157508850098,-1.63954997062683,0.70826250314713,1.42023754119873,0.75459998846054,0.65174996852875,3.8229124546051,11.8443870544434,12.2671995162964,5.3917875289917,5.763587474823,-2.18473744392395,-11.2334747314453,-5.86451244354248,3.75869989395142,6.31317520141602,4.51041269302368,-1.75793743133545,-1.66649997234344,-1.70046246051788,-3.01441240310669,-3.30536246299744,7.98228740692139,7.42554998397827,-10.5664625167847,-15.1465873718262,-7.72144985198975,-4.49803733825684,-9.7817497253418,-11.9215250015259,-9.15131282806396,-5.08667516708374,2.35304999351501,4.95195007324219,2.44605016708374,-2.5969500541687,-13.5919504165649,-16.1380500793457,-23.730001449585,-28.863000869751,-36.3660011291504,-4.42905044555664,21.7909507751465,32.9470520019531,23.1780014038086,9.27000045776367,7.69605016708374,-1.39200007915497,-0.73305004835129,3.92205023765564,7.81095027923584,10.957950592041,4.48905038833618,-4.0290002822876,-19.2799510955811,-35.6089515686035,-47.4940528869629,-37.9780502319336,-23.3680515289307,-14.8999509811401,-9.5179500579834,-6.13905048370361,10.8469505310059,9.35295009613037,16.9450511932373,13.2919502258301,16.8469505310059,18.3480014801025,11.2249507904053,1.40595006942749,15.0310506820679,-4.19505023956299,8.70105075836182,5.12295007705688,7.08900022506714,7.68600034713745,9.0799503326416,SWING_LEFT
1.36042499542236,3.597825050354,3.64512491226196,1.77691245079041,0.29603749513626,-0.770687520504,-0.53776252269745,-0.66385000944138,-3.09773755073547,-2.47142505645752,8.37979984283447,18.5638751983643,12.3615245819092,3.40669989585876,1.638312458992,3.10365009307861,1.9542875289917,0.53047502040863,-0.50902497768402,-2.00392508506775,-3.2271249294281,-3.15383744239807,0.69616252183914,8.98947525024414,13.5562620162964,14.9990501403809,25.7224006652832,14.9841995239258,-7.49182510375977,-5.91731262207031,-4.41127490997314,-6.04216241836548,-4.06491231918335,-0.97652500867844,1.17576253414154,2.42742490768433,1.42133748531342,-0.39379999041557,-1.49476253986359,-7.33246231079102,-12.9232120513916,-13.9303998947144,-15.2956371307373,-12.2346124649048,-7.39914989471436,-3.06600022315979,-3.03195023536682,-1.08495008945465,0.3529500067234,2.13495016098022,6.463050365448,-0.26100000739098,-31.4850006103516,-49.5919532775879,-12.2200508117676,0.30795001983643,23.2399501800537,29.3400020599365,19.101001739502,2.80800008773804,2.65500020980835,3.80895018577576,3.9190502166748,3.43800020217896,5.29200029373169,5.60805034637451,7.68900012969971,-0.23295001685619,-40.855052947998,-36.3810005187988,-27.8899517059326,-29.0059509277344,-13.2829504013062,-9.60195064544678,-8.38500022888184,10.3230009078979,8.94795036315918,8.79495048522949,9.07005023956299,15.1459503173828,16.3200016021729,19.8000011444092,31.677001953125,11.5219507217407,-7.07100009918213,13.6210508346558,0.36900001764297,-0.03705000132322,0.96000003814697,9.04605007171631,SWING_LEFT
0.74098747968674,1.18470001220703,1.22443747520447,0.79942500591278,0.79694998264313,0.95658749341965,0.40356248617172,-0.61489999294281,1.29318749904633,14.1447620391846,19.0110244750977,14.9268627166748,10.6195373535156,3.58489990234375,0.95246249437332,0.91107499599457,0.54037499427795,0.09088750183582,-0.3782624900341,-1.21687495708466,-2.04765009880066,-1.75615000724792,1.29002499580383,9.17798709869385,15.4433126449585,13.3119249343872,14.7371120452881,17.0453243255615,1.8486875295639,-8.67322540283203,-2.26036238670349,-1.56694996356964,-0.78526252508163,-0.10395000129938,0.83077502250671,1.88292503356934,2.35056257247925,1.98797500133514,-9.6472749710083,-25.1058502197266,-20.4734745025635,-14.6524124145508,-18.8568878173828,-14.3545875549316,-8.12047481536865,0.55395001173019,0.46605002880096,1.3900500535965,3.24105024337769,5.74695014953613,10.44105052948,2.21895003318787,-20.2309513092041,-67.0939559936523,-23.6580009460449,-2.21805000305176,22.7850017547607,27.6540012359619,30.0060005187988,13.4509506225586,2.68395018577576,3.39495015144348,2.77905011177063,3.99105024337769,8.17304992675781,4.74795007705688,3.05700016021729,-4.0620002746582,-13.7170505523682,-49.8889541625977,-39.2520027160645,-32.9839515686035,-21.2539501190186,-12.9259510040283,-10.9050006866455,8.95005035400391,8.18100070953369,10.2240009307861,11.1559505462646,14.2549505233765,18.6310501098633,14.1949510574341,10.1310005187988,17.8210506439209,-3.98700022697449,29.5759506225586,2.70600008964539,-2.06595015525818,-1.29900002479553,5.28300046920776,SWING_LEFT
-0.11618749797344,1.10123753547668,4.01555013656616,2.47183752059937,-1.40112495422363,-1.61204993724823,-1.12763750553131,-4.63649988174438,-22.2417240142822,-30.8197994232178,-13.8439121246338,-0.82692497968674,1.1446875333786,-1.95346248149872,-4.22908735275269,1.4860999584198,1.42546248435974,0.13969999551773,0.29452499747276,0.48427498340607,0.63580000400543,3.67248749732971,8.76658725738525,3.18807506561279,-6.9221625328064,-4.40082502365112,3.48644995689392,3.49786257743835,-0.28311249613762,0.85236251354218,-1.884850025177,-2.48228740692139,-3.24541258811951,-2.9528124332428,-0.86143749952316,0.98738747835159,8.57752513885498,12.7634372711182,24.1520118713379,22.814136505127,0.54793751239777,-8.86132526397705,-10.7712001800537,-10.4359750747681,-7.90143728256226,0.38400000333786,1.32495009899139,1.03995001316071,2.71695017814636,3.02595019340515,-1.96395003795624,-12.9889507293701,-43.6420516967773,-32.7280502319336,-10.0549507141113,7.77795028686523,27.0670509338379,33.1480522155762,27.9130516052246,-0.62505000829697,2.16900014877319,3.79005026817322,2.51595020294189,4.47000026702881,3.16500020027161,0.86295002698898,-4.24695014953613,-21.7020015716553,-52.4340019226074,-50.9110527038574,-45.3670539855957,-42.0420036315918,-16.2340507507324,-14.2290010452271,-12.4660501480103,3.81495022773743,0.19200000166893,12.8059501647949,18.9180011749268,15.7900505065918,14.3850002288818,19.6270503997803,35.7150001525879,-11.8140001296997,6.65805053710938,25.7970008850098,-2.83695006370544,-4.26000022888184,5.42205047607422,20.67405128479,SWING_LEFT
1.09367501735687,2.92723751068115,3.73477506637573,2.9991500377655,1.57107496261597,0.48262500762939,-2.32856249809265,-12.4976501464844,-9.07651233673096,3.7571873664856,10.6475877761841,14.063775062561,7.35405015945435,-1.18126249313354,-4.25342512130737,1.63528752326965,0.73328751325607,0.44013750553131,0.00178749999031,-0.60403752326965,-1.36276245117188,-2.95377492904663,-6.12479972839355,6.88696241378784,19.9373626708984,17.0530242919922,23.4660243988037,17.8997497558594,1.724249958992,-0.63524997234344,-1.08487498760223,-0.14341250061989,-0.26111251115799,-0.21353749930859,0.29864999651909,1.2725625038147,-0.82472497224808,-25.4222373962402,-40.4161987304688,-23.6574249267578,-13.0498495101929,-17.2844371795654,-18.35817527771,-11.5993623733521,-7.24033737182617,0.8850000500679,0.01800000108778,1.11900007724762,1.97700011730194,3.78000020980835,7.50195026397705,0.9250500202179,-43.3789520263672,-49.5409507751465,-10.150050163269,16.0669498443604,19.9489517211914,20.8740005493164,24.586051940918,17.2909507751465,3.04500007629395,5.11905002593994,5.25600004196167,6.33405017852783,7.19595050811768,6.06300020217896,-2.11995005607605,-14.473051071167,-41.8939514160156,-40.5529518127441,-34.1940002441406,-26.5630512237549,-13.8220510482788,-10.443000793457,-7.13295030593872,8.91195011138916,8.97405052185059,8.4660005569458,9.02400016784668,14.8129510879517,13.5630006790161,13.4820003509521,36.7230033874512,1.66005003452301,8.13794994354248,16.1500511169434,-3.45000004768372,0.23505000770092,1.68900012969971,3.66705012321472,SWING_LEFT
