gyro_x_0,gyro_y_0,gyro_z_0,acc_x_0,acc_y_0,acc_z_0,gyro_x_1,gyro_y_1,gyro_z_1,acc_x_1,acc_y_1,acc_z_1,gyro_x_2,gyro_y_2,gyro_z_2,acc_x_2,acc_y_2,acc_z_2,gyro_x_3,gyro_y_3,gyro_z_3,acc_x_3,acc_y_3,acc_z_3,gyro_x_4,gyro_y_4,gyro_z_4,acc_x_4,acc_y_4,acc_z_4,gyro_x_5,gyro_y_5,gyro_z_5,acc_x_5,acc_y_5,acc_z_5,gyro_x_6,gyro_y_6,gyro_z_6,acc_x_6,acc_y_6,acc_z_6,gyro_x_7,gyro_y_7,gyro_z_7,acc_x_7,acc_y_7,acc_z_7,gyro_x_8,gyro_y_8,gyro_z_8,acc_x_8,acc_y_8,acc_z_8,gyro_x_9,gyro_y_9,gyro_z_9,acc_x_9,acc_y_9,acc_z_9,gyro_x_10,gyro_y_10,gyro_z_10,acc_x_10,acc_y_10,acc_z_10,gyro_x_11,gyro_y_11,gyro_z_11,acc_x_11,acc_y_11,acc_z_11,gyro_x_12,gyro_y_12,gyro_z_12,acc_x_12,acc_y_12,acc_z_12,gyro_x_13,gyro_y_13,gyro_z_13,acc_x_13,acc_y_13,acc_z_13,gyro_x_14,gyro_y_14,gyro_z_14,acc_x_14,acc_y_14,acc_z_14,motion_type
0.0,0.0,0.0,0.0,0.0,0.0,0.0,-0.16169999539852,-0.21161249279976,-0.67553746700287,-2.78492498397827,-8.91577529907227,-9.84596252441406,-10.4285497665405,-10.6235246658325,0.2880625128746,0.33687499165535,0.38637501001358,0.36134999990463,0.2563000023365,0.17132499814034,-0.22701250016689,-1.23378753662109,-2.34561252593994,-3.21268749237061,-3.15796256065369,0.14836250245571,1.86491250991821,3.89785003662109,5.86176252365112,0.0,0.0,0.0,-0.00013749999925,-0.37963750958443,-0.62631249427795,-0.4976125061512,0.42157500982285,1.76989996433258,2.84762501716614,1.70994997024536,-5.02204990386963,-5.82450008392334,-7.09994983673096,-8.77923774719238,-1.78095006942749,-1.24905002117157,-2.88405013084412,-2.01495003700256,-1.92000007629395,-0.21495001018047,8.65500068664551,29.4019508361816,35.8060531616211,26.4829521179199,13.1400003433228,-4.50795030593872,-21.4879512786865,-24.6889514923096,-5.99700021743774,1.40700006484985,1.36800003051758,2.26395010948181,1.88505005836487,0.24300001561642,1.93800008296967,0.84900003671646,1.69395005702972,-6.13695049285889,-20.9479503631592,-29.449951171875,-34.1809501647949,-27.3430519104004,-15.3670511245728,-7.78905057907104,8.17605018615723,9.61200046539307,10.3450508117676,10.2730503082275,7.38795042037964,8.60205078125,11.7700510025024,17.3719501495361,13.3309507369995,7.56495046615601,8.31704998016357,7.58400058746338,11.9899501800537,8.79104995727539,6.2509503364563,SWING_RIGHT
-0.20872500538826,-0.33673748373985,-0.2413125038147,-0.00013749999925,0.0,0.0,-0.00013749999925,0.0,0.33453750610352,0.58134996891022,8.62716197967529,8.19403743743896,7.63413763046265,6.46978759765625,5.47428750991821,0.43697500228882,0.32326251268387,0.20899999141693,0.18823750317097,0.1568875014782,0.00013749999925,-0.00013749999925,-1.02464997768402,-2.12863755226135,-3.1099750995636,-5.49394989013672,-5.28467512130737,-3.75993752479553,-1.49407494068146,0.74401247501373,0.0,-0.24474999308586,0.0,0.0,0.00013749999925,0.00013749999925,0.50352501869202,1.51689994335175,2.96876239776611,4.56610012054443,13.0499877929688,13.8529872894287,13.5163869857788,11.7397499084473,9.37364959716797,1.01205003261566,1.35705006122589,0.69600003957748,0.01905000023544,-0.46605002880096,-0.02100000157952,7.85505056381226,33.9790534973145,45.4620018005371,31.7100009918213,13.2210006713867,-7.56795024871826,-29.6410522460938,-13.8049507141113,-5.09700012207031,2.77095007896423,2.73300004005432,2.64195013046265,2.34300017356873,1.84995007514954,1.84005010128021,0.56400001049042,1.17405009269714,-4.37895011901855,-26.9410514831543,-43.3699531555176,-41.2830009460449,-24.8359508514404,-17.7610511779785,-7.32195043563843,7.72800016403198,8.29500007629395,8.50395011901855,8.81505012512207,9.67005062103271,10.7880001068115,10.9909505844116,16.5529499053955,12.7099504470825,-0.16305001080036,6.24795007705688,5.19000005722046,12.9450006484985,11.5489501953125,8.82495021820068,SWING_RIGHT
-0.26949998736382,-0.36932501196861,-0.37166249752045,-0.42418751120567,-0.38417500257492,0.00013749999925,0.90337496995926,3.58751249313354,11.8749122619629,11.3815622329712,10.2095127105713,8.3920373916626,4.69603729248047,-4.18302488327026,-3.9502375125885,0.0,-0.00013749999925,-0.00013749999925,-0.22178749740124,-0.56594997644424,-1.45364999771118,-2.37751245498657,-3.1131374835968,-4.11358737945557,-3.50446248054504,-1.707200050354,0.6347000002861,2.82273745536804,4.95357513427734,5.21963739395142,-0.20446249842644,-0.23636250197887,-0.22632500529289,-0.15867500007153,0.38018751144409,1.77388751506805,3.42374992370605,6.64289999008179,13.7487621307373,14.3827753067017,13.5251874923706,11.3873376846313,7.34084987640381,-0.32738751173019,-1.53408753871918,0.23205001652241,0.93105006217957,2.17905020713806,4.01700019836426,14.3149509429932,38.2680015563965,43.3909530639648,31.816951751709,15.1120510101318,-16.2130508422852,-23.0590515136719,-8.62095069885254,-4.33500003814697,-4.0620002746582,1.40805006027222,2.39100003242493,2.5729501247406,2.49600005149841,1.58895003795624,1.70805013179779,4.47600030899048,-7.39395046234131,-27.726001739502,-51.7720527648926,-37.300952911377,-24.8580017089844,-17.7180004119873,-8.50695037841797,-3.62805008888245,-2.36595010757446,9.42105007171631,8.72205066680908,7.52205038070679,9.42795085906982,11.9899501800537,12.7920007705688,1.60095012187958,-5.07600021362305,11.9899501800537,7.26795053482056,15.5209503173828,14.5060510635376,9.796950340271,6.51900053024292,7.14600038528442,SWING_RIGHT
-0.53116250038147,-0.4492124915123,-0.37070000171661,-0.14162500202656,0.36574998497963,1.27297496795654,2.63614988327026,9.59529972076416,11.0,10.2086877822876,8.52197456359863,6.09427499771118,-1.82599997520447,-4.07275009155273,-4.09433746337891,0.00013749999925,0.0,-0.44316250085831,-1.197625041008,-2.0268874168396,-2.81146240234375,-3.26782488822937,-4.43836259841919,-4.67843770980835,-3.79431247711182,-2.18556237220764,-0.44206249713898,2.08436250686646,3.79046249389648,4.26621246337891,0.00013749999925,0.49238750338554,1.00581252574921,1.81279993057251,2.95583748817444,4.36094999313354,6.23232507705688,11.8966369628906,13.262149810791,12.8090877532959,11.3220252990723,8.96555042266846,2.52848744392395,0.00013749999925,-0.7732999920845,3.04500007629395,4.84305000305176,8.36505031585693,20.9070014953613,34.1520004272461,45.1300506591797,37.4970016479492,27.2370014190674,20.5980014801025,-2.84895014762878,-21.6750011444092,-9.74895000457764,-2.15895009040833,-1.15095007419586,-1.79295003414154,0.46305000782013,1.09995007514954,2.60595011711121,5.52705049514771,4.6560001373291,-4.61595010757446,-21.8910007476807,-40.8679504394531,-53.2639541625977,-51.6019515991211,-32.1510009765625,-20.9890518188477,-12.03600025177,-6.86505031585693,-4.06095027923584,12.6270008087158,11.3100004196167,10.5100507736206,9.07605075836182,12.1050004959106,11.4060001373291,7.014000415802,5.050950050354,6.80100011825562,12.0520505905151,8.89200019836426,4.09095001220703,7.213050365448,7.03605031967163,9.66300010681152,SWING_RIGHT
-0.37784999608994,-0.45938751101494,-0.4086500108242,-0.23622499406338,0.0,0.3134999871254,0.52112501859665,-0.80024999380112,-3.59067487716675,-8.42682456970215,-9.83014965057373,-10.614725112915,0.0,0.0,0.64721250534058,0.71802496910095,0.49829998612404,0.00013749999925,-0.25052499771118,-0.66893750429153,-1.14716243743896,-1.79643750190735,-2.71755003929138,-2.87045001983643,-1.72053754329681,-1.00278747081757,0.17998750507832,0.0,0.0,0.7596874833107,-0.28187498450279,-0.00013749999925,0.21449999511242,0.37413749098778,0.52428752183914,0.99701249599457,1.65412497520447,1.45557498931885,-0.66701251268387,-3.54474997520447,-3.99836254119873,-4.39890003204346,0.0,0.0,-0.63690000772476,0.24195000529289,4.23000001907349,7.39095020294189,9.34695053100586,12.6199502944946,15.2299509048462,22.1680507659912,35.6080513000488,32.7769508361816,4.26600027084351,-0.46905001997948,-15.1290006637573,3.4789502620697,0.16305001080036,-0.03795000165701,1.96695005893707,1.45200002193451,3.97995018959045,4.85205030441284,5.5420503616333,5.4529504776001,-2.4210000038147,-21.5850009918213,-30.1420516967773,-30.9919509887695,-35.0770530700684,-30.6400508880615,-0.5100000500679,1.08600008487701,1.3950001001358,11.2360506057739,10.6710004806519,8.36505031585693,9.9190502166748,6.52800035476685,2.15595006942749,-2.87295007705688,7.64205026626587,18.6409511566162,20.0610008239746,18.2170505523682,17.3819999694824,10.6920003890991,11.4060001373291,10.957950592041,SWING_RIGHT
0.16637499630451,0.2759625017643,0.41359999775887,0.51644998788834,0.62218749523163,0.68791252374649,0.62988752126694,0.31707498431206,0.0,-0.15798750519753,-0.98161250352859,-1.69867503643036,-2.01368737220764,-2.31068754196167,-2.61800003051758,0.37963750958443,0.46351251006126,0.56457501649857,0.62067496776581,0.54147499799728,0.28627499938011,-0.23196250200272,-1.12090003490448,-2.08724999427795,-2.29267501831055,-2.06634998321533,-1.35946249961853,0.0,1.63336253166199,2.67808747291565,1.99113750457764,2.0685498714447,2.03087496757507,1.76151251792908,1.60228753089905,1.44718754291534,1.45818746089935,1.96762502193451,3.75663757324219,5.15528726577759,5.80469989776611,5.90040016174316,5.3116250038147,3.24018740653992,1.40635001659393,-0.31095001101494,0.03299999982119,-1.25595009326935,-0.27000001072884,3.11205005645752,7.51095056533813,18.6610507965088,33.9049530029297,35.2410011291504,4.47000026702881,-9.12600040435791,-18.5329513549805,-22.4820003509521,-19.0150508880615,-15.984001159668,3.76995015144348,5.84805011749268,5.9800500869751,5.09895038604736,4.69605016708374,6.52305030822754,1.5619500875473,-13.7239503860474,-31.7010021209717,-38.601001739502,-36.3529510498047,-26.0689506530762,-18.2260513305664,-16.090051651001,-10.3200006484985,9.35805034637451,9.73905086517334,10.4620504379272,9.28200054168701,11.2189502716064,11.5180501937866,10.0150508880615,10.3210506439209,20.2290000915527,17.2210502624512,9.58395004272461,14.1640510559082,18.4279518127441,12.2100009918213,11.5590009689331,SWING_RIGHT
0.33797499537468,0.31817498803139,0.27637499570847,0.1898874938488,0.00013749999925,0.15510000288486,0.0,-1.37279999256134,-5.46012496948242,-6.52698755264282,-7.39860010147095,-7.8795747756958,-6.91652488708496,-3.22066259384155,-2.34286260604858,0.41387498378754,0.25575000047684,0.0,-0.40218749642372,-0.85181248188019,-1.17906248569489,-1.78997504711151,-3.04301238059998,-3.49676251411438,-2.79372501373291,-1.91963744163513,-0.46557500958443,1.94823753833771,3.82401251792908,4.5801248550415,-0.81111252307892,-1.05916249752045,-1.32879996299744,-1.50933754444122,-1.34571254253387,-0.81180000305176,-0.1733874976635,-0.89787501096725,-4.08388757705688,-3.54818749427795,-3.26095008850098,-3.37727499008179,-2.46111249923706,0.53350001573563,-0.35172501206398,-0.30105000734329,1.4719500541687,2.75100016593933,7.30200052261353,9.31605052947998,13.0819501876831,24.1099510192871,34.9279518127441,13.4269504547119,-8.89395046234131,-22.4629516601563,-27.423002243042,-21.9430503845215,-15.5959510803223,-13.5199508666992,4.15995025634766,2.84805011749268,2.50995016098022,1.24605000019073,4.02600002288818,2.60595011711121,-6.02205038070679,-23.2060508728027,-34.0800018310547,-33.7930526733398,-23.5579509735107,-14.4780006408691,-8.8279504776001,-6.10095024108887,-1.54905009269714,10.1389503479004,9.78900051116943,9.37995052337646,7.39800024032593,8.09895038604736,7.13205051422119,4.78305006027222,5.35005044937134,21.1549510955811,19.4380512237549,14.9950504302979,14.3430004119873,9.46095085144043,6.40605020523071,9.09000015258789,SWING_RIGHT
0.00013749999925,0.15358750522137,0.21243749558926,0.34650000929832,0.51438748836517,0.64074999094009,0.75212502479553,0.51150000095367,-0.26207500696182,-2.10209989547729,-4.92745018005371,-7.13748741149902,-7.88810014724731,-7.8056001663208,-6.61801242828369,0.00013749999925,0.00013749999925,0.00013749999925,0.00013749999925,0.00013749999925,0.0,-0.18259999155998,-0.97074997425079,-2.15036249160767,-2.32485008239746,-1.19583749771118,0.56058752536774,2.65264987945557,5.14566230773926,6.96822500228882,0.00013749999925,0.41882500052452,0.75886249542236,1.11938750743866,1.44237494468689,1.63157498836517,1.6718624830246,2.09330010414124,2.83937501907349,2.21718740463257,0.00013749999925,-1.71875,-3.01001238822937,-4.62550020217896,-5.33637475967407,2.07105016708374,2.68800020217896,2.32200002670288,0.5500500202179,1.19700002670288,3.31800007820129,10.7290506362915,35.0950508117676,38.4210014343262,4.14900016784668,-9.28200054168701,-20.6260509490967,-24.0499515533447,-20.4660015106201,-17.7390003204346,2.64705014228821,3.25500011444092,4.64100027084351,5.04105043411255,5.9320502281189,5.46495008468628,2.46300005912781,-13.1880006790161,-28.3960514068604,-33.6450004577637,-32.5429496765137,-24.646951675415,-15.0600004196167,-10.6909503936768,-6.70395040512085,9.25095081329346,9.68895053863525,10.9099502563477,6.76800012588501,6.68400049209595,9.19995021820068,5.99895048141479,6.96195030212402,20.0250015258789,20.3269500732422,17.2980003356934,15.0330009460449,13.4790010452271,9.75600051879883,7.46700048446655,SWING_RIGHT
0.26688748598099,0.29878750443459,0.32092499732971,0.3994374871254,0.51039999723434,0.4490749835968,0.41428750753403,0.42734998464584,0.00013749999925,-0.68791252374649,-2.9991500377655,-6.72553730010986,-8.31159973144531,-8.38956260681152,-6.45218753814697,0.0,0.27087500691414,0.40122500061989,0.56017500162125,0.69891250133514,0.52387499809265,0.16513749957085,-0.31528750061989,-1.37115001678467,-2.57386255264282,-2.3038125038147,0.0,1.97615003585815,6.25349998474121,7.43503761291504,0.42460000514984,0.39118748903275,0.42308750748634,0.54147499799728,0.76326251029968,1.01076245307922,1.45681250095367,1.98508751392365,2.87045001983643,3.81301236152649,2.67423748970032,-0.81963747739792,-2.47761249542236,-5.47731256484985,-5.57466268539429,-1.72800004482269,-1.59600007534027,-1.60605013370514,-1.02900004386902,1.28505003452301,6.10500049591064,11.2960500717163,18.9120006561279,43.0660514831543,29.4660015106201,-0.53595000505447,-17.0610008239746,-26.2860012054443,-19.0750503540039,-16.9720516204834,4.08599996566772,3.74595022201538,4.43295001983643,5.53005027770996,4.96500015258789,3.13800024986267,4.43295001983643,1.05705010890961,-20.4040508270264,-34.5570030212402,-39.6330032348633,-33.457950592041,-20.0550003051758,-8.81100082397461,-2.97405004501343,10.4569501876831,9.36105060577393,9.98805046081543,9.80100059509277,8.90595054626465,10.1200504302979,10.900050163269,8.0779504776001,6.36105012893677,10.8810005187988,20.1690006256104,16.3500003814697,16.7860507965088,11.1400508880615,7.64700031280518,SWING_RIGHT
0.32628750801086,0.26881250739098,0.22742499411106,0.22426250576973,0.32367500662804,0.51328748464584,0.57543748617172,0.26606249809265,0.0,-1.64477503299713,-5.13163757324219,-8.08486270904541,-8.71420001983643,-8.91769981384277,-7.82044982910156,0.28682500123978,0.37345001101494,0.39421248435974,0.46186250448227,0.56746250391006,0.57447499036789,0.31487500667572,-0.62809997797012,-2.25224995613098,-2.63848757743835,-1.2392874956131,1.51469993591309,3.89262509346008,6.74822473526001,8.46408748626709,0.33206251263618,0.00013749999925,0.0,-0.00013749999925,0.14478750526905,0.70578747987747,1.42821252346039,2.44956254959106,4.12568759918213,4.31969976425171,2.01011252403259,-0.8232125043869,-2.37269997596741,-4.60954999923706,-5.69552516937256,-1.43595004081726,-0.94005006551743,-0.95700001716614,-1.71105003356934,-0.18405000865459,5.82300043106079,17.8849506378174,43.068000793457,46.2739524841309,10.0819501876831,-7.963050365448,-24.7729511260986,-28.8150005340576,-20.5350017547607,-19.7860507965088,3.1519501209259,3.13500022888184,2.74695014953613,3.97095012664795,6.94005012512207,8.82900047302246,2.2300500869751,-17.2800006866455,-32.6440505981445,-44.7660026550293,-47.5339508056641,-27.8910007476807,-16.8319511413574,-12.5130004882813,-8.77995014190674,9.94995021820068,10.2730503082275,8.89605045318604,9.56700038909912,10.206000328064,11.7220506668091,13.4599504470825,4.55100011825562,3.37500023841858,26.253002166748,15.3130502700806,15.8490009307861,21.1600513458252,14.6400003433228,12.4020004272461,SWING_RIGHT
0.21353749930859,0.21449999511242,0.23017500340939,0.42721250653267,0.41126251220703,0.30662500858307,-0.00013749999925,-1.111687541008,-2.67341256141663,-4.78389978408813,-6.2899374961853,-6.39484977722168,-5.38051223754883,-3.5098249912262,-2.04159998893738,0.16390000283718,0.00013749999925,0.0,0.0,0.0,-0.34650000929832,-1.26279997825623,-2.22351241111755,-2.24028754234314,-1.21481251716614,0.45210000872612,5.29484987258911,7.36243724822998,7.77617502212524,7.16952514648438,-0.57832497358322,-0.16582499444485,0.31721249222755,1.19308745861053,1.55292499065399,1.70541250705719,1.96061253547668,1.95854997634888,1.25014996528625,-0.30813750624657,-1.67750000953674,-4.44097518920898,-5.83962488174438,-5.58580017089844,-5.01338768005371,-0.34905001521111,0.00195000006352,1.37595009803772,5.33895015716553,8.34405040740967,17.0059509277344,38.3040008544922,26.1310520172119,4.99200010299683,-10.0579500198364,-22.2640514373779,-17.7409515380859,-12.7699508666992,-10.5559501647949,-6.67200040817261,3.28905010223389,3.51405024528503,4.25804996490479,2.64195013046265,3.88695025444031,-0.08595000207424,-16.5160503387451,-26.9670009613037,-39.4459533691406,-38.0050506591797,-27.7069511413574,-8.9640007019043,-6.40500020980835,-2.16705012321472,-0.13005000352859,9.27705001831055,8.35305023193359,8.32200050354004,12.153000831604,14.6520004272461,15.7729511260986,9.86805057525635,18.8299503326416,19.006950378418,16.0600509643555,17.635950088501,11.5110006332397,6.21705007553101,8.27400016784668,8.80500030517578,SWING_RIGHT
-0.00013749999925,0.0,0.00013749999925,-0.00013749999925,-3.04589986801147,-4.2198748588562,-4.84302520751953,-5.14428758621216,-5.08007478713989,-2.51542496681213,-1.48211252689362,-1.02409994602203,-0.99068748950958,-0.9288125038147,-0.50448751449585,0.32147499918938,0.3616249859333,0.49238750338554,-0.00013749999925,-2.20109987258911,-3.05084991455078,-3.6201000213623,-3.63577508926392,-2.49851250648499,-0.00013749999925,1.1588499546051,2.26104998588562,2.66048741340637,2.47335004806519,2.14802503585815,0.17008750140667,-0.00013749999925,-0.4446749985218,-1.48046255111694,-10.2613496780396,-10.600700378418,-9.28922462463379,-7.66631269454956,-5.23531246185303,3.44011259078979,3.51340007781982,1.6550874710083,-0.42006251215935,-2.30037498474121,-2.16122508049011,-2.30700016021729,-1.54800009727478,-0.45900002121925,34.7820014953613,36.2130012512207,22.7670001983643,3.63405013084412,-35.5500030517578,-73.4940032958984,-4.93905019760132,-0.52095001935959,1.68495011329651,2.64300012588501,-3.05400013923645,-1.29000008106232,1.92600011825562,2.59200000762939,2.81700015068054,-8.20499992370605,-18.3910503387451,-30.8509521484375,-43.3870506286621,-23.3800506591797,-28.3009510040283,-12.2689504623413,-2.55000019073486,-1.99005007743835,-2.39505004882813,-1.97100007534027,-3.29505014419556,8.76000022888184,8.06805038452148,8.94195079803467,-0.37605002522469,2.01300001144409,11.6190004348755,23.3790016174316,23.4490509033203,32.7720031738281,11.7340507507324,5.35500001907349,12.2149505615234,9.92400074005127,13.7449502944946,11.8290004730225,SWING_RIGHT
0.83599996566772,0.60623747110367,0.41731250286102,0.15138749778271,-3.31292510032654,-4.04071235656738,-4.39958763122559,-4.47026252746582,-4.28601264953613,-1.18538749217987,-0.72737497091293,-0.46653750538826,-0.55261248350143,-0.79640001058578,-0.72558748722076,0.47354999184608,0.36849999427795,0.17311249673367,-0.47767499089241,-2.93232488632202,-3.61019992828369,-3.91228747367859,-3.61088752746582,-2.51996254920959,0.0,0.71445000171661,1.09793746471405,1.05393743515015,0.89086252450943,0.75996249914169,1.77154994010925,0.78526252508163,-0.00013749999925,-0.80134999752045,-11.1634874343872,-11.1757249832153,-10.5001878738403,-9.2171745300293,-7.83653736114502,2.79399991035461,2.95391249656677,2.47073745727539,1.06067502498627,-0.40755000710487,-0.86597502231598,0.1410000026226,0.63405001163483,2.47995018959045,28.9200019836426,23.9190006256104,10.0170001983643,-3.84705018997192,-12.3300008773804,-22.1370010375977,-2.87700009346008,-1.11000001430511,-0.33900001645088,0.54300004243851,1.17105007171631,2.12295007705688,2.72595024108887,3.08700013160706,3.13995003700256,-6.4480504989624,-16.9999504089355,-8.47800064086914,-16.3630504608154,-12.9100503921509,-7.26000022888184,-8.53800010681152,-3.33300018310547,-2.0550000667572,-1.12604999542236,-2.70300006866455,-2.5570502281189,8.16600036621094,12.6700506210327,17.1330013275146,4.71105003356934,6.29400014877319,3.94500017166138,15.7540512084961,26.8180503845215,23.6860504150391,11.2279500961304,10.5510005950928,10.9459505081177,10.3660507202148,10.6990509033203,8.98695087432861,SWING_RIGHT
0.0,-0.00013749999925,0.0,0.0,0.0,-0.00013749999925,-0.26289999485016,0.0,0.37716248631477,0.26331248879433,-6.94746255874634,-9.1320629119873,0.0,0.0,0.0,0.84920001029968,0.48908749222755,0.40768748521805,0.30085000395775,0.00013749999925,0.0,-0.80355000495911,-1.7659125328064,-2.744225025177,-3.63728737831116,-2.87691259384155,-1.65935003757477,0.0,0.0,0.0,-0.63456249237061,0.0,0.0,0.0,-0.32023748755455,-0.61311250925064,-0.46846249699593,0.49156248569489,1.77402496337891,2.8773250579834,-2.93094992637634,-4.07893753051758,0.0,0.0,0.0,-2.63100004196167,1.5940500497818,-0.58095002174377,-0.88305002450943,-0.45900002121925,4.58700037002563,23.1859512329102,30.574951171875,36.3880500793457,24.8910007476807,5.13795042037964,-5.17800045013428,3.1360502243042,2.31000018119812,2.74605011940002,1.71105003356934,3.82995009422302,3.40095019340515,2.206050157547,-0.8479500412941,-1.25505006313324,2.27595019340515,2.46000003814697,-5.3710503578186,-25.1550006866455,-29.9860515594482,-29.4640522003174,3.78705024719238,4.53600025177002,3.00405025482178,11.2000503540039,6.25800037384033,7.65105056762695,9.65805053710938,11.0730009078979,14.4250507354736,12.0379505157471,7.07895040512085,4.47900009155273,2.23995018005371,9.86595058441162,7.17495012283325,8.68305015563965,9.11400032043457,5.25705003738403,SWING_RIGHT
-0.45608749985695,-0.46364998817444,-0.40755000710487,-0.32518750429153,-0.21972499787807,-0.21752500534058,-0.29521250724792,-0.29906249046326,0.26592499017715,0.67471247911453,4.08567476272583,7.06255006790161,7.07946252822876,6.04353761672974,5.08901262283325,0.85304999351501,0.69506251811981,0.55742502212524,0.45594999194145,0.34650000929832,0.30428749322891,0.00013749999925,-0.59757500886917,-1.59829998016357,-2.33158755302429,-3.84697508811951,-5.46204996109009,-4.79104995727539,-3.18051242828369,-1.75766253471375,0.59207499027252,0.80849999189377,1.0731874704361,1.0760749578476,1.01901245117188,0.89966249465942,0.99879997968674,1.79451251029968,4.0199499130249,5.95003747940063,11.4708003997803,15.9248371124268,15.9275875091553,13.6342248916626,11.2363624572754,0.77100002765656,0.6769500374794,2.15895009040833,0.96000003814697,-1.31895005702972,-0.88305002450943,9.48795032501221,32.8999519348145,39.2280006408691,22.4320507049561,12.8860502243042,-13.3380002975464,-21.3079509735107,-10.4620504379272,-6.93105030059814,1.44300007820129,2.48895001411438,1.35195004940033,1.72005009651184,1.93095004558563,0.84195005893707,1.36095011234283,0.51794999837875,-9.8860502243042,-24.9580516815186,-39.1009521484375,-29.2920017242432,-17.2650012969971,-12.4290008544922,-6.18705034255981,9.73695087432861,9.92400074005127,10.7880001068115,8.4820499420166,7.77795028686523,10.6969509124756,13.0960502624512,19.6230010986328,11.8680009841919,12.3700504302979,8.2140007019043,4.60305023193359,12.2149505615234,7.95105028152466,7.33995056152344,SWING_RIGHT
0.26358750462532,0.26647499203682,0.00013749999925,0.00013749999925,0.00013749999925,0.0,-0.22769999504089,-0.29053750634193,0.25850000977516,1.54233753681183,9.36017513275146,9.88611221313477,8.76424980163574,6.70188760757446,-1.64890003204346,0.74538749456406,0.56663751602173,0.1922249943018,0.0,-0.00013749999925,-0.19676250219345,-0.39930000901222,-0.99206250905991,-1.70376253128052,-2.26833748817444,-3.03916239738464,-2.47953748703003,-0.96813750267029,0.57254999876022,2.27837491035461,2.88131237030029,2.52793741226196,1.70417499542236,1.00402498245239,0.48358750343323,-0.00013749999925,-0.28049999475479,0.48138749599457,2.37214994430542,5.07553768157959,14.201000213623,16.5319004058838,15.0332870483398,11.9909620285034,2.39346241950989,2.31495022773743,1.38795006275177,0.06000000238419,-0.31305000185966,0.60105001926422,0.56505000591278,10.6830005645752,31.207052230835,40.6669502258301,32.7919502258301,14.4180002212524,-20.7940502166748,-20.5330505371094,-7.09395027160645,-3.56895017623901,2.94900012016296,2.48595023155212,2.44800019264221,2.40495014190674,1.57905006408691,1.60500001907349,1.3660501241684,0.73395001888275,0.07995000481606,-20.3680515289307,-35.6869506835938,-25.291051864624,-14.94105052948,-8.7679500579834,-2.57400012016296,9.65100002288818,8.77905082702637,8.49195003509521,8.16600036621094,8.37900066375732,8.62604999542236,14.7409505844116,19.3309516906738,12.6529502868652,3.00195002555847,10.3570508956909,12.7609510421753,12.0190505981445,7.63905048370361,6.37500047683716,SWING_RIGHT
0.0,0.0,-0.00013749999925,-0.27871251106262,-0.46474999189377,-0.5543999671936,0.0,1.02561247348785,8.10369968414307,9.42466259002686,9.00446224212646,8.17808723449707,6.5459623336792,-0.9757000207901,-2.50511240959167,0.59386247396469,0.70908749103546,0.80808746814728,0.64693748950958,0.27211248874664,-0.55728751420975,-1.61562502384186,-2.46482491493225,-3.76804995536804,-4.39243745803833,-3.76488757133484,-2.25279998779297,-0.61654996871948,1.52762496471405,2.93603754043579,2.0150625705719,1.97023749351501,2.00048756599426,1.75271248817444,1.64257502555847,2.14802503585815,4.02379989624023,6.35414981842041,14.9173746109009,17.3864631652832,17.3791751861572,15.7793626785278,12.8108749389648,3.43048739433289,0.22728750109673,-2.32695007324219,-1.40205001831055,0.26505002379417,2.05200004577637,10.6710004806519,30.0220508575439,41.3110504150391,33.2920532226563,19.7550010681152,-0.91605001688004,-18.3559513092041,-25.6920013427734,-8.41499996185303,-3.01800012588501,0.54300004243851,2.37195014953613,2.44305014610291,1.1620500087738,0.18600000441074,-0.60600000619888,-0.15795001387596,-2.09505009651184,-21.0649509429932,-40.7050514221191,-43.828052520752,-27.3499507904053,-15.4189510345459,-10.5259504318237,-3.62295007705688,1.63905012607574,8.48700046539307,6.95895051956177,9.24105072021484,12.3030004501343,14.121000289917,11.0629501342773,12.4690504074097,8.10599994659424,5.4529504776001,3.27195024490356,10.1490001678467,16.2180004119873,6.97395038604736,3.79905009269714,3.53805017471313,SWING_RIGHT
-0.46777498722076,-0.48592498898506,-0.4839999973774,-0.31858751177788,0.16926249861717,0.348149985075,-4.52540016174316,-5.33857488632202,-5.86547517776489,-7.12346267700195,-8.15925025939941,-3.89647507667542,-3.42801237106323,-3.10763740539551,-2.10196256637573,0.54546248912811,0.54738748073578,0.24255000054836,-1.29442501068115,-2.52243757247925,-3.52110004425049,-2.99502491950989,-2.50222492218018,-1.07153749465942,1.10508751869202,3.0581374168396,3.49112486839294,3.96371245384216,3.59039998054504,2.3617000579834,0.57612502574921,1.00168752670288,1.10632503032684,2.20714998245239,3.48919987678528,4.46929979324341,1.03069996833801,1.2644499540329,0.94050002098083,-0.87188750505447,-2.87952494621277,-0.22412499785423,-1.23241245746613,-1.95634996891022,-1.46987497806549,-0.64605003595352,3.67500019073486,8.08800029754639,37.2960014343262,41.506950378418,31.2480010986328,12.9580507278442,-5.28600025177002,-31.5510005950928,-11.872950553894,-4.84095001220703,-0.65505003929138,1.31400001049042,0.46395000815392,-0.22695000469685,1.1620500087738,1.54995012283325,1.18395006656647,1.85895013809204,-11.6389503479004,-30.5350513458252,-40.7509536743164,-42.577953338623,-26.4000015258789,-17.6940002441406,-7.6690502166748,0.35805001854897,3.13800024986267,4.09305000305176,2.09595012664795,8.89395046234131,8.45100021362305,9.65505027770996,16.756950378418,6.17595052719116,1.37595009803772,9.66300010681152,10.0240507125854,24.8689517974854,6.34200048446655,3.43500018119812,2.21399998664856,2.09895014762878,6.1210503578186,9.98100090026855,SWING_RIGHT
0.22206249833107,0.38582500815392,0.52373749017715,0.63387501239777,0.64130002260208,0.55605000257492,0.29933750629425,0.16128750145435,1.60696244239807,7.31252479553223,9.98456287384033,9.80746269226074,8.69398784637451,5.84718751907349,-1.09821248054504,-0.29521250724792,-0.32298749685287,-0.24337500333786,-0.17778749763966,-0.00013749999925,0.0,-0.00013749999925,-0.84878748655319,-1.32137501239777,-0.00013749999925,-0.00013749999925,0.0,1.26527500152588,2.70448756217957,2.75756239891052,-0.20074999332428,-0.00013749999925,0.73658752441406,1.30748748779297,1.37403750419617,0.96098750829697,0.53446251153946,0.9509499669075,4.01211261749268,11.1435499191284,15.018162727356,16.3329372406006,16.0439128875732,12.563512802124,4.85457515716553,1.77105009555817,0.69405001401901,0.62700003385544,-0.25500002503395,-1.06005001068115,-1.24905002117157,7.64205026626587,39.1920013427734,45.2230529785156,28.1400012969971,10.6540508270264,-10.1680507659912,-10.0339508056641,-11.8510503768921,-9.86595058441162,4.14795017242432,4.03605031967163,3.5110502243042,2.95095014572144,2.86500024795532,3.09000015258789,1.9980001449585,5.41500043869019,-1.88700008392334,-24.8509502410889,-39.3930015563965,-31.045051574707,-25.5469512939453,-18.373950958252,-11.7229509353638,8.29800033569336,8.23995018005371,7.86000061035156,8.71905040740967,9.06405067443848,9.84000015258789,13.88805103302,14.7030010223389,-4.94895029067993,-0.03105000220239,12.5430002212524,5.52495002746582,7.16805028915405,9.57405090332031,7.58895015716553,SWING_RIGHT
0.0,0.20707499980927,0.34044998884201,0.37633749842644,0.34457498788834,0.62452501058578,1.30803751945496,2.0732250213623,3.61886239051819,7.5460000038147,8.23267459869385,7.17035007476807,5.78214979171753,3.40532493591309,-1.25936245918274,-0.00013749999925,0.0,0.0,0.0,-0.16307500004768,-1.26582503318787,-1.92087495326996,-2.53013753890991,-2.86013746261597,-3.58929991722107,-3.83363747596741,-3.23042488098145,-1.96033751964569,-0.55316251516342,1.32879996299744,-0.16224999725819,0.30483749508858,0.63621246814728,0.87367498874664,1.13698744773865,2.39566254615784,3.76048755645752,5.26432514190674,7.38017511367798,10.6268253326416,11.2117500305176,10.393349647522,9.02976226806641,6.45507478713989,2.24248743057251,-0.79695004224777,-1.05000007152557,1.13205003738403,2.08500003814697,10.2210006713867,29.3460006713867,39.3040504455566,36.0190505981445,22.0849514007568,9.2029504776001,-0.65505003929138,-9.9330005645752,-16.1869506835938,-5.58300018310547,-0.14295001327991,2.82900023460388,2.91300010681152,1.09995007514954,1.36395001411438,1.93800008296967,6.50205039978027,-0.49305000901222,-18.4530010223389,-35.4979515075684,-37.3650016784668,-31.6909523010254,-28.7770519256592,-17.5620002746582,-10.6720504760742,-5.671950340271,7.78800058364868,6.41595029830933,7.30395030975342,9.77295017242432,12.892050743103,10.8880500793457,6.94005012512207,5.99505043029785,4.39005041122437,3.47595024108887,-0.12000000476837,10.1770505905151,13.0459508895874,7.12695026397705,5.38905048370361,SWING_RIGHT
0.28242498636246,0.00013749999925,-0.00013749999925,-0.1575749963522,-0.28393748402596,-0.29067498445511,-0.27788749337196,-0.35571250319481,0.00013749999925,0.79708749055862,1.14702498912811,8.26210021972656,7.97637510299683,6.99902486801147,5.2791748046875,0.43958750367165,0.34416249394417,0.30799999833107,0.2939749956131,0.36767500638962,0.48578751087189,0.518374979496,-0.14657500386238,-1.4774374961853,-2.43691253662109,-3.26576256752014,-5.12888765335083,-4.6081748008728,-2.85271239280701,-1.02533745765686,0.27774998545647,0.0,-0.00013749999925,0.0,0.28929999470711,0.44068750739098,0.598537504673,1.07098746299744,2.69541239738464,4.21753740310669,5.74062490463257,12.6502752304077,13.1036128997803,11.820050239563,9.94537448883057,0.2080500125885,-0.58395004272461,-0.48105001449585,-0.57600003480911,-1.08900010585785,-1.65900003910065,4.92000007629395,34.3720512390137,43.8390007019043,39.2470512390137,20.7409515380859,2.56905007362366,-16.3669509887695,-16.7520008087158,-8.82194995880127,3.0130500793457,2.44095015525818,1.66995012760162,1.65300011634827,2.14394998550415,2.77905011177063,1.50000011920929,-0.76605004072189,1.60500001907349,-13.7389507293701,-36.3720016479492,-42.8239517211914,-29.2660522460938,-17.0430011749268,-13.348051071167,9.88005065917969,10.6750507354736,10.7400007247925,10.3210506439209,7.6560001373291,7.25400018692017,9.72195053100586,9.78705024719238,8.03700065612793,6.48495054244995,0.4609500169754,0.52799999713898,7.25895023345947,8.98305034637451,7.28295040130615,SWING_RIGHT
1.38874995708466,1.16063749790192,1.05173754692078,0.89003747701645,0.78154999017715,0.60953748226166,0.52469998598099,0.8122124671936,1.72466254234314,3.31416249275208,10.6156873703003,12.4471874237061,11.6411628723145,9.39015007019043,6.48931264877319,-0.66756248474121,-0.4796000123024,-0.21243749558926,-0.00013749999925,0.0,0.00013749999925,0.0,-0.64074999094009,-1.12887501716614,-1.3142249584198,-0.7841625213623,-0.63153749704361,0.4144249856472,1.89543747901917,3.32392501831055,4.0020751953125,2.9574875831604,1.96570003032684,1.1452374458313,0.84493750333786,0.72847497463226,0.89292502403259,1.84676253795624,3.57238745689392,5.86272478103638,12.1446876525879,14.4641752243042,14.4121999740601,12.49049949646,9.44831275939941,3.20595026016235,2.57400012016296,1.20405006408691,0.76800000667572,0.36405003070831,-0.16905000805855,15.0330009460449,33.6150016784668,38.0500526428223,20.8080005645752,7.0770001411438,-15.6289510726929,-17.284049987793,-8.51294994354248,-4.53600025177002,4.12395000457764,4.40205001831055,4.46400022506714,3.8779501914978,3.10695004463196,1.99995005130768,4.20105028152466,7.5930004119873,-3.132000207901,-19.2480010986328,-31.6140022277832,-27.5659503936768,-21.4120502471924,-15.8260507583618,-8.00400066375732,7.83795022964478,7.51995038986206,7.82595014572144,9.34395027160645,10.8840007781982,13.0500001907349,7.89795017242432,5.56605005264282,1.06695008277893,-3.59595012664795,1.60095012187958,12.4159507751465,12.4729509353638,8.08200073242188,7.66605043411255,SWING_RIGHT
0.0,0.0,-0.00013749999925,-0.00013749999925,-0.00013749999925,-0.00013749999925,-0.1876875013113,-0.28847500681877,0.16018749773502,1.08803749084473,2.78244996070862,9.18431282043457,9.71313762664795,8.87012481689453,7.08922481536865,0.1900250017643,0.26386249065399,0.24763749539852,0.26276248693466,0.26592499017715,0.20968750119209,0.17476250231266,-0.35158750414848,-1.39328753948212,-2.30738759040833,-3.02046251296997,-4.52512502670288,-4.44977474212646,-3.14366245269775,-1.43206250667572,-0.24021250009537,-0.30703750252724,-0.30937498807907,-0.21408750116825,0.0,0.19731250405312,0.30744999647141,0.78017497062683,2.32237505912781,4.31708765029907,7.04618740081787,13.773099899292,14.799674987793,13.8278245925903,11.6531248092651,-1.36905002593994,-0.66705000400543,-0.05895000323653,0.88995003700256,0.59595000743866,-0.00600000005215,4.80000019073486,26.7370510101318,44.2720527648926,34.5400505065918,25.7410507202148,7.98000049591064,-7.41405057907104,-17.2020015716553,-9.99495029449463,2.06505012512207,1.90200006961823,1.66005003452301,2.00805020332336,2.50995016098022,2.00805020332336,0.93300002813339,1.22205007076263,3.59295010566711,-10.1809501647949,-32.332950592041,-35.6820030212402,-33.8170509338379,-22.969051361084,-17.4690017700195,9.10004997253418,10.2109508514404,10.113000869751,9.70305061340332,7.54095029830933,8.7049503326416,13.6560010910034,14.1109504699707,8.97300052642822,3.80100011825562,5.51295042037964,4.52895021438599,9.71805000305176,13.6920003890991,11.1349506378174,SWING_RIGHT
2.3957998752594,1.84909999370575,1.33457493782043,0.94146251678467,0.65230000019073,0.53899997472763,0.49362498521805,0.46983748674393,0.7732999920845,0.99728751182556,5.66720008850098,9.17001247406006,6.27563762664795,0.48441249132156,-4.23073768615723,-1.74638748168945,-0.96868747472763,-0.36465001106262,-0.00013749999925,-0.20707499980927,-0.20239999890327,-0.1703625023365,-0.44137498736382,-1.28919994831085,-1.9658374786377,-1.99567496776581,-1.38160002231598,2.05975008010864,3.08866238594055,3.86347508430481,6.40694999694824,6.07846260070801,4.78417491912842,3.06515002250671,1.70266246795654,0.99481248855591,0.65587496757507,0.65656250715256,1.83933746814728,3.1322500705719,8.80563735961914,14.6007127761841,11.1897497177124,4.66936254501343,-2.09852504730225,2.24295020103455,0.71100002527237,1.20600008964539,1.1010000705719,2.08004999160767,0.55800002813339,0.74895006418228,23.2219505310059,46.0750503540039,25.2859516143799,8.12100028991699,-18.2959499359131,-5.55195045471191,-4.20405006408691,-0.49005001783371,2.73300004005432,3.19005012512207,3.00600004196167,3.37200021743774,3.60495018959045,4.41900014877319,3.13305020332336,3.50895023345947,1.33005011081696,-16.7820014953613,-19.4080505371094,-23.8930511474609,-12.3000001907349,-4.94205045700073,1.18605005741119,9.88500022888184,10.6900501251221,10.9600505828857,10.2970504760742,9.78900051116943,9.15000057220459,9.2959508895874,9.56895065307617,15.2560510635376,-0.44505003094673,-1.21800005435944,14.7480010986328,9.06195068359375,6.07095050811768,5.83605051040649,SWING_RIGHT
-0.00013749999925,-0.00013749999925,-0.00013749999925,-0.00013749999925,0.0,0.0,0.00013749999925,0.91355001926422,2.48269987106323,7.70935010910034,9.77845001220703,9.2278995513916,7.78277492523193,5.27628755569458,-0.79914999008179,0.00013749999925,0.00013749999925,0.0,0.0,0.0,-0.14630000293255,-1.53711247444153,-2.60521245002747,-3.40779995918274,-4.55207490921021,-5.12613725662231,-4.41251230239868,-2.77708745002747,-0.85318750143051,1.51703751087189,0.0,0.14327499270439,0.41057500243187,0.53597497940063,0.48427498340607,0.47602498531342,1.82682502269745,3.73023748397827,6.5147500038147,11.5401000976563,13.571662902832,13.2185621261597,11.5450496673584,8.59828758239746,3.16401243209839,-0.24795001745224,0.20100000500679,1.2280501127243,0.21300001442432,0.88305002450943,5.14500045776367,36.6829528808594,49.597053527832,37.5780029296875,17.623950958252,8.98095035552979,-16.7209510803223,-17.2120513916016,-3.93795013427734,-1.82895004749298,2.70705008506775,3.44400024414063,3.01800012588501,2.65395021438599,2.72100019454956,1.34895002841949,4.71600008010864,-6.96300029754639,-33.6589508056641,-43.6240539550781,-47.509952545166,-31.2739505767822,-21.6109504699707,-15.8430004119873,-8.53605079650879,9.13800048828125,8.78400039672852,7.31100034713745,6.79395055770874,8.45805072784424,11.9470500946045,6.76305055618286,2.63100004196167,1.71405005455017,9.24105072021484,4.00500011444092,6.71295022964478,13.3740005493164,9.925950050354,6.49995040893555,SWING_RIGHT
0.85030001401901,0.77742499113083,0.66522496938705,0.58904999494553,0.56608748435974,0.53570002317429,0.53707498311996,0.69107496738434,1.14358747005463,1.92843747138977,9.37199974060059,10.9751129150391,10.1074876785278,8.28836250305176,6.03707504272461,-0.26427498459816,-0.22261250019073,-0.24103750288486,-0.24571250379086,0.0,-0.00013749999925,-0.3422375023365,-0.83421248197556,-1.43110001087189,-1.94315004348755,-1.27036249637604,-1.13258755207062,-0.00013749999925,1.39287495613098,3.10172510147095,2.76512503623962,1.55278754234314,1.13891243934631,1.0260249376297,1.19693744182587,1.16737496852875,1.32962501049042,1.9016250371933,3.22987508773804,5.29416227340698,12.5702495574951,15.0708246231079,15.0035877227783,13.3740749359131,10.3083753585815,0.81900006532669,-0.12600000202656,0.29399999976158,-0.5500500202179,0.87600004673004,5.57805013656616,16.1200504302979,22.4839515686035,43.6710014343262,29.4250507354736,12.0480003356934,-11.4679508209229,-20.8800010681152,-9.07395076751709,-5.18805027008057,4.28505039215088,4.39200019836426,4.1050500869751,4.21005010604858,4.72005033493042,5.13195037841797,5.28795003890991,6.74595022201538,1.3900500535965,-23.2819519042969,-37.4880027770996,-35.0599517822266,-21.3000011444092,-15.31605052948,-8.44995021820068,8.62095069885254,8.80500030517578,9.04200077056885,8.47305011749268,9.1360502243042,11.2360506057739,10.7260503768921,9.31305027008057,6.45195007324219,-2.37000012397766,5.25705003738403,11.5920009613037,9.72195053100586,7.33800029754639,6.72195053100586,SWING_RIGHT
0.18576249480247,0.2411749958992,0.42322498559952,0.42734998464584,0.54367500543594,1.16916251182556,2.8503749370575,5.66926240921021,8.14453792572021,8.28808784484863,7.20994997024536,4.42392492294312,0.58918750286102,-2.63477492332459,-3.3382248878479,-0.2072124928236,-0.37207499146461,-0.38032498955727,-0.7430499792099,-1.41913747787476,-1.95057499408722,-2.23877501487732,-2.3310375213623,-2.63394999504089,-2.36059999465942,-1.30226254463196,-0.00013749999925,1.09656250476837,2.53481245040894,3.35431241989136,0.33109998703003,0.40631249547005,0.41813749074936,0.83050000667572,1.82737493515015,3.55891251564026,6.53289985656738,9.97865009307861,12.5717620849609,12.993200302124,11.9014501571655,8.79587459564209,4.86089992523193,1.53807497024536,-0.00013749999925,0.54105001688004,0.19800001382828,4.31700038909912,17.9590511322021,28.0150508880615,42.4000511169434,41.7370529174805,29.7060012817383,16.7670001983643,-13.5100507736206,-24.1939506530762,-6.86895036697388,-2.48700022697449,-1.53600001335144,0.30405002832413,3.7390501499176,4.09800004959106,4.06905031204224,3.93495011329651,3.8580002784729,1.16505002975464,-18.9820518493652,-36.4770011901855,-49.2049522399902,-38.8830032348633,-25.0489521026611,-18.2590503692627,-9.00300025939941,-4.44405031204224,-0.87405002117157,8.25195026397705,7.29705047607422,11.2690505981445,13.3470010757446,12.2910003662109,9.60705089569092,6.18795013427734,6.15495014190674,1.75200009346008,4.58400011062622,15.2580003738403,9.07800006866455,6.39195013046265,4.00500011444092,7.27500057220459,SWING_RIGHT
0.36712500452995,0.28682500123978,0.21670000255108,0.1733874976635,0.00013749999925,0.0,-0.00013749999925,-0.25506249070168,-0.22605000436306,0.17283749580383,3.33299994468689,2.66351246833801,0.9872499704361,-0.34209999442101,-4.0243501663208,0.37042498588562,0.23801249265671,0.0,0.0,-0.00013749999925,-0.00013749999925,0.0,-0.34003749489784,-1.29855000972748,-1.99471247196198,-2.35386252403259,-2.51405000686646,0.45168748497963,1.92706251144409,2.74752497673035,0.88522499799728,0.80176252126694,0.61723750829697,0.50338751077652,0.36671251058578,0.0,-0.17366249859333,0.14630000293255,1.63363754749298,3.45963740348816,8.82392501831055,9.77006244659424,8.20668792724609,5.51278734207153,-0.37317499518394,-0.05400000140071,-0.80895006656647,0.37095001339912,-0.48105001449585,-0.4570500254631,-2.34300017356873,2.0179500579834,23.5759506225586,48.472053527832,34.6669502258301,11.9020509719849,-9.35400009155273,-6.31800031661987,1.20405006408691,-0.07605000585318,3.31995010375977,3.70005011558533,3.48000025749207,3.77505016326904,3.08295011520386,3.19305014610291,2.28105020523071,3.882000207901,0.33600002527237,-15.9220504760742,-38.3539505004883,-35.8909530639648,-17.6149501800537,-6.81195020675659,0.32895001769066,9.21495056152344,9.3390007019043,9.27705001831055,8.46300029754639,9.27195072174072,8.68994998931885,10.2160501480103,22.2060012817383,22.0030517578125,6.58095026016235,3.66195011138916,7.90005016326904,7.55100059509277,5.2020001411438,5.81295013427734,SWING_RIGHT
0.34938749670982,0.37564998865128,0.44082498550415,0.47258749604225,0.46103748679161,0.40727499127388,0.32986250519753,0.26523751020432,0.68145000934601,1.22979998588562,8.71887493133545,9.03209972381592,8.0768871307373,6.73571252822876,4.0002875328064,-0.16458749771118,-0.00013749999925,-0.00013749999925,-0.19593749940395,-0.23787499964237,-0.31267499923706,-0.44824999570847,-1.00031244754791,-1.56571245193481,-1.95538747310638,-3.05029988288879,-2.73693752288818,-1.78832495212555,-0.64996248483658,0.52016252279282,0.86281251907349,1.24698746204376,1.22911250591278,1.23516249656677,1.24409997463226,0.88068747520447,0.76848751306534,1.69757497310638,3.41247487068176,4.88248729705811,13.9222869873047,14.3610496520996,13.0563125610352,11.3713874816895,7.88754987716675,1.3620001077652,0.33705002069473,0.77100002765656,1.31700003147125,3.55005025863647,1.67295002937317,8.61000061035156,30.0499515533447,39.3430519104004,31.1250019073486,8.96895027160645,-6.03105020523071,-10.4910001754761,-11.0659503936768,-7.54605054855347,2.90100002288818,3.64500021934509,3.4939501285553,2.82600021362305,1.53795003890991,2.29305005073547,3.70500016212463,2.64705014228821,1.24905002117157,-14.4379510879517,-35.5699501037598,-27.5370006561279,-22.935001373291,-17.8470001220703,-12.8620510101318,8.16405010223389,7.95795059204102,7.78095054626465,8.35004997253418,8.70000076293945,9.76095008850098,13.5870008468628,17.8530006408691,17.4130516052246,8.57295036315918,5.79600048065186,12.6870002746582,13.9770002365112,12.9910507202148,11.8390502929688,SWING_RIGHT
2.44612503051758,1.93806254863739,1.42642498016357,0.84631252288818,0.59413748979568,0.41745001077652,0.43931248784065,0.49293750524521,0.94283747673035,1.65330004692078,5.47263765335083,9.18252468109131,8.80123710632324,7.54421234130859,5.82601261138916,0.48922500014305,1.03193747997284,1.20271253585815,0.94847500324249,0.76546251773834,0.54573750495911,0.43285000324249,0.00013749999925,-0.66123747825623,-1.45474994182587,-1.50947499275208,-1.78901243209839,-1.42903745174408,-0.23430000245571,1.16393744945526,6.88269996643066,7.11383724212646,5.70281267166138,3.47393751144409,2.18996238708496,1.12915003299713,0.76972502470016,1.19418752193451,2.80128741264343,5.00637483596802,10.3230876922607,15.5035371780396,16.1070251464844,14.642237663269,11.9156122207642,0.83100003004074,-0.65100002288818,0.22995001077652,0.64095002412796,-0.591000020504,1.41000008583069,1.83900010585785,19.159049987793,45.6760520935059,32.4349517822266,16.4099998474121,-7.13205051422119,-11.6929502487183,-12.6120004653931,-7.00995016098022,2.1780002117157,2.65200018882751,2.53005003929138,2.3929500579834,2.94105005264282,3.64800024032593,3.97095012664795,5.72805023193359,4.26300001144409,-11.9910001754761,-26.449951171875,-27.295051574707,-25.8820514678955,-21.5989513397217,-14.1529502868652,9.33705043792725,9.18105030059814,9.81105041503906,10.0860004425049,11.3839502334595,11.2759504318237,8.89200019836426,8.20005035400391,12.7390508651733,5.39400005340576,2.58000016212463,8.86005020141602,9.96705055236816,13.0860004425049,9.01800060272217,SWING_RIGHT
0.00013749999925,0.00013749999925,0.00013749999925,0.17737500369549,0.19497500360012,0.0,0.44371250271797,1.73621249198914,6.18488740921021,10.5443248748779,9.6441125869751,7.59398746490479,2.23849987983704,-2.69293737411499,-3.39184999465942,0.16293749213219,0.00013749999925,-0.00013749999925,-0.17668749392033,-0.17820000648499,-1.16256248950958,-2.22585010528564,-3.12977504730225,-4.29536247253418,-5.32166242599487,-3.91269993782043,-2.13908743858337,0.14616249501705,2.91280007362366,4.21148729324341,-0.23209999501705,-0.31913748383522,-0.35062500834465,-0.34182500839233,-0.3783999979496,0.26262500882149,1.96308743953705,4.62206268310547,10.0606002807617,15.0273752212524,14.0269250869751,11.5605878829956,5.94770002365112,1.28081250190735,-0.19483749568462,-0.11895000934601,0.24195000529289,0.93795001506805,-1.01205003261566,-1.6750500202179,35.7540016174316,35.6719512939453,45.1609535217285,27.8599510192871,-2.31195020675659,-19.7400016784668,-10.0740003585815,-5.33595037460327,-6.67500019073486,-5.77200031280518,2.19195008277893,2.92695021629334,2.4340500831604,2.53200006484985,1.07595002651215,3.05205011367798,1.65300011634827,-14.497950553894,-44.146053314209,-42.9990005493164,-25.1689510345459,-18.0439510345459,-12.4030504226685,-7.09395027160645,-3.1800000667572,8.00100040435791,8.21205043792725,7.82100057601929,8.77395057678223,8.86005020141602,10.7449502944946,5.66205024719238,4.53900003433228,3.1840500831604,8.59905052185059,12.7819509506226,9.68595027923584,8.75505065917969,5.91105031967163,4.72605037689209,SWING_RIGHT
0.70950001478195,0.69891250133514,0.64899998903275,0.57983750104904,0.53831249475479,0.58107501268387,0.53899997472763,0.27843749523163,0.0,0.66412502527237,6.56012487411499,9.72317504882813,10.0628004074097,8.4262752532959,1.72782504558563,0.14300000667572,0.28173750638962,0.32903748750687,0.27046251296997,0.33948749303818,0.5127375125885,0.51741248369217,0.0,-1.558149933815,-2.70751237869263,-3.46829986572266,-4.74086236953735,-4.60198736190796,-0.47863748669624,1.22347497940063,1.62497496604919,1.76371252536774,1.80015003681183,1.52391254901886,0.98876249790192,0.31831249594688,-0.34485000371933,-0.91465002298355,-0.24708749353886,2.16122508049011,10.9135122299194,16.0732002258301,18.1658115386963,16.0624752044678,7.13391256332397,-0.54300004243851,-2.43705010414124,-0.27495002746582,-1.45005011558533,-3.60000014305115,-5.22105026245117,-2.14500021934509,19.0609512329102,41.8900527954102,35.4540023803711,24.8020515441895,9.06704998016357,-18.3540000915527,-9.50895023345947,-0.81300002336502,2.35005021095276,2.757000207901,2.40000009536743,2.9719500541687,3.43695020675659,3.39900016784668,0.60705000162125,-5.64405012130737,1.19400000572205,-4.27395009994507,-25.6810512542725,-42.9370536804199,-35.6080513000488,-14.3370008468628,-7.07505035400391,8.46795082092285,9.18795013427734,9.46905040740967,10.8450002670288,10.2640504837036,7.15305042266846,6.84705018997192,10.792950630188,13.5010509490967,0.90705001354218,-7.9200005531311,1.33800005912781,17.5110015869141,9.11400032043457,9.046950340271,SWING_RIGHT
0.0,0.0,-0.00013749999925,-0.00013749999925,-0.00013749999925,-0.00013749999925,0.0,0.0,1.39851248264313,7.82856225967407,8.66401290893555,8.49942493438721,8.11524963378906,5.96364974975586,-1.25069999694824,0.23911249637604,0.1522125005722,0.00013749999925,0.00013749999925,0.0,-0.14203749597073,-0.00013749999925,-0.62534999847412,-1.37981247901917,0.43738749623299,0.22495000064373,0.0,0.93486249446869,2.27974987030029,0.98229998350143,1.10027503967285,0.69093751907349,0.39022499322891,0.27706250548363,0.17476250231266,0.00013749999925,0.36767500638962,0.85030001401901,4.00950002670288,13.6443996429443,15.5825996398926,16.8408622741699,17.1287879943848,13.8089876174927,3.70163750648499,1.54395008087158,0.5500500202179,0.96900004148483,0.97200006246567,0.3160500228405,0.16305001080036,3.66795015335083,33.1960525512695,56.8330535888672,28.1350517272949,21.4789505004883,-3.80400013923645,-23.8990516662598,-1.89105010032654,-3.66705012321472,2.19705009460449,2.74695014953613,3.32895016670227,3.50400018692017,3.06600022315979,2.27595019340515,3.23295021057129,7.91895055770874,-4.5799503326416,-11.5020008087158,-34.7460021972656,-42.4270515441895,-24.0510005950928,-18.2329502105713,-8.83995056152344,10.4599504470825,9.37995052337646,9.43005084991455,8.57100009918213,8.18505001068115,7.60095024108887,11.1330003738403,19.6230010986328,8.36205005645752,11.331000328064,6.92100048065186,9.09495067596436,21.4570503234863,9.90900039672852,8.31195068359375,SWING_RIGHT
2.34739995002747,1.56667494773865,1.05366253852844,0.66412502527237,0.95342499017715,2.09165000915527,6.28058767318726,10.7850875854492,11.4222621917725,10.0533123016357,7.74317502975464,2.78891253471375,-2.16397500038147,-3.23152494430542,-2.28057503700256,-0.66769999265671,0.0,0.16678750514984,-0.18287499248981,-0.73094999790192,-0.88770002126694,0.56374996900558,1.68423748016357,2.39992499351501,3.72212505340576,4.63347482681274,3.93799996376038,3.51862502098084,3.10488748550415,2.32815003395081,5.87812519073486,6.59518766403198,5.64822483062744,2.67822504043579,2.07831239700317,3.98392486572266,9.19778728485107,14.9903869628906,17.4587879180908,16.6236133575439,13.11598777771,6.86455011367798,0.66329997777939,-2.2563750743866,-2.42549991607666,2.84400010108948,5.65995025634766,1.69695007801056,0.36795002222061,41.7229537963867,37.3720512390137,18.5839500427246,2.93700003623962,-51.237003326416,-5.23095035552979,3.46395015716553,1.45500004291534,0.66105002164841,-1.3090500831604,-2.21895003318787,4.300950050354,4.11899995803833,4.92105007171631,4.33995008468628,11.017050743103,-0.8929500579834,-22.5739517211914,-48.634952545166,-28.5930004119873,-18.646951675415,-0.63900005817413,5.28495025634766,1.80195009708405,2.68500018119812,3.21705007553101,9.63600063323975,9.09000015258789,9.5910005569458,9.68400001525879,13.3500003814697,2.58000016212463,-1.67100012302399,9.6670503616333,28.0699520111084,6.6820502281189,4.55100011825562,5.60700035095215,9.82800006866455,9.60495090484619,10.0840501785278,SWING_RIGHT
-0.15193749964237,-0.33715000748634,-0.50723749399185,-0.59001249074936,-0.49994999170303,-0.27871251106262,0.14726249873638,1.0674124956131,2.87718749046326,5.67668724060059,7.98792505264282,7.75637483596802,6.43389987945557,3.84999990463257,0.19236250221729,0.34141248464584,0.38774999976158,0.26757499575615,0.174212500453,0.18218749761581,0.0,-0.70606249570847,-1.0920250415802,-1.25014996528625,-1.25234997272491,-1.46492505073547,-1.20724999904633,-0.49087500572205,0.35557499527931,0.99687498807907,0.39022499322891,0.26977500319481,0.0,-0.00013749999925,0.0,0.63428747653961,1.91702497005463,4.1637749671936,7.66699981689453,11.7024869918823,14.6955871582031,14.590950012207,12.9644622802734,9.41380023956299,4.84426259994507,-0.99105006456375,-0.46395000815392,0.42600002884865,-0.46605002880096,-0.30300000309944,11.6910009384155,26.5570507049561,36.1249504089355,46.851001739502,27.7399520874023,16.9609508514404,0.93300002813339,-14.9950504302979,-10.6369504928589,-4.69395017623901,1.00394999980927,0.63300001621246,0.25500002503395,1.84995007514954,5.06700038909912,7.0090503692627,8.97705078125,8.20394992828369,-13.9230003356934,-29.8549518585205,-39.7720527648926,-40.9930534362793,-30.1159515380859,-20.6460018157959,-12.2059507369995,10.1749505996704,10.6270503997803,10.8960008621216,9.61695003509521,9.33000087738037,10.8760509490967,11.9350509643555,10.8070507049561,8.3100004196167,15.6769504547119,10.0189504623413,10.9789505004883,15.0430507659912,11.3839502334595,8.98500061035156,SWING_RIGHT
-0.00013749999925,-0.00013749999925,0.0,0.0,0.00013749999925,0.58726251125336,1.67557501792908,7.33053731918335,8.73248767852783,8.28313732147217,7.15604972839355,5.2893500328064,-1.06672501564026,-2.85972499847412,-2.63051247596741,-0.24571250379086,-0.2413125038147,-0.22508749365807,-0.3255999982357,-0.82087498903275,-1.64752495288849,-2.24344992637634,-2.64989995956421,-3.16841244697571,-2.53137493133545,-1.0755250453949,0.48193749785423,1.76233744621277,2.93974995613098,3.06625008583069,0.29039999842644,0.3617624938488,0.34567499160767,0.32835000753403,0.88618749380112,2.43759989738464,4.95989990234375,13.041600227356,16.0774631500244,16.3833999633789,14.9875001907349,11.9950876235962,3.34248757362366,-0.00013749999925,-1.1782374382019,-0.47805002331734,-0.07605000585318,0.11700000613928,7.96095037460327,26.1190509796143,40.3890037536621,29.9569511413574,24.3949508666992,2.61195015907288,-16.4119510650635,-18.0160503387451,-10.0360507965088,-5.30700016021729,-3.52095007896423,-1.32795011997223,0.12105000764132,1.24395000934601,1.54800009727478,2.47395014762878,4.60995006561279,1.89705014228821,-10.3630504608154,-29.9500522613525,-41.0959510803223,-28.5040512084961,-22.0830001831055,-12.9559507369995,-4.9830002784729,0.78195005655289,1.14600002765656,9.23205089569092,8.00295066833496,11.4060001373291,15.6270008087158,14.0350503921509,10.0600500106812,9.8730001449585,7.62705039978027,9.04995059967041,11.2240505218506,14.5060510635376,7.90995025634766,4.41405010223389,3.61200022697449,7.15305042266846,SWING_RIGHT
0.00013749999925,0.00013749999925,0.0,0.0,-0.00013749999925,-0.24846249818802,0.38940000534058,1.71050000190735,9.03361225128174,10.4594879150391,10.157262802124,8.71584987640381,6.4484748840332,-1.53106248378754,-3.28831243515015,-0.14781250059605,-0.00013749999925,0.0,0.00013749999925,0.28407499194145,0.22261250019073,-2.01781249046326,-3.08054995536804,-4.81538724899292,-5.56132507324219,-4.3752498626709,-2.28456258773804,-0.14354999363422,2.37544989585876,3.77300000190735,-0.45787498354912,-0.5847874879837,-0.51163750886917,-0.2953499853611,-0.00013749999925,0.0,3.1857373714447,5.837975025177,13.5785369873047,15.9036626815796,16.1372756958008,14.2377128601074,10.9822626113892,2.3975875377655,-0.53184998035431,-0.70095002651215,-1.17000007629395,-1.83105003833771,-2.20005011558533,-1.17000007629395,8.1670503616333,46.8130531311035,37.8460502624512,23.5330505371094,2.85105013847351,-27.0330009460449,-17.0629501342773,-3.03000020980835,1.50795006752014,-0.925950050354,2.206050157547,1.9980001449585,1.9980001449585,1.65795004367828,0.76305001974106,-1.28100001811981,-0.37095001339912,-23.7040519714355,-45.6739540100098,-49.9570541381836,-37.8400535583496,-23.7799510955811,-5.23905038833618,6.91800022125244,7.0620002746582,9.26505088806152,9.48795032501221,9.49305057525635,9.14805030822754,9.20505046844482,12.481050491333,9.61695003509521,0.42300000786781,8.37705039978027,10.8570003509521,16.0860004425049,10.5439500808716,2.14904999732971,2.7810001373291,4.63905000686646,SWING_RIGHT
0.34443750977516,0.31583750247955,0.26675000786781,0.20790000259876,0.00013749999925,0.00013749999925,0.172562494874,4.82061243057251,8.9330997467041,8.92251205444336,8.00442504882813,6.26174974441528,2.38645005226135,-2.23217487335205,-2.59503746032715,0.0,0.0,0.0,0.00013749999925,0.0,0.0,-0.70303750038147,-3.89372491836548,-5.5471625328064,-5.34558725357056,-3.84436249732971,-1.85899996757507,0.21394999325275,2.59049987792969,3.44300007820129,0.92537498474121,0.62479996681213,0.41552498936653,0.24763749539852,0.0,0.0,0.91286247968674,9.61894989013672,14.5234375,15.1354503631592,13.9422245025635,11.193187713623,6.18804979324341,0.55646252632141,-1.16462504863739,-0.29895001649857,0.25304999947548,0.36795002222061,-0.32295000553131,0.25304999947548,7.46295022964478,27.4980010986328,32.3659515380859,20.5380001068115,-21.4500007629395,-23.3820018768311,-9.2359504699707,2.41305017471313,0.57195001840591,-2.66700005531311,1.59105002880096,1.50000011920929,1.33500003814697,0.86595004796982,1.08105003833771,1.300950050354,3.01095008850098,-40.0849533081055,-57.2790031433105,-42.4680023193359,-27.9370517730713,-12.0270004272461,2.48400020599365,6.54495048522949,4.83000040054321,9.28200054168701,8.90595054626465,9.02805042266846,10.6540508270264,10.5220508575439,10.44105052948,11.7649507522583,15.7990503311157,15.5760011672974,13.206000328064,11.4679508209229,9.81600093841553,1.732950091362,4.66605043411255,11.0800504684448,SWING_RIGHT
0.0,0.0,0.00013749999925,0.00013749999925,0.16761249303818,0.61187499761581,1.75078749656677,4.74828767776489,9.56353759765625,9.43964958190918,8.48443698883057,2.47046256065369,-2.91211247444153,-3.19316244125366,-2.88034987449646,-0.00013749999925,0.0,0.00013749999925,0.0,-0.77247500419617,-1.69331252574921,-2.73418760299683,-3.4742124080658,-4.75653743743896,-4.39312505722046,-2.88158750534058,0.9787250161171,3.17143750190735,3.95230007171631,3.64856243133545,-0.29493749141693,-0.18287499248981,-0.00013749999925,0.0,0.78485000133514,2.15393757820129,4.68696260452271,8.99511241912842,14.5171127319336,15.2426996231079,14.4706373214722,6.50347518920898,0.28063750267029,-1.45392501354218,-2.18020009994507,-0.30300000309944,-0.98100006580353,0.06405000388622,11.5549507141113,26.2579517364502,41.0400009155273,45.901050567627,29.2720508575439,23.7340507507324,-23.7340507507324,-23.6329517364502,-2.17305016517639,-1.81695008277893,-2.08500003814697,-6.26805019378662,1.6030501127243,1.95495009422302,2.19900012016296,2.3689501285553,3.97800016403198,2.29695010185242,-21.6280517578125,-36.2209510803223,-57.7840538024902,-43.5240020751953,-27.9919509887695,1.90200006961823,6.72705030441284,4.26495027542114,2.71905016899109,9.16200065612793,9.28200054168701,9.99300003051758,13.0890007019043,13.2469511032104,10.4310007095337,4.80900001525879,22.5370502471924,9.02805042266846,14.0490007400513,12.0280504226685,2.14394998550415,3.03795003890991,8.41499996185303,8.33400058746338,SWING_RIGHT
0.24158750474453,0.26482498645782,0.27555000782013,0.28751251101494,0.2413125038147,-0.66632497310638,-5.33610010147095,-5.40993738174438,-5.76317501068115,-6.49068737030029,-6.52148723602295,-2.79798746109009,-3.44794988632202,-3.57073736190796,-2.28854990005493,0.0,0.0,0.00013749999925,0.14396250247955,-0.50751250982285,-2.27383756637573,-5.65633726119995,-6.3575873374939,-6.56713724136353,-5.61329984664917,-3.13788747787476,1.14839994907379,2.68111252784729,3.50446248054504,2.94483757019043,0.76669996976852,1.03688752651215,0.99866247177124,1.03771245479584,0.97184997797012,-1.27380001544952,-9.4237003326416,-8.07991218566895,-6.71701240539551,-5.94605016708374,-3.96233749389648,3.38442492485046,1.41817498207092,-0.46351251006126,-1.65618753433228,0.54105001688004,0.96495002508163,-0.30105000734329,0.18405000865459,25.4220008850098,40.2960014343262,38.5189514160156,25.6690521240234,1.89795005321503,-22.8649501800537,-14.6070003509521,-7.1850004196167,-2.11605000495911,-2.30505013465881,-4.74705028533936,3.3270001411438,2.86500024795532,3.08700013160706,3.43200016021729,2.92200016975403,2.27805018424988,-18.5250015258789,-42.4080009460449,-48.8650512695313,-32.7660026550293,-22.6669502258301,-10.1470508575439,0.5059500336647,4.51695013046265,3.10200023651123,8.88000011444092,8.31900024414063,8.95905017852783,10.9909505844116,12.1210508346558,14.6449508666992,5.81295013427734,7.23195028305054,15.6240005493164,9.23400020599365,10.2400503158569,5.7529501914978,4.31895017623901,4.62495040893555,8.59695053100586,SWING_RIGHT
0.0,0.0,0.0,0.18878750503063,0.85263746976852,1.42394995689392,3.59383749961853,7.13294982910156,7.58037519454956,7.11094999313354,5.78366231918335,2.93493747711182,-1.21728754043579,-2.18597507476807,-2.23107504844666,0.0,0.0,0.0,0.00013749999925,-1.87549996376038,-2.6331250667572,-3.36654996871948,-4.59717512130737,-4.43987512588501,-3.34124994277954,-1.94163751602173,-0.51988750696182,1.44264996051788,2.4982373714447,2.40295004844666,0.85263746976852,0.74387496709824,0.60513746738434,0.21518750488758,3.13678741455078,5.11334991455078,8.70814990997314,12.8330125808716,13.4272871017456,12.7699003219604,10.5697622299194,6.49893760681152,1.54632496833801,-0.54147499799728,-1.39919996261597,-0.00900000054389,-0.22395001351833,0.03795000165701,-0.07395000010729,37.9519500732422,41.9640007019043,30.8479518890381,17.8420505523682,-12.3750009536743,-22.19700050354,-4.09095001220703,-1.58205008506775,1.38105010986328,-3.05700016021729,-2.28105020523071,1.92405009269714,2.17005014419556,2.06700015068054,1.67700004577637,-4.91100025177002,-22.9780502319336,-38.1600036621094,-46.8250503540039,-47.131950378418,-25.9090518951416,-13.617000579834,-1.43205010890961,2.71605014801025,4.24395036697388,4.70595026016235,8.0580005645752,9.27000045776367,9.34695053100586,9.95700073242188,15.2530508041382,12.7800006866455,12.6430501937866,10.4569501876831,17.485050201416,15.3750009536743,6.71295022964478,8.76900005340576,7.30695056915283,9.48795032501221,6.49995040893555,SWING_RIGHT
0.15963749587536,0.18397499620914,0.27335000038147,0.31597501039505,0.28077501058578,0.26853749155998,0.32986250519753,2.07267498970032,6.00764989852905,5.37680006027222,3.99093747138977,0.00013749999925,-2.40308737754822,-2.10787487030029,-1.3833874464035,-0.00013749999925,0.0,0.0,0.0,-0.00013749999925,-0.34787499904633,-1.51126253604889,-1.78667497634888,-3.05305004119873,-1.77581250667572,-0.69973748922348,0.14657500386238,2.25335001945496,2.11681246757507,1.62772500514984,-0.00013749999925,0.0,0.15083749592304,0.14464999735355,0.00013749999925,0.24708749353886,2.86288738250732,7.31554985046387,15.1124877929688,14.6977872848511,11.643087387085,5.1397500038147,-0.4961000084877,-1.36936247348785,-1.15843749046326,-1.66605007648468,-1.83795011043549,-0.70800000429153,-0.70305001735687,0.02400000020862,20.9230518341064,42.3000030517578,39.9390029907227,13.9609508514404,-20.1379508972168,-0.94305002689362,1.1539500951767,-3.33495020866394,-2.91105008125305,-2.78595018386841,2.757000207901,3.13305020332336,2.89305019378662,2.34300017356873,2.46000003814697,7.52205038070679,-6.68505048751831,-20.7949504852295,-59.1390037536621,-25.9879512786865,-12.7000503540039,-2.05200004577637,2.50800013542175,2.74305009841919,2.97705006599426,9.43305015563965,8.12295055389404,7.64895057678223,9.36300086975098,10.4959506988525,15.046950340271,17.3080501556396,10.9050006866455,13.1560506820679,6.28695011138916,7.96005058288574,8.83695030212402,8.64000034332275,9.55995082855225,9.58800029754639,SWING_RIGHT
0.15991249680519,0.25299999117851,0.33646249771118,0.3257375061512,0.38170000910759,0.70936250686646,1.21907496452332,2.95886254310608,5.28550004959106,5.43303728103638,4.43066263198853,3.24183750152588,0.86913746595383,-1.85927498340607,-2.34382510185242,-0.00013749999925,0.0,0.0,-0.14478750526905,-0.6982250213623,-1.31518745422363,-1.82751250267029,-2.27411246299744,-2.94346237182617,-2.54168748855591,-1.62827503681183,-0.60060000419617,0.38926249742508,1.81445002555847,2.36967492103577,0.4446749985218,0.76161247491837,1.02300000190735,1.50603747367859,2.78410005569458,4.33152484893799,6.20867490768433,9.26543712615967,12.4163875579834,12.5398626327515,11.0094871520996,8.71475028991699,5.02658748626709,0.98312497138977,-0.75459998846054,0.25800001621246,-0.13305000960827,2.88495016098022,17.7319507598877,35.2750511169434,39.3450012207031,39.3979530334473,35.5139999389648,-5.52105045318604,-22.5100517272949,-10.9699506759644,-7.2199501991272,-5.46795034408569,-6.67200040817261,-3.98295021057129,4.47795009613037,4.53795003890991,5.37195014953613,7.30605030059814,5.13705015182495,-5.29200029373169,-23.8159503936768,-44.3209533691406,-58.4329528808594,-32.131950378418,-16.7670001983643,-5.02095031738281,-0.21105000376701,0.33195000886917,1.62195003032684,7.91700029373169,5.91105031967163,10.5679502487183,22.3620014190674,17.6310005187988,12.928050994873,18.9640502929688,16.8450012207031,10.57200050354,5.90595006942749,5.84400033950806,5.8840503692627,5.63505029678345,8.0779504776001,9.33705043792725,SWING_RIGHT
0.0,0.15234999358654,0.34471249580383,0.512600004673,0.97184997797012,1.64738750457764,2.22186255455017,3.5784375667572,5.86643743515015,6.27082490921021,5.35906267166138,4.16157484054565,2.20412492752075,-0.61159998178482,-1.7496874332428,-0.22357499599457,-0.00013749999925,0.0,-0.41236248612404,-0.93032497167587,-1.64972496032715,-2.20852494239807,-2.43759989738464,-2.64054989814758,-2.49383759498596,-1.56145000457764,-0.74690002202988,-0.16169999539852,0.72008746862411,1.31780004501343,0.50572502613068,0.57282501459122,0.62576252222061,1.21109998226166,2.54636240005493,4.51783752441406,6.16508769989014,8.41953754425049,11.0416622161865,11.6106376647949,10.2022247314453,8.30087471008301,5.50164985656738,1.92802500724792,-0.00013749999925,-0.23895001411438,-1.20795011520386,5.87505006790161,15.4000511169434,36.003002166748,43.1569519042969,35.1480026245117,34.935001373291,19.1059513092041,-21.8760013580322,-11.4100503921509,-1.27995002269745,-2.52795004844666,-3.93300008773804,-4.04295015335083,2.1780002117157,3.37005019187927,4.86405038833618,7.67505025863647,10.9690504074097,-3.48900008201599,-15.2539510726929,-30.7120513916016,-51.1060523986816,-33.5370025634766,-18.2470512390137,-7.37895011901855,-0.83100003004074,0.15705001354218,1.18605005741119,8.25495052337646,9.7339506149292,10.9990501403809,15.2269506454468,15.363000869751,10.2850503921509,14.367000579834,16.6900501251221,10.3429508209229,12.1290006637573,8.43900012969971,7.71795034408569,7.83795022964478,10.1890506744385,10.8570003509521,SWING_RIGHT
0.15592500567436,0.19483749568462,0.19085000455379,0.18535000085831,0.24928750097752,0.33852499723434,2.00021243095398,3.27373743057251,5.5222749710083,6.98444986343384,6.71907472610474,5.19103765487671,3.26466250419617,-1.76219999790192,-2.39689993858337,0.0,-0.00013749999925,-0.19868749380112,-0.18301250040531,-0.00013749999925,-0.00013749999925,-0.72861248254776,-1.05187499523163,-1.38476252555847,-1.87880003452301,-1.72177493572235,-1.17232501506805,-0.428312510252,1.75147497653961,2.32457494735718,0.9229000210762,0.73053747415543,0.41690000891685,0.33192500472069,0.65312498807907,1.21494996547699,6.86441230773926,9.1570873260498,11.9334878921509,13.3865871429443,12.4654750823975,10.0757246017456,7.31444978713989,0.67182499170303,-0.69946247339249,1.05105006694794,-0.08505000174046,0.22005000710487,1.26105010509491,0.75600004196167,7.56300020217896,41.9520034790039,42.5700035095215,31.9900512695313,4.12305021286011,-17.0350513458252,-6.12600040435791,-6.37500047683716,-4.62495040893555,-4.58400011062622,3.37500023841858,3.27705025672913,3.37695026397705,3.67605018615723,4.57905006408691,4.14105033874512,-5.83005046844482,-28.1040019989014,-42.1230010986328,-51.013053894043,-25.3170013427734,-18.5770511627197,-9.08205032348633,-1.77900004386902,-0.08400000631809,9.35595035552979,9.18405055999756,9.66495037078857,8.04195022583008,7.12005043029785,10.243950843811,10.1389503479004,15.0109510421753,14.0800504684448,8.90805053710938,16.3210506439209,12.4420509338379,10.8550500869751,8.22405052185059,7.61805057525635,SWING_RIGHT
-0.27114999294281,-0.22866250574589,-0.00013749999925,0.0,0.0,0.0,0.1537249982357,0.35708749294281,0.88577497005463,1.26032495498657,3.01413750648499,-0.16994999349117,-2.40858745574951,-2.73432493209839,-2.30023741722107,0.00013749999925,0.0,-0.00013749999925,-0.16637499630451,-0.00013749999925,0.0,0.0,-0.00013749999925,-0.70812499523163,-1.09326255321503,0.0,0.95370000600815,1.98714995384216,2.42467498779297,2.19064998626709,0.94132500886917,0.77893751859665,0.50379997491837,0.40122500061989,0.34196248650551,0.3814249932766,0.64253747463226,1.4913250207901,3.93442487716675,5.51938724517822,8.00868701934814,3.44726252555847,0.00013749999925,-1.32550001144409,-1.34914994239807,0.12900000810623,-0.05700000375509,-1.06695008277893,-1.65105009078979,-0.82800006866455,-0.67905002832413,2.5639500617981,23.695951461792,45.1849517822266,34.1779518127441,-6.97605037689209,-3.76605010032654,-5.16600036621094,-5.91795015335083,-7.1370005607605,2.83395004272461,3.04200005531311,3.307950258255,3.40305018424988,3.1039502620697,3.75300025939941,6.76305055618286,11.8909502029419,5.70405006408691,-7.98795032501221,-7.63305044174194,-4.03695011138916,-1.10895001888275,0.21900001168251,1.57905006408691,9.44204998016357,8.98500061035156,9.02595043182373,10.0860004425049,8.85300064086914,8.41005039215088,11.6520004272461,17.121000289917,14.193000793457,22.6200008392334,10.7970008850098,9.62205028533936,7.5600004196167,6.2440505027771,7.36200046539307,SWING_RIGHT
-0.00013749999925,-0.00013749999925,-0.00013749999925,-0.00013749999925,-0.00013749999925,0.0,0.59262502193451,1.38517498970032,4.9091625213623,8.79848766326904,8.24738788604736,7.06461238861084,5.33554983139038,0.8953999876976,-3.81727504730225,0.0,0.0,0.0,0.0,-0.00013749999925,-0.19703750312328,-1.283287525177,-1.87893748283386,-1.98866248130798,-2.6197874546051,-2.48187494277954,-1.27324998378754,0.24639999866486,1.46354997158051,3.05126237869263,0.0,0.0,0.0,0.0,0.0,0.33054998517036,2.7054500579834,5.08199977874756,10.1806373596191,14.8803873062134,15.2447624206543,13.8731994628906,11.4109878540039,5.79947519302368,0.34044998884201,-0.73395001888275,-1.17300009727478,-1.60800004005432,0.08400000631809,2.0830500125885,5.76000022888184,42.9409523010254,47.919002532959,29.8039512634277,12.445050239563,-5.73600006103516,-17.5759506225586,-13.0699510574341,-7.01505041122437,-2.86500024795532,3.08505010604858,3.06795024871826,3.41805005073547,4.00695037841797,6.04905033111572,7.65795040130615,1.40895009040833,-19.1400012969971,-44.1390037536621,-46.3510513305664,-38.2350006103516,-25.0950012207031,-17.6749515533447,-8.9170503616333,-1.23795008659363,8.35500049591064,8.06595039367676,8.22405052185059,10.4479503631592,11.953950881958,10.0620002746582,10.2900009155273,7.24695014953613,10.6609506607056,13.5990009307861,4.16505002975464,7.79700040817261,8.40105056762695,7.0770001411438,5.68305015563965,SWING_RIGHT
0.00013749999925,0.1560624986887,0.20473749935627,0.25877499580383,0.27087500691414,0.18809999525547,0.25327500700951,0.45718750357628,0.65450000762939,5.6865873336792,6.01136255264282,5.38724994659424,4.30223751068115,1.83974993228912,-1.81802499294281,0.0,0.0,0.0,0.1538625061512,0.28916248679161,0.23402500152588,-0.16994999349117,-0.64955002069473,-1.16324996948242,-2.35152506828308,-2.41903758049011,-1.53147494792938,-0.32945001125336,0.64281249046326,2.00997495651245,0.28503748774529,0.33274999260902,0.38389998674393,0.40191251039505,0.51301246881485,0.97955000400543,2.25114989280701,3.7309250831604,5.76949977874756,13.5750999450684,14.0938873291016,13.2951498031616,10.8526000976563,6.38275003433228,1.19102501869202,-0.63105005025864,-0.93495005369186,-1.32105004787445,-2.74305009841919,0.37605002522469,13.4010009765625,29.1790504455566,38.4660034179688,46.4320526123047,6.77295017242432,-23.1660003662109,-20.8339500427246,-3.03495025634766,1.80705010890961,0.11895000934601,4.171950340271,4.39905023574829,4.23705005645752,4.12905025482178,6.08295011520386,7.99995040893555,7.86900043487549,2.56995010375977,-26.6610012054443,-46.7560539245605,-35.2729530334473,-19.8780002593994,-9.46695041656494,-0.63495004177094,3.29595017433167,8.47994995117188,7.44300031661987,5.37195014953613,6.38205051422119,12.4930505752563,15.9019508361816,11.4889507293701,19.021951675415,16.6009502410889,6.80100011825562,11.7739505767822,9.3390007019043,5.43195009231567,4.4719500541687,6.67905044555664,SWING_RIGHT
0.23911249637604,0.20968750119209,0.168850004673,0.00013749999925,0.00013749999925,0.00013749999925,0.14822499454021,0.18424999713898,0.37386250495911,1.1559624671936,9.722487449646,8.39891242980957,6.88943767547607,0.92798751592636,-3.37768745422363,0.0,0.0,0.0,0.0,0.00013749999925,0.20556250214577,0.00013749999925,-0.3812874853611,-1.28672504425049,-1.94754993915558,-3.65021252632141,-2.00213742256165,-0.53473746776581,1.19377493858337,3.35004997253418,0.32326251268387,0.24873749911785,0.17971250414848,0.0,0.0,0.15977500379086,0.52263748645782,1.28369998931885,3.14421248435974,5.54537487030029,14.5770626068115,13.0282621383667,10.6407127380371,4.68709993362427,0.25451248884201,-0.0949500054121,-0.19800001382828,-0.39705002307892,-0.72705000638962,0.15795001387596,3.29400014877319,10.2520503997803,29.0970020294189,52.498950958252,41.1240005493164,4.75005006790161,-16.9770011901855,-11.8579502105713,-4.76595020294189,-3.15495014190674,4.36094999313354,4.19099998474121,4.0570502281189,4.44705009460449,4.80405044555664,4.72995042800903,5.47005033493042,4.86405038833618,-5.9089503288269,-29.7370510101318,-43.7490005493164,-21.1369514465332,-14.3730010986328,-8.30400085449219,-1.97295010089874,8.79300022125244,8.55195045471191,8.30505084991455,7.85700035095215,7.14600038528442,5.70195007324219,6.62400054931641,13.9150505065918,10.1200504302979,5.61600017547607,9.23400020599365,15.4060506820679,12.5239505767822,9.74595069885254,8.52495002746582,SWING_RIGHT
0.00013749999925,0.16651250422001,0.0,0.0,0.0,0.26578751206398,0.83792501688004,1.05036246776581,1.31394994258881,3.1545250415802,6.41918754577637,6.5147500038147,5.93766260147095,4.9545373916626,2.36101245880127,-0.00013749999925,0.0,0.00013749999925,0.00013749999925,0.00013749999925,-0.30346250534058,-1.09010004997253,-1.63047504425049,-2.08972501754761,-2.61538743972778,-3.45015001296997,-3.25558757781982,-2.49686241149902,-1.39851248264313,-0.28476250171661,0.58121252059937,0.45842498540878,0.0,0.0,0.15661250054836,0.91465002298355,2.32388758659363,3.56056237220764,5.04899978637695,7.87902498245239,11.0937747955322,11.0877246856689,10.3195123672485,8.78336238861084,5.51897478103638,-0.18405000865459,-1.50105011463165,-0.23205001652241,0.80895006656647,3.92595028877258,26.812952041626,38.2009506225586,37.6260032653809,35.4780006408691,26.2050018310547,15.4069509506226,-2.37705016136169,-11.0779504776001,-7.35195016860962,-3.16695022583008,3.63795018196106,3.76005029678345,1.29900002479553,2.91495013237,6.64095020294189,14.5990505218506,5.82405042648315,-10.2330007553101,-27.9199504852295,-36.8580017089844,-37.5979499816895,-29.69700050354,-24.7789516448975,-18.3619499206543,-10.4800500869751,8.29995059967041,8.34105014801025,10.0960502624512,10.3830003738403,12.1620006561279,10.042950630188,15.7900505065918,21.949951171875,10.4569501876831,3.55695009231567,1.05300009250641,5.86005020141602,13.4140510559082,14.2950010299683,8.92800045013428,SWING_RIGHT
-0.16362500190735,-0.1537249982357,-0.00013749999925,0.0,0.00013749999925,0.47382500767708,0.81798750162125,2.33804988861084,9.96049976348877,9.41049957275391,8.11456203460693,6.73447513580322,4.28271245956421,-4.01953744888306,-2.26228737831116,0.28503748774529,0.25134998559952,0.19538749754429,-0.00013749999925,-0.80217498540878,-1.52693748474121,-2.1146125793457,-2.33310008049011,-2.6420624256134,-1.86188745498657,-0.48468750715256,1.06631255149841,2.27589988708496,3.60428738594055,2.52161240577698,0.14052499830723,0.2231625020504,0.35901248455048,0.74414998292923,1.61150002479553,3.02018737792969,4.47521257400513,7.207200050354,14.674412727356,14.5833873748779,13.1372995376587,11.0699872970581,7.49952507019043,-0.84768748283386,-0.89938747882843,-0.13095000386238,1.06800007820129,1.34295010566711,15.0790510177612,32.344051361084,40.4779510498047,35.5020027160645,18.4519500732422,1.35000002384186,-16.3810501098633,-16.4119510650635,-9.2989501953125,-5.79795026779175,-5.13495016098022,-1.89600014686584,3.93705010414124,3.84405016899109,5.80500030517578,6.79605054855347,7.39005041122437,0.06105000153184,-21.9370517730713,-37.6600532531738,-41.2849502563477,-26.7610511779785,-15.586950302124,-9.53895092010498,-3.95595026016235,0.0949500054121,1.60800004005432,8.95395088195801,10.5480003356934,10.9890003204346,11.2399501800537,12.0210008621216,8.47305011749268,3.54300022125244,10.7230501174927,13.3810510635376,10.9170007705688,8.71005058288574,8.2669506072998,7.45995044708252,7.72605037689209,10.3620004653931,SWING_RIGHT
-0.00013749999925,-0.00013749999925,-0.00013749999925,0.0,0.0,0.17462499439716,0.55673748254776,1.14661252498627,1.82228744029999,5.03249979019165,8.57944965362549,7.46308755874634,5.82092475891113,1.71998751163483,-2.58156251907349,0.00013749999925,0.00013749999925,0.0,0.00013749999925,0.15083749592304,0.14726249873638,-1.02698755264282,-1.75051248073578,-2.25967502593994,-2.63614988327026,-2.70324993133545,-1.49806249141693,-0.20047499239445,0.83916246891022,2.21099996566772,0.14272500574589,0.00013749999925,0.00013749999925,0.00013749999925,0.16857500374317,0.38211250305176,2.49851250648499,4.36149978637695,6.30079984664917,10.0490503311157,12.9516744613647,11.5385875701904,9.23037528991699,4.77537488937378,0.52552497386932,-0.51405000686646,0.05700000375509,-0.74400001764297,-1.18905007839203,0.3160500228405,3.40695023536682,45.3360023498535,48.9130516052246,37.9729499816895,21.3040504455566,-18.3780002593994,-21.2610015869141,-5.89905023574829,1.33605003356934,2.25495004653931,4.00395011901855,3.55695009231567,3.45900011062622,3.58095026016235,5.10300016403198,6.72900009155273,6.00405025482178,-7.23600053787231,-33.1870498657227,-44.0740509033203,-34.4899520874023,-20.1430511474609,-10.0950002670288,-0.5100000500679,4.19099998474121,8.20695018768311,8.88195037841797,7.88400030136108,7.83300018310547,5.84805011749268,6.49695014953613,14.1610507965088,10.9410009384155,8.7480001449585,14.3599510192871,11.3550004959106,11.0080509185791,5.73600006103516,3.52605009078979,4.4719500541687,SWING_RIGHT
-0.00013749999925,0.0,0.0,0.00013749999925,0.16898749768734,0.34264999628067,0.8427374958992,1.6356999874115,2.29322504997253,5.35232496261597,7.81412506103516,7.05966234207153,5.50453758239746,3.99959993362427,-0.00013749999925,0.00013749999925,0.00013749999925,0.00013749999925,0.00013749999925,0.0,-0.25891250371933,-0.92661249637604,-1.62964999675751,-1.89227497577667,-1.83177495002747,-2.19958758354187,-1.83658754825592,-1.03922498226166,-0.00013749999925,0.76779997348785,0.0,0.0,0.00013749999925,0.20129999518394,0.3783999979496,0.84122496843338,2.15311241149902,4.14328765869141,6.13084983825684,10.1374626159668,12.8869123458862,12.2926378250122,10.5132503509521,8.5185375213623,4.04676246643066,-0.69600003957748,-0.76995003223419,-0.60300004482269,0.69195002317429,2.20500016212463,17.4949512481689,38.3059501647949,46.5300025939941,34.0339508056641,20.1240005493164,10.2190504074097,0.95295006036758,-10.1200504302979,-11.9560508728027,-1.66605007648468,3.20505023002625,3.26205015182495,4.13895034790039,4.64805030822754,6.04200029373169,8.70000076293945,13.1820001602173,-4.28400039672852,-28.6690521240234,-40.8540000915527,-34.0009498596191,-27.1350021362305,-20.3710517883301,-16.3960514068604,-11.0950508117676,8.89905071258545,8.95095062255859,8.98305034637451,9.12405014038086,8.60400009155273,8.47500038146973,5.81700038909912,5.02995014190674,16.8910503387451,12.5020503997803,7.19205045700073,-1.91805005073547,5.96805047988892,16.6920013427734,10.6230001449585,SWING_RIGHT
0.0,0.0,0.0,0.0,0.0,-0.00013749999925,-0.22838750481606,-0.22192500531673,0.1876875013113,0.52415001392365,-7.68336248397827,-9.01092529296875,-9.26846218109131,-10.7501621246338,-12.2226495742798,-0.25382500886917,-0.20528750121593,-0.19016249477863,-0.14300000667572,0.0,0.00013749999925,0.00013749999925,-0.2435124963522,-0.96249997615814,-1.79960000514984,-3.14242506027222,-3.20842504501343,-2.234375,-0.62713748216629,1.28480005264282,0.23278750479221,0.28888750076294,0.25588750839233,0.24227499961853,0.2050125002861,0.0,0.0,0.34636250138283,1.42422497272491,2.66626238822937,-2.79331254959106,-2.26132488250732,-1.5691499710083,-2.75495004653931,-4.76547479629517,2.25300002098084,1.43595004081726,1.34295010566711,1.33605003356934,0.79200005531311,0.52200001478195,6.46695041656494,24.5770511627197,38.8729515075684,25.8270015716553,15.4909505844116,-8.04195022583008,-21.4399509429932,-6.84900045394897,-4.8880500793457,4.38000011444092,4.44495010375977,4.15799999237061,3.63600015640259,3.13095021247864,2.43600010871887,0.31500002741814,4.014000415802,2.53905010223389,-16.7530498504639,-33.5130004882813,-32.1889533996582,-23.8230018615723,-14.778000831604,-3.42405009269714,8.39400005340576,8.87700080871582,9.25995063781738,8.81295013427734,7.46895027160645,9.41100025177002,12.1909503936768,13.6080007553101,6.07800006866455,-7.54200029373169,-0.61800003051758,16.3789501190186,15.7780504226685,6.13800048828125,5.9850001335144,SWING_RIGHT
1.12777495384216,0.7870500087738,0.72118747234344,0.64116251468658,0.57529997825623,0.52703750133514,0.48510000109673,0.48262500762939,0.79378747940063,3.18560004234314,9.5684871673584,9.32689952850342,8.4708251953125,7.11301231384277,3.83982491493225,0.6375874876976,0.35516250133514,0.23319999873638,0.14286249876022,0.14038750529289,0.00013749999925,0.0,-0.38307499885559,-1.2282874584198,-1.06204998493195,0.48798748850822,0.68681252002716,1.69949996471405,3.20127487182617,3.66409993171692,2.69733738899231,1.19968748092651,1.04761254787445,0.85043752193451,0.6710000038147,0.52868747711182,0.49087500572205,0.86872500181198,2.37132501602173,6.56452512741089,15.243800163269,16.4661750793457,16.4836368560791,14.55588722229,9.47842502593994,1.01205003261566,1.53900003433228,1.06305003166199,0.87600004673004,0.49305000901222,1.33800005912781,3.65805006027222,28.6380004882813,35.6749534606934,17.7630004882813,4.40505027770996,-6.22695016860962,-15.2560510635376,-3.28905010223389,-1.66095006465912,3.18300008773804,3.3510000705719,3.36495018005371,3.3030002117157,3.10200023651123,3.70995020866394,4.34700012207031,6.81105041503906,-2.51205015182495,-13.0830001831055,-21.901050567627,-28.9780521392822,-21.7069511413574,-12.8430004119873,-1.07295000553131,8.92005062103271,9.07095050811768,8.83395004272461,8.64300060272217,8.92305088043213,9.01605033874512,9.84495067596436,17.8920001983643,7.15305042266846,-2.55900001525879,12.3870010375977,14.7649507522583,16.1179504394531,11.0340003967285,8.0179500579834,SWING_RIGHT
0.0,-0.00013749999925,-0.18603749573231,-0.19126249849796,-0.00013749999925,0.19648750126362,0.78154999017715,0.67484998703003,-7.81357479095459,-7.86059999465942,-8.80907535552979,-3.82181239128113,-3.38786244392395,-1.28342497348785,0.16719999909401,0.0,0.0,-0.00013749999925,-0.16816249489784,-0.34471249580383,-0.94847500324249,-1.66155004501343,-2.29143738746643,-3.38222503662109,-2.9574875831604,-1.60751247406006,4.64626264572144,4.27295017242432,2.11296248435974,0.17091250419617,-0.14630000293255,-0.28792500495911,-0.38513749837875,-0.3588750064373,-0.15853749215603,0.65670001506805,2.06909990310669,3.10969996452332,-1.91138744354248,-0.71527498960495,-1.01928746700287,-1.58207499980927,-2.1678249835968,-0.42143750190735,3.0434250831604,2.83005023002625,2.94000005722046,2.77005004882813,3.28905010223389,12.6730508804321,33.0739517211914,37.1209526062012,23.1739501953125,9.25095081329346,-13.6590003967285,-12.72705078125,-1.58205008506775,0.16500000655651,0.65100002288818,0.74700003862381,3.64005017280579,3.49200010299683,3.19305014610291,2.71905016899109,5.04795026779175,5.65605020523071,-6.52905035018921,-28.9180507659912,-44.8429527282715,-27.4720516204834,-22.6290016174316,-1.91100013256073,-2.63595008850098,-1.357950091362,1.21305000782013,8.43405055999756,8.06100082397461,8.22405052185059,9.12105083465576,9.18600082397461,9.00405025482178,4.38600015640259,-2.07300019264221,2.58000016212463,31.1350517272949,11.7769508361816,9.58095073699951,10.8480005264282,11.521050453186,10.1050500869751,SWING_RIGHT
0.00013749999925,0.15468749403954,0.00013749999925,0.0,0.0,-0.17517499625683,-0.32738751173019,-0.4779500067234,-0.36519998311996,-5.92679977416992,-9.06386280059814,-10.1463994979858,-5.98565006256104,-3.6154248714447,-3.23908758163452,0.0,0.00013749999925,0.15950000286102,0.2065249979496,0.20184999704361,0.14959999918938,0.0,-0.64446252584457,-1.59788751602173,-2.57138752937317,-0.86102497577667,1.0616375207901,4.35283756256104,4.89197492599487,4.71129989624023,0.21821250021458,0.25286251306534,0.26042500138283,0.14891250431538,0.0,-0.16651250422001,-0.29837501049042,-0.15647499263287,0.6678375005722,-3.57527494430542,-4.57214975357056,-5.77857494354248,-3.06130003929138,-2.31879997253418,-3.00478744506836,1.84800004959106,1.60905003547668,1.60905003547668,1.24695003032684,1.5700501203537,2.81295013427734,7.59000015258789,29.5380020141602,40.9399528503418,9.71100044250488,-11.2960500717163,-13.4959506988525,-6.89700031280518,-4.54395008087158,-0.95700001716614,3.45405006408691,3.31005024909973,3.27900004386902,2.85795021057129,2.41695022583008,2.07195019721985,-0.25200000405312,1.35900008678436,-2.41095018386841,-29.1960010528564,-23.8860015869141,-14.4430503845215,-2.08800005912781,-2.32005000114441,-2.71305012702942,8.55405044555664,8.65904998779297,8.71395015716553,9.84195041656494,9.52605056762695,9.73695087432861,10.8930006027222,13.8979511260986,18.2580013275146,-2.94195008277893,22.756950378418,8.96295070648193,7.82895040512085,9.21000003814697,9.48795032501221,SWING_RIGHT
0.0,0.0,-0.00013749999925,0.0,0.0,0.17655000090599,0.73383748531342,1.3333375453949,3.11905002593994,8.81210041046143,8.24628734588623,6.96904993057251,4.2746000289917,-2.20508742332459,-3.39954996109009,-0.00013749999925,-0.00013749999925,0.0,0.0,-0.16335000097752,-0.77027499675751,-1.66333746910095,-2.40886259078979,-3.22341251373291,-5.07127475738525,-3.91943740844727,-2.34437489509583,-0.36822500824928,2.73913741111755,4.01170015335083,0.0,-0.16279999911785,-0.00013749999925,0.0,0.00013749999925,0.95754998922348,2.62377500534058,4.2007622718811,7.05512475967407,12.4283494949341,12.1617374420166,10.7538747787476,7.56208753585815,1.67131245136261,-0.00013749999925,0.46200001239777,0.57000005245209,0.3829500079155,2.24100017547607,10.9729509353638,31.6810512542725,39.9100532531738,38.7319526672363,29.812952041626,9.08805084228516,-12.7369508743286,-21.9810009002686,-10.2660007476807,-2.81295013427734,-1.99605011940002,2.81895017623901,2.83395004272461,3.3510000705719,4.21500015258789,2.15595006942749,3.29295015335083,-3.13695025444031,-18.8310012817383,-44.0340003967285,-46.4689521789551,-34.2390022277832,-20.1649513244629,-12.1729507446289,-6.90795040130615,-2.12595009803772,9.39000034332275,9.29400062561035,9.90900039672852,12.1930503845215,11.1349506378174,8.86500072479248,7.75200033187866,5.86995029449463,2.89605021476746,10.3740005493164,10.3189506530762,13.5370502471924,6.7819504737854,3.50400018692017,4.27500009536743,SWING_RIGHT
0.0,-0.00013749999925,-0.17159999907017,0.0,0.55192500352859,1.04348754882813,-3.05469989776611,-3.63687491416931,-3.96783757209778,-5.44238758087158,-6.97125005722046,-3.66327500343323,-3.62807488441467,-3.74357509613037,-2.80087494850159,0.14162500202656,0.0,-0.20514999330044,-1.03565001487732,-1.7850250005722,-2.29748749732971,-2.63518738746643,-2.35757493972778,-1.3860000371933,0.2043250054121,1.94823753833771,3.62958741188049,4.51371240615845,4.35269975662231,3.58270001411438,-0.00013749999925,-0.76903748512268,-0.86157500743866,0.46639999747276,2.2314875125885,4.32327508926392,1.82270002365112,2.40638756752014,2.78506255149841,1.08570003509521,-1.4695999622345,0.16101250052452,-1.47881245613098,-2.91307497024536,-2.64934992790222,-1.97700011730194,-0.42300000786781,7.32600021362305,20.109001159668,34.9969520568848,25.9660511016846,12.03600025177,0.6439500451088,-21.6529502868652,-9.12195014953613,-7.19205045700073,-6.12405014038086,-3.00705003738403,1.86195003986359,0.06705000251532,3.49695014953613,3.93705010414124,4.20795011520386,4.19595003128052,-0.10095000267029,-18.0990009307861,-28.7680511474609,-33.8029518127441,-24.3360004425049,-18.5440502166748,-8.49300003051758,-1.19700002670288,0.27195000648499,0.58500003814697,2.08200001716614,8.41005039215088,10.242000579834,9.28395080566406,7.58400058746338,9.84495067596436,7.03605031967163,3.91605019569397,14.1259508132935,19.9699516296387,6.40395021438599,5.55900049209595,6.2029504776001,7.52700042724609,9.48495006561279,11.3719501495361,SWING_RIGHT
-0.00013749999925,-0.00013749999925,-0.18713749945164,-0.17586250603199,0.0,0.59358751773834,1.10825002193451,4.23169994354248,9.02550029754639,8.76741218566895,7.42706251144409,6.06443738937378,2.53302502632141,-2.47362494468689,-2.40817499160767,0.4614500105381,0.62204998731613,0.74263751506805,0.52483749389648,-0.22481249272823,-1.19693744182587,-1.87646245956421,-1.94521248340607,-2.05259990692139,-1.07332503795624,0.35543748736382,1.51208746433258,1.89268743991852,2.42233753204346,2.00475001335144,0.00013749999925,0.22027499973774,0.32298749685287,0.7596874833107,1.97257494926453,4.01802492141724,6.12411260604858,11.0460624694824,17.7187995910645,17.8202743530273,15.238712310791,11.922212600708,6.05522489547729,-1.57891249656677,-3.10419988632202,-3.78900027275085,-4.32300043106079,-2.54700016975403,14.6929502487183,31.0200023651123,36.8689498901367,19.7809505462646,9.36900043487549,-7.29495048522949,-16.4740505218506,0.0259500015527,1.66095006465912,-1.1290500164032,0.7540500164032,1.14195001125336,2.64705014228821,2.02005004882813,1.4230500459671,5.17800045013428,9.10200023651123,-0.01200000010431,-20.1030006408691,-28.5520515441895,-32.3760032653809,-19.2690010070801,-9.17505073547363,1.77300012111664,5.92500019073486,3.97995018959045,2.28299999237061,7.31895017623901,8.15205001831055,9.2989501953125,3.67905020713806,7.44795036315918,4.19895029067993,3.63900017738342,14.3479509353638,19.7380504608154,19.8690013885498,9.02295017242432,5.66595029830933,8.51100063323975,9.49305057525635,9.54300022125244,SWING_RIGHT
0.21230000257492,0.24736249446869,0.24089999496937,0.18205000460148,0.00013749999925,0.21559999883175,0.52758747339249,1.15321254730225,2.96917510032654,7.46941232681274,8.1298246383667,7.12181234359741,4.76327514648438,-0.42583748698235,-2.22639989852905,0.27156248688698,0.21298749744892,0.0,-0.43133750557899,-1.19459998607636,-2.14541244506836,-3.01399993896484,-3.85948753356934,-4.57668733596802,-6.18997478485107,-5.36525011062622,-3.92479991912842,-2.07363748550415,1.19418752193451,3.11905002593994,-0.00013749999925,-0.20927499234676,-0.14231249690056,0.18383750319481,0.83957499265671,1.97436249256134,3.20952486991882,4.79531240463257,7.29973745346069,10.7691373825073,10.7739496231079,9.27451229095459,6.31248760223389,1.82888746261597,-0.14107500016689,-0.7180500626564,0.78495001792908,6.19095039367676,12.7920007705688,25.1059513092041,27.775951385498,32.1310501098633,38.4640502929688,24.07200050354,10.8889503479004,-9.85200023651123,-8.37900066375732,-6.91605043411255,-5.14695024490356,-2.97105002403259,2.94900012016296,2.62800002098084,1.47795009613037,1.33005011081696,-0.11805000901222,-1.75500011444092,-5.26800012588501,-30.0870018005371,-47.5270538330078,-47.8600540161133,-22.8390007019043,-18.1920013427734,-12.3790502548218,-7.08705043792725,-3.12000012397766,7.66800022125244,8.54400062561035,8.77695083618164,11.1130504608154,10.5529508590698,10.3090505599976,6.69795036315918,2.54700016975403,10.2160501480103,11.7930002212524,15.5689506530762,15.3799505233765,11.9280004501343,8.27400016784668,7.10100030899048,SWING_RIGHT
0.0,-0.00013749999925,-0.14726249873638,-0.00013749999925,-0.00013749999925,0.14519999921322,0.57887500524521,8.6693754196167,9.05354976654053,8.54590034484863,7.13432502746582,6.10829973220825,-3.4713249206543,-1.2392874956131,-0.29521250724792,0.60238748788834,0.53638750314713,0.3950375020504,0.24928750097752,0.0,-1.1620124578476,-2.98567509651184,-4.19099998474121,-4.08347511291504,-2.93727493286133,-1.24203753471375,0.57502502202988,3.96659994125366,1.83204996585846,0.53996247053146,0.00013749999925,-0.00013749999925,-0.00013749999925,-0.00013749999925,0.0,1.16132497787476,3.66588759422302,11.6656370162964,13.0351371765137,13.0037870407104,11.5435371398926,9.8489875793457,-1.79767501354218,-0.00013749999925,1.42683744430542,-0.11895000934601,0.04995000362396,0.88605004549026,2.02305006980896,8.04705047607422,28.1110515594482,22.5319519042969,14.4319505691528,-8.18805027008057,-11.8890008926392,-7.63500022888184,-7.98900032043457,3.3229501247406,4.20900011062622,2.31300020217896,2.43900012969971,2.80695009231567,2.72595024108887,2.37405014038086,2.62500023841858,4.8469500541687,-19.8870010375977,-38.5750503540039,-32.2080001831055,-24.3139514923096,-15.4890003204346,-8.14605045318604,-3.90300011634827,-1.04700005054474,1.46205008029938,9.05895042419434,8.63295078277588,7.64400053024292,8.21205043792725,8.92500019073486,6.01395034790039,-1.70700013637543,0.37800002098083,24.4380016326904,15.9600009918213,8.5420503616333,8.74095058441162,10.0740003585815,9.53805065155029,10.4100008010864,SWING_RIGHT
0.00013749999925,0.0,-0.00013749999925,-0.13983750343323,-0.16005000472069,0.15248750150204,0.68488746881485,0.64528751373291,-8.39822483062744,-8.73633766174316,-9.83496284484863,-11.3702878952026,-12.1371250152588,-3.73491239547729,-3.78839993476868,0.6766374707222,0.51741248369217,0.32394999265671,0.0,-0.59936249256134,-1.55416250228882,-2.41834998130798,-3.1516375541687,-2.83731245994568,-2.06139993667603,-0.40658751130104,1.51442503929138,3.49882507324219,4.47851228713989,4.86543750762939,0.0,0.00013749999925,0.00013749999925,0.28545001149178,0.72105002403259,1.88278746604919,3.33520007133484,4.3784122467041,-1.2971750497818,-0.59014999866486,-1.42174994945526,-3.44052505493164,-5.40306234359741,-0.7012500166893,-2.28827500343323,-0.04695000126958,2.61195015907288,5.70795011520386,9.47895050048828,18.3349514007568,36.0979499816895,29.5380020141602,18.2920513153076,-0.69105005264282,-18.6169509887695,-15.8809509277344,-7.39800024032593,-5.3860502243042,-2.08695006370544,2.56905007362366,2.55600023269653,2.00999999046326,2.54205012321472,3.69300007820129,3.16395020484924,5.5420503616333,-12.6850509643555,-27.7720508575439,-37.653003692627,-27.151050567627,-17.7829513549805,-10.1569509506226,-1.52100002765656,-0.8929500579834,-3.69000005722046,8.01000022888184,7.68495035171509,6.43695020675659,8.99895000457764,10.3999500274658,5.51805019378662,-1.48395001888275,-2.35095000267029,15.3199510574341,18.79905128479,10.6590003967285,9.55200004577637,9.58395004272461,9.8299503326416,10.5990009307861,SWING_RIGHT
0.00013749999925,0.0,0.18136249482632,0.39971250295639,0.5018749833107,0.53652501106262,0.71513748168945,1.17149996757507,2.26778745651245,5.6865873336792,7.13707494735718,6.96080017089844,6.17484998703003,4.38363742828369,0.26441249251366,0.16596250236034,0.20061250030994,0.26331248879433,0.25244998931885,0.0,-0.92042499780655,-2.04008746147156,-3.14448738098145,-4.10767507553101,-5.66967487335205,-6.14652490615845,-5.37831258773804,-3.98254990577698,-2.36266255378723,0.00013749999925,0.35722500085831,0.18892499804497,0.29562500119209,0.32807499170303,0.51150000095367,1.50342500209808,2.97206258773804,4.71404981613159,7.07712507247925,10.5718250274658,11.5142498016357,10.7200498580933,9.20919990539551,6.64248752593994,2.69609999656677,-1.96500015258789,-0.63405001163483,-0.61695003509521,2.34795022010803,11.6959505081177,34.6120529174805,39.8550033569336,45.7999534606934,35.8420524597168,19.4800510406494,8.59800052642822,-14.5110006332397,-10.8310508728027,-0.79695004224777,-1.12005007266998,1.300950050354,1.56900012493134,4.37295007705688,4.05495023727417,1.71300005912781,2.87205004692078,-4.57305002212524,-21.2689514160156,-46.5330009460449,-52.123950958252,-48.8749542236328,-30.8269519805908,-22.8150005340576,-15.1900510787964,-6.21300029754639,9.36600017547607,8.88195037841797,6.96195030212402,4.77300024032593,6.9810004234314,9.53595066070557,12.2320508956909,7.33095026016235,7.26795053482056,11.3650503158569,6.02295017242432,16.431001663208,19.4530506134033,10.9240503311157,5.95095014572144,SWING_RIGHT
0.29507499933243,0.16390000283718,0.0,0.0,0.0,0.42336249351501,1.27187502384186,2.18666243553162,11.4669494628906,10.7511253356934,8.93254947662354,7.12043762207031,-2.42426252365112,-3.28927493095398,-3.06116247177124,0.2727999985218,0.0,-0.00013749999925,0.0,-0.00013749999925,-0.70207500457764,-1.35520005226135,-1.76371252536774,-1.19693744182587,-0.00013749999925,1.43302500247955,2.95171236991882,3.60992503166199,4.10753726959229,3.47531247138977,1.44718754291534,0.59317499399185,0.0,-0.00013749999925,0.32174998521805,1.44031250476837,3.18216252326965,5.37721252441406,16.0146255493164,15.9292373657227,13.8458375930786,10.8004875183105,1.06589996814728,-1.38668751716614,-2.5249125957489,0.28200000524521,0.58905005455017,0.44700002670288,1.42905008792877,14.824951171875,27.9910507202148,36.3589515686035,24.6870002746582,-14.881950378418,-17.9110507965088,-4.80195045471191,-7.19400024414063,-2.36505007743835,4.39095020294189,5.29800033569336,3.30105018615723,3.21000003814697,3.16395020484924,3.10905003547668,5.19000005722046,9.44204998016357,-4.63095045089722,-25.9090518951416,-33.9370498657227,-23.1910514831543,-12.4170007705688,-1.88505005836487,-1.96800005435944,-1.17105007171631,1.46400010585785,9.89205074310303,9.06405067443848,9.25995063781738,9.76095008850098,9.77505016326904,-0.06195000186563,-4.36199998855591,0.30105000734329,21.1549510955811,16.9000511169434,11.4130506515503,8.80500030517578,9.7300500869751,8.55195045471191,9.85905075073242,SWING_RIGHT
0.00013749999925,0.00013749999925,0.22439999878407,0.56292498111725,0.40053749084473,0.27472499012947,0.52758747339249,1.25565004348755,3.26617503166199,7.85785007476807,9.43593788146973,7.90817499160767,0.00013749999925,-1.85487496852875,-2.2653124332428,0.00013749999925,0.17159999907017,0.1568875014782,0.37963750958443,-0.00013749999925,-1.06369996070862,-1.77402496337891,-2.78519988059998,-3.83061242103577,-5.22004985809326,-4.64282512664795,-3.0494749546051,1.22416245937347,2.91266250610352,2.96738743782043,0.0,0.0,0.26234999299049,0.87147498130798,1.37444996833801,2.66241240501404,3.86319994926453,5.65193748474121,8.31490039825439,11.3031873703003,11.4371128082275,9.55391216278076,2.51624989509583,0.28201249241829,-0.83765000104904,-1.16100001335144,0.6319500207901,1.1539500951767,2.56200003623962,27.5460014343262,31.3170013427734,43.3410034179688,47.3059539794922,28.2829513549805,11.6170501708984,-31.3980007171631,-1.73805010318756,2.83200001716614,1.67295002937317,-1.92900013923645,3.17400026321411,3.05205011367798,3.75795006752014,0.86595004796982,-0.62505000829697,0.13800001144409,-1.36005008220673,-27.3480014801025,-47.4310531616211,-49.9549522399902,-27.4170017242432,-18.5179500579834,-2.48805022239685,0.29295000433922,3.37500023841858,8.85105037689209,9.1429500579834,8.14004993438721,4.55595016479492,6.67005014419556,16.1299514770508,9.2629508972168,1.66800010204315,1.51200008392334,4.36905002593994,25.0290012359619,9.16005039215088,7.78095054626465,7.83795022964478,6.11205005645752,SWING_RIGHT
0.00013749999925,-0.00013749999925,-0.2743124961853,-0.37509998679161,-0.3634124994278,-0.29809999465942,0.0,0.43188750743866,1.22058749198914,0.0,0.0,0.0,0.0,2.33612489700317,3.03118753433228,0.14877499639988,0.00013749999925,0.00013749999925,-0.00013749999925,-0.38541248440742,-0.62713748216629,-0.92001247406006,-1.50328743457794,-2.15269994735718,0.0,0.0,0.0,0.0,-1.07799994945526,-1.44539999961853,0.22879999876022,0.15565000474453,0.00013749999925,0.26111251115799,0.50737500190735,0.6572499871254,0.90048748254776,1.4001624584198,2.19834995269775,0.0,0.0,0.0,0.0,0.20129999518394,-0.1544124931097,1.41195011138916,3.83295011520386,6.69900035858154,8.03295040130615,8.32695007324219,8.28194999694824,14.3869504928589,21.4570503234863,20.1670513153076,-1.91505014896393,3.45495009422302,6.35895013809204,2.9280002117157,2.76000022888184,4.34100008010864,1.86405003070831,0.49905002117157,1.01595008373261,2.4580500125885,2.64405012130737,2.69700002670288,3.88005018234253,1.11000001430511,0.35595002770424,-2.13405013084412,4.60995006561279,7.68900012969971,8.86995029449463,8.16795063018799,6.83400011062622,9.40200042724609,11.953950881958,9.35400009155273,6.36600017547607,7.6560001373291,6.64605045318604,4.4650502204895,-3.97395014762878,-10.1179504394531,4.921950340271,1.62495005130768,1.34505009651184,5.88705015182495,7.08900022506714,9.48105049133301,SWING_RIGHT
0.23223750293255,0.0,0.0,-0.13983750343323,0.0,0.0,0.0,0.0,0.0,5.87633752822876,6.5757999420166,6.28773736953735,2.46963739395142,0.0,-1.93668746948242,1.75890004634857,1.47578752040863,1.36097502708435,1.05421245098114,0.0,0.0,0.0,0.0,0.0,0.00013749999925,0.1883749961853,0.36492499709129,1.53683745861053,2.86343741416931,4.45142507553101,0.63139998912811,0.48743748664856,0.39710000157356,0.26922500133514,0.0,0.0,0.0,0.0,0.0,-0.59716248512268,-0.31363749504089,0.00013749999925,1.09216248989105,1.13767504692078,0.68529999256134,3.65595006942749,1.08900010585785,3.44295024871826,4.7310004234314,25.6759510040283,40.1329536437988,38.7229499816895,46.5280532836914,43.360050201416,-5.31195020675659,-1.44495010375977,-1.03605008125305,0.8400000333786,1.38795006275177,4.49895000457764,5.58000040054321,5.52000045776367,4.46700000762939,5.30205011367798,-0.62505000829697,-3.09105014801025,-21.4339504241943,-43.0090522766113,-49.1719512939453,-27.5490016937256,-17.7750015258789,-8.54100036621094,0.0949500054121,3.1279501914978,3.37500023841858,7.09305047988892,7.79700040817261,8.26905059814453,4.85205030441284,-15.8500509262085,-23.0830516815186,-22.9159507751465,-3.95805025100708,1.92405009269714,39.8590507507324,21.4879512786865,12.3300008773804,7.52400016784668,7.02195024490356,10.8499507904053,SWING_RIGHT
1.0896874666214,1.03688752651215,1.06534993648529,1.20009994506836,1.30968749523163,4.3173623085022,7.62052488327026,11.0649003982544,14.6630001068115,15.5623874664307,6.54376268386841,1.26719999313354,-2.54416251182556,-4.49900007247925,-4.14177513122559,0.37716248631477,0.36066249012947,0.39421248435974,0.61435002088547,0.29878750443459,0.14849999547005,0.27692499756813,0.49472498893738,0.51810002326965,0.45278748869896,0.75900000333786,1.83204996585846,3.30632495880127,4.03232479095459,3.8200249671936,0.78100001811981,0.63827496767044,0.6349750161171,0.77178752422333,1.11553752422333,3.53003740310669,4.6851749420166,5.40581226348877,5.63832473754883,5.40732479095459,2.91706252098084,1.89461243152618,0.68653750419617,-0.21656249463558,-0.35241249203682,4.17495012283325,4.42200040817261,3.22995018959045,7.60395050048828,17.8920001983643,45.9250526428223,44.22900390625,51.961051940918,36.4459533691406,1.47900009155273,5.72205018997192,4.81500005722046,0.7540500164032,-0.59295004606247,2.26905012130737,5.87400007247925,6.1230001449585,5.889000415802,4.54800033569336,4.64805030822754,0.24105000495911,-15.0670509338379,-42.4050025939941,-59.4379539489746,-46.339054107666,-1.68105006217957,1.69605004787445,4.06695032119751,4.47795009613037,3.21705007553101,4.93395042419434,3.96405029296875,4.19595003128052,3.22905015945435,-3.28995013237,-17.7060012817383,-26.0140514373779,-3.59400010108948,13.5169506072998,32.284049987793,7.82595014572144,3.45900011062622,5.43705034255981,8.91105079650879,12.3030004501343,SWING_RIGHT
