gyro_x_0,gyro_y_0,gyro_z_0,acc_x_0,acc_y_0,acc_z_0,gyro_x_1,gyro_y_1,gyro_z_1,acc_x_1,acc_y_1,acc_z_1,gyro_x_2,gyro_y_2,gyro_z_2,acc_x_2,acc_y_2,acc_z_2,gyro_x_3,gyro_y_3,gyro_z_3,acc_x_3,acc_y_3,acc_z_3,gyro_x_4,gyro_y_4,gyro_z_4,acc_x_4,acc_y_4,acc_z_4,gyro_x_5,gyro_y_5,gyro_z_5,acc_x_5,acc_y_5,acc_z_5,gyro_x_6,gyro_y_6,gyro_z_6,acc_x_6,acc_y_6,acc_z_6,gyro_x_7,gyro_y_7,gyro_z_7,acc_x_7,acc_y_7,acc_z_7,gyro_x_8,gyro_y_8,gyro_z_8,acc_x_8,acc_y_8,acc_z_8,gyro_x_9,gyro_y_9,gyro_z_9,acc_x_9,acc_y_9,acc_z_9,gyro_x_10,gyro_y_10,gyro_z_10,acc_x_10,acc_y_10,acc_z_10,gyro_x_11,gyro_y_11,gyro_z_11,acc_x_11,acc_y_11,acc_z_11,gyro_x_12,gyro_y_12,gyro_z_12,acc_x_12,acc_y_12,acc_z_12,gyro_x_13,gyro_y_13,gyro_z_13,acc_x_13,acc_y_13,acc_z_13,gyro_x_14,gyro_y_14,gyro_z_14,acc_x_14,acc_y_14,acc_z_14,motion_type
3.06844997406006,2.41958737373352,1.56461250782013,0.29177498817444,-0.88302499055862,-1.10385000705719,-0.36671251058578,-0.34718748927116,-1.07648754119873,-1.47028744220734,-0.64899998903275,-0.91231250762939,-20.4179248809814,-20.4987754821777,-0.9259250164032,1.54935002326965,1.31587493419647,0.12828749418259,-1.5329874753952,-1.64697504043579,-0.62576252222061,0.10587500035763,0.68213748931885,0.25464999675751,-1.74418747425079,-3.23510003089905,-5.89379978179932,-27.5647621154785,-37.0765991210938,-15.5552377700806,0.33563750982285,-0.31418749690056,0.6318125128746,2.34946250915527,2.04379987716675,0.43285000324249,-0.17242500185966,-1.60503745079041,-2.67162489891052,-1.53752493858337,-0.15193749964237,-3.92424988746643,-16.2300872802734,-21.6206378936768,-11.9675874710083,-4.48095035552979,0.43395000696182,-2.13195013999939,-1.77795004844666,-0.09105000644922,-1.91205012798309,-2.70705008506775,-9.22800064086914,2.85300016403198,1.1910001039505,5.1889500617981,-2.53695011138916,-5.0779504776001,-3.70500016212463,0.1710000038147,4.87305021286011,3.90000009536743,5.95500040054321,4.53299999237061,4.30500030517578,4.74795007705688,4.72200012207031,8.57505035400391,6.00300025939941,4.93695020675659,0.70500004291534,-5.21400022506714,-16.0009498596191,-20.6209506988525,-17.9680500030518,5.92095041275024,6.16500043869019,10.0380001068115,9.82200050354004,8.14800071716309,9.03404998779297,14.5620002746582,19.7059516906738,29.9640007019043,10.0140008926392,1.25295007228851,-7.9980001449585,-15.5790004730225,-21.8820018768311,-7.64595031738281,SHAKE
25.7776756286621,22.3246364593506,27.1269626617432,7.18231248855591,1.26541244983673,-27.2342128753662,-35.0336265563965,-7.76943731307983,16.6575756072998,31.1349506378174,18.1275882720947,4.52498769760132,-17.9221630096436,-39.1599998474121,-19.5628128051758,5.77032518386841,17.7245750427246,19.7830867767334,6.95488739013672,1.890625,-4.76231241226196,-17.0625133514404,-14.1109371185303,18.7987251281738,18.6404628753662,1.46286249160767,2.75618743896484,0.87463748455048,-15.097225189209,-16.1856746673584,-8.67790031433105,-0.89966249465942,4.74691247940063,8.04622459411621,2.02991247177124,-6.04174995422363,-13.7973003387451,-9.45298767089844,-0.81523752212524,2.47802495956421,6.39979982376099,5.85419988632202,-2.88186240196228,-8.96389961242676,-5.65977478027344,2.71695017814636,9.41595077514648,8.16795063018799,-1.58805012702942,-6.7900505065918,-2.60400009155273,-1.9690500497818,1.42095005512238,10.7380504608154,13.827000617981,0.21900001168251,-6.49305009841919,-6.0600004196167,-0.11505000293255,0.86805003881454,-5.88000011444092,45.9829521179199,18.4600505828857,-2.29695010185242,-17.4460506439209,-24.9370517730713,-26.8270511627197,7.22700023651123,47.5609512329102,23.9850006103516,3.35895013809204,-14.7919502258301,-25.5670509338379,-35.3340034484863,-18.9330005645752,0.26805001497269,44.3340034484863,8.69204998016357,4.44000005722046,-4.5930004119873,-35.6220016479492,-14.403000831604,32.3710517883301,44.2669525146484,12.2580003738403,7.10805034637451,1.75095009803772,-32.9089508056641,-30.3730506896973,28.606050491333,SHAKE
-7.76943731307983,16.6575756072998,31.1349506378174,18.1275882720947,4.52498769760132,-17.9221630096436,-39.1599998474121,-19.5628128051758,9.49973773956299,27.355899810791,23.7066497802734,9.33074951171875,-7.24652481079102,-35.8220481872559,-24.5518627166748,-14.1109371185303,18.7987251281738,18.6404628753662,1.46286249160767,2.75618743896484,0.87463748455048,-15.097225189209,-16.1856746673584,15.4444122314453,20.8782749176025,6.9756498336792,4.65561246871948,0.56512498855591,-15.5797128677368,-15.3650751113892,-9.45298767089844,-0.81523752212524,2.47802495956421,6.39979982376099,5.85419988632202,-2.88186240196228,-8.96389961242676,-5.65977478027344,-0.24901250004768,-2.65650010108948,0.18658749759197,6.87898731231689,-4.09268760681152,-11.0695753097534,-5.53767490386963,1.42095005512238,10.7380504608154,13.827000617981,0.21900001168251,-6.49305009841919,-6.0600004196167,-0.11505000293255,0.86805003881454,11.1310501098633,4.12005043029785,2.61195015907288,-2.19195008277893,-6.7900505065918,-5.13495016098022,15.6739511489868,7.22700023651123,47.5609512329102,23.9850006103516,3.35895013809204,-14.7919502258301,-25.5670509338379,-35.3340034484863,-18.9330005645752,37.5930023193359,32.2399520874023,4.14900016784668,-14.0520009994507,-24.9060020446777,-31.1040019989014,-41.5390510559082,32.3710517883301,44.2669525146484,12.2580003738403,7.10805034637451,1.75095009803772,-32.9089508056641,-30.3730506896973,28.606050491333,56.7670516967773,15.9169511795044,11.2060508728027,0.3570000231266,-29.5650005340576,-40.0560035705566,29.7460517883301,SHAKE
-24.5518627166748,7.53857517242432,18.5311508178711,21.5133876800537,17.6489505767822,6.84543752670288,-3.39968752861023,-2.77598738670349,6.04986238479614,24.2339630126953,25.9898376464844,11.1793003082275,4.05693769454956,-27.1790752410889,-36.2406005859375,-15.3650751113892,11.3103370666504,17.9031867980957,7.81907510757446,10.6288871765137,10.8077745437622,22.3640995025635,21.6055126190186,12.1643495559692,18.1820373535156,10.11243724823,3.0832998752594,2.80953741073608,-1.60476243495941,-14.6579122543335,-5.53767490386963,-2.17786240577698,-6.31207513809204,-4.6820125579834,2.05823755264282,-5.66046237945557,-16.9468746185303,-10.4548120498657,2.7355625629425,0.92757499217987,1.13382494449615,3.85921239852905,-0.70853751897812,-11.2517623901367,-18.853588104248,15.6739511489868,26.6290512084961,-8.63205051422119,-7.48695039749146,-2.80995011329651,-2.71395015716553,2.89395022392273,0.71205002069473,8.36400032043457,-0.32595002651215,-2.36700010299683,-0.08700000494719,-4.60095024108887,-2.42895007133484,-6.24195051193237,-41.5390510559082,11.8590002059937,35.9910011291504,9.36600017547607,-7.80105018615723,-21.1789512634277,-29.2290019989014,-26.3340015411377,25.7640018463135,39.3990020751953,14.2660503387451,-6.49095010757446,-17.965051651001,-22.4580001831055,-31.3729515075684,29.7460517883301,52.2090034484863,1.99500012397766,20.5660514831543,-1.26405000686646,-21.4080009460449,-37.0879516601563,10.6720504760742,78.7219543457031,13.921950340271,13.6440010070801,4.7920503616333,-5.09595012664795,-49.0060539245605,-11.4229507446289,SHAKE
-2.77598738670349,6.04986238479614,24.2339630126953,25.9898376464844,11.1793003082275,4.05693769454956,-27.1790752410889,-36.2406005859375,5.62443733215332,26.190450668335,27.3399505615234,10.972225189209,6.22283744812012,-25.4552364349365,-37.9904251098633,21.6055126190186,12.1643495559692,18.1820373535156,10.11243724823,3.0832998752594,2.80953741073608,-1.60476243495941,-14.6579122543335,5.27092504501343,17.7441005706787,10.7600622177124,1.73442494869232,4.65148735046387,0.44797500967979,-15.2417373657227,-10.4548120498657,2.7355625629425,0.92757499217987,1.13382494449615,3.85921239852905,-0.70853751897812,-11.2517623901367,-18.853588104248,0.49816250801086,-1.05393743515015,-0.88247501850128,4.39559984207153,0.68158751726151,-13.8921747207642,-22.02392578125,0.71205002069473,8.36400032043457,-0.32595002651215,-2.36700010299683,-0.08700000494719,-4.60095024108887,-2.42895007133484,-6.24195051193237,16.3489513397217,4.94205045700073,0.78405004739761,-1.86600005626678,-5.82495021820068,-0.84105002880096,-3.46605014801025,-26.3340015411377,25.7640018463135,39.3990020751953,14.2660503387451,-6.49095010757446,-17.965051651001,-22.4580001831055,-31.3729515075684,27.3570003509521,35.5429534912109,11.4880504608154,-5.6380500793457,-15.1609506607056,-16.5400505065918,-17.2080001831055,10.6720504760742,78.7219543457031,13.921950340271,13.6440010070801,4.7920503616333,-5.09595012664795,-49.0060539245605,-11.4229507446289,78.8320541381836,10.4280004501343,10.6939506530762,2.23695015907288,-5.67300033569336,-34.1400032043457,-16.4599514007568,SHAKE
-2.19408750534058,19.403450012207,28.4623622894287,13.996262550354,7.73382472991943,-4.56733751296997,-8.00222492218018,1.6076500415802,6.36803770065308,21.4739246368408,22.8111114501953,10.6598253250122,4.19595003128052,-18.8838367462158,-33.8084983825684,-3.964674949646,21.4368000030518,21.1301746368408,2.1544873714447,5.0391001701355,11.6469373703003,31.7789993286133,25.1458625793457,12.579737663269,25.4346122741699,15.0889749526978,-1.39631247520447,5.96076250076294,12.356162071228,-5.04295015335083,-5.8927001953125,-2.1067750453949,-0.2910875082016,3.34166240692139,3.25132489204407,-13.5356378555298,-14.9439125061035,0.13997499644756,2.841712474823,-2.39744997024536,-8.38213729858398,-9.22033786773682,-3.05511260032654,-4.07591247558594,-15.8265247344971,10.0219507217407,8.18205070495605,-0.41700002551079,-2.206050157547,-4.90500020980835,-4.27305030822754,2.34300017356873,1.57905006408691,8.59200000762939,-5.67405033111572,-4.92000007629395,-0.02700000070035,-0.5869500041008,-2.59395003318787,2.50395011901855,-0.2710500061512,33.9600028991699,22.6030502319336,2.02500009536743,-12.4350004196167,-20.6410503387451,-30.7279510498047,-24.1590003967285,24.0090007781982,36.6780014038086,14.7349510192871,-2.07195019721985,-9.45105075836182,-16.8660011291504,-19.7299518585205,49.243953704834,37.5160522460938,9.60195064544678,7.00800037384033,-1.57995009422302,-27.7879505157471,-33.201000213623,11.7379503250122,75.8890533447266,15.4860010147095,12.6529502868652,2.66100001335144,-0.09195000678301,-14.5650005340576,-40.8130531311035,SHAKE
6.36803770065308,21.4739246368408,22.8111114501953,10.6598253250122,4.19595003128052,-18.8838367462158,-33.8084983825684,-15.5227870941162,4.72944974899292,23.8275127410889,24.1030616760254,9.90563774108887,8.66483783721924,-8.54191207885742,-20.1953125,12.579737663269,25.4346122741699,15.0889749526978,-1.39631247520447,5.96076250076294,12.356162071228,-5.04295015335083,-9.64493751525879,3.6730375289917,18.8702239990234,14.3488121032715,-1.98934996128082,-19.6017246246338,-19.5225257873535,-23.2711868286133,2.841712474823,-2.39744997024536,-8.38213729858398,-9.22033786773682,-3.05511260032654,-4.07591247558594,-15.8265247344971,-9.97301197052002,0.76601248979568,-0.5458750128746,-5.68919992446899,-5.25497484207153,-10.0810871124268,2.91238737106323,-2.64563751220703,8.59200000762939,-5.67405033111572,-4.92000007629395,-0.02700000070035,-0.5869500041008,-2.59395003318787,2.50395011901855,-2.2300500869751,-0.76695001125336,0.05595000088215,-1.557000041008,1.31100010871887,0.51794999837875,0.86595004796982,2.09895014762878,24.0090007781982,36.6780014038086,14.7349510192871,-2.07195019721985,-9.45105075836182,-16.8660011291504,-19.7299518585205,-20.3700008392334,28.4659519195557,34.7959518432617,14.7900009155273,-0.53400003910065,-7.87500047683716,-14.0929508209229,-17.0310001373291,75.8890533447266,15.4860010147095,12.6529502868652,2.66100001335144,-0.09195000678301,-14.5650005340576,-40.8130531311035,1.81095004081726,78.8320541381836,4.77600002288818,7.70700025558472,3.31500005722046,-5.00205039978027,-14.3400011062622,-32.9089508056641,SHAKE
1.87508749961853,26.8327121734619,29.0438499450684,5.03305006027222,4.21946239471436,5.19158744812012,-3.05442500114441,-5.01929998397827,5.15748739242554,29.1571502685547,31.2911491394043,9.42548751831055,5.62842512130737,-1.66484999656677,-21.5792503356934,3.30893754959106,-18.0706615447998,-9.93671226501465,-1.60091245174408,-7.30193758010864,-17.8527240753174,1.40318751335144,16.5793380737305,-8.51551246643066,-10.3802871704102,1.70321249961853,-1.36647498607636,-12.5261125564575,-15.4001369476318,3.94198751449585,5.57383728027344,-9.86232471466064,-1.78227496147156,-0.52387499809265,-5.98977518081665,-34.9491996765137,-37.0319137573242,-6.33751249313354,-9.42466259002686,-16.5191116333008,-11.5270376205444,-6.07296228408813,-8.58756256103516,-25.0188121795654,-25.1099758148193,-2.70405006408691,6.81195020675659,1.75905013084412,-3.68595027923584,-4.91700029373169,-2.09400010108948,6.56595039367676,2.4300000667572,-6.39000034332275,-0.04395000264049,1.6560001373291,-0.54195004701614,-3.20505023002625,-2.35695004463196,6.47505044937134,28.9759521484375,33.5430030822754,14.9100008010864,1.78095006942749,-8.52705001831055,-17.6299514770508,-23.2729511260986,-22.10205078125,24.5290508270264,40.6810531616211,17.3749504089355,2.83395004272461,-9.33405017852783,-17.8669509887695,-22.4629516601563,70.2340545654297,18.3870010375977,10.3150501251221,2.82600021362305,-2.23395013809204,-19.4820003509521,-29.0580005645752,-3.83100008964539,78.8320541381836,22.4269504547119,11.2780504226685,4.13595008850098,0.12705001235008,-18.3349514007568,-32.3370018005371,SHAKE
18.7426242828369,23.203125,7.81742477416992,4.58782482147217,5.03951263427734,17.7025756835938,15.2213878631592,2.25857496261597,17.6725997924805,24.1192874908447,10.0082120895386,3.18009996414185,1.197350025177,-2.70985007286072,-11.5251121520996,-9.74861240386963,-6.48312473297119,1.40648746490479,0.30153748393059,-1.15953743457794,-0.53597497940063,-0.62576252222061,-1.56378746032715,0.47877499461174,3.89124989509583,4.93487501144409,0.86198747158051,-4.09887504577637,1.369225025177,7.88205003738403,8.94849967956543,25.3647632598877,15.853611946106,2.66131258010864,0.9589250087738,-10.1366376876831,-14.2690620422363,-4.89720010757446,2.35606241226196,27.4153003692627,27.7252254486084,2.96834993362427,-3.97993755340576,-30.5497493743896,-36.0108375549316,-0.88695001602173,1.63695013523102,1.37805008888245,-0.27600002288818,-2.70405006408691,4.10595035552979,1.85205006599426,-4.99395036697388,-7.15395021438599,-0.92700004577637,0.98505002260208,-4.18395042419434,-4.47900009155273,0.23100000619888,8.99400043487549,37.5169525146484,22.1689510345459,6.93705034255981,-2.89605021476746,-9.29505062103271,-16.2070503234863,-18.3390007019043,3.39495015144348,42.6010513305664,31.3660507202148,12.3589506149292,-1.00394999980927,-9.43200016021729,-17.9370002746582,-19.8210010528564,37.6549530029297,12.6409502029419,3.21900010108948,-2.93505024909973,-8.2669506072998,-28.6909523010254,-10.9830007553101,20.635950088501,43.6330528259277,20.6980514526367,10.1530504226685,2.63700008392334,-2.40105009078979,-15.892050743103,-27.3000011444092,SHAKE
24.1192874908447,10.0082120895386,3.18009996414185,1.197350025177,-2.70985007286072,-11.5251121520996,-9.53933715820313,0.16747500002384,20.6292629241943,19.0025005340576,0.2926000058651,2.62927508354187,-1.82421243190765,-11.5871248245239,-9.84321212768555,3.89124989509583,4.93487501144409,0.86198747158051,-4.09887504577637,1.369225025177,7.88205003738403,-7.3492374420166,-7.18946266174316,5.19694995880127,6.76981258392334,5.33829975128174,-1.1006875038147,-1.12708747386932,12.7419872283936,13.3186626434326,27.4153003692627,27.7252254486084,2.96834993362427,-3.97993755340576,-30.5497493743896,-36.0108375549316,-21.8891754150391,-8.89680004119873,23.4078617095947,40.2686614990234,23.5072746276855,3.12578749656677,-2.75453758239746,-28.4272994995117,-28.1719627380371,-0.92700004577637,0.98505002260208,-4.18395042419434,-4.47900009155273,0.23100000619888,8.99400043487549,-2.20905017852783,-11.9560508728027,-0.966000020504,5.39895009994507,0.22095000743866,-4.08405017852783,-4.35705041885376,5.33505010604858,-1.28205001354218,31.3660507202148,12.3589506149292,-1.00394999980927,-9.43200016021729,-17.9370002746582,-19.8210010528564,-16.9230003356934,16.207950592041,39.8569526672363,24.7630519866943,8.24505043029785,-4.63500022888184,-15.2920503616333,-22.7149505615234,-22.4659519195557,20.6980514526367,10.1530504226685,2.63700008392334,-2.40105009078979,-15.892050743103,-27.3000011444092,-9.69195079803467,41.3479537963867,32.0689506530762,21.6030006408691,7.57095050811768,0.42900002002716,-10.6069507598877,-40.1989517211914,-9.77100086212158,SHAKE
20.6292629241943,19.0025005340576,0.2926000058651,2.62927508354187,-1.82421243190765,-11.5871248245239,-9.84321212768555,-0.17943750321865,20.5391998291016,24.3179740905762,6.64633750915527,2.20000004768372,-2.95514988899231,-19.6747379302979,-20.0356750488281,5.19694995880127,6.76981258392334,5.33829975128174,-1.1006875038147,-1.12708747386932,12.7419872283936,13.3186626434326,-4.04689979553223,-3.00052499771118,4.20227479934692,3.40202498435974,0.5321249961853,-0.42226248979568,6.58047485351563,-9.00143718719482,23.4078617095947,40.2686614990234,23.5072746276855,3.12578749656677,-2.75453758239746,-28.4272994995117,-28.1719627380371,-8.2487621307373,-1.50479996204376,29.5750122070313,28.4884872436523,1.9346250295639,-17.7192115783691,-24.0465507507324,-21.4181003570557,-0.966000020504,5.39895009994507,0.22095000743866,-4.08405017852783,-4.35705041885376,5.33505010604858,-1.28205001354218,-4.125,-5.69295024871826,2.29305005073547,-0.40800002217293,-5.95395040512085,-5.37495040893555,1.76595008373261,-4.125,39.8569526672363,24.7630519866943,8.24505043029785,-4.63500022888184,-15.2920503616333,-22.7149505615234,-22.4659519195557,6.57495021820068,52.4640007019043,28.8199520111084,2.50605010986328,-14.9719505310059,-25.4569511413574,-27.3370513916016,-19.3230018615723,32.0689506530762,21.6030006408691,7.57095050811768,0.42900002002716,-10.6069507598877,-40.1989517211914,-9.77100086212158,34.1700019836426,47.9220008850098,20.8609504699707,10.4950504302979,-1.07700002193451,-23.053050994873,-32.2000503540039,-0.79695004224777,SHAKE
23.8495121002197,25.7642002105713,4.0595498085022,5.92350006103516,4.7590126991272,-5.25346231460571,-9.30022525787354,-2.34684991836548,12.8392000198364,22.2490119934082,12.837550163269,4.07714986801147,-0.07150000333786,-14.9685249328613,-15.2855997085571,18.582986831665,19.921688079834,4.90297508239746,-1.24616253376007,-7.35459995269775,1.0118625164032,-3.26081252098084,-12.514012336731,8.85128784179688,10.2698745727539,-0.54023748636246,0.26606249809265,-1.00141251087189,7.38141250610352,-5.16230010986328,15.1335248947144,30.3058242797852,18.1341876983643,-0.40191251039505,-11.4189624786377,-35.7131500244141,-38.4649391174316,-15.3687877655029,7.66260004043579,38.3851890563965,31.6222496032715,4.47782516479492,-0.55783748626709,-23.9252758026123,-38.6494636535645,-4.14600038528442,-6.02400016784668,-3.26205015182495,-1.75605010986328,-2.2350001335144,6.83895015716553,2.82195019721985,-9.02505016326904,-7.34805011749268,3.27300024032593,1.33695006370544,-3.1690502166748,-3.74595022201538,6.04095029830933,2.30295014381409,41.623950958252,25.5820503234863,5.91195011138916,-6.72495031356812,-12.7540502548218,-20.7439517974854,-23.5170001983643,-5.41305017471313,44.7139511108398,30.3079509735107,7.90005016326904,-8.01405048370361,-15.9319505691528,-23.6269512176514,-26.9730014801025,33.1039505004883,12.4969501495361,6.66495037078857,-0.08505000174046,-7.27695035934448,-29.4649505615234,-18.5700016021729,18.127950668335,55.4880027770996,20.5950012207031,8.06595039367676,0.16095000505447,-11.3080501556396,-37.873950958252,-17.8780517578125,SHAKE
18.8740749359131,-1.21687495708466,2.46468758583069,3.20732498168945,14.1301870346069,31.9358863830566,21.8101119995117,0.34333750605583,15.2882127761841,14.4060125350952,-0.24543750286102,4.19595003128052,14.4179744720459,22.7235240936279,12.3507995605469,31.347936630249,16.1844367980957,12.6395502090454,6.26381254196167,-1.7135249376297,10.1491498947144,30.2421627044678,22.7859497070313,12.5871620178223,19.6050243377686,16.3318367004395,3.30398750305176,-1.13753747940063,15.3414249420166,15.4364376068115,13.0103874206543,-1.7381374835968,-17.4212493896484,0.4794625043869,-3.43736243247986,-0.88563752174377,8.65768718719482,11.3132247924805,18.5877990722656,28.3941631317139,14.5890245437622,2.77158737182617,1.35162496566772,16.1470375061035,17.0279998779297,2.5969500541687,-20.3800506591797,-8.13600063323975,-1.08495008945465,3.26805019378662,15.3430509567261,0.76500004529953,-14.3749504089355,-22.4730014801025,-6.87405014038086,-4.95105028152466,0.3199500143528,15.9019508361816,0.77700001001358,-14.8020009994507,-13.3530006408691,29.8429508209229,11.8489503860474,-2.63700008392334,-12.796950340271,-24.4699516296387,-16.4730014801025,20.8519515991211,48.117000579834,29.9100017547607,8.17094993591309,-7.93995046615601,-28.1490020751953,-20.2240505218506,9.72300052642822,-12.1300506591797,41.1970520019531,-6.0130500793457,-6.52800035476685,-5.77305030822754,-8.72399997711182,1.21005010604858,9.32100009918213,14.3770503997803,-15.6120004653931,-5.39505004882813,3.16605019569397,-6.56595039367676,-2.81295013427734,-0.34605002403259,SHAKE
12.3507995605469,0.36629998683929,2.84157490730286,1.64559996128082,-0.73273748159409,4.23651266098022,3.5648250579834,0.80905002355576,4.58974981307983,10.7175750732422,6.1136622428894,0.62452501058578,5.80277490615845,5.14538764953613,1.0173624753952,15.4364376068115,5.69291257858276,4.18632507324219,2.14376258850098,2.91252493858337,-4.72711229324341,-10.920524597168,-6.81780004501343,4.70181226730347,8.96444988250732,9.08036231994629,4.58864974975586,-3.65007495880127,-8.80316257476807,-5.53231239318848,17.0279998779297,13.0054378509521,31.012300491333,22.4841365814209,2.90441250801086,-2.99832487106323,-26.400411605835,-21.5382747650146,7.85936260223389,26.6523132324219,25.1525993347168,5.28508758544922,-2.85738754272461,-25.1208381652832,-19.6072254180908,-14.8020009994507,-21.9750003814697,-18.5089511871338,-8.89605045318604,-4.94895029067993,16.5409507751465,8.92500019073486,-25.6459503173828,-30.433952331543,-15.7810506820679,-7.9350004196167,-3.21495008468628,25.3240509033203,-2.0269501209259,-21.3540000915527,9.72300052642822,41.3370018005371,37.4500503540039,15.9229507446289,-3.77700018882751,-33.1810531616211,-35.3119506835938,7.0090503692627,48.4189529418945,35.0239524841309,11.707950592041,-8.11500072479248,-35.7529525756836,-27.2800521850586,12.6109504699707,-0.34605002403259,13.9030504226685,-1.35900008678436,-0.78900003433228,3.60195016860962,-8.01705074310303,-3.59895014762878,13.5079507827759,16.4509506225586,-11.5530004501343,-1.79295003414154,9.19905090332031,-11.6149501800537,-4.14705038070679,6.57195043563843,SHAKE
0.2043250054121,3.87557506561279,1.54151248931885,-2.14238739013672,2.08257508277893,0.74731248617172,-11.2888870239258,-9.53273773193359,6.23672485351563,2.32760000228882,-6.18254995346069,-0.47382500767708,7.4886622428894,1.68341243267059,-4.95591259002686,3.91214990615845,4.08347511291504,4.39601230621338,4.824049949646,-3.16662502288818,-12.5643377304077,-14.6965503692627,-5.56599998474121,4.00867509841919,5.08791255950928,6.58666229248047,3.95642495155334,-8.02229976654053,-14.7173128128052,-11.5341873168945,10.9029245376587,29.7681999206543,25.0690002441406,4.8449501991272,-0.93582499027252,-19.56418800354,-30.5588245391846,-9.80031204223633,16.1737117767334,30.7862491607666,22.4738254547119,5.57095003128052,-3.09512495994568,-30.2869873046875,-29.5960502624512,-23.5339508056641,-18.6379508972168,-12.9889507293701,-6.98205041885376,3.17205023765564,16.6680011749268,1.74000012874603,-28.7410507202148,-33.3630027770996,-16.0139999389648,-9.76200008392334,-4.9680004119873,4.06800031661987,28.3750514984131,-12.9169502258301,35.7439498901367,35.9890518188477,19.9399509429932,0.6360000371933,-9.34605026245117,-29.2890014648438,-30.5659523010254,15.0079507827759,46.359001159668,31.4020519256592,13.3510503768921,-4.20600032806396,-20.1139507293701,-38.8000526428223,-25.7680511474609,9.95895004272461,-3.7110002040863,0.73800003528595,5.62095022201538,2.42895007133484,-12.7639503479004,-3.19200015068054,16.6600513458252,17.9269504547119,-5.41605043411255,-0.57105004787445,6.59595012664795,0.25905001163483,-16.0530014038086,-2.67705011367798,SHAKE
6.23672485351563,2.32760000228882,-6.18254995346069,-0.47382500767708,7.4886622428894,1.68341243267059,-4.95591259002686,-1.40676248073578,8.41403770446777,-1.34337496757507,-11.37619972229,4.86433744430542,15.7227125167847,12.6982622146606,4.61945009231567,4.00867509841919,5.08791255950928,6.58666229248047,3.95642495155334,-8.02229976654053,-14.7173128128052,-11.5341873168945,-2.97068738937378,1.68795001506805,6.73420000076294,9.05423736572266,-0.21917499601841,-7.64912509918213,-7.61915016174316,-3.82181239128113,16.1737117767334,30.7862491607666,22.4738254547119,5.57095003128052,-3.09512495994568,-30.2869873046875,-29.5960502624512,0.30456250905991,20.4186115264893,32.6115608215332,19.4862251281738,3.36077499389648,-3.85577487945557,-30.4193992614746,-26.6340255737305,-33.3630027770996,-16.0139999389648,-9.76200008392334,-4.9680004119873,4.06800031661987,28.3750514984131,-12.9169502258301,-30.6349506378174,-34.7329521179199,-15.9780006408691,-8.32800006866455,-3.02100014686584,9.88005065917969,21.7740001678467,-20.2309513092041,46.359001159668,31.4020519256592,13.3510503768921,-4.20600032806396,-20.1139507293701,-38.8000526428223,-25.7680511474609,26.7750015258789,44.569953918457,25.0240516662598,8.18505001068115,-4.75695037841797,-22.1449508666992,-38.2150535583496,-22.068000793457,17.9269504547119,-5.41605043411255,-0.57105004787445,6.59595012664795,0.25905001163483,-16.0530014038086,-2.67705011367798,24.3190517425537,21.2820014953613,-3.73800015449524,-3.32595014572144,-0.39705002307892,0.69705003499985,-8.51294994354248,4.09305000305176,SHAKE
-0.92496252059937,11.0411128997803,12.4529628753662,-0.74043750762939,-1.0896874666214,-3.88520002365112,-12.1030244827271,-7.84588766098022,0.82458752393723,-1.36523747444153,-2.54484987258911,0.78320002555847,1.10220003128052,-0.38513749837875,-2.27782487869263,-1.34901249408722,5.16725015640259,9.34683704376221,6.59023761749268,2.04819989204407,-6.72704982757568,-7.15673732757568,-1.79629993438721,-4.94986248016357,-2.88832497596741,2.3619749546051,-1.27311253547668,-6.99696254730225,-19.3870868682861,-17.9891242980957,-3.01716256141663,12.7754001617432,16.9761619567871,4.87327480316162,0.56471252441406,-9.07279968261719,-23.4750995635986,-13.2240619659424,21.0183868408203,30.5377864837646,13.7554998397827,2.21113753318787,-0.09652499854565,22.9651126861572,20.9280490875244,-8.16495037078857,-21.6010513305664,-19.0120506286621,-11.0460004806519,-2.17005014419556,24.6720008850098,-7.16595029830933,-28.0170021057129,-28.8799514770508,-12.8880004882813,-4.09305000305176,1.96305012702942,7.38000011444092,6.00300025939941,2.86995005607605,10.5490503311157,34.6860008239746,30.070951461792,11.7180004119873,-11.0800504684448,-36.5479507446289,-22.8199520111084,30.681001663208,41.4130516052246,21.0100517272949,5.55795049667358,-3.02295017242432,-3.81105017662048,-0.06705000251532,5.84505033493042,14.0040006637573,11.1559505462646,10.7059507369995,8.50695037841797,7.64700031280518,-5.8279504776001,-1.31895005702972,14.9329509735107,9.39795017242432,3.73605012893677,5.97795009613037,0.75705003738403,-5.58900022506714,-4.7790002822876,0.26595002412796,SHAKE
-0.24571250379086,-0.89471250772476,-2.11392498016357,0.0757625028491,10.0970373153687,10.5254878997803,1.89667499065399,0.10491249710321,-1.713250041008,-3.25132489204407,-0.27348750829697,15.9746122360229,17.0854740142822,2.24180006980896,-0.17228749394417,-0.25740000605583,-0.94008749723434,-3.597825050354,-3.78344988822937,10.1388378143311,12.5056247711182,1.64903748035431,-0.2743124961853,-0.44440001249313,-1.76109993457794,-1.5879875421524,6.90827512741089,10.5311250686646,5.70157480239868,2.70613741874695,-0.34567499160767,2.35853743553162,21.0274620056152,24.7673244476318,-12.0294628143311,-18.7067375183105,-0.34347498416901,-1.7297500371933,-22.5422992706299,-29.9341621398926,-10.0863122940063,8.01157474517822,11.0173254013062,2.88887500762939,1.38545000553131,0.40095001459122,14.2680006027222,3.61995005607605,-17.2590007781982,-26.4319515228271,-20.2980003356934,-11.1349506378174,4.79100036621094,31.8040523529053,2.24805021286011,-23.3040008544922,-19.7329502105713,-11.6310005187988,-5.89200019836426,-1.81605005264282,6.82500028610229,-13.6590003967285,-8.778000831604,23.8410015106201,37.4830513000488,22.8660011291504,8.13000011444092,-20.5810508728027,-38.6370010375977,-6.94605016708374,34.5040512084961,32.2069511413574,21.9949512481689,9.65295028686523,-2.17305016517639,3.40305018424988,-1.43100011348724,2.97900009155273,4.8120002746582,0.12900000810623,5.12100028991699,2.06700015068054,-3.31605005264282,-10.6590003967285,2.43300008773804,17.2009506225586,12.5550003051758,6.088050365448,3.81105017662048,0.59595000743866,SHAKE
15.9746122360229,17.0854740142822,2.24180006980896,-0.17228749394417,-1.20945000648499,-10.2631378173828,-9.13041210174561,2.21608757972717,12.9744997024536,15.5703620910645,5.32963752746582,-0.86542499065399,-5.35535001754761,-6.29516267776489,-2.95514988899231,6.90827512741089,10.5311250686646,5.70157480239868,2.70613741874695,0.35062500834465,-0.14698749780655,0.26358750462532,2.15984988212585,9.5287504196167,11.8540124893188,6.19932508468628,1.90011250972748,-2.5529625415802,0.53776252269745,3.09704995155334,8.01157474517822,11.0173254013062,2.88887500762939,1.38545000553131,-1.33237504959106,-25.2531127929688,-24.1438999176025,0.26716250181198,5.89599990844727,9.30984973907471,5.14923763275146,-0.37331250309944,-14.7211627960205,-25.4830131530762,-11.7284746170044,-19.7329502105713,-11.6310005187988,-5.89200019836426,-1.81605005264282,8.96100044250488,18.9649505615234,4.82505035400391,-19.8259506225586,-30.3070507049561,-23.7330017089844,-14.6749505996704,-3.87105011940002,23.9779510498047,-2.73105001449585,-25.5049514770508,32.2069511413574,21.9949512481689,9.65295028686523,-2.17305016517639,-16.3300514221191,-27.1740016937256,-18.5899505615234,24.7440013885498,41.5240516662598,29.5600509643555,8.59695053100586,-21.117000579834,-43.0890007019043,-23.9530506134033,14.6320505142212,12.5550003051758,6.088050365448,3.81105017662048,0.59595000743866,-1.03395009040833,-2.31300020217896,7.29300022125244,17.6800498962402,9.16095066070557,11.5579509735107,7.7790002822876,11.0080509185791,-9.33705043792725,-1.2280501127243,15.2659511566162,SHAKE
2.21608757972717,12.9744997024536,15.5703620910645,5.32963752746582,-0.86542499065399,-5.35535001754761,-6.29516267776489,-2.95514988899231,1.52501249313354,-9.2131872177124,-11.7530870437622,-0.98051249980927,-8.04594993591309,-32.4213981628418,-27.9708003997803,2.15984988212585,9.5287504196167,11.8540124893188,6.19932508468628,1.90011250972748,-2.5529625415802,0.53776252269745,3.09704995155334,-3.44973754882813,-3.70644998550415,0.89031249284744,2.24537491798401,-0.38376250863075,-13.8963003158569,-13.966287612915,0.26716250181198,5.89599990844727,9.30984973907471,5.14923763275146,-0.37331250309944,-14.7211627960205,-25.4830131530762,-11.7284746170044,13.1124124526978,30.8240623474121,20.3919372558594,2.16411256790161,-3.53320002555847,0.08882500231266,1.46739995479584,-19.8259506225586,-30.3070507049561,-23.7330017089844,-14.6749505996704,-3.87105011940002,23.9779510498047,-2.73105001449585,-25.5049514770508,-35.722053527832,-25.3060512542725,-16.6339511871338,-6.11205005645752,13.4250001907349,20.098051071167,-8.4790506362915,24.7440013885498,41.5240516662598,29.5600509643555,8.59695053100586,-21.117000579834,-43.0890007019043,-23.9530506134033,14.6320505142212,44.650951385498,33.1699523925781,11.9380502700806,-8.39505004882813,-30.5509510040283,-37.9369506835938,-13.8340511322021,17.6800498962402,9.16095066070557,11.5579509735107,7.7790002822876,11.0080509185791,-9.33705043792725,-1.2280501127243,15.2659511566162,11.7930002212524,0.7620000243187,8.96505069732666,11.4120006561279,5.45100021362305,-4.2480001449585,11.331000328064,SHAKE
1.52501249313354,-9.2131872177124,-11.7530870437622,-0.98051249980927,-8.04594993591309,-32.4213981628418,-27.9708003997803,-1.13506245613098,29.7496376037598,34.2286987304688,7.07863759994507,-1.26664996147156,-21.8351383209229,-22.2690868377686,-3.09361243247986,-3.44973754882813,-3.70644998550415,0.89031249284744,2.24537491798401,-0.38376250863075,-13.8963003158569,-13.966287612915,-0.49513748288155,8.69013786315918,8.02573776245117,0.64391249418259,0.13392500579357,-8.87026214599609,-9.97026252746582,-2.03541254997253,13.1124124526978,30.8240623474121,20.3919372558594,2.16411256790161,-3.53320002555847,0.08882500231266,1.46739995479584,0.52387499809265,4.04194974899292,3.83996248245239,2.22639989852905,-4.24819993972778,-12.1071500778198,-12.0062246322632,-3.54117488861084,-35.722053527832,-25.3060512542725,-16.6339511871338,-6.11205005645752,13.4250001907349,20.098051071167,-8.4790506362915,-42.0880508422852,-41.4889526367188,-26.7930011749268,-13.7359504699707,12.6850509643555,26.7870006561279,-7.67205047607422,-32.0599517822266,44.650951385498,33.1699523925781,11.9380502700806,-8.39505004882813,-30.5509510040283,-37.9369506835938,-13.8340511322021,41.8039512634277,47.9020538330078,19.7959518432617,-8.42400074005127,-42.3150024414063,-44.9160003662109,-11.8510503768921,46.560001373291,11.7930002212524,0.7620000243187,8.96505069732666,11.4120006561279,5.45100021362305,-4.2480001449585,11.331000328064,21.246000289917,-0.79395002126694,1.86105012893677,12.0300006866455,6.96000051498413,-3.22005009651184,-0.74595004320145,20.5489501953125,SHAKE
-1.13506245613098,29.7496376037598,34.2286987304688,7.07863759994507,-1.26664996147156,-21.8351383209229,-22.2690868377686,-3.09361243247986,26.182336807251,31.6501617431641,4.40866231918335,-2.11103749275208,-29.4856376647949,-34.2212753295898,-7.47669982910156,-0.49513748288155,8.69013786315918,8.02573776245117,0.64391249418259,0.13392500579357,-8.87026214599609,-9.97026252746582,-2.03541254997253,3.19659996032715,3.1605749130249,-0.12540000677109,1.07634997367859,-3.7089250087738,-5.69497489929199,-0.59963750839233,0.52387499809265,4.04194974899292,3.83996248245239,2.22639989852905,-4.24819993972778,-12.1071500778198,-12.0062246322632,-3.54117488861084,6.95901250839233,9.20521259307861,3.50226259231567,-0.91162496805191,-3.91269993782043,-8.77236270904541,-5.17701244354248,-42.0880508422852,-41.4889526367188,-26.7930011749268,-13.7359504699707,12.6850509643555,26.7870006561279,-7.67205047607422,-32.0599517822266,-35.764949798584,-20.0659503936768,-9.24300003051758,-1.17900002002716,27.5320510864258,-5.64105033874512,-27.8569507598877,41.8039512634277,47.9020538330078,19.7959518432617,-8.42400074005127,-42.3150024414063,-44.9160003662109,-11.8510503768921,46.560001373291,56.3029518127441,24.6600017547607,-0.27795001864433,-25.2030010223389,-47.3640022277832,-30.1800022125244,13.746000289917,21.246000289917,-0.79395002126694,1.86105012893677,12.0300006866455,6.96000051498413,-3.22005009651184,-0.74595004320145,20.5489501953125,3.72405028343201,3.93000030517578,10.0900506973267,11.4049501419067,-14.0770502090454,2.90505003929138,7.12995052337646,SHAKE
-3.09361243247986,26.182336807251,31.6501617431641,4.40866231918335,-2.11103749275208,-29.4856376647949,-34.2212753295898,-7.47669982910156,2.57551240921021,29.8071117401123,27.3323879241943,0.50998747348785,-10.0112371444702,-31.1063499450684,-25.0417747497559,-2.03541254997253,3.19659996032715,3.1605749130249,-0.12540000677109,1.07634997367859,-3.7089250087738,-5.69497489929199,-0.59963750839233,-0.49981248378754,-4.29934978485107,-2.74037504196167,1.25647497177124,2.45767498016357,-5.71285009384155,-5.68727493286133,-3.54117488861084,6.95901250839233,9.20521259307861,3.50226259231567,-0.91162496805191,-3.91269993782043,-8.77236270904541,-5.17701244354248,13.2726001739502,17.4146499633789,7.69422483444214,1.91771245002747,-4.36246252059937,-12.8189878463745,-12.454062461853,-32.0599517822266,-35.764949798584,-20.0659503936768,-9.24300003051758,-1.17900002002716,27.5320510864258,-5.64105033874512,-27.8569507598877,-42.4590034484863,-30.9799518585205,-19.795051574707,-12.3079509735107,7.75605058670044,22.2460517883301,-11.1780004501343,46.560001373291,56.3029518127441,24.6600017547607,-0.27795001864433,-25.2030010223389,-47.3640022277832,-30.1800022125244,13.746000289917,54.925952911377,44.6299514770508,13.1520004272461,-9.01005077362061,-39.5440521240234,-43.3720512390137,-14.4490509033203,20.5489501953125,3.72405028343201,3.93000030517578,10.0900506973267,11.4049501419067,-14.0770502090454,2.90505003929138,7.12995052337646,12.3559503555298,-9.06195068359375,8.04300022125244,13.2520503997803,6.83295011520386,-10.7550001144409,3.65505027770996,SHAKE
-4.36094999313354,18.8002376556396,28.368724822998,8.99442481994629,-1.2277375459671,-23.9027252197266,-30.9458866119385,-10.0887870788574,7.69188737869263,28.4600257873535,23.6116371154785,6.52794981002808,1.75188744068146,-23.064525604248,-33.9262008666992,2.07583737373352,-0.80891251564026,-5.87633752822876,-5.41529989242554,-0.35859999060631,-0.59262502193451,0.04028749838471,2.41518759727478,-1.60998749732971,-3.27043747901917,-1.98838746547699,-1.26568746566772,0.53198748826981,-5.58387517929077,-6.70573759078979,-2.91101241111755,16.1290245056152,17.2504749298096,2.669837474823,0.11522500216961,-6.43293762207031,-13.4985122680664,-7.00026226043701,11.1102752685547,15.3355121612549,5.94990015029907,1.00265002250671,-1.39878749847412,-5.45201253890991,-12.2412128448486,-26.6860504150391,-29.4970512390137,-13.3380002975464,-7.30005025863647,-4.02195024490356,21.42405128479,0.97800004482269,-21.3979511260986,-44.4300003051758,-25.6650009155273,-8.34495067596436,-3.1519501209259,-0.13199999928474,6.73305034637451,16.8499507904053,41.8950004577637,56.9119529724121,24.4660511016846,2.62395024299622,-18.610050201416,-42.8380508422852,-28.1179504394531,12.7429504394531,54.7750511169434,35.5339508056641,9.53295040130615,-0.28305000066757,-7.91595029830933,-19.7980518341064,-29.5690517425537,18.0559501647949,10.4419507980347,7.19505023956299,9.57495021820068,9.62100028991699,-24.1789512634277,-4.02495002746582,18.211950302124,24.5110511779785,-10.2949504852295,2.2540500164032,5.56800031661987,3.22395014762878,2.67000007629395,-9.2959508895874,SHAKE
28.4600257873535,23.6116371154785,6.52794981002808,1.75188744068146,-23.064525604248,-33.9262008666992,-14.1762495040894,1.15747499465942,19.5735378265381,30.5941619873047,19.2691116333008,6.33008766174316,-5.09877490997314,-29.9777507781982,-29.4933376312256,-3.27043747901917,-1.98838746547699,-1.26568746566772,0.53198748826981,-5.58387517929077,-6.70573759078979,2.40803742408752,-0.4853749871254,-2.66763758659363,-0.5879499912262,-2.61016249656677,-0.37152498960495,2.08078742027283,-4.50408744812012,-2.72841238975525,15.3355121612549,5.94990015029907,1.00265002250671,-1.39878749847412,-5.45201253890991,-12.2412128448486,-8.82227516174316,2.45698738098145,15.0930995941162,10.7549753189087,-0.73988747596741,-0.07631249725819,-4.56115007400513,-12.358362197876,-16.007474899292,-25.6650009155273,-8.34495067596436,-3.1519501209259,-0.13199999928474,6.73305034637451,16.8499507904053,-6.93405055999756,-27.5839519500732,-39.0780029296875,-25.5270004272461,-14.7349510192871,-7.9830002784729,-1.19805002212524,21.6859512329102,-0.27600002288818,35.5339508056641,9.53295040130615,-0.28305000066757,-7.91595029830933,-19.7980518341064,-29.5690517425537,-20.623950958252,25.6639518737793,49.009952545166,31.5960006713867,10.3740005493164,-3.46800017356873,-17.685001373291,-38.8759536743164,-29.1240005493164,-10.2949504852295,2.2540500164032,5.56800031661987,3.22395014762878,2.67000007629395,-9.2959508895874,10.0399503707886,27.9120006561279,4.93095016479492,-10.1899509429932,3.79095029830933,5.80800008773804,9.38400077819824,-15.7560005187988,3.37005019187927,SHAKE
19.5735378265381,30.5941619873047,19.2691116333008,6.33008766174316,-5.09877490997314,-29.9777507781982,-29.4933376312256,-6.79002475738525,8.15952491760254,27.4400501251221,23.6611366271973,5.31134986877441,-17.049861907959,-27.3007621765137,-10.519024848938,-2.66763758659363,-0.5879499912262,-2.61016249656677,-0.37152498960495,2.08078742027283,-4.50408744812012,-2.72841238975525,4.21437501907349,-4.13998746871948,-6.44008731842041,-4.3917498588562,-2.59599995613098,6.17828750610352,7.39543724060059,4.21011257171631,15.0930995941162,10.7549753189087,-0.73988747596741,-0.07631249725819,-4.56115007400513,-12.358362197876,-16.007474899292,-6.48917484283447,12.8205003738403,15.5381870269775,4.37855005264282,-0.08071249723434,-6.07887506484985,-21.3157997131348,-15.8910121917725,-39.0780029296875,-25.5270004272461,-14.7349510192871,-7.9830002784729,-1.19805002212524,21.6859512329102,-0.27600002288818,-22.8870010375977,-42.1360511779785,-21.0550518035889,-12.2839508056641,-8.6419506072998,18.0310516357422,4.71195030212402,-16.3009510040283,49.009952545166,31.5960006713867,10.3740005493164,-3.46800017356873,-17.685001373291,-38.8759536743164,-29.1240005493164,11.2720508575439,61.6110038757324,37.0950012207031,8.87895011901855,-16.2070503234863,-45.5389518737793,-33.7819519042969,-0.19695000350475,4.93095016479492,-10.1899509429932,3.79095029830933,5.80800008773804,9.38400077819824,-15.7560005187988,3.37005019187927,15.622950553894,25.7970008850098,-5.74905014038086,11.017050743103,7.06995010375977,-30.8160018920898,-0.38505002856255,7.77705049514771,SHAKE
25.0233497619629,29.2527122497559,8.80165004730225,1.49489998817444,-18.8009243011475,-34.3956260681152,-15.7331628799438,2.9693124294281,18.7258491516113,32.1375999450684,20.9162254333496,5.95663738250732,-1.30982494354248,-13.3493251800537,-39.492748260498,-8.00593757629395,-7.7864875793457,-4.64309978485107,0.0441375002265,4.79050016403198,6.88118743896484,6.77050018310547,0.05981250107288,-8.8662748336792,-8.31531238555908,-6.10018730163574,-3.08673739433289,-0.57639998197556,1.87068748474121,3.29106259346008,16.6750373840332,13.4315500259399,0.86157500743866,-1.03138744831085,-4.52567481994629,-18.7097625732422,-16.2569007873535,0.78911250829697,15.1035499572754,11.4196500778198,-1.25674998760223,1.15802502632141,0.83434998989105,3.70851254463196,-1.72026252746582,-27.4020004272461,-13.9630508422852,-8.53605079650879,-3.5310001373291,5.07600021362305,21.151050567627,-9.42000007629395,-23.5050010681152,-30.3690013885498,-14.193000793457,-6.58905029296875,-2.23995018005371,0.25005000829697,3.54300022125244,11.122950553894,46.1100006103516,18.4120502471924,3.52395009994507,-7.01505041122437,-24.8970012664795,-36.1120529174805,-22.0030517578125,27.2059516906738,48.868953704834,27.8940010070801,12.9289503097534,3.18705010414124,-2.12700009346008,-7.72905015945435,-19.0980014801025,-5.00700044631958,4.3759503364563,5.29095029830933,0.91305005550385,-3.58395028114319,-10.4080505371094,10.5430507659912,23.6320514678955,10.0519504547119,-0.63405001163483,4.51005029678345,5.1589503288269,-0.02295000106096,-1.61100006103516,-14.7930011749268,SHAKE
32.1375999450684,20.9162254333496,5.95663738250732,-1.30982494354248,-13.3493251800537,-39.492748260498,-31.8679618835449,4.17133760452271,26.1659755706787,31.1232624053955,16.9826240539551,7.2734751701355,1.11608743667603,-8.05653762817383,-9.10827541351318,-8.31531238555908,-6.10018730163574,-3.08673739433289,-0.57639998197556,1.87068748474121,3.29106259346008,4.60721254348755,-3.13926243782043,-7.42059993743896,-3.92315006256104,-4.51068735122681,-1.6970249414444,0.12072499841452,-0.46172499656677,-17.0289630889893,11.4196500778198,-1.25674998760223,1.15802502632141,0.83434998989105,3.70851254463196,-1.72026252746582,-3.10461258888245,3.99519991874695,13.3009252548218,8.51716232299805,-2.69362497329712,0.34718748927116,0.75789999961853,4.97172498703003,19.8708114624023,-14.193000793457,-6.58905029296875,-2.23995018005371,0.25005000829697,3.54300022125244,11.122950553894,-4.16295003890991,-15.8989505767822,-20.635950088501,-15.0790510177612,-6.60795021057129,-2.19900012016296,2.7529501914978,5.57205009460449,4.26900005340576,27.8940010070801,12.9289503097534,3.18705010414124,-2.12700009346008,-7.72905015945435,-19.0980014801025,-11.1199502944946,18.3420009613037,34.5109519958496,26.1550521850586,12.5629501342773,3.79005026817322,-1.81800007820129,-2.8050000667572,1.17705011367798,-0.63405001163483,4.51005029678345,5.1589503288269,-0.02295000106096,-1.61100006103516,-14.7930011749268,8.20095062255859,23.578950881958,9.93705081939697,-2.85405015945435,2.24205017089844,4.35195016860962,1.03694999217987,-1.81200003623962,-1.03605008125305,SHAKE
0.65546250343323,0.0449624992907,0.74937498569489,1.88058745861053,5.67682504653931,24.5060749053955,23.1611881256104,8.39437484741211,16.5984497070313,20.9607753753662,13.5533752441406,6.50196266174316,-0.83008748292923,-21.1468124389648,-25.626012802124,0.5350124835968,1.00553750991821,1.6574250459671,2.65581250190735,3.89124989509583,5.68149995803833,5.02411270141602,-1.55168747901917,-6.86358737945557,-2.1900999546051,0.93733751773834,0.37014999985695,3.5370500087738,-1.00856244564056,2.77474999427795,-1.15225005149841,-1.22196245193481,-1.28741252422333,-1.33484995365143,-1.78585004806519,8.02367496490479,10.0501499176025,4.85732507705688,18.6008625030518,17.8561630249023,4.36768770217896,1.13492500782013,-3.40298748016357,-19.6080493927002,-24.4396629333496,-2.09100008010864,-4.27995014190674,-4.19400024414063,0.17595000565052,4.83900022506714,20.2920017242432,-11.1610507965088,-27.435001373291,-36.9360008239746,-22.5379505157471,-9.26400089263916,-2.81205010414124,0.16905000805855,12.939001083374,10.4310007095337,17.2049999237061,16.4599514007568,9.58605003356934,-1.31295001506805,-14.1400508880615,-32.5390510559082,-25.6249504089355,24.1600513458252,52.5289535522461,31.1410522460938,8.06805038452148,-4.47900009155273,-9.30000019073486,-22.9300518035889,-22.6000518798828,8.95305061340332,4.72500038146973,-1.61805009841919,-1.76205003261566,-5.30205011367798,-9.92205047607422,14.5350008010864,31.8540019989014,18.5689506530762,-5.2300500869751,2.99400019645691,1.01295006275177,4.28505039215088,-13.4110507965088,-3.76395010948181,SHAKE
20.0282497406006,6.40543746948242,7.18905019760132,6.44806241989136,1.89447498321533,24.8591747283936,30.2681503295898,7.83887481689453,26.5317249298096,32.8395385742188,11.4145622253418,7.91408729553223,10.1631746292114,22.6087131500244,15.6061124801636,-2.66584992408752,-4.41636228561401,-3.09512495994568,-1.65316247940063,0.06641250103712,-1.63240003585815,-0.40232500433922,-0.0299750007689,-12.1742496490479,-13.484899520874,-4.65671253204346,-1.52927494049072,-2.41051244735718,-6.66792488098145,2.9441499710083,3.52192497253418,-4.15827512741089,-0.28778749704361,2.59586238861084,2.08724999427795,3.39680004119873,2.57716250419617,0.02749999985099,9.1431999206543,3.82621240615845,-5.64739990234375,-1.86395001411438,-4.69067478179932,-23.3153247833252,-23.0042991638184,-3.81105017662048,-0.40500003099442,-0.42195001244545,-0.7140000462532,0.18795001506805,8.64900016784668,3.30900025367737,-21.9529514312744,-28.7980518341064,-10.78005027771,-4.95105028152466,-3.65805006027222,-4.54905033111572,14.377950668335,6.264000415802,12.3570003509521,9.77295017242432,7.68195056915283,3.45705008506775,-6.14595031738281,-21.3730506896973,-13.0440006256104,28.1430015563965,44.1199531555176,18.7110004425049,7.1569504737854,-1.38000011444092,-12.8380508422852,-30.4909515380859,-20.4940509796143,0.6400500535965,1.46100008487701,3.56100010871887,0.22305001318455,-8.55900001525879,-21.973051071167,-0.3649500310421,38.2939529418945,36.6870002746582,-6.32895040512085,0.50805002450943,1.48500001430511,0.72795003652573,-26.3800506591797,-6.7819504737854,SHAKE
1.07401251792908,0.80602496862411,-0.00343749998137,-1.30363750457764,-1.34832501411438,-4.12953758239746,-25.1363754272461,-22.5907001495361,14.6084127426147,24.7655372619629,10.3203372955322,3.55189990997314,4.74773740768433,-9.45023727416992,-10.1990623474121,1.08886253833771,2.27012491226196,3.06075000762939,2.70379996299744,1.4999874830246,-1.85913753509521,-2.74889993667603,-3.18064999580383,3.97814989089966,5.30653762817383,-0.45306250452995,2.40446257591248,2.39277505874634,-12.6431245803833,-12.1276378631592,0.31817498803139,-0.52153748273849,-1.01213753223419,-0.88371247053146,-0.40810000896454,-2.32471251487732,-11.4823503494263,-5.61948728561401,16.0979499816895,20.6173000335693,10.2426500320435,1.49022495746613,-9.70612525939941,-30.5848121643066,-22.7046871185303,1.0639500617981,-1.16700005531311,-1.02495002746582,-4.87905025482178,4.76700019836426,10.9489507675171,0.14205001294613,-25.1890506744385,-31.5400524139404,-21.2269515991211,-15.3190507888794,-12.8740501403809,12.1819505691528,17.0200500488281,-28.7599506378174,5.43300008773804,5.86200046539307,5.44005012512207,5.51700019836426,1.59600007534027,-27.6000003814697,-23.8399505615234,13.8400506973267,47.5300521850586,34.759952545166,10.7329502105713,-11.6470508575439,-41.9730033874512,-46.0950012207031,-13.4820003509521,11.3479509353638,12.7699508666992,21.1909503936768,19.7329502105713,2.24895000457764,-20.2510509490967,-5.23695039749146,21.9820518493652,23.2030506134033,1.40100002288818,-2.14695000648499,-3.61095023155212,-13.0140008926392,-1.31895005702972,11.0080509185791,SHAKE
-22.5907001495361,14.6084127426147,24.7655372619629,10.3203372955322,3.55189990997314,4.74773740768433,-9.45023727416992,-10.1990623474121,5.9074125289917,21.4050369262695,19.1690120697021,1.23364996910095,-2.90688753128052,-15.6497001647949,-20.5781116485596,-3.18064999580383,3.97814989089966,5.30653762817383,-0.45306250452995,2.40446257591248,2.39277505874634,-12.6431245803833,-12.1276378631592,5.64258766174316,11.473687171936,7.88315010070801,0.94050002098083,-0.98188751935959,-2.66475009918213,-7.75898742675781,-5.61948728561401,16.0979499816895,20.6173000335693,10.2426500320435,1.49022495746613,-9.70612525939941,-30.5848121643066,-22.7046871185303,3.20814990997314,15.069037437439,14.7432994842529,5.57081270217896,-2.23368740081787,-15.4930877685547,-20.5236625671387,-25.1890506744385,-31.5400524139404,-21.2269515991211,-15.3190507888794,-12.8740501403809,12.1819505691528,17.0200500488281,-28.7599506378174,-50.169002532959,-26.1229515075684,-12.610050201416,-10.7470502853394,-12.8880004882813,34.7170524597168,5.5620002746582,13.8400506973267,47.5300521850586,34.759952545166,10.7329502105713,-11.6470508575439,-41.9730033874512,-46.0950012207031,-13.4820003509521,58.8850517272949,41.8060531616211,14.26305103302,-4.25594997406006,-21.1909503936768,-46.878002166748,-52.6980018615723,21.9820518493652,23.2030506134033,1.40100002288818,-2.14695000648499,-3.61095023155212,-13.0140008926392,-1.31895005702972,11.0080509185791,35.6359519958496,5.14200019836426,17.3659515380859,9.73305034637451,4.53900003433228,-24.7129516601563,-4.66200017929077,SHAKE
-6.26945018768311,12.5735502243042,19.1735496520996,9.01780033111572,0.6485875248909,-4.54918766021729,-19.1497631072998,-17.3109741210938,0.83146250247955,16.7528629302979,18.3547382354736,5.24631261825562,-0.2428250014782,-8.8324499130249,-20.4334621429443,-6.66792488098145,4.71872520446777,5.56393766403198,0.007012499962,-1.21948754787445,-0.33096250891685,-0.81812500953674,-3.83611249923706,-2.06593751907349,3.56743741035461,2.18638753890991,-1.56392502784729,-2.24125003814697,1.12323749065399,-1.17301249504089,-6.75950002670288,11.0045375823975,15.1211500167847,10.5685253143311,5.09987497329712,-5.59845018386841,-18.7642116546631,-16.8221626281738,0.42308750748634,13.7242870330811,13.6010875701904,8.79587459564209,3.67963743209839,-10.6423625946045,-22.485237121582,-70.2420043945313,-38.5840530395508,-8.96700000762939,-15.6589508056641,-9.09705066680908,-4.59195041656494,40.8340530395508,-27.8980522155762,-72.3370513916016,-11.5609502792358,-11.2330503463745,-10.3969507217407,-5.44905042648315,27.4189510345459,10.7040004730225,15.8419504165649,38.7569999694824,21.1159515380859,7.71105051040649,-11.4720001220703,-34.4740524291992,-54.9780044555664,-50.4709510803223,54.646053314209,17.4919509887695,20.4709510803223,1.23705005645752,-17.1610507965088,-45.4549522399902,-58.3669509887695,42.4249534606934,41.4720001220703,18.4249515533447,17.0119514465332,6.046950340271,-6.84405040740967,-26.8810520172119,9.74295043945313,73.5919570922852,25.6459503173828,19.4280014038086,12.7540502548218,4.57500028610229,-39.6649513244629,-13.3200006484985,SHAKE
-11.6381378173828,10.8736371994019,18.0958251953125,10.3607625961304,1.38503754138947,-4.59263753890991,-20.3733749389648,-17.4816131591797,2.22186255455017,18.4919624328613,18.4518127441406,4.652174949646,3.1576874256134,1.71173751354218,-15.2994871139526,-4.4197998046875,2.87237501144409,2.78437495231628,-1.41061246395111,-1.94644999504089,-1.93888747692108,-0.48661249876022,-2.05067491531372,-1.16393744945526,4.22289991378784,3.29422497749329,0.81427496671677,1.70348751544952,1.20903754234314,-3.08027505874634,-10.1534128189087,10.8596124649048,15.819375038147,12.6612749099731,7.17942476272583,-5.80621242523193,-20.904125213623,-15.8412370681763,1.59252500534058,14.741925239563,16.0089874267578,9.12422466278076,4.88358736038208,-5.0907998085022,-25.1957740783691,-62.6470527648926,-43.2330017089844,1.78305006027222,-12.4309501647949,-6.1360502243042,5.74200010299683,25.2610511779785,-16.1569499969482,-56.7310523986816,-13.4320507049561,-7.05600023269653,-11.6620502471924,-7.81305027008057,-1.97100007534027,40.5220527648926,2.86095023155212,34.4010009765625,19.7380504608154,10.6350002288818,-12.5770502090454,-35.1450004577637,-45.9460525512695,-33.9090003967285,47.0010032653809,28.4470520019531,17.401050567627,10.7089500427246,-1.70805013179779,-15.4890003204346,-40.6609535217285,42.6510009765625,55.3660545349121,16.5280513763428,17.625,6.16695022583008,-17.4420013427734,-20.3179512023926,11.0580005645752,68.2579498291016,19.123950958252,9.68295001983643,5.65005016326904,2.00505018234253,0.85500001907349,-30.0400505065918,SHAKE
18.4919624328613,18.4518127441406,4.652174949646,3.1576874256134,1.71173751354218,-15.2994871139526,-16.8542003631592,0.41359999775887,11.0734252929688,14.9610996246338,7.29355001449585,1.6467000246048,1.39081251621246,-2.4565749168396,-18.9010257720947,4.22289991378784,3.29422497749329,0.81427496671677,1.70348751544952,1.20903754234314,-3.08027505874634,-5.61275005340576,-1.22567498683929,5.55376243591309,4.00565004348755,-1.27792501449585,-0.87436246871948,1.0813000202179,-0.2050125002861,-4.61724996566772,14.741925239563,16.0089874267578,9.12422466278076,4.88358736038208,-5.0907998085022,-25.1957740783691,-27.3014507293701,-3.9638500213623,12.3606996536255,14.3318996429443,10.9437627792358,5.8914623260498,1.14881253242493,-7.70219993591309,-22.5389995574951,-13.4320507049561,-7.05600023269653,-11.6620502471924,-7.81305027008057,-1.97100007534027,40.5220527648926,-3.92805027961731,-59.7990036010742,-56.2140045166016,-4.36695003509521,-13.7550010681152,-9.84600067138672,-1.92600011825562,13.546950340271,26.3920516967773,28.4470520019531,17.401050567627,10.7089500427246,-1.70805013179779,-15.4890003204346,-40.6609535217285,-50.8200035095215,-16.7100009918213,34.1779518127441,-2.05305004119873,15.163950920105,0.89400005340576,-9.78600025177002,-29.8900508880615,-45.2659530639648,19.123950958252,9.68295001983643,5.65005016326904,2.00505018234253,0.85500001907349,-30.0400505065918,-2.27400016784668,45.0960006713867,74.7700500488281,12.3220510482788,7.08705043792725,8.92905044555664,11.5339508056641,-15.9690008163452,-31.0840511322021,SHAKE
-17.307674407959,0.06572499871254,13.8142127990723,14.1374750137329,6.14913749694824,1.35354995727539,-9.52957534790039,-18.0666751861572,-7.90652513504028,9.57880020141602,15.5395622253418,10.4322624206543,2.45437502861023,-5.52750015258789,-20.5195369720459,-13.508412361145,-1.47152495384216,5.62636232376099,3.89963746070862,0.63648748397827,-0.05678749829531,-3.53924989700317,-8.57876205444336,-6.04573726654053,3.45344996452332,4.07412481307983,2.00007510185242,0.89732497930527,-2.32704997062683,-6.15573740005493,-14.9485874176025,6.38233757019043,17.375186920166,19.4554252624512,7.17337512969971,-2.20013737678528,-13.1709871292114,-21.6650505065918,-7.26068735122681,12.8338375091553,15.5621128082275,13.4547872543335,6.29584980010986,-6.4822998046875,-23.2574367523193,-40.4950523376465,-31.1119518280029,-18.0370502471924,-22.4629516601563,-13.5799503326416,-2.06700015068054,40.276050567627,-13.2640504837036,-68.484001159668,-30.1150512695313,-7.61205053329468,-15.2179508209229,-5.6380500793457,18.2970008850098,13.5070505142212,-19.2799510955811,48.9169540405273,22.0159511566162,24.9930019378662,1.59900009632111,-16.5430507659912,-54.703052520752,-69.118049621582,39.7540512084961,38.5420532226563,25.0360507965088,10.6849508285522,-10.9720506668091,-41.1829528808594,-70.6609497070313,27.0180015563965,24.3000011444092,6.87600040435791,8.91000080108643,7.72200059890747,8.57895088195801,-16.8670501708984,1.74405002593994,43.5649528503418,29.2600517272949,-4.63800001144409,12.8299503326416,14.9670009613037,-13.2360010147095,-21.9420013427734,SHAKE
-16.0107746124268,3.44726252555847,14.1884870529175,15.5057373046875,7.72158765792847,2.53013753890991,-8.46504974365234,-17.0992240905762,-7.17722511291504,7.19413757324219,15.7733125686646,15.8615875244141,8.68931198120117,3.75773739814758,-12.5419244766235,-4.87465000152588,-0.57681250572205,2.68166255950928,2.28552508354187,2.04943752288818,1.28397500514984,-3.88492488861084,-10.8235874176025,-7.83255004882813,2.19518756866455,6.21183729171753,5.18636226654053,3.96948742866516,0.71637499332428,-9.63861274719238,-13.7234621047974,8.68106269836426,14.906925201416,15.004412651062,7.35487508773804,-2.66447496414185,-14.55588722229,-22.1896114349365,-8.67721271514893,9.49822521209717,12.6077871322632,12.2573003768921,6.91487503051758,-3.03723740577698,-17.9103374481201,-64.6949996948242,-50.0950508117676,-27.7660522460938,-23.5030517578125,-20.7720012664795,-3.84195017814636,32.2549514770508,-6.02895021438599,-74.8639526367188,-41.7529525756836,-29.1169509887695,-26.6830520629883,-17.7670516967773,-4.35705041885376,52.3969535827637,-29.3029518127441,53.3119506835938,29.814001083374,23.5660514831543,-4.19895029067993,-21.0880508422852,-49.5799522399902,-68.0119552612305,-14.2960510253906,40.7670021057129,31.666051864624,21.6520519256592,-6.65595054626465,-21.832950592041,-63.3610534667969,43.4310035705566,35.9680519104004,5.33100032806396,-8.29305076599121,17.4139499664307,7.29795026779175,-20.1220512390137,0.76905006170273,61.6980018615723,21.4279518127441,-13.9669504165649,0.21600000560284,4.10295009613037,10.5430507659912,-34.5520515441895,SHAKE
-1.39988744258881,13.2892370223999,17.7050495147705,8.76672458648682,1.22911250591278,-5.22761249542236,-19.9838371276855,-16.0847492218018,3.14737486839294,17.3552494049072,15.5322751998901,3.02266240119934,-1.3388375043869,-11.4657125473022,-18.2022495269775,-6.83443737030029,7.81439971923828,6.4351372718811,1.14413750171661,0.86556249856949,-2.42838740348816,-8.44401264190674,-7.09334993362427,0.71898752450943,1.82888746261597,-0.95026248693466,-0.41071251034737,0.518374979496,-1.62909996509552,-3.45716238021851,-3.02472496032715,11.9964628219604,13.2268123626709,10.0952501296997,1.35685002803802,-8.92182540893555,-18.460750579834,-13.0472373962402,6.51296234130859,17.8921871185303,14.5568494796753,5.73608732223511,-2.34492492675781,-14.201000213623,-18.4293994903564,-56.3340034484863,-36.6150016784668,-25.5460510253906,-19.371000289917,-7.93305015563965,5.95305013656616,25.9290008544922,-58.5180015563965,-50.7600021362305,-20.7390003204346,-11.3239507675171,-11.5420503616333,-5.27895021438599,26.3749504089355,-3.81300020217896,46.1580009460449,40.2900009155273,16.3380012512207,0.966000020504,-13.4100008010864,-34.9270515441895,-51.1339530944824,-25.4550018310547,60.3130531311035,11.4799509048462,11.5240507125854,-1.65000009536743,-16.9230003356934,-49.8019523620605,-46.582950592041,41.6160011291504,11.7190504074097,12.0180006027222,10.1839504241943,10.1760005950928,-8.61405086517334,-26.5140018463135,32.9050521850586,53.0020523071289,20.4919509887695,3.98805022239685,8.74695014953613,11.1300001144409,-31.4860515594482,-7.70400047302246,SHAKE
2.9499249458313,16.5299739837646,17.6246128082275,4.66001224517822,1.68107497692108,-1.34598743915558,-18.7983131408691,-20.1790866851807,0.14300000667572,17.444486618042,18.9483242034912,7.42651224136353,3.73037505149841,-3.35403752326965,-21.9616374969482,-0.29975000023842,0.75941246747971,-0.50393748283386,-0.98175001144409,0.23704999685287,-0.57763749361038,-1.37995004653931,-2.2534875869751,-1.7323625087738,-0.0859375,-1.06658744812012,-0.94875001907349,0.57529997825623,2.79798746109009,-0.56938749551773,4.72243738174438,16.8132247924805,16.9034252166748,8.35711288452148,3.24596238136292,-4.17257499694824,-19.8770008087158,-19.8215866088867,-0.33880001306534,13.6696996688843,14.711950302124,7.49842500686646,2.24895000457764,-8.40372467041016,-23.5534744262695,-43.2660026550293,-21.0499515533447,-10.2679500579834,-11.3290500640869,-7.36995029449463,-5.97600030899048,34.558952331543,-25.3560009002686,-43.1659507751465,-18.082950592041,-8.8879508972168,-11.8320007324219,-6.61995029449463,8.56305027008057,9.89205074310303,36.2620506286621,26.1190509796143,20.5410003662109,11.0490007400513,-3.03195023536682,-19.8979511260986,-51.4020042419434,-29.9689521789551,35.8230018615723,27.0910511016846,21.7360515594482,6.30195045471191,-9.78194999694824,-34.0309524536133,-33.5929527282715,42.4710006713867,24.5389518737793,8.31599998474121,11.7160501480103,7.93695020675659,1.36995005607605,-36.6520500183105,11.5939502716064,62.7949523925781,29.5189514160156,8.45205020904541,8.11005020141602,3.82995009422302,-17.1949501037598,-18.3690013885498,SHAKE
21.0905742645264,21.8941249847412,2.73322486877441,0.07548750191927,-1.12392497062683,-7.63784980773926,-27.5147132873535,-21.2733116149902,2.91665005683899,21.7496128082275,20.4862632751465,2.0818874835968,-0.74126249551773,-3.9282374382019,-25.2169494628906,-0.56099998950958,-2.16809988021851,-3.26370000839233,-1.6328125,-1.65618753433228,0.22220000624657,0.71376252174377,-0.73796248435974,-1.27448749542236,-2.59998750686646,-3.51243758201599,-2.66076254844666,-1.65921247005463,0.94929999113083,4.48360013961792,17.3102874755859,16.5288753509521,6.86152505874634,4.68022489547729,0.49321249127388,-7.63551235198975,-18.1655368804932,-12.5179996490479,6.21128749847412,19.4917240142822,16.0008754730225,6.44105005264282,2.78767490386963,-5.33472490310669,-20.4379997253418,-14.8350009918213,-2.63505005836487,-5.18805027008057,-0.96300005912781,0.3529500067234,-2.54205012321472,19.021951675415,-19.1629505157471,-43.8720016479492,-12.082950592041,-7.24500036239624,-6.37095022201538,-3.3510000705719,-0.75495004653931,15.0780010223389,26.1240005493164,16.0090503692627,9.24600028991699,-0.24495001137257,-3.39600014686584,-11.7960004806519,-31.4730014801025,-18.6979503631592,39.9619522094727,21.8170509338379,15.4080009460449,3.54795026779175,-6.22500038146973,-15.7600507736206,-30.3790512084961,30.6079521179199,15.1249504089355,11.131950378418,3.30000019073486,-0.28605002164841,-1.62795007228851,-30.037052154541,-0.64995002746582,50.8320007324219,35.2279510498047,19.0759506225586,8.91000080108643,2.04299998283386,-10.6180505752563,-33.7999534606934,SHAKE
5.5725998878479,20.824649810791,20.3700752258301,6.17842483520508,3.44973754882813,-0.00646249996498,-23.8920001983643,-20.8803367614746,7.16237497329712,19.1617240905762,16.0894241333008,3.09209990501404,1.16709995269775,-5.10551261901855,-23.6634750366211,0.85703748464584,-3.3070125579834,-4.17628765106201,-2.11516237258911,-2.18459987640381,-1.88677501678467,-2.57345008850098,-2.63724994659424,-0.54381251335144,-2.05246257781982,-3.40587496757507,-1.64065003395081,-0.65188747644424,-1.9013500213623,-3.02156257629395,2.07459998130798,12.4037370681763,12.5698375701904,6.97881269454956,4.50986242294312,-0.08552499860525,-13.8319501876831,-9.84087467193604,10.0357122421265,16.7787132263184,13.053150177002,6.47748756408691,2.75495004653931,-6.6363000869751,-19.0806007385254,-23.7060012817383,-7.90395021438599,1.76895010471344,-2.13705015182495,-1.93605005741119,8.16105079650879,17.4700508117676,-38.203052520752,-39.5880012512207,-12.7420501708984,-5.24805021286011,-5.83200025558472,-1.71495008468628,14.9290504455566,6.76005029678345,20.9190006256104,13.5400505065918,10.1419506072998,8.30895042419434,0.28395000100136,-26.2570514678955,-38.0880012512207,-13.3330507278442,34.4029502868652,12.4500007629395,14.9479503631592,4.14195013046265,-5.5969500541687,-28.7910022735596,-22.5300006866455,49.5000038146973,31.5949516296387,12.2650508880615,6.2920503616333,3.92100024223328,-13.3780508041382,-17.545051574707,12.5569505691528,54.4240531921387,25.6960506439209,7.30200052261353,9.98505020141602,5.46105003356934,-15.8950510025024,-2.99505019187927,SHAKE
4.41883754730225,19.5155124664307,17.3493366241455,1.22856247425079,-0.1883749961853,-16.9776744842529,-21.6537742614746,-0.93706250190735,20.7235870361328,22.7325992584229,7.70646238327026,2.96601247787476,-4.50890016555786,-21.931661605835,-17.9360504150391,-0.79928749799728,-2.51253747940063,-2.92242503166199,-1.50699996948242,-0.53913748264313,4.30031251907349,2.16370010375977,-0.38885000348091,2.96958756446838,3.33025002479553,2.9438750743866,1.77154994010925,-2.01781249046326,-6.28058767318726,-4.05583763122559,5.56613731384277,15.8813877105713,12.6851997375488,2.18624997138977,-0.5351499915123,-12.8238000869751,-18.655725479126,-4.23885011672974,15.2476501464844,18.4938869476318,7.83282518386841,2.60053753852844,-5.89132499694824,-22.9370632171631,-14.5421371459961,-25.4860515594482,-8.90505027770996,-4.7039999961853,-5.08995008468628,-0.10305000841618,17.2909507751465,-5.18295001983643,-24.9090003967285,-14.4259510040283,-9.20400047302246,-7.5450005531311,-3.92595028877258,11.7490501403809,1.71795010566711,-37.6120529174805,15.0390005111694,16.9409999847412,8.28105068206787,0.66495001316071,-14.6290502548218,-27.4450511932373,-20.8390502929688,25.5319519042969,45.1860008239746,27.4770011901855,9.44895076751709,-4.95105028152466,-39.6760520935059,-36.3019523620605,6.88695049285889,39.5730018615723,43.4149513244629,8.14800071716309,4.43805027008057,-1.11000001430511,-20.4760513305664,3.88695025444031,31.558952331543,15.271050453186,-0.10395000129938,7.02000045776367,9.48900032043457,-9.14805030822754,-1.71105003356934,13.312050819397,SHAKE
-0.93706250190735,20.7235870361328,22.7325992584229,7.70646238327026,2.96601247787476,-4.50890016555786,-21.931661605835,-17.9360504150391,2.46207499504089,15.92799949646,13.4487371444702,0.86927497386932,-1.3142249584198,-18.6542129516602,-20.5701370239258,-0.38885000348091,2.96958756446838,3.33025002479553,2.9438750743866,1.77154994010925,-2.01781249046326,-6.28058767318726,-4.05583763122559,1.75436246395111,0.92826247215271,-0.79763752222061,0.7539125084877,0.12746250629425,-4.5787501335144,-5.29182481765747,-4.23885011672974,15.2476501464844,18.4938869476318,7.83282518386841,2.60053753852844,-5.89132499694824,-22.9370632171631,-14.5421371459961,9.7981128692627,21.0737991333008,18.1707630157471,6.45521259307861,1.3474999666214,-20.9006881713867,-19.7698879241943,-24.9090003967285,-14.4259510040283,-9.20400047302246,-7.5450005531311,-3.92595028877258,11.7490501403809,1.71795010566711,-37.6120529174805,-28.9969520568848,-8.75699996948242,-5.28105020523071,-4.00005006790161,0.31500002741814,20.5530014038086,-29.1979522705078,25.5319519042969,45.1860008239746,27.4770011901855,9.44895076751709,-4.95105028152466,-39.6760520935059,-36.3019523620605,6.88695049285889,55.1989517211914,25.2090015411377,15.6450004577637,0.55905002355576,-15.5059509277344,-42.5449523925781,-9.64995002746582,31.558952331543,15.271050453186,-0.10395000129938,7.02000045776367,9.48900032043457,-9.14805030822754,-1.71105003356934,13.312050819397,35.3860511779785,11.9659509658813,2.70900011062622,7.46805047988892,3.64305019378662,-13.4689502716064,9.29505062103271,SHAKE
-20.5701370239258,-1.65495002269745,12.730712890625,13.7916622161865,2.55516242980957,-0.598537504673,-9.21951198577881,-20.5316371917725,-8.15320014953613,14.734637260437,12.8741245269775,3.41137504577637,0.18535000085831,-17.9529628753662,-16.1424999237061,-5.29182481765747,-0.48427498340607,-0.04661250114441,-0.61737501621246,0.48963749408722,0.08910000324249,-4.96292495727539,-5.20437479019165,-0.88261246681213,-2.18129992485046,-2.15476250648499,-0.52181249856949,-1.32976245880127,-1.44911253452301,-0.59991252422333,-19.7698879241943,6.17182493209839,22.0031623840332,22.0228252410889,8.06863784790039,1.78076243400574,-14.7204751968384,-21.9224491119385,-2.10540008544922,18.2619247436523,17.1425380706787,7.89703750610352,0.63634997606277,-21.0885124206543,-16.1265506744385,-29.1979522705078,-19.7500514984131,-15.7519512176514,-7.06305027008057,-9.16095066070557,0.34605002403259,22.3780517578125,-23.3299503326416,-13.9420509338379,-10.3639507293701,-5.43195009231567,-1.95705008506775,3.51000022888184,14.4690008163452,-33.4759521484375,-9.64995002746582,41.4799537658691,33.984001159668,20.5770015716553,7.53600025177002,-8.79495048522949,-40.8379516601563,-23.0689506530762,45.7200012207031,15.4320011138916,6.48705053329468,1.81695008277893,-12.0499505996704,-38.7490501403809,-4.2199501991272,9.29505062103271,18.9250507354736,17.9530506134033,2.00205016136169,10.0900506973267,6.91395044326782,-26.344051361084,9.34995079040527,43.2900009155273,21.0019512176514,7.12500047683716,2.00505018234253,-4.58295011520386,-11.0569505691528,13.6230010986328,SHAKE
-20.5316371917725,-8.15320014953613,14.734637260437,12.8741245269775,3.41137504577637,0.18535000085831,-17.9529628753662,-16.1424999237061,6.00187492370605,15.1640501022339,11.5840997695923,2.05631256103516,-0.60596251487732,-11.4797372817993,-8.10315036773682,-5.20437479019165,-0.88261246681213,-2.18129992485046,-2.15476250648499,-0.52181249856949,-1.32976245880127,-1.44911253452301,-0.59991252422333,1.54041254520416,-0.862399995327,-2.03651237487793,0.64776247739792,-0.81592500209808,0.03011249937117,1.68850004673004,-21.9224491119385,-2.10540008544922,18.2619247436523,17.1425380706787,7.89703750610352,0.63634997606277,-21.0885124206543,-16.1265506744385,11.808500289917,23.5786380767822,18.2267246246338,5.19309997558594,-2.64715003967285,-24.0272998809814,-16.208911895752,-23.3299503326416,-13.9420509338379,-10.3639507293701,-5.43195009231567,-1.95705008506775,3.51000022888184,14.4690008163452,-33.4759521484375,-26.9350509643555,-17.3449516296387,-7.33905029296875,-2.91300010681152,21.166051864624,-12.9360008239746,-11.4649505615234,-23.0689506530762,45.7200012207031,15.4320011138916,6.48705053329468,1.81695008277893,-12.0499505996704,-38.7490501403809,-4.2199501991272,52.2390022277832,26.8369522094727,12.0979509353638,-2.48895001411438,-38.7610511779785,-14.8470010757446,27.3829517364502,9.34995079040527,43.2900009155273,21.0019512176514,7.12500047683716,2.00505018234253,-4.58295011520386,-11.0569505691528,13.6230010986328,28.2349510192871,16.9570503234863,-1.20405006408691,6.81900024414063,-23.6569519042969,1.32000005245209,18.9589500427246,SHAKE
0.0749375000596,-1.18305003643036,-0.82665002346039,0.86941248178482,1.3639999628067,-0.34182500839233,2.29968738555908,1.69097495079041,3.50047492980957,11.5192003250122,6.05343723297119,1.0564124584198,3.4820499420166,1.75793743133545,-6.02470016479492,-0.06476250290871,-0.00989999994636,-0.00632499996573,-0.04482499882579,-0.10078749805689,-0.32078748941422,-1.07923746109009,-6.83498764038086,-2.37668752670288,2.72153759002686,0.86129999160767,3.21420001983643,1.97793745994568,0.27114999294281,-1.34804999828339,0.2938374876976,-0.57172501087189,-1.75944995880127,-1.9239000082016,-1.73937499523163,0.55027496814728,22.7136249542236,33.8901748657227,23.1033000946045,27.8658866882324,23.7033500671387,10.1616621017456,5.74502515792847,4.37676239013672,4.05611228942871,0.98505002260208,-0.04395000264049,-1.31805002689362,-1.37805008888245,0.33900001645088,8.42400074005127,18.5890502929688,-28.0080013275146,-19.40505027771,-11.7289505004883,-2.12700009346008,-1.11900007724762,0.12795001268387,1.46895003318787,1.15995001792908,7.65795040130615,10.4479503631592,12.8119506835938,14.146050453186,6.17505025863647,-3.98295021057129,-28.4239521026611,-8.17695045471191,35.4790534973145,20.2320003509521,14.1220502853394,8.47200012207031,4.83405017852783,2.4580500125885,2.13000011444092,7.18005037307739,8.69595050811768,7.12500047683716,8.00400066375732,7.19895029067993,0.54795002937317,-19.94700050354,13.4119510650635,21.4879512786865,13.0030508041382,-0.5020500421524,-0.58605003356934,5.26005029678345,4.17900037765503,2.23200011253357,SHAKE
0.31624999642372,0.91602498292923,1.02520000934601,0.43491250276566,0.11082500219345,-0.3240875005722,5.25456237792969,6.76156234741211,6.17086267471313,11.3887128829956,4.37098741531372,-0.20363749563694,2.91170001029968,2.77364993095398,-1.47235000133514,-0.15702499449253,-0.14932499825954,-0.16637499630451,-0.13598750531673,0.16499999165535,1.14069998264313,-1.38847494125366,-0.60926252603531,6.08808755874634,2.40391254425049,-0.2073500007391,4.56087493896484,2.39085006713867,-1.94947493076324,-5.50123739242554,-0.42157500982285,-1.1504625082016,-1.6603125333786,-1.11663746833801,0.82087498903275,4.64419984817505,27.7045993804932,33.2543754577637,16.9827632904053,19.54026222229,23.8271007537842,17.9408626556396,5.59281253814697,-3.39625000953674,-23.7773246765137,-1.91595005989075,-3.67695021629334,-3.20700025558472,0.22605000436306,3.60795021057129,4.57500028610229,27.2560520172119,-41.8939514160156,-28.0080013275146,-16.4010009765625,-8.64900016784668,-12.5100002288818,-2.98200011253357,-3.19095015525818,12.7110004425049,12.3090009689331,16.5630016326904,15.1020011901855,8.44799995422363,4.76700019836426,-3.39405012130737,-47.544002532959,-34.6009521484375,44.9220008850098,22.7149505615234,29.8720512390137,15.5970010757446,-3.22905015945435,-9.4680004119873,-22.8439502716064,4.44000005722046,5.02995014190674,7.65195035934448,1.90200006961823,1.49700009822845,2.33295011520386,-25.3309516906738,21.2680511474609,33.3360023498535,27.8370018005371,-4.18305015563965,9.49905014038086,7.69800043106079,-2.01104998588562,-11.6890506744385,SHAKE
9.48186206817627,23.4128131866455,20.1451244354248,5.41777515411377,5.44183731079102,4.22207498550415,-4.48772478103638,-3.27346253395081,5.0965747833252,15.9013252258301,15.8966503143311,3.93786239624023,2.3530375957489,-3.6507625579834,-22.7981872558594,7.32929992675781,6.77077484130859,7.11700010299683,6.60082483291626,2.52546238899231,-1.66484999656677,-5.60559988021851,-2.81338739395142,2.68798756599426,2.01891255378723,1.20106244087219,2.92173743247986,2.37517499923706,-4.87272500991821,-6.886549949646,6.16921234130859,20.9026126861572,22.3687744140625,7.93058729171753,2.93315005302429,-1.80400002002716,-28.8997497558594,-27.9008121490479,2.96367502212524,15.9872627258301,20.0408992767334,13.8206748962402,6.34136247634888,-7.0659875869751,-27.2049255371094,-14.814001083374,-8.58705043792725,-1.63095009326935,-3.79200029373169,-3.63795018196106,-2.92200016975403,21.5130004882813,-18.3130512237549,-32.7690010070801,-25.0500011444092,-1.11600005626678,-6.55995035171509,-2.17994999885559,7.75800037384033,7.93995046615601,28.4850006103516,40.7310028076172,28.7290515899658,14.2510509490967,0.21705001592636,-17.1850509643555,-45.0870018005371,-32.3880004882813,36.5950508117676,44.6400032043457,21.9250507354736,7.76595020294189,-6.17205047607422,-31.617000579834,-40.9140014648438,26.5249519348145,14.9230508804321,-5.1889500617981,0.92205005884171,0.35895001888275,-2.32005000114441,-19.5589504241943,7.69305038452148,42.0349502563477,30.9100513458252,-5.93400049209595,11.9389505386353,5.96100044250488,-13.9360504150391,-15.4249505996704,SHAKE
5.0965747833252,15.9013252258301,15.8966503143311,3.93786239624023,2.3530375957489,-3.6507625579834,-22.7981872558594,-18.3033123016357,3.63109993934631,14.3860750198364,10.6338376998901,-0.43573749065399,-3.06666254997253,-19.9155006408691,-20.2170372009277,2.68798756599426,2.01891255378723,1.20106244087219,2.92173743247986,2.37517499923706,-4.87272500991821,-6.886549949646,-2.57867503166199,0.02241249941289,-2.41175007820129,-3.55052495002747,0.7705500125885,-0.55068749189377,-5.02342510223389,-5.88857507705688,2.96367502212524,15.9872627258301,20.0408992767334,13.8206748962402,6.34136247634888,-7.0659875869751,-27.2049255371094,-17.1386871337891,10.1432371139526,22.8870124816895,21.3516864776611,9.6663875579834,4.47988748550415,-20.7028255462646,-19.5398502349854,-32.7690010070801,-25.0500011444092,-1.11600005626678,-6.55995035171509,-2.17994999885559,7.75800037384033,7.93995046615601,-41.7840003967285,-32.9850006103516,0.20505000650883,-5.95005035400391,-2.51805019378662,0.78195005655289,20.0590515136719,-39.8820037841797,36.5950508117676,44.6400032043457,21.9250507354736,7.76595020294189,-6.17205047607422,-31.617000579834,-40.9140014648438,1.09605002403259,47.3389511108398,20.6800518035889,17.3719501495361,1.3090500831604,-16.488000869751,-48.5760040283203,-13.2640504837036,42.0349502563477,30.9100513458252,-5.93400049209595,11.9389505386353,5.96100044250488,-13.9360504150391,-15.4249505996704,19.0480518341064,38.2650032043457,9.60195064544678,14.3700008392334,9.60900020599365,-1.56795012950897,-19.0150508880615,19.6939506530762,SHAKE
-3.06666254997253,-19.9155006408691,-20.2170372009277,0.01622499898076,11.7253122329712,11.63112449646,3.40697503089905,0.91066247224808,-6.90992498397827,-11.8454875946045,-4.57819986343384,9.92901229858398,11.8794498443604,1.92499995231628,-1.68657493591309,-0.55068749189377,-5.02342510223389,-5.88857507705688,-1.50686252117157,-1.74542498588562,-0.87064999341965,2.10017490386963,0.15798750519753,-2.58266258239746,-4.59098768234253,-2.2149875164032,-0.08731249719858,0.83544999361038,2.24125003814697,0.39696249365807,4.47988748550415,-20.7028255462646,-19.5398502349854,8.52499961853027,20.8511867523193,22.3462257385254,9.29706287384033,-0.47973749041557,-21.9876251220703,-26.3492622375488,-2.93919992446899,19.6717128753662,24.9136257171631,12.4158372879028,2.17470002174377,0.78195005655289,20.0590515136719,-39.8820037841797,-26.017951965332,-15.2470502853394,-16.1089515686035,-13.2400503158569,-2.54205012321472,36.8989524841309,-30.9420013427734,-26.9920520782471,-14.0569505691528,-10.6750507354736,-8.56995010375977,0.98805004358292,-16.488000869751,-48.5760040283203,-13.2640504837036,45.9229507446289,30.6169509887695,31.4839515686035,1.03605008125305,-19.3069515228271,-60.0289535522461,-26.2780513763428,52.3780517578125,40.7740516662598,27.5700016021729,-0.0430500023067,-25.8349514007568,-1.56795012950897,-19.0150508880615,19.6939506530762,25.6840515136719,16.5420017242432,-2.12100005149841,13.3740005493164,5.8560004234314,-22.5379505157471,9.40305042266846,18.7050018310547,15.6490507125854,5.13300037384033,14.7679510116577,-0.47100001573563,SHAKE
8.95207500457764,10.8030996322632,3.9974000453949,2.75797510147095,1.80207502841949,-1.58537495136261,-9.65098762512207,-7.61667490005493,7.75197505950928,11.8954000473022,4.82033729553223,-1.32247495651245,-4.70538759231567,-15.2719869613647,-13.9548749923706,-1.56227493286133,-0.94985002279282,1.97422504425049,1.88265001773834,-0.27073749899864,-2.71686244010925,-3.80228757858276,-2.07418751716614,-1.26252496242523,-0.37345001101494,2.10911250114441,0.76725000143051,-2.67327499389648,-0.25066250562668,0.4989874958992,14.5411748886108,23.0686492919922,15.2494373321533,4.46325016021729,-2.58170008659363,-14.8777751922607,-28.0692501068115,-14.5193128585815,11.7907629013062,25.2768993377686,18.7563743591309,3.4849374294281,-6.90772485733032,-30.2667751312256,-22.5599002838135,-27.117000579834,-14.5759506225586,-9.95895004272461,-13.0720510482788,-8.59605026245117,24.0060005187988,-7.88205051422119,-21.7540512084961,-25.6699504852295,-10.4329500198364,-5.55405044555664,-4.75005006790161,3.57195019721985,14.1720008850098,-30.0100517272949,42.8530502319336,26.3770503997803,18.5479507446289,5.64900016784668,-7.66395044326782,-46.9740028381348,-30.7399520874023,30.4270515441895,46.0909538269043,26.9140510559082,6.51300048828125,-5.28405046463013,-30.7020015716553,-40.9099502563477,1.28505003452301,25.912052154541,8.83800029754639,-1.46700012683868,10.7250003814697,5.91795015335083,-17.6550006866455,6.94305038452148,11.2279500961304,33.7360534667969,12.6649503707886,9.30705070495605,9.52305030822754,-4.15694999694824,-9.91695022583008,8.36100006103516,SHAKE
14.6147375106812,1.47784996032715,-11.5579748153687,-11.6741628646851,2.85229992866516,14.988187789917,14.516149520874,3.1941249370575,-5.84924983978271,-12.6329498291016,-4.17010021209717,11.9201498031616,14.9542245864868,6.08478736877441,0.1379124969244,3.04865002632141,1.63776254653931,1.30707502365112,-0.12622499465942,-1.06768751144409,0.54202497005463,0.77165001630783,1.32714998722076,0.79048746824265,-2.30793738365173,-2.15063738822937,0.02268750034273,1.27613747119904,2.05328750610352,1.39039993286133,22.5029754638672,0.66879999637604,-25.003137588501,-24.7929000854492,-0.43821248412132,20.1338500976563,23.0476131439209,3.48026251792908,-16.0049991607666,-25.9358005523682,-10.6463499069214,14.4797124862671,22.7200870513916,9.64782524108887,-3.57458758354187,-14.9860506057739,5.08095026016235,10.9630508422852,-22.2289505004883,-38.2969512939453,-30.8749523162842,-20.6980514526367,-4.17000007629395,44.053050994873,-13.9729509353638,-28.6740016937256,-35.4199523925781,-25.9650020599365,-15.8700008392334,22.1359519958496,-0.25905001163483,-41.3340034484863,-57.2440528869629,-6.51195049285889,46.9459533691406,44.2200012207031,7.56900024414063,-30.6900005340576,-56.9179534912109,-28.9510517120361,32.7940521240234,47.2189521789551,22.1220016479492,-12.6820507049561,-48.7080039978027,1.37505006790161,4.46400022506714,-13.6120510101318,12.2910003662109,30.6610507965088,11.7120008468628,5.92500019073486,9.64005088806152,-24.7750511169434,1.86105012893677,43.8649520874023,23.9929504394531,9.6709508895874,2.66295003890991,-8.4820499420166,SHAKE
-0.65450000762939,-0.18727499246597,0.69011247158051,1.25826251506805,0.72159999608994,-1.01653754711151,11.6151752471924,16.5558242797852,13.7664995193481,13.7132873535156,3.48837494850159,2.81008744239807,6.95667505264282,-3.41604995727539,-5.41144990921021,-0.12677499651909,-0.030387500301,0.0362999998033,-0.05857500061393,-0.40741249918938,-0.68942499160767,-4.72766256332397,-2.7471125125885,4.29233741760254,1.33141243457794,1.39576244354248,2.74243760108948,-0.09088750183582,-2.84789991378784,-4.12486267089844,-0.43972501158714,0.12155000120401,0.28022500872612,-0.37633749842644,-1.82091248035431,-1.36881244182587,22.2602882385254,34.9585494995117,22.0998249053955,21.6407127380371,18.4927883148193,4.49088764190674,-7.0188250541687,-31.7591991424561,-29.8614253997803,2.40300011634827,2.17095017433167,1.82100009918213,0.52799999713898,-0.08700000494719,12.07200050354,-6.69900035858154,-20.428050994873,-29.2890014648438,-19.7520008087158,-23.8549518585205,-12.7470006942749,11.428050994873,15.6360006332397,-19.1410503387451,8.87895011901855,8.80995082855225,9.27495002746582,11.4760503768921,10.4550008773804,-15.6730508804321,-32.5579528808594,11.2819509506226,31.5240020751953,27.4620018005371,19.2550506591797,-7.51800012588501,-29.9980506896973,-42.730052947998,-10.7059507369995,5.32200002670288,4.4040002822876,3.92295026779175,5.37900018692017,5.79600048065186,-7.08795022964478,-3.83295011520386,34.5510025024414,26.3119506835938,8.82299995422363,6.2989501953125,-0.32700002193451,-17.4040508270264,-10.7860507965088,2.74200010299683,SHAKE
0.21463750302792,-0.50971251726151,0.97336250543594,0.37097498774529,-0.56746250391006,-2.46042490005493,8.99112510681152,16.1228370666504,13.3522119522095,21.5975379943848,1.70238745212555,-28.0979881286621,-25.0369625091553,1.93558752536774,15.2718496322632,-0.14354999363422,-0.03396249935031,0.98188751935959,0.93651247024536,0.62411248683929,-1.46506249904633,-6.18034982681274,-5.69497489929199,20.7246875762939,23.0181865692139,1.38723754882813,8.9196252822876,-8.75242519378662,-9.18994998931885,16.0582122802734,0.05087500065565,-0.16472500562668,-1.80771243572235,-1.33704996109009,-0.36794999241829,-0.91093748807907,10.3366994857788,18.3262748718262,18.8200378417969,21.679349899292,0.57254999876022,-2.23327493667603,-15.9083375930786,-10.600700378418,15.5322751998901,2.35995006561279,2.94900012016296,0.91605001688004,0.28095000982285,-0.40995001792908,6.13500022888184,13.863000869751,-28.4959506988525,-45.9940528869629,-35.3680534362793,2.98800015449524,30.3199520111084,-15.5850009918213,-21.4840507507324,-20.4780006408691,8.15595054626465,7.37805032730103,10.0870504379272,11.3029508590698,7.56195020675659,-10.042950630188,-40.5930023193359,-12.6769504547119,40.7380523681641,28.5349521636963,-12.5740509033203,-41.9080505371094,-25.5409507751465,37.4470520019531,34.8319511413574,6.13800048828125,7.12005043029785,8.50995063781738,5.33100032806396,9.26205062866211,-5.46900033950806,-27.8839511871338,33.9970512390137,34.0980033874512,26.5630512237549,-3.39000010490417,-20.2900505065918,15.8410511016846,17.6299514770508,14.8519506454468,SHAKE
-25.0369625091553,1.93558752536774,15.2718496322632,12.1055002212524,-2.71479988098145,7.66562509536743,17.4469623565674,11.1692628860474,4.72986268997192,19.3661880493164,15.0770120620728,-3.72143745422363,-0.00302499998361,-10.0128870010376,-12.4667119979858,-8.75242519378662,-9.18994998931885,16.0582122802734,16.2667999267578,11.4218502044678,-4.02682495117188,11.5079250335693,38.8169364929199,26.766300201416,15.3522872924805,11.7024869918823,6.54087495803833,-3.09416246414185,-13.0589246749878,-11.1405248641968,-15.9083375930786,-10.600700378418,15.5322751998901,25.354175567627,16.0381374359131,-3.26136255264282,-19.6411876678467,-5.12022495269775,12.9999370574951,21.4935874938965,23.9903125762939,8.67501258850098,-8.01308727264404,-30.2359752655029,-20.8338623046875,-15.5850009918213,-21.4840507507324,-20.4780006408691,-21.9199504852295,-13.0080003738403,7.33200025558472,18.4620018005371,-29.976001739502,-31.8330020904541,-20.6070003509521,-13.993950843811,-6.31605052947998,11.1739501953125,22.8690013885498,-32.7240028381348,-25.5409507751465,37.4470520019531,34.8319511413574,24.2029514312744,-2.52900004386902,-25.5499515533447,-50.1739540100098,-4.28295040130615,52.1479530334473,27.3280506134033,13.6650009155273,-7.79100036621094,-31.0729522705078,-45.0120010375977,-19.1700000762939,15.8410511016846,17.6299514770508,14.8519506454468,9.38100051879883,-4.22100019454956,-13.0999507904053,-7.51695013046265,17.0119514465332,21.3439502716064,15.9169511795044,4.50300025939941,9.83895015716553,-6.98295021057129,-19.7770500183105,13.2679510116577,SHAKE
2.06579995155334,-0.604587495327,-4.49569988250732,-1.90052497386932,3.42622494697571,2.02056241035461,4.55235004425049,6.68593740463257,11.0900621414185,12.8778371810913,-0.58959996700287,-2.04929995536804,4.53873729705811,-8.64159965515137,-11.3876123428345,-2.8582124710083,1.94947493076324,7.63922500610352,8.1934871673584,5.56091260910034,1.12571251392365,-5.04858732223511,-0.37867498397827,12.6711750030518,13.1008625030518,10.7695503234863,7.38842487335205,-2.326087474823,-10.8608503341675,-11.2766494750977,10.0901622772217,15.5757246017456,-1.95799994468689,-14.5435123443604,-7.38416242599487,0.08016250282526,29.8871364593506,34.8682136535645,11.2040500640869,16.1504745483398,21.0557880401611,9.39056205749512,-2.74216246604919,-22.9583740234375,-23.2765502929688,8.76900005340576,3.85500025749207,-5.88000011444092,-5.9520001411438,2.07000017166138,31.3849506378174,-15.6259508132935,-29.0899505615234,-38.8240509033203,-19.4100017547607,-15.702000617981,-8.60295009613037,4.83195018768311,25.5340518951416,-13.5109510421753,-3.02805018424988,7.1650505065918,20.7970504760742,15.7150506973267,1.40505003929138,-36.952953338623,-45.355052947998,9.99795055389404,38.7690010070801,21.3190517425537,17.3869514465332,-0.65895003080368,-14.0209503173828,-46.9570503234863,-15.6130504608154,3.90405011177063,11.5219507217407,15.0930004119873,11.2470006942749,0.30195000767708,-15.913950920105,16.8030014038086,39.8530502319336,11.9730005264282,-2.88000011444092,7.90395021438599,1.29300010204315,0.36405003070831,-14.5200004577637,15.0139503479004,SHAKE
12.6317119598389,9.77941226959229,3.35417509078979,4.68545007705688,15.0976371765137,6.82824993133545,-8.88057518005371,4.82102489471436,10.0458869934082,0.46626248955727,-1.61012494564056,10.0157747268677,3.45468759536743,-12.2688503265381,-6.30354976654053,-2.3530375957489,2.14170002937317,1.92788743972778,3.95353746414185,8.24738788604736,10.9427995681763,10.6382369995117,-2.07185006141663,-8.18963718414307,-13.5419626235962,-9.78573703765869,7.39103746414185,8.89130020141602,9.53053760528564,5.4439001083374,-9.41682529449463,-33.2565765380859,-24.6945877075195,6.90813732147217,23.8783874511719,28.6438617706299,12.8690376281738,-3.8509624004364,-28.1605491638184,-29.5454502105713,-5.41447496414185,16.3085994720459,28.9954490661621,24.5084133148193,10.0392875671387,12.1489505767822,14.110050201416,-20.824951171875,-27.7729511260986,-30.1579513549805,-23.7660007476807,-19.0890007019043,-2.97000002861023,41.9950523376465,-22.0440006256104,-33.2790031433105,-26.4409503936768,-6.48600053787231,-5.49705028533936,-1.78005003929138,-19.6320018768311,-31.7389507293701,-9.10605049133301,27.3810005187988,43.9450531005859,24.79905128479,-1.05195009708405,-23.4930019378662,-55.7850036621094,-32.8069534301758,34.3669509887695,38.8699531555176,16.2130508422852,11.1979503631592,1.04295003414154,-18.4600505828857,-1.96305012702942,6.11895036697388,17.0599498748779,23.3350505828857,4.57500028610229,7.18995046615601,0.48405003547668,-16.3380012512207,3.49695014953613,12.2719507217407,38.7970504760742,4.32495021820068,4.53404998779297,3.54705023765564,SHAKE
2.1733250617981,-8.6574125289917,0.96731251478195,6.98115015029907,-0.59839999675751,-8.55098724365234,-4.04813766479492,1.35492503643036,5.7253623008728,-9.91608715057373,-13.5353622436523,2.66777491569519,9.51266288757324,5.64134979248047,-16.6300754547119,1.27696251869202,7.57281255722046,1.75587499141693,-8.44277477264404,-13.5478744506836,-12.8038625717163,-8.64641284942627,4.03576231002808,3.43378758430481,6.2187123298645,9.72894954681396,-2.73693752288818,-10.4637498855591,-18.6698875427246,-23.2702255249023,32.919563293457,20.2226753234863,4.24462509155273,-7.30771255493164,-33.3521385192871,-32.1441993713379,-4.60405015945435,12.0865249633789,33.6133880615234,36.445198059082,16.8889865875244,0.70221251249313,-5.62113761901855,-13.6144247055054,-29.458137512207,-9.38595008850098,-7.69605016708374,-4.61595010757446,3.27000021934509,23.8579502105713,2.28105020523071,-16.3339500427246,-22.7440509796143,-18.9090003967285,-5.43900012969971,-4.61595010757446,-3.16395020484924,0.84600001573563,7.39695024490356,17.4250507354736,17.2909507751465,11.7769508361816,-1.78500008583069,-11.0200500488281,-26.4319515228271,-13.8870010375977,-6.21495008468628,33.4789505004883,27.5680503845215,11.1520509719849,11.1360006332397,4.62405014038086,-3.78900027275085,-13.1320505142212,-22.453950881958,6.13395023345947,0.08595000207424,7.83705043792725,1.80300009250641,-19.420051574707,-5.2150502204895,1.99005007743835,20.2830009460449,37.0129508972168,4.18395042419434,2.47200012207031,5.00805044174194,1.96605014801025,-10.1680507659912,-15.9469509124756,SHAKE
5.64134979248047,-16.6300754547119,-13.5227127075195,4.0092248916626,16.9273490905762,11.1563377380371,-2.23203754425049,10.0245752334595,22.2153244018555,15.7994375228882,3.48878741264343,17.7372245788574,16.5558242797852,-0.09872499853373,6.27536249160767,-18.6698875427246,-23.2702255249023,-13.5190000534058,3.52728748321533,10.0847997665405,10.777250289917,6.93659973144531,-6.29612493515015,20.3022880554199,37.7764739990234,14.823187828064,14.7669496536255,14.6551628112793,7.54764986038208,-0.09790000319481,-13.6144247055054,-29.458137512207,-20.8331756591797,4.58658742904663,25.5388374328613,29.2969875335693,10.9399127960205,-8.36824989318848,-13.0546627044678,0.36836248636246,7.82251262664795,18.2586250305176,23.7105007171631,12.9265127182007,-0.80341249704361,7.39695024490356,17.4250507354736,-5.51100015640259,-19.7689514160156,-18.4200000762939,-12.153000831604,-4.97700023651123,1.50705003738403,35.1000022888184,-18.010950088501,-26.7580509185791,-29.4400520324707,-14.6359510421753,-6.81900024414063,-0.96300005912781,-13.1320505142212,-22.453950881958,-16.0849514007568,39.2989501953125,30.423002243042,13.4730005264282,-2.9650502204895,-17.1889514923096,-45.7020034790039,-25.0980014801025,35.9140510559082,43.0710029602051,14.8260011672974,-1.26000010967255,-14.671950340271,-10.1680507659912,-15.9469509124756,9.14400005340576,27.4729518890381,37.279052734375,-0.88800007104874,-1.15305006504059,-12.1470003128052,-23.053050994873,13.642050743103,24.6400508880615,25.5240020751953,-7.58595037460327,-1.42605006694794,-3.61500024795532,SHAKE
3.48878741264343,17.7372245788574,16.5558242797852,-0.09872499853373,6.27536249160767,23.2248497009277,19.5905876159668,3.42319989204407,13.3978624343872,17.4601631164551,1.12997496128082,-4.21286249160767,-0.3785375058651,-6.11888742446899,-20.5280628204346,14.823187828064,14.7669496536255,14.6551628112793,7.54764986038208,-0.09790000319481,15.4481248855591,28.6259880065918,11.9847745895386,11.2793998718262,8.41046237945557,3.49524998664856,6.0806622505188,-0.94641250371933,-5.58882474899292,-17.4523258209229,7.82251262664795,18.2586250305176,23.7105007171631,12.9265127182007,-0.80341249704361,-7.28474998474121,-0.91740000247955,6.00201225280762,15.7331628799438,25.2334499359131,20.996524810791,10.4017372131348,3.02857494354248,5.57919979095459,8.38956260681152,-26.7580509185791,-29.4400520324707,-14.6359510421753,-6.81900024414063,-0.96300005912781,30.5970020294189,-14.742000579834,-25.8280506134033,-31.3060512542725,-10.2270002365112,-3.16200017929077,-0.91995006799698,2.36205005645752,15.6259508132935,5.33895015716553,35.9140510559082,43.0710029602051,14.8260011672974,-1.26000010967255,-14.671950340271,-43.2349510192871,-29.3869514465332,16.2610511779785,41.0370025634766,22.8859519958496,11.988000869751,3.05700016021729,-5.24295043945313,-24.5280017852783,-27.351001739502,24.6400508880615,25.5240020751953,-7.58595037460327,-1.42605006694794,-3.61500024795532,-32.1900024414063,0.12900000810623,14.8560009002686,34.3810501098633,8.50995063781738,4.78305006027222,7.60905027389526,3.39105010032654,-25.7860507965088,-8.61600017547607,SHAKE
1.08638751506805,-8.09613704681396,-2.8967125415802,1.10316252708435,2.12121248245239,-1.59417498111725,-2.38576245307922,-0.25547498464584,8.74513721466064,3.51147508621216,-13.7156248092651,-7.86403751373291,7.61763763427734,16.5805740356445,4.60295009613037,2.33351254463196,3.60786247253418,0.26826250553131,-2.92861247062683,-2.47926259040833,-9.57110023498535,-12.8763246536255,-3.26493740081787,5.14937496185303,1.77540004253387,2.49865007400513,5.36222505569458,-3.49731254577637,-6.25446224212646,-4.93680000305176,31.4422626495361,12.9314622879028,4.11207485198975,4.53612518310547,22.1040878295898,26.3979377746582,11.5317125320435,10.9441747665405,23.4748249053955,29.7820873260498,23.0757999420166,10.2188625335693,-3.66863751411438,-17.291862487793,-31.3083381652832,-7.5949501991272,-2.04105019569397,1.84500002861023,5.39205026626587,7.54995012283325,14.6629505157471,-1.41795003414154,-30.3330020904541,-42.5119514465332,-26.7460517883301,-19.4460010528564,-18.6049499511719,-11.4750003814697,27.7690505981445,3.00405025482178,10.3930501937866,5.44305038452148,1.3330500125885,-1.54305005073547,-3.77505016326904,-14.7919502258301,-18.8509502410889,-7.59000015258789,34.734001159668,29.4289512634277,17.9370002746582,6.36495018005371,-14.2339506149292,-43.0939521789551,-34.2730522155762,10.6440000534058,1.12305009365082,3.10605025291443,1.61205005645752,-2.49705004692078,-13.85205078125,-5.74500036239624,12.6049509048462,23.0380516052246,18.9180011749268,2.81700015068054,5.23800039291382,3.80595016479492,-24.0810012817383,-3.26805019378662,SHAKE
8.74513721466064,3.51147508621216,-13.7156248092651,-7.86403751373291,7.61763763427734,16.5805740356445,4.60295009613037,-4.4522500038147,2.00433754920959,5.10798740386963,0.25313749909401,-3.93002486228943,2.47005009651184,2.19779992103577,-9.97644996643066,5.14937496185303,1.77540004253387,2.49865007400513,5.36222505569458,-3.49731254577637,-6.25446224212646,-4.93680000305176,-5.45668745040894,0.40617498755455,1.25468754768372,2.02853751182556,4.32877492904663,-2.3559250831604,-13.3564748764038,-19.746374130249,23.4748249053955,29.7820873260498,23.0757999420166,10.2188625335693,-3.66863751411438,-17.291862487793,-31.3083381652832,-19.9702243804932,2.91046237945557,27.9529247283936,31.7149257659912,8.9271879196167,-1.30130004882813,-12.2500123977661,-24.089448928833,-42.5119514465332,-26.7460517883301,-19.4460010528564,-18.6049499511719,-11.4750003814697,27.7690505981445,3.00405025482178,-22.617000579834,-34.6830024719238,-20.0610008239746,-8.69700050354004,-3.14505004882813,3.79695010185242,7.0420503616333,11.1979503631592,34.734001159668,29.4289512634277,17.9370002746582,6.36495018005371,-14.2339506149292,-43.0939521789551,-34.2730522155762,1.45995008945465,40.4790000915527,26.566951751709,12.1339502334595,1.28700006008148,-4.57500028610229,-5.48700046539307,-5.1589503288269,23.0380516052246,18.9180011749268,2.81700015068054,5.23800039291382,3.80595016479492,-24.0810012817383,-3.26805019378662,10.2910509109497,26.8630504608154,22.5640506744385,0.68700003623962,3.8490002155304,2.14605021476746,-0.75300002098083,-4.11105012893677,SHAKE
7.04137516021729,2.82369995117188,0.17888750135899,0.77797502279282,-0.68997502326965,-14.3433122634888,-12.1382246017456,1.28067493438721,11.0866250991821,6.80350017547607,-3.72171258926392,1.49434995651245,5.32427501678467,3.89592504501343,1.13629996776581,16.1321868896484,7.54448747634888,2.69431257247925,-1.73566246032715,-6.88215017318726,-18.2579364776611,-15.5423126220703,0.8401250243187,4.78609991073608,5.76592493057251,4.74594974517822,-0.63236248493195,-3.19687509536743,-3.21447491645813,-7.20527505874634,-22.2776126861572,2.95597505569458,2.49328756332397,-0.62658751010895,-5.23613739013672,-26.9388618469238,-22.4358749389648,4.59469985961914,26.2499866485596,35.3883743286133,17.1815872192383,5.80538749694824,3.16937494277954,3.95793747901917,22.0735626220703,-13.94700050354,-8.10300064086914,-5.08305025100708,0.66405004262924,10.4340009689331,17.1640510559082,-7.94700050354004,-17.9320507049561,-12.9049501419067,-2.14200019836426,0.00600000005215,0.30795001983643,2.06805014610291,6.38100051879883,19.4029502868652,26.7610511779785,15.8350505828857,7.29600048065186,-3.01995015144348,-16.5310516357422,-23.1120014190674,-12.8590507507324,22.9429512023926,25.537052154541,12.2970008850098,10.9420509338379,8.13705062866211,2.19300007820129,-3.04905009269714,-26.0440521240234,17.578950881958,9.20895004272461,6.21495008468628,0.91005003452301,-1.95105004310608,-13.0849504470825,4.74195003509521,21.4710006713867,32.1409530639648,8.93100070953369,3.23295021057129,2.13900017738342,1.12800002098084,0.08595000207424,-22.2580509185791,SHAKE
3.16181254386902,-5.65991258621216,-10.2063503265381,0.23333749175072,10.9280872344971,3.25448751449585,-5.17329978942871,1.19831252098084,7.80147504806519,1.01488745212555,-6.43417501449585,-0.86418747901917,3.16456246376038,-6.15972518920898,-9.56793785095215,-2.73803758621216,-3.8863000869751,3.32296252250671,-0.37386250495911,-5.86327505111694,-4.64804983139038,-6.23906230926514,-3.28542494773865,2.58995008468628,2.69747495651245,3.46114993095398,-0.4989874958992,-4.52388763427734,-7.32544994354248,-6.4733624458313,29.3584499359131,32.0865859985352,14.9140748977661,-0.56677502393723,-17.4811992645264,-35.3299369812012,-24.0703372955322,0.97996246814728,21.3057632446289,30.550163269043,15.9453248977661,1.4499374628067,-24.5497989654541,-34.9040985107422,-10.9048500061035,-24.0850505828857,-16.114049911499,-19.9129505157471,-9.91095066070557,7.71105051040649,23.2350006103516,-27.8160018920898,-26.7820510864258,-28.0650005340576,-13.2499504089355,-6.66300010681152,1.22700011730194,27.7710018157959,2.7480001449585,-17.848051071167,30.6409511566162,20.4109516143799,10.570050239563,-10.1530504226685,-32.0119514465332,-47.3230514526367,-25.912052154541,35.1580505371094,38.662052154541,15.2449502944946,1.97895014286041,-9.6379508972168,-32.4739532470703,-23.5890007019043,-0.63300001621246,33.6910514831543,18.6120014190674,7.22805023193359,6.54300022125244,-1.24200010299683,-18.4000511169434,9.91095066070557,17.1289501190186,36.5620498657227,5.41995048522949,6.99300050735474,4.00500011444092,-12.0649509429932,-5.94600009918213,5.94000005722046,SHAKE
-0.52332502603531,-3.60249996185303,-6.23053741455078,-5.44403743743896,-2.35386252403259,-0.47547498345375,0.20239999890327,0.21381250023842,-0.95988750457764,-1.79808747768402,-1.42614996433258,2.1041624546051,12.5642004013062,12.0043001174927,3.45042490959167,-0.54972499608994,2.02839994430542,3.47737503051758,2.9826500415802,1.78213751316071,1.14839994907379,0.55274999141693,0.41978749632835,1.10536253452301,0.87917500734329,-1.5940375328064,-2.97756242752075,-10.6060628890991,-12.9582748413086,-4.1357250213623,-1.30913746356964,-6.12232494354248,-8.51784992218018,-7.63922500610352,-4.26153755187988,-1.37307500839233,0.04798749834299,-0.57901251316071,-3.05717492103577,-3.67537498474121,-1.75821244716644,9.54511260986328,23.4510364532471,14.5407619476318,0.96854996681213,5.17905044555664,4.23495006561279,3.38295006752014,2.9800500869751,3.63405013084412,3.73200011253357,2.28299999237061,-1.63395011425018,-5.07300043106079,3.23400020599365,6.44100046157837,6.37395048141479,9.31305027008057,13.3770008087158,5.11005020141602,5.76405048370361,7.49805021286011,10.0309505462646,11.2720508575439,11.2290000915527,9.88095092773438,12.2160005569458,17.5930500030518,16.756950378418,3.29700016975403,-2.16300010681152,-3.55695009231567,-7.38705015182495,-10.8499507904053,-5.26200008392334,1.68105006217957,3.62100028991699,5.81505012512207,6.22905015945435,6.60795021057129,5.25705003738403,6.17895030975342,12.327000617981,15.0120010375977,3.71700024604797,-3.20595026016235,-4.33605003356934,-10.1389503479004,-11.076000213623,-1.76595008373261,SHAKE
-9.87772464752197,-1.59362494945526,13.2244749069214,9.35921287536621,-0.23594999313354,-0.7097749710083,-4.35696268081665,-4.14534997940063,11.5428495407104,10.9876251220703,-2.55516242980957,-0.25258749723434,-0.70028752088547,-11.418137550354,-10.4951000213623,-15.9742002487183,-12.7531251907349,1.71957504749298,3.78427505493164,3.64278745651245,-1.03345000743866,-8.82365036010742,-16.5867614746094,-7.36339998245239,7.15563726425171,5.58621263504028,-0.04248749837279,-5.36304998397827,-7.81825017929077,-6.01424980163574,25.4748992919922,13.9242124557495,18.3059253692627,32.4110870361328,21.3621368408203,5.81198740005493,19.6527366638184,28.6862125396729,27.6861743927002,33.9959106445313,20.1126747131348,1.90684998035431,-13.8154497146606,-31.4723739624023,-16.6702251434326,-11.4700508117676,-14.6650505065918,-12.553050994873,-6.92700052261353,-0.30705001950264,14.19105052948,11.3100004196167,-19.078950881958,-27.7009506225586,-14.2530002593994,-5.84700012207031,-0.70905005931854,22.1119518280029,10.9630508422852,-22.0969505310059,-20.5330505371094,24.1740016937256,17.836950302124,13.81605052948,6.76500034332275,-7.58100032806396,-20.0850009918213,8.41695022583008,31.3810520172119,10.2180004119873,5.89305019378662,-7.12095022201538,-25.7250003814697,-32.5339508056641,-0.61095005273819,7.69500017166138,23.6359519958496,11.9779500961304,13.4790010452271,8.8279504776001,3.07305026054382,-17.0989513397217,18.9349517822266,31.5780010223389,7.40295028686523,12.8400001525879,4.74705028533936,-7.014000415802,-14.296950340271,19.7689514160156,SHAKE
-6.5535249710083,15.7591495513916,10.0834245681763,-3.82676243782043,-1.93421244621277,-6.95364999771118,-11.1186628341675,-2.1379873752594,15.252462387085,12.9408121109009,0.78278750181198,-0.14107500016689,-5.45998764038086,-14.625599861145,-4.15841245651245,-4.38501262664795,2.1175000667572,5.65166234970093,5.86630010604858,1.72479999065399,-4.94972515106201,-16.3772125244141,-11.1051874160767,2.70558738708496,7.38553762435913,7.45786237716675,1.48004996776581,-7.70096254348755,-10.5058250427246,-1.19184994697571,-8.93241214752197,21.5906620025635,29.9842128753662,14.7208871841431,3.74495005607605,2.31110000610352,11.5604496002197,11.3624496459961,16.6529006958008,31.3068256378174,19.7493991851807,2.35069990158081,-11.4879875183105,-20.4921741485596,-6.50237512588501,-18.0400505065918,-19.7020511627197,-12.7249507904053,-7.56600046157837,5.91405010223389,20.2720508575439,2.050950050354,-13.7620506286621,-23.8740005493164,-15.0199508666992,-7.15200042724609,5.26800012588501,17.6880016326904,-3.65805006027222,-20.0730018615723,22.8229503631592,24.3370513916016,16.4620513916016,5.88600015640259,-5.92095041275024,-18.6460514068604,-16.3650016784668,9.39000034332275,31.8430519104004,15.7290010452271,3.16995024681091,-5.95395040512085,-18.8899517059326,-13.7860507965088,21.2620506286621,29.109001159668,15.8620510101318,16.9830017089844,10.1650505065918,-0.56400001049042,-18.5149517059326,9.07005023956299,19.9069499969482,13.9770002365112,18.2479515075684,8.02305030822754,1.1620500087738,-17.9520015716553,11.9970006942749,26.1730518341064,SHAKE
-14.625599861145,-4.15841245651245,14.3807125091553,8.32672500610352,-0.04523750022054,0.06544999778271,-5.22898769378662,-13.1256122589111,-5.16711235046387,15.094612121582,9.70530033111572,-2.45327496528625,-0.64625000953674,-2.46028757095337,-12.2047748565674,-10.5058250427246,-1.19184994697571,5.75327491760254,7.90116262435913,5.62966251373291,-0.54408746957779,-4.67609977722168,-9.09974956512451,-4.75296258926392,4.11523771286011,5.44101238250732,5.37721252441406,1.68368744850159,-5.88775014877319,-15.9442253112793,-20.4921741485596,-6.50237512588501,26.3608131408691,30.9219627380371,8.48746204376221,-1.44388747215271,-27.5402870178223,-31.2688751220703,-3.37878751754761,21.9734630584717,30.143575668335,14.7094745635986,3.21598744392395,-4.35352516174316,-9.09493732452393,-3.65805006027222,-20.0730018615723,-22.806001663208,-16.3900508880615,-4.83405017852783,6.61605024337769,23.3760013580322,-2.90100002288818,-23.4090003967285,-22.3120517730713,-11.6380500793457,-7.33905029296875,3.49995017051697,18.9240016937256,5.06205034255981,-13.7860507965088,21.2620506286621,30.388952255249,11.7940502166748,-2.54400014877319,-8.87400054931641,-21.691951751709,-18.6430511474609,19.6260013580322,27.2730007171631,11.7700510025024,5.07105016708374,-2.15595006942749,-19.4119510650635,-29.0659523010254,11.9970006942749,26.1730518341064,13.1490001678467,15.5700006484985,6.48105049133301,-0.26505002379417,-23.5710010528564,8.83500003814697,30.0289516448975,19.5360012054443,17.4409503936768,3.68595027923584,4.09995031356812,-16.5409507751465,-3.24900007247925,SHAKE
-5.16711235046387,15.094612121582,9.70530033111572,-2.45327496528625,-0.64625000953674,-2.46028757095337,-12.2047748565674,-7.3385124206543,9.19118785858154,6.07653760910034,-3.41041254997253,-1.4753749370575,11.2103748321533,6.06388759613037,-0.54780000448227,-4.75296258926392,4.11523771286011,5.44101238250732,5.37721252441406,1.68368744850159,-5.88775014877319,-15.9442253112793,-10.2795000076294,2.80101251602173,0.74676251411438,2.31907486915588,3.97443747520447,-4.97832489013672,-8.38694953918457,-9.80430030822754,-3.37878751754761,21.9734630584717,30.143575668335,14.7094745635986,3.21598744392395,-4.35352516174316,-9.09493732452393,-1.01378750801086,17.3135871887207,28.5337257385254,20.8667240142822,4.62604999542236,-8.36522483825684,-33.7686233520508,-31.8322124481201,-23.4090003967285,-22.3120517730713,-11.6380500793457,-7.33905029296875,3.49995017051697,18.9240016937256,5.06205034255981,-27.3490505218506,-34.8930015563965,-25.3540515899658,-17.2249507904053,-6.28005027770996,11.8680009841919,21.1420516967773,-8.77305030822754,19.6260013580322,27.2730007171631,11.7700510025024,5.07105016708374,-2.15595006942749,-19.4119510650635,-29.0659523010254,6.47700023651123,36.5950508117676,20.0070018768311,8.33595085144043,-4.29495000839233,-19.326000213623,-29.4229507446289,-14.6629505157471,30.0289516448975,19.5360012054443,17.4409503936768,3.68595027923584,4.09995031356812,-16.5409507751465,-3.24900007247925,21.9889507293701,13.8240003585815,9.77895069122314,4.03800010681152,2.53395009040833,-5.01405000686646,-19.6069507598877,2.49105000495911,SHAKE
16.3410491943359,19.043062210083,5.51677513122559,2.15036249160767,1.49228751659393,-0.60004997253418,0.40672498941422,2.75041246414185,14.2444496154785,15.5797128677368,2.95941257476807,1.33031249046326,1.31161248683929,-10.5491371154785,-10.7366876602173,-6.31193733215332,-6.18543767929077,-0.71293747425079,1.82599997520447,-0.64363747835159,-13.8953371047974,-15.545337677002,-4.50010013580322,-6.80707502365112,-5.00829982757568,2.43086242675781,2.79262495040894,-1.7019749879837,-15.4801626205444,-15.7910499572754,15.0991497039795,23.5668125152588,14.7498998641968,5.68686246871948,0.27362498641014,13.9368619918823,16.5775489807129,3.96274995803833,20.9532127380371,26.2723999023438,10.6347999572754,3.88863754272461,0.05321250110865,18.0805625915527,22.0195255279541,-9.78405094146729,-4.51500034332275,-5.44695043563843,-1.66305005550385,8.89800071716309,19.2229499816895,-6.03600025177002,-22.6669502258301,-23.1289520263672,-12.8740501403809,-5.63295030593872,-1.74405002593994,12.9990005493164,17.2950000762939,-20.7649517059326,26.3920516967773,16.4719505310059,14.3089504241943,2.76705002784729,-13.2850503921509,-29.1960010528564,-17.0650501251221,22.1689510345459,36.355052947998,21.6949501037598,11.952000617981,0.5950500369072,-18.2190017700195,-34.7830505371094,4.389000415802,28.3830013275146,11.6880006790161,7.98000049591064,3.7630500793457,-4.28805017471313,-20.7810001373291,-0.63795000314713,22.7070007324219,27.187952041626,1.38000011444092,3.6979501247406,4.66095018386841,0.89805006980896,-19.2240009307861,11.5750503540039,SHAKE
0.87559998035431,6.38728761672974,3.60112500190735,-3.54089999198914,-4.95879983901978,-9.24907493591309,-11.3583250045776,-6.1964373588562,2.234375,4.46654987335205,-1.27600002288818,-2.5482873916626,-0.07768750190735,-2.30752491950989,-10.2948999404907,-2.1099374294281,-1.68299996852875,-1.09133744239807,1.26843750476837,-1.52143752574921,-4.19856262207031,-17.4652500152588,-17.7450618743896,-1.20188748836517,-2.0847749710083,-2.64879989624023,2.07143759727478,0.13736249506474,-4.15896224975586,-10.5186128616333,7.45786237716675,28.4561748504639,29.6741504669189,6.88036251068115,2.43622493743896,10.2066249847412,28.2104625701904,23.7890129089355,11.3069000244141,26.005786895752,28.2107372283936,11.0566501617432,1.06040000915527,-4.07838726043701,-14.2482995986938,-22.1260509490967,-13.7550010681152,-7.36005020141602,-0.89595001935959,4.19204998016357,13.9830007553101,18.6769504547119,-26.6569519042969,-35.3650512695313,-30.7309513092041,-14.8450508117676,-7.90605020523071,0.47295001149178,6.13500022888184,17.7409515380859,35.0140533447266,18.7729511260986,11.5399503707886,3.79200029373169,-2.72595024108887,-14.2770004272461,-39.8989524841309,-20.4679508209229,33.6870002746582,32.6520004272461,12.6520509719849,4.41000032424927,-2.44605016708374,-5.71500015258789,-16.4209499359131,15.2250003814697,12.1090507507324,15.7590007781982,7.94700050354004,6.05205011367798,1.12604999542236,-22.2990016937256,16.605001449585,20.3620510101318,18.9109516143799,12.246000289917,3.46800017356873,5.11305046081543,3.67605018615723,-10.4029502868652,SHAKE
-1.27600002288818,-2.5482873916626,-0.07768750190735,-2.30752491950989,-10.2948999404907,-14.4544124603271,-6.55875015258789,0.88481247425079,9.42163753509521,6.82041263580322,-3.28666257858276,-1.71448743343353,2.96560001373291,-0.2441999912262,-14.3195247650146,-2.64879989624023,2.07143759727478,0.13736249506474,-4.15896224975586,-10.5186128616333,-15.336199760437,-10.8039245605469,-3.20869994163513,-6.4707498550415,-4.27652502059937,6.05082511901855,4.76863765716553,-3.60896253585815,-10.9942245483398,-6.70725011825562,28.2107372283936,11.0566501617432,1.06040000915527,-4.07838726043701,-14.2482995986938,-13.4162874221802,-0.58850002288818,5.74241256713867,28.4783115386963,31.754524230957,12.0041627883911,4.75956249237061,-3.45056247711182,-17.2011127471924,-34.8746757507324,-14.8450508117676,-7.90605020523071,0.47295001149178,6.13500022888184,17.7409515380859,7.92405033111572,-7.43505048751831,-17.5770015716553,-24.0270004272461,-17.3760013580322,-11.2189502716064,-4.45500040054321,2.34600019454956,7.9549503326416,23.5129508972168,12.6520509719849,4.41000032424927,-2.44605016708374,-5.71500015258789,-16.4209499359131,-15.5130004882813,-6.17505025863647,13.3219509124756,33.0450019836426,24.9910507202148,13.6339502334595,0.9300000667572,-7.46805047988892,-14.2819509506226,-26.7649517059326,12.246000289917,3.46800017356873,5.11305046081543,3.67605018615723,-10.4029502868652,-11.2120504379272,4.47600030899048,15.4240503311157,28.7089519500732,12.0949506759644,5.71500015258789,7.55205059051514,2.73795008659363,-1.03095006942749,-20.8999519348145,SHAKE
6.82041263580322,-3.28666257858276,-1.71448743343353,2.96560001373291,-0.2441999912262,-14.3195247650146,-12.4199628829956,-0.45429998636246,8.52857494354248,4.33344984054565,-6.00654983520508,-4.0052375793457,-3.87062501907349,-7.2837872505188,-8.29675006866455,-4.27652502059937,6.05082511901855,4.76863765716553,-3.60896253585815,-10.9942245483398,-6.70725011825562,-3.98818755149841,-4.80012512207031,0.41703748703003,0.10587500035763,1.59623754024506,2.0769374370575,-3.23812508583069,-12.0195627212524,-20.5823745727539,31.754524230957,12.0041627883911,4.75956249237061,-3.45056247711182,-17.2011127471924,-34.8746757507324,-22.4853744506836,2.05809998512268,24.043249130249,31.9206256866455,15.4137496948242,5.85598754882813,1.33498752117157,22.3570880889893,24.8844757080078,-17.3760013580322,-11.2189502716064,-4.45500040054321,2.34600019454956,7.9549503326416,23.5129508972168,-4.31895017623901,-27.9049510955811,-31.7730007171631,-12.8620510101318,-4.764000415802,1.36095011234283,6.5110502243042,8.2900505065918,11.2890005111694,24.9910507202148,13.6339502334595,0.9300000667572,-7.46805047988892,-14.2819509506226,-26.7649517059326,-18.0060005187988,14.413950920105,40.8310508728027,16.230001449585,6.76500034332275,-0.36000001430511,-5.32695007324219,-5.33400011062622,-3.27705025672913,12.0949506759644,5.71500015258789,7.55205059051514,2.73795008659363,-1.03095006942749,-20.8999519348145,-2.2260000705719,17.4190502166748,26.3239517211914,16.6210498809814,6.66795015335083,5.73900032043457,-0.88995003700256,-3.45495009422302,-7.97700023651123,SHAKE
2.2005500793457,-8.10974979400635,-4.73371267318726,-0.08772499859333,4.35269975662231,-2.59599995613098,-8.31971263885498,-1.56089997291565,10.4384498596191,8.85293769836426,-1.43041253089905,-0.33962500095367,-1.30982494354248,-9.21841239929199,-20.6384754180908,2.53426241874695,2.73569989204407,4.24104976654053,-0.84438747167587,-5.76345014572144,-3.33121252059937,-4.65959978103638,-6.97895002365112,-4.01389980316162,-2.49644994735718,1.16393744945526,1.29538750648499,-3.09375,-7.28626251220703,-12.4547500610352,29.2061004638672,20.0491504669189,6.42840003967285,-1.60682499408722,-13.7729625701904,-35.7872619628906,-26.3201122283936,0.39050000905991,20.74338722229,29.2364864349365,14.3441371917725,4.06862497329712,-1.50961244106293,-28.0466995239258,-31.5820999145508,-23.2920017242432,-16.6699504852295,-8.51895046234131,-1.09995007514954,5.3710503578186,23.4340515136719,-9.85095024108887,-24.1470012664795,-25.7680511474609,-12.7129507064819,-5.77005004882813,-0.81900006532669,3.55800008773804,10.3399505615234,18.4380016326904,24.2239513397217,14.7160511016846,2.19705009460449,-6.08595037460327,-17.6059513092041,-33.1159515380859,-19.0140018463135,19.6830005645752,38.4169502258301,19.6020011901855,8.79300022125244,-0.94395005702972,-7.28805017471313,-15.0120010375977,-17.7670516967773,29.0590515136719,7.69500017166138,4.06905031204224,7.88205051422119,3.11595010757446,-28.85205078125,-0.2029500156641,24.6499519348145,24.2590503692627,12.9070510864258,6.47595024108887,5.83200025558472,2.87595009803772,-4.88505029678345,-23.8320007324219,SHAKE
-11.1102752685547,-0.49266248941422,1.52845001220703,0.38238748908043,5.76386260986328,8.69316291809082,4.03356266021729,5.32592487335205,17.1008758544922,13.0605745315552,-0.71087497472763,0.81400001049042,3.25943756103516,-8.35711288452148,-10.6302623748779,6.81807518005371,3.95284986495972,0.29947498440742,-1.94961249828339,-3.7705249786377,-10.3912878036499,-9.07940006256104,0.10944999754429,1.67062497138977,2.35234999656677,3.92548751831055,1.15486252307892,-3.20099997520447,-7.80793762207031,-7.89662504196167,-7.17516231536865,7.18643760681152,6.94677495956421,5.28261232376099,19.5024490356445,24.3579864501953,9.80567455291748,9.74696254730225,25.9197120666504,24.4888877868652,7.74289989471436,1.02148747444153,-9.11941242218018,-32.2673988342285,-24.8022499084473,1.11495006084442,3.11205005645752,4.08494997024536,7.29600048065186,20.6530513763428,4.546950340271,-9.68595027923584,-22.2409515380859,-20.344051361084,-13.2900009155273,-6.72795009613037,-1.9690500497818,10.6710004806519,19.3890018463135,-10.452000617981,15.0589504241943,10.7280006408691,2.67195010185242,-3.6889500617981,-21.2779502868652,-17.9269504547119,-8.1070499420166,29.2320022583008,34.5040512084961,18.0570011138916,6.15900039672852,-3.8950502872467,-22.2499504089355,-31.8370513916016,-16.7629508972168,5.67105007171631,8.26005077362061,0.67095005512238,0.34995001554489,-15.3079509735107,-4.25699996948242,5.95605039596558,27.8370018005371,27.3030014038086,8.7180004119873,2.59605002403259,2.84505009651184,-4.07295036315918,-18.4309501647949,-0.66495001316071,SHAKE
