gyro_x_0,gyro_y_0,gyro_z_0,acc_x_0,acc_y_0,acc_z_0,gyro_x_1,gyro_y_1,gyro_z_1,acc_x_1,acc_y_1,acc_z_1,gyro_x_2,gyro_y_2,gyro_z_2,acc_x_2,acc_y_2,acc_z_2,gyro_x_3,gyro_y_3,gyro_z_3,acc_x_3,acc_y_3,acc_z_3,gyro_x_4,gyro_y_4,gyro_z_4,acc_x_4,acc_y_4,acc_z_4,gyro_x_5,gyro_y_5,gyro_z_5,acc_x_5,acc_y_5,acc_z_5,gyro_x_6,gyro_y_6,gyro_z_6,acc_x_6,acc_y_6,acc_z_6,gyro_x_7,gyro_y_7,gyro_z_7,acc_x_7,acc_y_7,acc_z_7,gyro_x_8,gyro_y_8,gyro_z_8,acc_x_8,acc_y_8,acc_z_8,gyro_x_9,gyro_y_9,gyro_z_9,acc_x_9,acc_y_9,acc_z_9,gyro_x_10,gyro_y_10,gyro_z_10,acc_x_10,acc_y_10,acc_z_10,gyro_x_11,gyro_y_11,gyro_z_11,acc_x_11,acc_y_11,acc_z_11,gyro_x_12,gyro_y_12,gyro_z_12,acc_x_12,acc_y_12,acc_z_12,gyro_x_13,gyro_y_13,gyro_z_13,acc_x_13,acc_y_13,acc_z_13,gyro_x_14,gyro_y_14,gyro_z_14,acc_x_14,acc_y_14,acc_z_14,motion_type
1.89997494220734,0.99715000391006,-0.34430000185966,-1.06383752822876,-3.32516241073608,-5.63667488098145,-7.18588733673096,-6.28182506561279,-1.86161243915558,3.10708737373352,5.36236238479614,5.94632482528687,5.12283754348755,3.36118745803833,0.9091500043869,1.44966244697571,2.921875,3.00863742828369,2.93163752555847,3.10021257400513,2.17662501335144,-0.14588749408722,1.11732494831085,2.75329995155334,1.77705001831055,0.59565001726151,-0.16046249866486,-1.10494995117188,-1.12571251392365,-0.84837502241135,1.91303753852844,5.38518762588501,8.16199970245361,10.4454622268677,10.9976625442505,8.17794990539551,5.56599998474121,2.22461247444153,0.46529999375343,-2.02826237678528,-4.18577480316162,-5.25717496871948,-5.49669981002808,-5.13741254806519,-4.05996227264404,-14.6959505081177,-14.5999507904053,-12.0300006866455,-9.56595039367676,1.16100001335144,12.1009502410889,19.8469505310059,24.7600517272949,16.8010501861572,14.32200050354,9.18705081939697,2.81205010414124,-2.10495018959045,-6.63195037841797,-11.6689500808716,-7.99995040893555,-7.87500047683716,-8.18400001525879,-8.94705009460449,-10.1010007858276,-2.84805011749268,2.44005012512207,5.81100034713745,9.61605072021484,7.01700019836426,2.77005004882813,0.54000002145767,-0.76800000667572,-1.5700501203537,-3.33405017852783,1.75395011901855,1.71900010108948,1.17495000362396,0.15600000321865,-3.45195007324219,-0.53700000047684,8.51895046234131,23.0509510040283,32.7019500732422,26.8849506378174,14.7979507446289,7.02405023574829,0.91905003786087,-2.41305017471313,-4.14105033874512,SHAKE
4.6953501701355,3.37713742256165,-0.36753749847412,-3.01125001907349,-0.97226250171661,0.92262500524521,0.35337498784065,-2.32952499389648,-5.3605751991272,-0.45663750171661,3.15356254577637,4.20543766021729,2.32883739471436,-1.98989999294281,-1.98742496967316,-1.05118751525879,-1.41638743877411,-0.44027498364449,0.01539999991655,-2.30463743209839,-1.10371243953705,-0.50875002145767,-0.97294998168945,3.4007875919342,1.75628745555878,0.75446248054504,-1.16476249694824,-2.40363740921021,-1.05476248264313,-0.43422499299049,-8.45322513580322,-7.92783737182617,-7.26935005187988,-4.72697496414185,2.07789993286133,8.24147510528564,14.0104246139526,12.725212097168,-1.03372502326965,-1.86202502250671,-6.25528764724731,-9.4428129196167,-10.1562995910645,-8.17217540740967,1.65769994258881,3.55605006217957,-3.82800006866455,-7.13505029678345,-18.4939517974854,-27.8860511779785,-21.621000289917,-17.053050994873,26.1450004577637,48.3970527648926,9.90705013275146,20.9569511413574,6.45105028152466,-2.44905018806458,-9.64005088806152,-37.0050010681152,-1.46505010128021,-5.58795022964478,-9.27495002746582,-14.9629507064819,-11.7919502258301,-12.5959501266479,-9.92100048065186,-6.87495040893555,11.6040000915527,23.752950668335,8.86200046539307,-1.06500005722046,-10.7520008087158,-22.2210006713867,-9.78194999694824,6.19095039367676,-0.07500000298023,-5.25105047225952,-0.16605000197887,8.96700000762939,3.882000207901,1.37400007247925,-1.93395006656647,2.66100001335144,30.1219520568848,14.2120504379272,7.15500020980835,0.74700003862381,-0.86505001783371,15.9319505691528,SHAKE
3.15356254577637,4.20543766021729,2.32883739471436,-1.98989999294281,-1.98742496967316,2.24826240539551,2.87622499465942,0.65752500295639,-1.55980002880096,-1.82503747940063,-1.31188750267029,-1.1921249628067,-1.84689998626709,-2.84514999389648,1.46877503395081,0.75446248054504,-1.16476249694824,-2.40363740921021,-1.05476248264313,-0.43422499299049,0.4613125026226,1.4716625213623,0.76917499303818,0.01292499992996,1.54013752937317,0.81317502260208,0.13516250252724,-0.31075000762939,0.09363749623299,-0.1727000027895,-6.25528764724731,-9.4428129196167,-10.1562995910645,-8.17217540740967,1.65769994258881,10.0093126296997,13.9407119750977,10.4442253112793,0.24901250004768,-3.37081241607666,-6.90772485733032,-9.11171245574951,-10.1745872497559,-8.84537506103516,2.33818745613098,20.9569511413574,6.45105028152466,-2.44905018806458,-9.64005088806152,-37.0050010681152,-23.401050567627,-8.27595043182373,25.6860008239746,40.2750015258789,21.2419509887695,16.5400505065918,5.60895013809204,1.05494999885559,-11.3890504837036,-37.7689514160156,8.86200046539307,-1.06500005722046,-10.7520008087158,-22.2210006713867,-9.78194999694824,-17.4040508270264,-15.4800004959106,-2.39805006980896,22.6260013580322,26.5909519195557,12.046950340271,0.15705001354218,-13.663950920105,-26.8300514221191,-11.2830009460449,14.2120504379272,7.15500020980835,0.74700003862381,-0.86505001783371,15.9319505691528,12.6799507141113,3.43395018577576,-2.86995005607605,-2.89395022392273,5.66400003433228,6.33000040054321,4.49700021743774,4.0009503364563,7.34895038604736,19.3090515136719,SHAKE
-1.31188750267029,-1.1921249628067,-1.84689998626709,-2.84514999389648,1.46877503395081,3.46376252174377,2.17731237411499,0.76010000705719,0.43889999389648,-1.15788745880127,-1.5439875125885,-1.55251252651215,-2.17566251754761,-3.51216244697571,-0.42858749628067,0.81317502260208,0.13516250252724,-0.31075000762939,0.09363749623299,-0.1727000027895,1.26403748989105,1.09175002574921,-0.19112500548363,-0.41580000519753,1.27613747119904,1.2725625038147,0.59688746929169,-0.04688749834895,-1.33581244945526,-2.6197874546051,-6.90772485733032,-9.11171245574951,-10.1745872497559,-8.84537506103516,2.33818745613098,10.0703620910645,13.5668497085571,13.3567495346069,1.55017495155334,-1.94149994850159,-5.91208744049072,-8.93089962005615,-10.2441625595093,-11.2937002182007,-3.84367489814758,16.5400505065918,5.60895013809204,1.05494999885559,-11.3890504837036,-37.7689514160156,-18.9030017852783,-8.11800003051758,17.9110507965088,43.0939521789551,21.3139514923096,21.1729507446289,10.2180004119873,2.0460000038147,-1.21395003795624,-34.9069519042969,12.046950340271,0.15705001354218,-13.663950920105,-26.8300514221191,-11.2830009460449,-17.9110507965088,-15.3559503555298,-8.93805027008057,13.4329509735107,29.9959506988525,17.1820507049561,4.49700021743774,-9.08100032806396,-30.0019512176514,-17.4330005645752,6.33000040054321,4.49700021743774,4.0009503364563,7.34895038604736,19.3090515136719,6.27705049514771,2.32905006408691,0.53205001354218,-0.25200000405312,1.5130500793457,4.02795028686523,4.89405012130737,3.40605020523071,3.87705016136169,20.5750503540039,SHAKE
0.49390000104904,0.09061250090599,-0.84754997491837,2.51336240768433,4.25796270370483,1.84992504119873,1.34529995918274,-0.44082498550415,-2.3955249786377,-1.47798752784729,0.50599998235703,1.52377498149872,0.856625020504,-0.90254998207092,0.22261250019073,0.12773749232292,-0.83613747358322,-2.26187491416931,-1.74514997005463,1.7355250120163,3.0416374206543,0.77770000696182,0.41731250286102,1.6464250087738,2.35372495651245,2.23519992828369,0.25121250748634,-1.57162499427795,-3.09388756752014,-0.84342497587204,-8.88937473297119,-9.96325016021729,-11.171462059021,-3.29395008087158,6.38687515258789,11.3165245056152,16.1068878173828,10.760612487793,-0.09184999763966,-2.45574998855591,-5.98042488098145,-8.73908710479736,-9.73348712921143,-10.1550626754761,-4.44358730316162,6.78405046463013,1.69395005702972,-1.05900001525879,-31.9470024108887,-23.0209503173828,-13.0690507888794,-8.66805076599121,35.7600021362305,38.485050201416,20.098051071167,18.9070510864258,8.27700042724609,0.31395000219345,-2.70495009422302,-24.1789512634277,-1.74495005607605,-12.3670501708984,-25.8049507141113,-13.47705078125,-16.7890510559082,-15.0300006866455,-14.8080005645752,-8.23905086517334,16.4260501861572,22.3750514984131,9.83400058746338,-0.81900006532669,-10.7080507278442,-21.1579513549805,-13.5030002593994,9.21105003356934,6.50700044631958,6.52800035476685,20.2879505157471,9.07005023956299,3.84105014801025,5.8560004234314,0.34005001187325,2.42895007133484,15.0900011062622,11.5129508972168,8.02605056762695,5.10195016860962,5.94705009460449,14.6760005950928,SHAKE
1.52377498149872,0.856625020504,-0.90254998207092,0.22261250019073,3.18161249160767,3.04961252212524,2.17126250267029,-0.33563750982285,-2.29900002479553,-0.78526252508163,-0.32587498426437,-1.38998746871948,-1.5219874382019,-1.18359994888306,-0.84149998426437,0.25121250748634,-1.57162499427795,-3.09388756752014,-0.84342497587204,1.93957495689392,1.79904997348785,1.5914249420166,-0.22288750112057,0.30744999647141,0.68860000371933,1.28480005264282,1.23832499980927,0.65917497873306,-1.33457493782043,-3.95271253585815,-8.73908710479736,-9.73348712921143,-10.1550626754761,-4.44358730316162,4.91713762283325,9.93726253509521,14.7556753158569,10.2463626861572,-1.65192496776581,-4.40316247940063,-6.49604988098145,-8.89666271209717,-8.62551212310791,-8.02312469482422,-6.30423736572266,8.27700042724609,0.31395000219345,-2.70495009422302,-24.1789512634277,-25.1119518280029,-15.0310506820679,-9.86205005645752,29.9640007019043,40.5550537109375,12.8929510116577,15.0799503326416,6.57600021362305,-3.37500023841858,-3.58305025100708,-10.396050453186,-0.81900006532669,-10.7080507278442,-21.1579513549805,-13.5030002593994,-12.2470502853394,-11.0100002288818,-10.4550008773804,-5.94195032119751,11.9200506210327,24.9040508270264,10.8100509643555,1.55400002002716,-4.58505010604858,-11.3430004119873,-15.7960510253906,8.02605056762695,5.10195016860962,5.94705009460449,14.6760005950928,13.3240509033203,5.75505018234253,3.05400013923645,-1.54905009269714,1.61295008659363,17.8830013275146,5.72205018997192,4.27200031280518,6.17700052261353,7.02405023574829,11.0010004043579,SHAKE
0.36437499523163,-0.0937749966979,-1.07112503051758,-0.85126250982285,3.0080873966217,2.89932489395142,1.06562495231628,-1.72851252555847,-3.11753749847412,-1.60256254673004,1.24396252632141,2.28978753089905,2.28126239776611,-0.91973751783371,0.9813374876976,0.56512498855591,-1.53491246700287,-1.77925002574921,0.13268749415874,2.06786251068115,1.85776245594025,0.45883750915527,0.83022499084473,3.04768753051758,1.52418744564056,2.33419990539551,0.88522499799728,-2.68702507019043,-4.62948751449585,-1.21852505207062,-7.74578762054443,-9.17028713226318,-9.61015033721924,-4.30553770065308,6.26353740692139,11.4936246871948,15.4299745559692,10.4222249984741,-2.22007489204407,-4.89431238174438,-6.7196249961853,-9.37076282501221,-11.2777500152588,-9.06276226043701,2.24647498130798,8.75295066833496,0.81900006532669,-0.01605000160635,-24.5740509033203,-26.8260021209717,-15.8280010223389,-6.82800054550171,30.9640522003174,42.0889511108398,12.7260007858276,15.5250005722046,5.56605005264282,-0.8770500421524,-12.7840509414673,-33.3300018310547,1.47000002861023,-6.68805027008057,-18.3079509735107,-11.3260507583618,-10.6219501495361,-12.7260007858276,-13.3530006408691,-6.40800046920776,8.40705013275146,18.5959510803223,5.12400007247925,-4.80300045013428,-14.7960004806519,-19.9519500732422,-9.05295085906982,8.68905067443848,7.42995023727417,5.50695037841797,13.7620506286621,14.6790008544922,5.98800039291382,2.0029501914978,0.47700002789497,6.67695045471191,22.2900009155273,12.2190008163452,7.57395029067993,6.26295042037964,6.13305044174194,19.0579509735107,SHAKE
1.24396252632141,2.28978753089905,2.28126239776611,-0.91973751783371,0.9813374876976,3.8999125957489,3.95243740081787,1.00333750247955,-1.9849499464035,-0.97707498073578,0.8786249756813,0.67704999446869,-0.24653749167919,-1.55622494220734,-1.61479997634888,2.33419990539551,0.88522499799728,-2.68702507019043,-4.62948751449585,-1.21852505207062,2.02881240844727,0.72269999980927,0.10821250081062,2.11557507514954,0.93898749351501,1.3836624622345,1.65976250171661,0.71183747053146,-1.30404996871948,-2.503737449646,-6.7196249961853,-9.37076282501221,-11.2777500152588,-9.06276226043701,2.24647498130798,10.0093126296997,14.3133373260498,12.4698753356934,2.32594990730286,-2.22983741760254,-4.9456000328064,-7.97912502288818,-9.65786266326904,-11.1128873825073,-6.71343755722046,15.5250005722046,5.56605005264282,-0.8770500421524,-12.7840509414673,-33.3300018310547,-20.9440517425537,-8.85494995117188,18.2680511474609,38.6959533691406,23.002950668335,19.7250003814697,13.4509506225586,2.93595004081726,-2.26005005836487,-20.2620010375977,5.12400007247925,-4.80300045013428,-14.7960004806519,-19.9519500732422,-9.05295085906982,-16.3630504608154,-17.5860004425049,-11.7250509262085,7.83300018310547,18.4650001525879,11.6280002593994,4.19595003128052,-5.52105045318604,-17.1649513244629,-21.5239505767822,12.2190008163452,7.57395029067993,6.26295042037964,6.13305044174194,19.0579509735107,13.4730005264282,6.1360502243042,-2.00894999504089,2.17095017433167,14.7910509109497,9.72495079040527,3.66600012779236,2.54205012321472,3.99705028533936,12.4200010299683,SHAKE
1.03633749485016,-1.3778874874115,-4.57751226425171,-1.62222504615784,3.90114998817444,3.6238124370575,1.51153743267059,-2.77062487602234,-5.18223762512207,0.09061250090599,3.37713742256165,2.45217490196228,1.24643754959106,-1.37664997577667,-1.4169374704361,-2.34244990348816,-3.23441243171692,-3.00588750839233,0.1009249985218,1.63666248321533,1.77828752994537,1.27737498283386,1.69276249408722,4.97310018539429,0.02268750034273,0.89498752355576,-1.05723750591278,-1.93077504634857,-2.4817373752594,-2.51349997520447,-9.26681232452393,-9.27423763275146,-9.29376220703125,-2.47046256065369,5.76510000228882,10.5248003005981,15.8503122329712,12.3318252563477,-1.73745000362396,-1.72892498970032,-6.08313751220703,-8.80013751983643,-9.19228744506836,-9.49533748626709,-2.89079999923706,1.55805003643036,-0.54900002479553,-0.59895002841949,-24.916051864624,-20.8120517730713,-12.7909507751465,-9.66105079650879,30.8179512023926,44.2279510498047,11.053050994873,20.2699508666992,7.2480001449585,0.14400000870228,-1.72200012207031,-24.1600513458252,-3.5179500579834,-9.43305015563965,-22.945951461792,-13.032000541687,-15.3790502548218,-12.8719501495361,-12.9670505523682,-9.47100067138672,6.23505020141602,18.295051574707,6.36405038833618,-0.57705003023148,-5.38695049285889,-17.9250011444092,-15.3870010375977,4.53705024719238,2.12295007705688,5.10495042800903,20.6539516448975,16.8730506896973,5.01405000686646,2.72100019454956,-2.51100015640259,10.078950881958,28.4689521789551,14.0209503173828,5.28405046463013,5.35605049133301,2.95305013656616,16.734001159668,SHAKE
1.31353747844696,-2.61786246299744,-2.34657502174377,1.27201247215271,1.94521248340607,0.27761250734329,-3.13348746299744,-4.41993761062622,2.59270000457764,5.21083736419678,3.20361256599426,0.7735750079155,-2.39428758621216,-2.04737496376038,-0.28929999470711,1.32508754730225,2.52353739738464,2.14486241340637,1.39232504367828,-0.14712500572205,-1.92596244812012,-2.99488759040833,-1.46162497997284,1.79423749446869,2.93645000457764,2.11062502861023,2.08986258506775,0.57859998941422,-0.86294996738434,-0.49403750896454,14.8472499847412,5.67105007171631,-1.34406244754791,-4.40934991836548,-8.10136222839355,-9.29500007629395,-10.2453994750977,-7.46487474441528,3.48658752441406,9.10029983520508,13.6768503189087,14.0592374801636,2.72057509422302,-1.02520000934601,-3.92315006256104,4.42005014419556,40.6579513549805,26.2480506896973,21.8040008544922,13.2880506515503,0.92100006341934,2.22105002403259,-10.9870500564575,-29.2810516357422,-14.5530004501343,-11.56605052948,15.2980508804321,38.2240524291992,20.2230014801025,22.6830005645752,-13.113000869751,4.20600032806396,21.4819507598877,13.3920001983643,4.37100028991699,-4.89405012130737,-17.2219505310059,-23.6059513092041,-13.8480005264282,-15.4870510101318,-11.2090501785278,-12.3139505386353,7.05495023727417,18.4980010986328,13.1809501647949,2.20395016670227,-3.28395009040833,17.6119499206543,15.118950843811,6.50700044631958,2.20395016670227,1.10400009155273,14.5249509811401,26.6809520721436,9.78000068664551,2.72100019454956,-2.08004999160767,-1.93905007839203,11.6899509429932,12.6709508895874,SHAKE
1.34296250343323,1.380774974823,0.52799999713898,-0.12677499651909,3.12908744812012,3.00685000419617,1.58606255054474,-1.1200749874115,-5.24328756332397,-5.72948741912842,-0.25382500886917,3.59699988365173,4.65616226196289,3.46142506599426,0.63552498817444,1.558424949646,-0.9118999838829,-2.04682493209839,-1.17094993591309,1.96404993534088,2.82535004615784,2.06786251068115,0.38802498579025,3.73312497138977,2.41477489471436,3.19673752784729,2.62501239776611,-1.88801252841949,-4.58562517166138,-1.61191248893738,-8.03288745880127,-10.467737197876,-11.9216623306274,-7.17777490615845,5.98743724822998,10.502799987793,15.2993497848511,14.4771003723145,0.862399995327,-2.78684997558594,-2.93108749389648,-6.7476749420166,-10.505687713623,-11.0334119796753,-4.55111265182495,8.80395030975342,3.69495010375977,4.29300022125244,-20.2720508575439,-28.4959506988525,-9.9529504776001,-10.7719507217407,21.984001159668,42.5629501342773,8.800950050354,11.8830003738403,10.9879503250122,2.92905020713806,-4.33004999160767,-24.4420509338379,-1.87905013561249,-10.4620504379272,-26.9830513000488,-16.9369506835938,-10.4170503616333,-13.663950920105,-9.07695007324219,-11.8500003814697,5.73900032043457,15.6820507049561,7.62000036239624,-3.91500020027161,-15.7000503540039,-22.5100517272949,-11.1559505462646,9.80895042419434,6.8299503326416,3.38205027580261,12.6949510574341,17.1049499511719,7.4520001411438,5.33205032348633,1.53195011615753,-2.800950050354,24.4180507659912,21.7950019836426,13.13805103302,7.74900054931641,4.44600009918213,7.67205047607422,SHAKE
-0.25382500886917,3.59699988365173,4.65616226196289,3.46142506599426,0.63552498817444,2.49136257171631,3.14861249923706,3.07284998893738,0.44123750925064,-1.01859998703003,0.87628751993179,0.60500001907349,-1.83961248397827,-2.35028743743896,1.75835001468658,3.19673752784729,2.62501239776611,-1.88801252841949,-4.58562517166138,-1.61191248893738,2.88158750534058,1.70500004291534,-0.1544124931097,0.45155000686646,1.95305001735687,-0.10793749988079,0.75459998846054,-0.04564999789,-1.45681250095367,-1.11223745346069,-2.93108749389648,-6.7476749420166,-10.505687713623,-11.0334119796753,-4.55111265182495,7.20664978027344,13.0171251296997,17.4274368286133,5.61604976654053,-3.76667499542236,-3.65062499046326,-6.4898624420166,-8.96389961242676,-8.60103702545166,0.87449997663498,11.8830003738403,10.9879503250122,2.92905020713806,-4.33004999160767,-24.4420509338379,-26.6029510498047,-15.2560510635376,2.12295007705688,50.8660507202148,28.3489513397217,14.0059509277344,16.420051574707,0.76800000667572,-8.49795055389404,-34.1029510498047,7.62000036239624,-3.91500020027161,-15.7000503540039,-22.5100517272949,-11.1559505462646,-9.39000034332275,-12.9769506454468,-19.4520015716553,-3.69195008277893,15.5670003890991,18.0700511932373,8.10795021057129,-7.80795049667358,-20.7199516296387,-7.8270001411438,21.7950019836426,13.13805103302,7.74900054931641,4.44600009918213,7.67205047607422,15.82200050354,10.371000289917,5.28600025177002,-3.38505005836487,5.53305006027222,13.9080009460449,2.82195019721985,3.58305025100708,9.0169506072998,20.9460010528564,SHAKE
-0.29053750634193,-0.69849997758865,-1.40346252918243,-1.79684996604919,2.80046248435974,3.54447507858276,2.14307498931885,0.41566249728203,-0.69849997758865,0.20184999704361,0.02474999986589,-2.89891242980957,-3.95683741569519,-1.19707500934601,3.98186254501343,1.32879996299744,0.80217498540878,-0.1348875015974,-1.7352499961853,-0.91561251878738,1.8712375164032,0.8291249871254,-0.38170000910759,1.95181250572205,0.08016250282526,-0.11412499845028,1.40208745002747,0.33673748373985,-3.03888750076294,-0.42446249723434,-6.85767507553101,-8.48856258392334,-10.4494495391846,-10.1403503417969,2.91720008850098,10.9011373519897,15.3188753128052,10.1926002502441,-2.81256246566772,-5.59322500228882,-6.51433753967285,-8.51551246643066,-10.5142126083374,-4.26634979248047,6.3856372833252,18.9259510040283,5.23605012893677,1.40505003929138,-9.38895034790039,-41.6860504150391,-17.6320514678955,-5.25405025482178,33.8740501403809,48.0310516357422,14.8050003051758,13.9600505828857,4.4370002746582,-2.56905007362366,-30.574951171875,-25.1890506744385,7.94295024871826,-0.88605004549026,-12.9769506454468,-28.0140018463135,-2.95500016212463,-14.2909507751465,-14.9419507980347,-8.31300067901611,12.0090007781982,22.4659519195557,8.25705051422119,-3.23505020141602,-18.9139499664307,-14.3190002441406,-15.2290506362915,6.04305028915405,4.29300022125244,3.63300013542175,9.23505020141602,22.1370010375977,7.40205049514771,5.01405000686646,-0.16095000505447,2.75505018234253,12.6540002822876,2.01104998588562,-2.0590500831604,5.27700042724609,18.2059516906738,13.7839508056641,SHAKE
1.83768749237061,1.77540004253387,0.33866250514984,-1.32412505149841,0.87257498502731,4.08567476272583,3.72886252403259,2.49988746643066,-1.97284996509552,-2.50428748130798,-0.2403499931097,-0.17201249301434,-0.54834997653961,-0.81344997882843,-1.05655002593994,1.88223743438721,0.31102499365807,-1.19900000095367,-0.59427499771118,-0.2239875048399,1.77594995498657,2.03981256484985,1.52418744564056,2.56382489204407,1.82228744029999,0.70317500829697,1.23337495326996,0.36973750591278,-0.36451250314713,-0.19841249287128,-7.21077489852905,-9.47457504272461,-11.2301750183105,-11.0846996307373,-1.43082499504089,8.1119499206543,14.2034749984741,19.3285121917725,6.61044979095459,-2.93961238861084,-3.5650999546051,-7.09348726272583,-8.90161228179932,-9.43538761138916,-11.3620376586914,18.8970012664795,6.44400024414063,2.19705009460449,-5.88105010986328,-32.4630012512207,-26.1289520263672,-14.9260511398315,2.19705009460449,61.243953704834,34.9050025939941,22.7640018463135,19.1670017242432,7.60200023651123,2.49600005149841,1.97895014286041,3.99300026893616,-6.69795036315918,-16.9489517211914,-31.4620513916016,-12.6520509719849,-14.9890508651733,-15.901050567627,-22.0080013275146,-5.56095027923584,19.0320014953613,17.6389503479004,5.58105039596558,-2.66100001335144,-9.78705024719238,-21.1270503997803,11.4700508117676,5.34900045394897,2.90100002288818,4.32705020904541,18.3090000152588,12.5680503845215,5.10195016860962,-0.27405002713203,-7.81905031204224,8.24205017089844,13.3429508209229,7.38495016098022,6.84405040740967,6.11205005645752,4.34400033950806,SHAKE
-0.81344997882843,-1.05655002593994,-0.19758750498295,4.19801235198975,3.7668125629425,1.37472498416901,0.88233751058578,-1.68203747272491,-4.01183748245239,-0.59468752145767,2.73075008392334,2.66475009918213,2.95679998397827,1.14619994163513,-1.41075003147125,-0.36451250314713,-0.19841249287128,-0.70289999246597,-0.64927500486374,0.89017498493195,0.96717500686646,-0.13241249322891,1.48142504692078,4.61752510070801,-0.47079998254776,0.90598750114441,0.0496375001967,-1.33210003376007,-2.28635001182556,-0.45746248960495,-9.43538761138916,-11.3620376586914,-8.73056221008301,2.10842490196228,7.60856246948242,10.8766622543335,15.4031620025635,11.7147245407104,-0.96043747663498,-3.26823759078979,-6.82591247558594,-9.65786266326904,-10.1843500137329,-10.6034498214722,-8.93942451477051,2.49600005149841,1.97895014286041,-17.2780513763428,-30.7930507659912,-14.7820510864258,-9.8430004119873,-7.15095043182373,31.5079517364502,41.9959526062012,14.7330007553101,21.6220512390137,10.488000869751,0.55995005369186,-0.50100004673004,-9.87900066375732,-9.78705024719238,-21.1270503997803,-22.4670009613037,-12.4410009384155,-12.6109504699707,-9.10995006561279,-9.82500076293945,-5.43900012969971,3.79200029373169,20.5590019226074,5.66805028915405,-2.93400025367737,-6.94200038909912,-16.1310005187988,-18.4950008392334,6.11205005645752,4.34400033950806,11.5510501861572,16.5550498962402,3.89895009994507,0.62700003385544,3.74805021286011,0.26100000739098,6.31800031661987,32.3359527587891,15.5760011672974,9.47205066680908,7.57905054092407,1.61805009841919,3.22800016403198,SHAKE
2.66475009918213,2.95679998397827,1.14619994163513,-1.41075003147125,0.82486248016357,3.60552501678467,1.84745001792908,-0.71568751335144,-4.33922481536865,-3.20911240577698,2.07102489471436,3.07037496566772,2.76746249198914,1.3026750087738,-1.81885004043579,0.0496375001967,-1.33210003376007,-2.28635001182556,-0.45746248960495,0.65683752298355,1.67323744297028,2.01410007476807,2.79111242294312,4.66523742675781,3.47160005569458,-0.14959999918938,-0.22893749177456,-2.25582504272461,-3.82813739776611,-3.29422497749329,-9.65786266326904,-10.1843500137329,-10.6034498214722,-8.93942451477051,-0.24571250379086,8.71914958953857,14.6957244873047,20.0138130187988,7.38388729095459,-3.65310001373291,-2.80761241912842,-7.25353765487671,-9.27176284790039,-10.065824508667,-10.0610122680664,10.488000869751,0.55995005369186,-0.50100004673004,-9.87900066375732,-29.9389514923096,-22.8370513916016,-14.9110507965088,-2.95395016670227,60.8640022277832,26.2840518951416,17.7340507507324,19.7680511474609,4.57305002212524,0.07200000435114,0.06195000186563,-2.93400025367737,-6.94200038909912,-16.1310005187988,-18.4950008392334,-11.3980503082275,-14.9419507980347,-17.1000003814697,-24.2689514160156,-11.0460004806519,18.6349506378174,12.4129505157471,4.99995040893555,0.50100004673004,-6.80595016479492,-14.0130004882813,9.47205066680908,7.57905054092407,1.61805009841919,3.22800016403198,15.5329504013062,10.1800508499146,0.8929500579834,1.13505005836487,3.175950050354,22.9720516204834,21.7639503479004,10.6990509033203,7.23900032043457,4.48995018005371,0.66600000858307,SHAKE
0.76628750562668,-0.93554997444153,-2.28428745269775,-0.48592498898506,4.25177478790283,3.70328736305237,1.52982497215271,-1.76756250858307,-2.83538746833801,0.35942500829697,2.23959994316101,1.63006246089935,-0.40163749456406,-2.95872497558594,-2.55062508583069,-2.11887502670288,-2.36692500114441,-0.68585002422333,0.33921250700951,0.67883747816086,1.64766252040863,1.982337474823,4.19856262207031,4.12651252746582,-0.12636250257492,-0.33646249771118,-1.58619999885559,-2.35716247558594,-1.55938744544983,-0.83118748664856,-8.20517539978027,-8.60708713531494,-9.44404983520508,-5.55774974822998,4.18536233901978,10.2414121627808,15.4702625274658,12.0665874481201,0.29053750634193,-3.05442500114441,-6.14171266555786,-8.68656253814697,-9.4220495223999,-9.84224987030029,-6.77820014953613,6.91095018386841,2.92695021629334,0.51495003700256,-19.3690509796143,-27.5989513397217,-16.5390014648438,-10.3099508285522,30.8659515380859,43.993953704834,21.6340503692627,18.3820514678955,8.05695056915283,1.2679500579834,-1.00095009803772,-14.9470510482788,1.34805011749268,-6.10005044937134,-17.5930500030518,-17.193000793457,-14.2759504318237,-14.2720508575439,-11.8069505691528,-7.68405055999756,12.1360502243042,19.7880001068115,8.42700004577637,0.43005001544952,-5.60205030441284,-17.4799499511719,-18.0880508422852,4.94700002670288,5.43000030517578,5.78205013275146,17.1360015869141,16.9230003356934,5.10195016860962,2.05605006217957,-1.80000007152557,10.8760509490967,21.8089504241943,10.7880001068115,5.02605009078979,2.65905022621155,2.83095002174377,12.5179510116577,SHAKE
1.44553744792938,-0.15125000476837,-2.81572508811951,-3.77850008010864,0.74057501554489,3.4406623840332,2.43883752822876,-1.38393747806549,-5.15294981002808,-0.75597500801086,2.62569999694824,2.16631245613098,1.62511253356934,-0.93059998750687,-0.63854998350143,-2.39140009880066,-1.99430000782013,-1.32357501983643,0.14245000481606,-0.06407500058413,0.92675000429153,0.52112501859665,0.28297498822212,4.62618732452393,0.16692499816418,1.84181249141693,0.03368749842048,-1.99801254272461,-2.32649993896484,-0.30937498807907,-8.4556999206543,-8.62784957885742,-9.39509963989258,-6.59862518310547,2.86838746070862,10.0960750579834,16.2582740783691,12.1485376358032,-2.23712491989136,-2.25912499427795,-5.7947998046875,-8.53256225585938,-9.10318756103516,-8.63939952850342,-2.62487506866455,6.50895023345947,0.95505005121231,0.1219500079751,-12.5230503082275,-31.0590019226074,-21.681001663208,-13.8970508575439,32.9340019226074,45.2239532470703,4.90095043182373,20.3470516204834,5.9850001335144,-2.25495004653931,-5.24700021743774,-23.3179512023926,-1.61295008659363,-6.6190505027771,-15.6709508895874,-15.7219505310059,-7.21500015258789,-10.0360507965088,-13.6590003967285,-12.8050508499146,4.83195018768311,26.0580005645752,5.32500028610229,-2.46705007553101,-7.26300048828125,-14.7640504837036,-6.77895021438599,7.63905048370361,3.96105027198792,1.0200001001358,7.18395042419434,20.0149517059326,9.32100009918213,4.15200042724609,-5.98605012893677,4.01100015640259,29.9839515686035,12.3499507904053,6.4680004119873,5.41095018386841,2.3689501285553,12.3360004425049,SHAKE
2.16631245613098,1.62511253356934,-0.93059998750687,-0.63854998350143,2.31426239013672,3.03517508506775,2.47926259040833,0.0114124994725,-2.26462507247925,-1.39232504367828,0.98505002260208,1.22938752174377,0.68942499160767,-1.73689997196198,-3.51697492599487,0.03368749842048,-1.99801254272461,-2.32649993896484,-0.30937498807907,1.0723625421524,1.15170001983643,0.20487499237061,0.80602496862411,3.00382494926453,1.2971750497818,0.49939998984337,-0.1885125041008,-1.90011250972748,-2.5500750541687,-0.67966252565384,-8.53256225585938,-9.10318756103516,-8.63939952850342,-2.62487506866455,5.2893500328064,10.6672496795654,15.2987995147705,12.0649375915527,0.38417500257492,-2.96449995040894,-4.84109973907471,-7.7829122543335,-8.6088752746582,-9.1610746383667,-6.54788732528687,5.9850001335144,-2.25495004653931,-5.24700021743774,-23.3179512023926,-22.9710006713867,-14.6839504241943,-7.28805017471313,27.1789512634277,44.8150520324707,18.6649513244629,19.4640007019043,10.8139505386353,-0.22395001351833,-1.07295000553131,-10.9540500640869,-2.46705007553101,-7.26300048828125,-14.7640504837036,-6.77895021438599,-9.16005039215088,-11.0820007324219,-12.9460506439209,-10.3849506378174,6.42405033111572,22.0369510650635,8.37600040435791,0.54704999923706,-4.5949501991272,-13.0009508132935,-14.4610509872437,6.4680004119873,5.41095018386841,2.3689501285553,12.3360004425049,13.7310009002686,7.64295053482056,3.86295008659363,-1.32900011539459,3.73605012893677,18.2920513153076,11.8999509811401,7.39200019836426,5.82495021820068,1.16100001335144,6.70095014572144,SHAKE
1.22938752174377,0.68942499160767,-1.73689997196198,-3.51697492599487,-0.15358750522137,4.23362493515015,4.63072490692139,2.00034999847412,-2.50896239280701,-1.9909999370575,1.1255749464035,0.43903750181198,-0.67278748750687,-1.57684993743896,-2.72525000572205,-0.1885125041008,-1.90011250972748,-2.5500750541687,-0.67966252565384,0.21711249649525,0.21834999322891,0.8095999956131,1.91771245002747,3.73807501792908,1.01241254806519,0.41511249542236,0.87202501296997,-0.17751249670982,-2.19821238517761,-2.87870001792908,-7.7829122543335,-8.6088752746582,-9.1610746383667,-6.54788732528687,0.63951247930527,7.90625,13.6116752624512,14.2872123718262,-0.32683750987053,-3.38483738899231,-3.98461246490479,-6.89232492446899,-7.77686262130737,-8.02614974975586,-7.16718769073486,10.8139505386353,-0.22395001351833,-1.07295000553131,-10.9540500640869,-22.7239513397217,-21.4150505065918,-12.528000831604,18.5860500335693,48.0090026855469,10.113000869751,16.360050201416,11.7949504852295,1.2520500421524,-1.95405006408691,-5.05995035171509,0.54704999923706,-4.5949501991272,-13.0009508132935,-14.4610509872437,-8.41604995727539,-7.45905017852783,-9.8569507598877,-12.5580005645752,5.53800010681152,21.8940010070801,10.3429508209229,4.99500036239624,-1.68705010414124,-8.34195041656494,-14.3359508514404,7.39200019836426,5.82495021820068,1.16100001335144,6.70095014572144,18.3040504455566,15.6480007171631,6.74100017547607,-1.18095004558563,-3.21900010108948,16.0710010528564,10.2400503158569,3.25995016098022,3.26400017738342,5.16000032424927,7.37505054473877,SHAKE
0.21656249463558,-0.84136247634888,-1.58056247234344,-2.71425008773804,-0.23911249637604,4.52196264266968,4.76258754730225,1.63129997253418,-1.8688999414444,-0.52868747711182,0.50008749961853,0.33274999260902,-0.06558749824762,-1.47784996032715,-2.87430000305176,0.45416250824928,-0.51590001583099,-2.22997498512268,-2.70764994621277,0.74373751878738,2.22433757781982,2.36610007286072,0.70331251621246,2.17552495002747,1.08459997177124,1.29827499389648,0.32216250896454,-1.53477501869202,-2.5500750541687,-0.87257498502731,-5.61934995651245,-7.01690006256104,-7.72928762435913,-8.02367496490479,-2.07391238212585,7.57996225357056,14.530312538147,14.780837059021,1.23818755149841,-3.03173756599426,-4.52594995498657,-7.07437515258789,-8.3327751159668,-9.37241268157959,-7.16237497329712,13.1080503463745,3.14400005340576,-0.81705003976822,-1.73100006580353,-22.8820514678955,-27.7780513763428,-15.9379510879517,15.2550010681152,48.4129524230957,12.235050201416,16.4680500030518,8.61000061035156,0.34005001187325,-1.30995011329651,-9.39105033874512,4.13400030136108,-0.52200001478195,-4.56105041503906,-14.1349506378174,-4.7310004234314,-6.68595027923584,-12.1920003890991,-16.2460498809814,4.73699998855591,17.3640003204346,6.87405014038086,0.79305005073547,-3.43200016021729,-9.92100048065186,-13.0630502700806,4.15200042724609,3.77895021438599,5.7480001449585,7.25100040435791,17.5549507141113,19.1100006103516,7.49700021743774,-0.34605002403259,0.45495003461838,13.2720003128052,7.33995056152344,4.48695039749146,5.05395030975342,2.76900005340576,4.85595035552979,SHAKE
2.96793746948242,1.90629994869232,-0.28916248679161,-1.53161251544952,2.42549991607666,4.77729988098145,4.41443729400635,1.17438745498657,-1.34475004673004,-0.74854999780655,0.7236624956131,-0.14616249501705,-1.85899996757507,-3.54997491836548,-3.48273754119873,2.1840500831604,-1.72301244735718,-4.00262498855591,-1.89763748645782,1.64285004138947,2.45891237258911,1.81761252880096,1.56956243515015,1.46203744411469,0.51768749952316,0.40521249175072,-0.02351249940693,-1.29291248321533,-2.9690375328064,-2.32526254653931,-7.33342504501343,-8.80426216125488,-9.9197998046875,-4.61628770828247,4.8775372505188,11.3147373199463,16.0782871246338,10.7552499771118,-1.46918749809265,-4.78362512588501,-5.50934982299805,-6.70546245574951,-7.76957511901855,-8.53792476654053,-5.43730020523071,10.2270002365112,0.55305004119873,-0.41295000910759,-20.6040000915527,-22.6500015258789,-14.7630004882813,-3.82500028610229,31.5670509338379,39.7200012207031,19.0759506225586,13.2540006637573,6.70500040054321,0.12000000476837,-0.87195003032684,-13.4230508804321,1.02105009555817,-5.34405040740967,-13.921950340271,-7.18605041503906,-8.56905078887939,-12.5749502182007,-15.1900510787964,-9.01395034790039,8.56995010375977,15.8569507598877,11.5759506225586,3.10005021095276,-2.87205004692078,-9.56700038909912,-10.3999500274658,7.52595043182373,4.36304998397827,3.97500014305115,11.8909502029419,18.2770500183105,11.9869508743286,4.77405023574829,-2.18295001983643,2.49105000495911,8.91900062561035,7.67700052261353,2.47995018959045,2.98395013809204,5.27895021438599,14.4630002975464,SHAKE
1.37843751907349,-0.59826248884201,-3.88960003852844,-6.18997478485107,-1.17617499828339,4.92635011672974,5.25745010375977,2.40721249580383,0.6516125202179,1.58001244068146,1.34186244010925,-0.82183748483658,-3.19440007209778,-4.09598731994629,-2.01176238059998,-2.19697499275208,-2.50483751296997,-3.17927503585815,-3.13527488708496,-0.97886252403259,1.31669998168945,2.34905004501343,4.52127504348755,0.25134998559952,-0.40590000152588,-0.44866248965263,0.04853750020266,-0.71747499704361,-2.53412508964539,-3.18051242828369,-7.40423727035522,-8.68945026397705,-9.08654975891113,-5.89050006866455,2.93878746032715,9.88899993896484,13.5907745361328,11.8168878555298,-1.44471251964569,-5.98468732833862,-5.28701257705688,-5.63763761520386,-6.8972749710083,-6.0677375793457,-0.90351247787476,6.40605020523071,-0.55605000257492,-2.76495003700256,-8.88600063323975,-22.3630504608154,-17.0670013427734,-4.22504997253418,26.5879516601563,38.4570007324219,15.6019506454468,5.85795021057129,0.591000020504,-3.64305019378662,-9.75705051422119,-18.3670501708984,2.36295008659363,-1.75395011901855,-8.31599998474121,-14.97705078125,-3.28305006027222,-7.14795017242432,-8.98995018005371,1.59705007076263,8.37900066375732,13.7650508880615,11.202000617981,2.4250500202179,-4.26000022888184,-8.81100082397461,-1.57200002670288,4.07805013656616,1.84305012226105,1.92705011367798,9.78000068664551,22.606050491333,16.6720504760742,5.7199501991272,2.52495002746582,7.04805040359497,6.57405042648315,3.25005006790161,-0.84600001573563,1.50105011463165,7.09995031356812,14.2290010452271,SHAKE
-0.52002501487732,-1.96528744697571,-2.87430000305176,-1.62566244602203,3.31732487678528,4.48772478103638,4.22262477874756,2.51460003852844,-0.99769997596741,-1.52913749217987,-0.14863750338554,-1.02588748931885,-3.01111245155334,-4.14851236343384,-3.70507502555847,-1.12310004234314,-2.88117504119873,-1.49325001239777,-0.41332501173019,2.00694990158081,1.69537496566772,0.82678747177124,1.12364995479584,1.32027494907379,-0.16651250422001,-0.62218749523163,-0.00398749997839,-0.70771247148514,-1.5164874792099,-1.10109996795654,-8.96073722839355,-9.60575008392334,-8.02367496490479,-2.73982501029968,6.3326997756958,10.6514377593994,15.1790370941162,12.2432746887207,-2.01162505149841,-6.23878765106201,-6.32788753509521,-6.57346248626709,-6.90456247329712,-6.9863748550415,-5.66458749771118,3.70005011558533,1.08405005931854,-2.94195008277893,-20.4270000457764,-18.5680503845215,-12.9900007247925,-7.49595022201538,26.3200511932373,41.7640533447266,14.0370006561279,8.09295082092285,2.32800006866455,-0.76905006170273,-0.79995006322861,-5.11500024795532,-2.16300010681152,-9.05295085906982,-14.9010009765625,-7.63395023345947,-10.2280502319336,-11.0670003890991,-10.6609506607056,-5.47800016403198,8.92695045471191,15.1909503936768,11.4580507278442,5.12895011901855,-1.42905008792877,-7.16700029373169,-12.9079504013062,4.2529501914978,5.02800035476685,4.07295036315918,18.0240001678467,16.1790008544922,9.55995082855225,5.43705034255981,-0.58200001716614,-4.03800010681152,7.19400024414063,8.95005035400391,2.35304999351501,2.85000014305115,5.45595026016235,8.95200061798096,SHAKE
-1.02588748931885,-3.01111245155334,-4.14851236343384,-3.70507502555847,1.17933750152588,6.06498765945435,4.70401239395142,1.77677500247955,-2.43938755989075,-3.85536241531372,-1.96047496795654,-0.18163749575615,-0.03987500071526,-0.32587498426437,3.70823740959167,-0.00398749997839,-0.70771247148514,-1.5164874792099,-1.10109996795654,-0.85552501678467,1.80413746833801,2.17923760414124,0.70826250314713,0.10601250082254,2.32333755493164,1.0173624753952,0.73026251792908,-1.88663744926453,-2.95198750495911,-0.29961249232292,-6.57346248626709,-6.90456247329712,-6.9863748550415,-5.66458749771118,1.10742497444153,9.86590003967285,15.0592746734619,13.6237745285034,-1.22484993934631,-6.62117481231689,-5.81239986419678,-6.85808753967285,-8.06272506713867,-7.90143728256226,3.14765000343323,2.32800006866455,-0.76905006170273,-0.79995006322861,-5.11500024795532,-24.844051361084,-19.8930015563965,-9.37905025482178,21.2680511474609,43.9600524902344,14.6089506149292,4.57500028610229,3.25695013999939,0.57900005578995,-5.77305030822754,-35.9040031433105,5.12895011901855,-1.42905008792877,-7.16700029373169,-12.9079504013062,-5.14005041122437,-10.9050006866455,-10.443000793457,-7.30605030059814,7.17300033569336,10.8840007781982,11.157000541687,0.02805000171065,-7.90395021438599,-18.0619506835938,-0.90705001354218,2.35304999351501,2.85000014305115,5.45595026016235,8.95200061798096,22.1539516448975,14.1349506378174,6.35595035552979,0.02400000020862,-5.43495035171509,6.22395038604736,15.081000328064,7.95900058746338,7.47105026245117,9.24705028533936,23.2189502716064,SHAKE
6.3874249458313,4.11881256103516,0.28874999284744,-1.31903743743896,-0.7460749745369,-1.57932496070862,-2.93906259536743,-4.11551237106323,5.23173761367798,11.0824995040894,6.10279989242554,-0.62273746728897,-3.79664993286133,-5.59267473220825,-6.7458872795105,2.89877510070801,2.06676244735718,1.23722493648529,1.386274933815,0.72407501935959,0.71307498216629,-0.32903748750687,-2.87141251564026,-1.98440003395081,2.78643751144409,-1.04005002975464,0.9978374838829,1.15170001983643,0.3783999979496,1.87137496471405,13.0923376083374,16.7990627288818,4.02847480773926,-5.4751124382019,-5.43977499008179,-7.03779983520508,-9.45422458648682,-8.37553787231445,9.80471229553223,17.6848373413086,6.49275016784668,-1.4386625289917,-3.70122504234314,-7.83667516708374,-9.63751220703125,-17.1750011444092,5.31495046615601,50.650951385498,29.0790004730225,11.7570009231567,10.57200050354,2.66805005073547,-10.2169504165649,-55.2390022277832,0.27495002746582,52.8210029602051,27.8059520721436,21.4669513702393,17.6530513763428,5.46600008010864,-17.6500511169434,-15.1399507522583,0.26700001955032,19.1680507659912,20.2600517272949,6.8449501991272,-10.653000831604,-35.2999534606934,-5.09505033493042,-32.8450508117676,-9.18705081939697,32.2600517272949,25.5169506072998,6.07200050354004,-12.5080509185791,11.3809509277344,2.99895024299622,-4.85895013809204,0.76395004987717,6.96900033950806,0.24195000529289,1.74705004692078,10.3690500259399,42.1870536804199,8.84505081176758,-14.3320503234863,-24.2749519348145,-9.99105072021484,-2.94195008277893,2.757000207901,SHAKE
5.1669750213623,6.23232507705688,5.23421239852905,3.22079992294312,-0.55426251888275,-4.97323751449585,-7.96276235580444,-7.74042510986328,0.79818749427795,7.19619989395142,6.53289985656738,3.64966249465942,-1.33251249790192,-3.69160008430481,-5.03305006027222,-1.70211243629456,0.41745001077652,-0.16527499258518,-1.95511245727539,-1.81706249713898,0.42116248607635,2.90001249313354,0.86954998970032,-3.29037499427795,-0.21408750116825,0.74731248617172,-1.56901252269745,-0.12732499837875,1.73208749294281,2.12547492980957,6.29846239089966,12.7624750137329,10.9788246154785,1.61438751220703,-4.78252506256104,-7.35666227340698,-9.97961235046387,-10.9081497192383,-0.80341249704361,9.30503749847412,14.8956499099731,6.74437475204468,-3.38236236572266,-6.11407518386841,-7.77933740615845,-29.9599514007568,-7.73505020141602,26.752950668335,45.493953704834,34.6900520324707,19.4640007019043,8.15805053710938,-10.8720006942749,-47.97900390625,-21.8490009307861,2.07195019721985,45.0199508666992,40.8060035705566,18.6889514923096,6.19800043106079,-18.5839500427246,-14.4220504760742,-5.75505018234253,11.5800008773804,20.6760005950928,6.61500024795532,-15.8200511932373,-43.1200523376465,-7.71000051498413,-14.4580507278442,-6.32895040512085,6.27105045318604,21.0349502563477,13.8510007858276,-3.78105020523071,22.1440505981445,7.69605016708374,-1.6519501209259,-10.5370502471924,-13.6480503082275,-11.8410005569458,-2.14005017280579,11.7450008392334,40.8469505310059,12.6850509643555,1.64205002784729,-4.65300035476685,-10.6399507522583,-3.16395020484924,2.12295007705688,SHAKE
-0.27335000038147,5.61288738250732,5.64464998245239,4.76877498626709,0.51713746786118,-3.07835006713867,-6.26697492599487,-7.80023765563965,0.4475624859333,6.4363751411438,5.38931226730347,3.7424750328064,0.26427498459816,-2.34409999847412,-5.12104988098145,-2.56960010528564,0.7375500202179,1.32646250724792,-1.49943745136261,-1.3857250213623,0.49939998984337,1.63308751583099,0.35034999251366,-2.65388751029968,0.64721250534058,0.8425999879837,-1.42491245269775,-1.30019998550415,0.06558749824762,0.5017374753952,-2.96573758125305,8.49502468109131,14.1552124023438,6.05536270141602,-3.67922496795654,-6.01521253585815,-7.56552505493164,-9.11831283569336,0.25217500329018,9.5848503112793,13.7985372543335,6.02607488632202,-3.39459991455078,-7.20761251449585,-8.98026275634766,-31.2289524078369,-21.6690006256104,0.81405001878738,42.6780014038086,36.7380027770996,18.1840515136719,6.53805017471313,-4.46595001220703,-46.278003692627,-17.5920009613037,4.07505035400391,42.9150009155273,42.2059516906738,24.4870510101318,12.6780004501343,-15.8250007629395,-12.939001083374,-6.94200038909912,3.26505017280579,18.3430500030518,13.8679504394531,-5.06805038452148,-31.4050521850586,-4.03500032424927,-14.2500009536743,-6.24300050735474,6.56505012512207,19.1659507751465,14.706000328064,-2.62005019187927,24.1519508361816,14.0160007476807,5.2819504737854,-0.73995006084442,-12.8770503997803,-8.27595043182373,-4.95705032348633,9.80205059051514,39.3090019226074,10.3279504776001,1.18995010852814,-1.76895010471344,-7.74705028533936,-4.34595012664795,-1.57095003128052,SHAKE
0.2727999985218,-0.47244998812675,-2.82053756713867,-5.39343738555908,-4.31103754043579,4.73082494735718,5.27326250076294,4.38872480392456,1.36619997024536,-1.63308751583099,-5.18457508087158,-7.80271244049072,-4.27556228637695,4.65506267547607,5.50412511825562,0.14011250436306,2.19505000114441,0.94283747673035,-0.82376247644424,-2.95927500724792,-1.69482493400574,-1.15486252307892,-2.1322124004364,-1.14386248588562,0.43092501163483,0.85483747720718,0.75226247310638,-0.98505002260208,-0.98752498626709,0.33068749308586,-4.73357486724854,-8.08224964141846,-9.57522487640381,-10.0638999938965,-4.25218725204468,9.7741870880127,14.8772249221802,9.58732509613037,-2.31948757171631,-6.25955009460449,-9.36017513275146,-10.4572877883911,-7.75128746032715,5.52021265029907,13.777774810791,41.6629524230957,22.6320018768311,6.61395025253296,-4.588050365448,-32.4540023803711,-29.9719505310059,-5.77095031738281,38.7490501403809,48.118953704834,28.5910511016846,17.614049911499,-2.59995007514954,-21.3700504302979,-36.8209533691406,-15.2149505615234,20.7619514465332,14.2800006866455,-4.11600017547607,-28.7370014190674,-22.9360504150391,-17.2360515594482,-14.97705078125,-5.95095014572144,19.056001663208,21.681001663208,-2.12505006790161,-24.6450004577637,-37.8010520935059,-14.1379508972168,-15.5010004043579,-1.92195010185242,-0.83805006742477,-2.30295014381409,2.50095009803772,20.0290508270264,16.4640007019043,7.05195045471191,-0.54704999923706,-10.1010007858276,-6.71295022964478,-6.7350001335144,3.29805016517639,18.3250503540039,22.828950881958,7.44705057144165,SHAKE
5.94274997711182,4.96168756484985,3.26961255073547,1.75353753566742,-0.14616249501705,-3.65736246109009,-7.26632499694824,-7.99699974060059,-1.3142249584198,6.47418737411499,7.30372476577759,5.54936265945435,2.61607503890991,-0.73507499694824,-4.11317491531372,0.62273746728897,-0.37413749098778,-0.06751249730587,-1.56406247615814,-1.11457502841949,-0.28256249427795,1.06988751888275,0.67526251077652,-2.06016254425049,-1.04610002040863,-0.86281251907349,-1.5555374622345,-2.48531246185303,-0.74800002574921,0.16211250424385,7.85496234893799,10.8150625228882,5.95388746261597,-1.19913744926453,-4.12513732910156,-5.09643745422363,-6.27783727645874,-6.56122493743896,0.70908749103546,8.49997520446777,10.7943000793457,4.8214373588562,-2.05191254615784,-4.3133749961853,-5.58139991760254,-10.2960004806519,3.80700016021729,27.4249515533447,30.3109512329102,19.7149505615234,11.5240507125854,2.02905011177063,-4.69605016708374,-28.6350021362305,-12.3820505142212,6.47505044937134,29.9929523468018,31.9770011901855,20.8380012512207,12.8550004959106,-9.51900005340576,-4.63995027542114,7.32105016708374,13.0999507904053,17.9860515594482,7.11795043945313,-9.51405048370361,-28.6840515136719,-4.35795021057129,-13.0920009613037,-8.45205020904541,8.13495063781738,14.9040002822876,15.4830007553101,5.4810004234314,7.56195020675659,2.86695003509521,0.40695002675056,-3.23100018501282,-3.52605009078979,-3.23595023155212,2.12805008888245,12.7429504394531,32.5249519348145,13.51305103302,5.98800039291382,-1.01805007457733,-8.63700008392334,-9.16095066070557,-5.77305030822754,SHAKE
1.41996252536774,0.1727000027895,-2.3368124961853,-3.9751250743866,-2.5029125213623,5.11197519302368,5.76564979553223,3.85976243019104,-0.62150001525879,-0.90612500905991,-0.63002496957779,-1.47427499294281,-3.18463754653931,-2.74353742599487,0.59289997816086,1.62084996700287,0.19511249661446,1.22265005111694,0.34058749675751,-4.91039991378784,-0.82981246709824,-0.41566249728203,-0.40108749270439,-0.72476249933243,2.08147501945496,2.03500008583069,1.33251249790192,1.64532494544983,1.56351244449615,-6.10279989242554,-5.83192491531372,-6.85698747634888,-8.34377479553223,-11.4883995056152,-4.70057487487793,9.00570011138916,15.4526624679565,15.2718496322632,2.31439995765686,-5.45201253890991,-6.53922510147095,-6.61374998092651,-7.70962476730347,-11.0241994857788,-3.75869989395142,15.142050743103,9.55305004119873,3.38100004196167,-2.29395008087158,-30.8820018768311,-27.6199512481689,-9.99405002593994,23.1870002746582,53.6920509338379,40.4260520935059,13.6180505752563,10.3230009078979,5.0779504776001,-6.13200044631958,-34.5810012817383,9.88905048370361,-0.08895000070333,-9.37604999542236,-35.9730033874512,-20.4949512481689,-16.0639514923096,-17.3890514373779,-13.5610504150391,-0.23505000770092,15.2490005493164,15.6840009689331,2.36805009841919,-10.6969509124756,-35.7289505004883,-15.1470003128052,6.68400049209595,1.00095009803772,-0.64695000648499,3.53205013275146,20.9070014953613,14.6140508651733,7.24395036697388,-2.94705009460449,-1.02495002746582,2.97495007514954,6.76800012588501,1.73100006580353,1.53705012798309,7.44495058059692,22.9410018920898,SHAKE
6.07474994659424,3.66794991493225,-0.01058750040829,0.04922499880195,0.05775000154972,-1.78942501544952,-4.72642517089844,-6.5931248664856,-2.17304992675781,6.73323726654053,6.38989973068237,4.23843765258789,1.46272504329681,1.02423751354218,-0.29411250352859,0.16087499260902,-0.3301374912262,-1.10838747024536,0.56168746948242,1.19088745117188,1.20917499065399,2.03376245498657,1.51951253414154,-4.30924987792969,-0.68076246976852,-0.83847498893738,-1.39425003528595,-0.94599997997284,0.88907498121262,0.39668750762939,13.6030120849609,14.6940746307373,4.15676259994507,-3.71346259117126,-6.31936264038086,-6.6394624710083,-8.5746374130249,-11.2453002929688,-2.82644987106323,8.29468727111816,13.3770999908447,10.8224878311157,0.25217500329018,-4.70909976959229,-5.34448766708374,-9.03194999694824,16.4370002746582,49.3230018615723,42.235050201416,19.4449501037598,11.8590002059937,5.53500032424927,-3.16500020027161,-38.8570518493652,-22.3390502929688,-5.23695039749146,27.2959518432617,47.9899520874023,30.8230514526367,14.7640504837036,-13.3450508117676,-8.72504997253418,1.40595006942749,11.8939504623413,16.7779502868652,3.05700016021729,-11.3140506744385,-40.3180503845215,-14.2759504318237,-19.2030010223389,-15.0589504241943,-5.82195043563843,7.01700019836426,19.2810001373291,13.5640506744385,5.53800010681152,-1.98195004463196,-1.21395003795624,1.81905007362366,4.17405033111572,-3.10005021095276,-2.51805019378662,3.96300029754639,28.9950008392334,12.1440010070801,5.34105014801025,-1.88205003738403,-1.98495006561279,1.01295006275177,-0.34305000305176,SHAKE
0.90076249837875,-2.20852494239807,-6.08011245727539,-6.08368730545044,3.609375,6.94210004806519,5.44183731079102,1.73277497291565,-1.24093747138977,-2.55543756484985,-4.45156240463257,-5.78434991836548,-2.40514993667603,3.44313740730286,6.04656267166138,-0.53418749570847,-0.38761249184608,1.03565001487732,-1.22691249847412,-2.87251257896423,0.54326248168945,-1.11581254005432,-0.14203749597073,0.54216247797012,1.01007497310638,1.93366253376007,3.58778738975525,2.37833738327026,-2.45478749275208,-0.89333748817444,-7.43599987030029,-8.9032621383667,-10.5208120346069,-9.09878730773926,4.3351001739502,11.2524499893188,14.0623998641968,8.15787506103516,-1.30308747291565,-6.2485499382019,-7.3981876373291,-8.38406276702881,-9.28331279754639,-3.55959987640381,5.90136241912842,18.844051361084,12.796950340271,4.546950340271,-23.4709510803223,-40.8030014038086,-14.5930509567261,3.175950050354,39.9070510864258,49.1670036315918,31.1490020751953,16.605001449585,5.3100004196167,-6.37095022201538,-32.976001739502,-25.9620018005371,9.69705009460449,-2.58705019950867,-23.7379512786865,-39.1050033569336,-10.8400506973267,-18.9739513397217,-13.2330007553101,1.33395004272461,17.9549999237061,17.2950000762939,2.41995000839233,-13.0579509735107,-33.6540031433105,-21.1440010070801,-13.8190507888794,-0.79995006322861,-4.75800037384033,-2.43195009231567,18.8850002288818,28.2130508422852,8.08095073699951,0.24000000953674,-7.33995056152344,-4.25594997406006,-0.36900001764297,-0.49605002999306,3.87000012397766,13.0900506973267,18.3349514007568,5.85105037689209,SHAKE
-4.45156240463257,-5.78434991836548,-2.40514993667603,3.44313740730286,6.04656267166138,3.71799993515015,1.73882496356964,-0.90983748435974,-0.13763749599457,1.04005002975464,0.33880001306534,-1.21646249294281,-3.17487502098084,-3.91764998435974,0.86776250600815,1.93366253376007,3.58778738975525,2.37833738327026,-2.45478749275208,-0.89333748817444,-0.86404997110367,-1.46396243572235,-0.12251249700785,0.57021248340607,1.47675001621246,0.49568748474121,1.42779994010925,1.01859998703003,-2.95322489738464,-3.26108741760254,-7.3981876373291,-8.38406276702881,-9.28331279754639,-3.55959987640381,5.90136241912842,11.0313501358032,14.1308746337891,7.92082500457764,-1.00127494335175,-6.38041257858276,-7.57652473449707,-8.63568782806396,-9.91003704071045,-7.97362518310547,3.91737508773804,16.605001449585,5.3100004196167,-6.37095022201538,-32.976001739502,-25.9620018005371,-10.1419506072998,9.41895008087158,40.5840034484863,49.5480041503906,29.7319507598877,15.1930503845215,8.21505069732666,-0.71205002069473,-19.4800510406494,-35.1199531555176,2.41995000839233,-13.0579509735107,-33.6540031433105,-21.1440010070801,-13.8190507888794,-12.7500009536743,-8.58405017852783,1.06800007820129,10.4580001831055,12.928050994873,4.01894998550415,-4.69005012512207,-21.7230014801025,-29.9040012359619,-10.4689502716064,-0.49605002999306,3.87000012397766,13.0900506973267,18.3349514007568,5.85105037689209,-0.51794999837875,-2.96595025062561,1.20195007324219,6.55200052261353,8.21100044250488,2.0749499797821,-1.90095007419586,1.39605009555817,12.1210508346558,22.0489501953125,SHAKE
0.33880001306534,-1.21646249294281,-3.17487502098084,-3.91764998435974,0.86776250600815,4.86158752441406,4.22867488861084,1.71448743343353,0.06998749822378,0.31308749318123,-0.74731248617172,-3.13692498207092,-5.31767511367798,-4.15827512741089,1.48967504501343,0.49568748474121,1.42779994010925,1.01859998703003,-2.95322489738464,-3.26108741760254,0.39421248435974,-0.90557497739792,-0.80423748493195,-0.08098749816418,2.25857496261597,0.17063750326633,0.71555000543594,2.23781251907349,0.93431252241135,-4.2274374961853,-7.57652473449707,-8.63568782806396,-9.91003704071045,-7.97362518310547,3.91737508773804,11.4332628250122,14.6646499633789,9.00941276550293,-0.28407499194145,-5.58263731002808,-6.91680002212524,-7.8038125038147,-8.69921207427979,-9.19036197662354,0.03355000168085,15.1930503845215,8.21505069732666,-0.71205002069473,-19.4800510406494,-35.1199531555176,-12.3100509643555,5.60205030441284,35.8150520324707,50.5120506286621,32.1439514160156,16.7100009918213,8.72205066680908,1.99605011940002,-11.1859502792358,-37.5120010375977,4.01894998550415,-4.69005012512207,-21.7230014801025,-29.9040012359619,-10.4689502716064,-19.0600509643555,-14.3980503082275,-0.11505000293255,12.2980508804321,17.4570007324219,6.90195035934448,-5.13795042037964,-18.3660011291504,-32.9599533081055,-14.1949510574341,2.0749499797821,-1.90095007419586,1.39605009555817,12.1210508346558,22.0489501953125,9.18000030517578,3.96105027198792,-0.38400000333786,-0.28605002164841,3.03195023536682,0.60105001926422,-0.68505001068115,3.1039502620697,11.9719505310059,23.193000793457,SHAKE
-0.74731248617172,-3.13692498207092,-5.31767511367798,-4.15827512741089,1.48967504501343,6.64771223068237,5.91827487945557,4.14314985275269,0.49637499451637,-0.21092499792576,-1.16269993782043,-2.69953751564026,-3.39597487449646,-1.79795002937317,1.57272493839264,0.17063750326633,0.71555000543594,2.23781251907349,0.93431252241135,-4.2274374961853,-0.60623747110367,-0.61366248130798,-0.29961249232292,-1.44801247119904,1.93242502212524,1.71984994411469,2.09618759155273,3.29216241836548,2.18281245231628,-3.52495002746582,-6.91680002212524,-7.8038125038147,-8.69921207427979,-9.19036197662354,0.03355000168085,10.1052875518799,15.7471876144409,11.8450746536255,-0.62136250734329,-5.25401258468628,-6.01026248931885,-6.75675010681152,-7.80009984970093,-8.765212059021,-4.49652481079102,16.7100009918213,8.72205066680908,1.99605011940002,-11.1859502792358,-37.5120010375977,-19.6830005645752,-1.74795007705688,33.2449531555176,51.9670524597168,32.7040519714355,15.9270009994507,9.49995040893555,2.26395010948181,-9.80295085906982,-27.0360012054443,6.90195035934448,-5.13795042037964,-18.3660011291504,-32.9599533081055,-14.1949510574341,-19.0000514984131,-17.1310501098633,-8.88495063781738,6.91695022583008,16.2390003204346,11.4060001373291,-3.29505014419556,-12.8479509353638,-22.5460510253906,-16.771951675415,0.60105001926422,-0.68505001068115,3.1039502620697,11.9719505310059,23.193000793457,8.75100040435791,4.13295030593872,-3.85095024108887,-3.57600021362305,0.60600000619888,3.20205020904541,0.53205001354218,2.61795020103455,8.14395046234131,12.8740501403809,SHAKE
-2.69953751564026,-3.39597487449646,-1.79795002937317,1.57272493839264,4.34596252441406,3.80228757858276,3.27951240539551,1.06933748722076,1.7022500038147,2.45478749275208,0.68089997768402,-2.06676244735718,-5.06233739852905,-6.74217510223389,-3.57926249504089,2.09618759155273,3.29216241836548,2.18281245231628,-3.52495002746582,-2.40954995155334,-1.15610003471375,-1.54330003261566,-0.5293750166893,0.52745002508163,1.32151246070862,-0.00769999995828,0.43463748693466,0.29039999842644,-1.13891243934631,-4.96045017242432,-6.75675010681152,-7.80009984970093,-8.765212059021,-4.49652481079102,4.76767492294312,11.88893699646,15.8582878112793,6.97895002365112,-2.87787508964539,-6.94856262207031,-7.3028998374939,-8.39258766174316,-9.5092248916626,-9.73651218414307,-2.23024988174438,9.49995040893555,2.26395010948181,-9.80295085906982,-27.0360012054443,-27.5580005645752,-14.1769504547119,10.1100006103516,47.9130020141602,49.3320007324219,24.9169521331787,12.5100002288818,7.32195043563843,0.15105000138283,-9.61605072021484,-32.0590515136719,-3.29505014419556,-12.8479509353638,-22.5460510253906,-16.771951675415,-10.7730007171631,-12.5920505523682,-13.1490001678467,-4.49595022201538,9.39300060272217,14.5960502624512,6.76395034790039,-4.00800037384033,-16.324951171875,-30.1320018768311,-15.8650503158569,0.53205001354218,2.61795020103455,8.14395046234131,12.8740501403809,7.08105039596558,3.84600019454956,1.28505003452301,4.69800043106079,6.11700010299683,4.2810001373291,-1.80795013904572,-3.99195027351379,-0.88200002908707,6.42795038223267,26.2240505218506,SHAKE
0.68089997768402,-2.06676244735718,-5.06233739852905,-6.74217510223389,-3.57926249504089,6.10651254653931,7.65311241149902,4.4999623298645,0.16775000095367,-0.7400249838829,-0.66549998521805,-0.83160001039505,-2.29638743400574,-4.61161231994629,-3.42168736457825,-0.00769999995828,0.43463748693466,0.29039999842644,-1.13891243934631,-4.96045017242432,-0.80905002355576,-0.12732499837875,1.55003750324249,-0.72723752260208,1.72356247901917,1.25441253185272,1.32151246070862,1.12117505073547,0.06324999779463,-3.92686247825623,-7.3028998374939,-8.39258766174316,-9.5092248916626,-9.73651218414307,-2.23024988174438,9.29651260375977,15.7459497451782,14.7050752639771,1.21976244449615,-5.23572492599487,-4.87657499313354,-6.82880020141602,-9.09259986877441,-10.2349500656128,-5.51553726196289,12.5100002288818,7.32195043563843,0.15105000138283,-9.61605072021484,-32.0590515136719,-21.3390007019043,-7.31400012969971,23.8570518493652,52.4929542541504,31.7539520263672,15.8700008392334,14.6230506896973,5.89095020294189,-3.69600009918213,-24.7770004272461,6.76395034790039,-4.00800037384033,-16.324951171875,-30.1320018768311,-15.8650503158569,-19.6770000457764,-19.1410503387451,-12.4549503326416,0.33105000853539,17.0670013427734,16.4260501861572,3.19995021820068,-7.55505037307739,-30.2680511474609,-24.2449512481689,-1.80795013904572,-3.99195027351379,-0.88200002908707,6.42795038223267,26.2240505218506,16.2769508361816,7.70805025100708,-2.60700011253357,-2.11094999313354,3.00795006752014,5.64105033874512,1.50300002098084,-0.5059500336647,2.61795020103455,21.7090511322021,SHAKE
-0.83160001039505,-2.29638743400574,-4.61161231994629,-3.42168736457825,6.19561243057251,6.95062494277954,5.03868770599365,2.04792499542236,0.99357497692108,0.54532498121262,-1.76742494106293,-4.68118762969971,-6.73859977722168,-5.39219999313354,2.16645002365112,1.32151246070862,1.12117505073547,0.06324999779463,-3.92686247825623,-1.15362501144409,0.08524999767542,0.65326249599457,1.92747497558594,0.16211250424385,-0.35213750600815,-1.71558749675751,0.12677499651909,1.61837494373322,-0.71623748540878,-1.5274875164032,-6.82880020141602,-9.09259986877441,-10.2349500656128,-5.51553726196289,5.14882516860962,10.6904878616333,13.4491500854492,8.02834987640381,-0.33907499909401,-5.18319988250732,-7.58133745193481,-8.02738761901855,-8.06396198272705,-6.61374998092651,1.71338748931885,14.6230506896973,5.89095020294189,-3.69600009918213,-24.7770004272461,-21.8749504089355,-11.0419502258301,7.57395029067993,35.3190002441406,39.5209503173828,26.9970016479492,15.1540508270264,5.37705039978027,-0.87000006437302,-15.3280506134033,-26.9020519256592,3.19995021820068,-7.55505037307739,-30.2680511474609,-24.2449512481689,-18.0690002441406,-14.8290004730225,-8.55000019073486,6.14595031738281,15.784951210022,16.5220508575439,4.5930004119873,-4.73594999313354,-18.9900016784668,-28.0380020141602,-10.4910001754761,1.50300002098084,-0.5059500336647,2.61795020103455,21.7090511322021,19.7629508972168,6.07395029067993,-0.60600000619888,-1.96605014801025,0.99600005149841,-1.02495002746582,-3.24105024337769,-1.16100001335144,4.39095020294189,17.6890506744385,22.5990009307861,SHAKE
-4.68118762969971,-6.73859977722168,-5.39219999313354,2.16645002365112,5.79493761062622,3.89400005340576,0.82871252298355,-1.25193750858307,0.2923249900341,2.29473757743835,2.38878750801086,0.61737501621246,-1.98618745803833,-2.93177509307861,-0.56278747320175,0.12677499651909,1.61837494373322,-0.71623748540878,-1.5274875164032,0.13529999554157,-0.30813750624657,0.42363750934601,-0.10546249896288,1.99718749523163,1.36551249027252,0.41263750195503,-0.47313749790192,-1.29167497158051,-1.56901252269745,-2.6001250743866,-8.02738761901855,-8.06396198272705,-6.61374998092651,1.71338748931885,7.88906240463257,12.019700050354,11.1253995895386,4.19099998474121,-3.07697486877441,-5.65840005874634,-7.10861253738403,-8.48911285400391,-8.45363712310791,-3.65488743782043,3.47998738288879,5.37705039978027,-0.87000006437302,-15.3280506134033,-26.9020519256592,-13.7890510559082,-1.65705013275146,19.806001663208,37.4299507141113,35.719051361084,17.3989505767822,9.9330005645752,1.0200001001358,-8.09205055236816,-22.6980018615723,-16.6219501495361,-4.73594999313354,-18.9900016784668,-28.0380020141602,-10.4910001754761,-13.5820503234863,-8.75804996490479,-0.7180500626564,7.03200054168701,12.1240501403809,12.4630508422852,1.55205011367798,-7.5400505065918,-16.7189998626709,-5.73105049133301,-3.62505006790161,-1.16100001335144,4.39095020294189,17.6890506744385,22.5990009307861,8.35905075073242,2.87700009346008,2.29005002975464,8.60295009613037,12.5179510116577,11.4940509796143,3.08295011520386,0.39300000667572,1.47900009155273,8.17199993133545,9.06195068359375,SHAKE
1.66553747653961,0.69066250324249,0.30703750252724,0.38637501001358,0.65766251087189,1.33443748950958,-0.00082499999553,-2.96711254119873,-3.19563746452332,2.4950749874115,3.4016125202179,1.12310004234314,-1.82971251010895,-2.59943747520447,0.71018749475479,2.45162487030029,2.11323738098145,1.89695000648499,-0.72847497463226,-3.15961241722107,0.25987499952316,2.03994989395142,3.65873742103577,1.17246246337891,0.32835000753403,-0.2788499891758,-1.95634996891022,-0.24461250007153,-0.32780000567436,-3.89757490158081,-5.16725015640259,-6.51846265792847,-7.574049949646,-8.67363739013672,-0.34650000929832,10.4986753463745,15.7080001831055,11.8241748809814,0.87037497758865,-2.45148754119873,-8.41953754425049,-10.4242877960205,-10.3179998397827,-10.291187286377,-4.02861261367798,8.90895080566406,2.52495002746582,-0.82395005226135,-7.54605054855347,-32.5690498352051,-24.4140014648438,-4.89000034332275,30.8140506744385,36.3010520935059,28.7460021972656,21.4120502471924,7.20300054550171,0.53895002603531,-4.59600019454956,-21.7290000915527,4.75800037384033,3.27705025672913,-3.02505016326904,-17.7409515380859,-8.28404998779297,-12.6300010681152,-17.485050201416,-7.76505041122437,20.8890018463135,22.4110507965088,10.5750007629395,-1.40205001831055,-10.9330501556396,-25.303050994873,-26.3650512695313,4.29105043411255,1.2280501127243,1.57995009422302,4.01100015640259,10.6009502410889,8.54594993591309,5.55405044555664,-0.39300000667572,19.1200504302979,18.2560501098633,4.47000026702881,-0.60900002717972,-0.41505002975464,7.61505031585693,18.6580505371094,SHAKE
2.13963747024536,-0.58354997634888,-1.34227502346039,0.24956250190735,3.8035249710083,2.87388753890991,-0.00934999994934,-6.32073736190796,-4.9487624168396,3.10956239700317,5.62512493133545,4.26167488098145,1.29662501811981,-0.89141249656677,2.38521242141724,0.21463750302792,0.90254998207092,0.59702497720718,-2.6331250667572,-1.69853746891022,0.76931250095367,0.31116250157356,3.45716238021851,1.49503743648529,2.75467491149902,1.16393744945526,-1.26719999313354,-0.73576247692108,-1.67653751373291,-1.71311247348785,-9.20755004882813,-10.0394248962402,-10.2947626113892,-6.71151256561279,4.76272487640381,13.6397247314453,18.2382755279541,7.05952501296997,0.08855000138283,-3.66822504997253,-9.29059982299805,-10.8372001647949,-11.1854877471924,-7.56799983978271,3.99918746948242,13.195050239563,-0.02505000121891,-3.74895024299622,-20.6809501647949,-38.3380508422852,-21.0880508422852,3.79500007629395,51.1150512695313,23.4169502258301,32.1820526123047,18.2680511474609,0.77295005321503,-3.8779501914978,-20.0470504760742,-35.8369522094727,0.99405002593994,-9.92805004119873,-23.1949520111084,-20.377950668335,-12.0490503311157,-15.4630508422852,-23.2090511322021,-3.3600001335144,22.6980018615723,9.93705081939697,-2.0269501209259,-12.2689504623413,-21.4789505004883,-22.8480014801025,-12.5059509277344,2.21895003318787,-0.55395001173019,4.44900035858154,10.7520008087158,16.2199516296387,3.64005017280579,-0.55605000257492,-6.93105030059814,42.2520027160645,27.44700050354,10.3000507354736,1.03694999217987,-2.18099999427795,8.18205070495605,18.7300510406494,SHAKE
5.62512493133545,4.26167488098145,1.29662501811981,-0.89141249656677,2.38521242141724,3.30027508735657,0.73713749647141,-2.589674949646,-5.44843769073486,-1.26279997825623,4.20667505264282,3.81095004081726,1.56777501106262,0.2398000061512,-0.31239998340607,1.16393744945526,-1.26719999313354,-0.73576247692108,-1.67653751373291,-1.71311247348785,1.6160374879837,0.80107498168945,-1.17809998989105,3.48644995689392,1.74790000915527,2.94277501106262,-0.77852499485016,-2.11144995689392,-2.10649991035461,-0.5293750166893,-9.29059982299805,-10.8372001647949,-11.1854877471924,-7.56799983978271,3.99918746948242,11.9501247406006,16.7490119934082,10.8004875183105,-0.38183748722076,-2.66763758659363,-6.59188747406006,-9.63393783569336,-10.9019622802734,-12.1543121337891,-8.57216262817383,18.2680511474609,0.77295005321503,-3.8779501914978,-20.0470504760742,-35.8369522094727,-16.9890003204346,-3.70995020866394,37.9279518127441,48.8350524902344,17.0279998779297,21.1300506591797,6.52995014190674,0.86595004796982,-0.86700004339218,-13.0039510726929,-2.0269501209259,-12.2689504623413,-21.4789505004883,-22.8480014801025,-12.5059509277344,-16.3099498748779,-17.635950088501,-6.81795024871826,13.7050504684448,25.9980010986328,2.32905006408691,-7.79595041275024,-14.2210502624512,-22.816951751709,-18.0240001678467,10.3000507354736,1.03694999217987,-2.18099999427795,8.18205070495605,18.7300510406494,6.09000015258789,1.79295003414154,-6.12900018692017,4.12800025939941,27.318000793457,13.8049507141113,2.65395021438599,1.30695009231567,4.37895011901855,7.16205024719238,SHAKE
3.81095004081726,1.56777501106262,0.2398000061512,-0.31239998340607,1.06081247329712,2.0711624622345,1.12804996967316,-1.59885001182556,-8.42091274261475,-6.33173751831055,2.32402491569519,6.76981258392334,6.84076261520386,2.02592492103577,0.00769999995828,-0.77852499485016,-2.11144995689392,-2.10649991035461,-0.5293750166893,0.12553749978542,0.35392498970032,0.80602496862411,1.17741250991821,5.32509994506836,2.3588125705719,5.19681262969971,3.60855007171631,-1.51030004024506,-3.67276239395142,-0.61847501993179,-9.63393783569336,-10.9019622802734,-12.1543121337891,-8.57216262817383,2.91912508010864,10.6196746826172,16.2981491088867,13.6555376052856,1.19542503356934,-3.02197504043579,-6.25102519989014,-9.99913787841797,-12.5720376968384,-8.18620014190674,1.98825001716614,6.52995014190674,0.86595004796982,-0.86700004339218,-13.0039510726929,-35.5690498352051,-16.3740005493164,-11.4990005493164,28.5090007781982,44.2279510498047,12.3430509567261,20.5909519195557,8.83995056152344,-0.58005005121231,-17.1679515838623,-25.3999519348145,-7.79595041275024,-14.2210502624512,-22.816951751709,-18.0240001678467,-8.78205013275146,-13.6020002365112,-11.9170503616333,-7.73895025253296,15.4999504089355,20.1330013275146,0.82905006408691,-10.4449501037598,-25.9180507659912,-24.810001373291,-15.4630508422852,2.65395021438599,1.30695009231567,4.37895011901855,7.16205024719238,19.230001449585,8.67705059051514,6.56205034255981,-1.3620001077652,-4.56195020675659,40.5439529418945,20.9380512237549,8.51205062866211,0.93405002355576,2.16105008125305,12.4510507583618,SHAKE
6.76981258392334,6.84076261520386,2.02592492103577,0.00769999995828,2.09068751335144,2.87870001792908,2.3570249080658,-1.47551250457764,-6.021399974823,-4.78018760681152,0.10793749988079,2.96175003051758,4.2763876914978,4.42791271209717,1.73648750782013,3.60855007171631,-1.51030004024506,-3.67276239395142,-0.61847501993179,1.75284993648529,0.87559998035431,-0.87752497196198,-2.3570249080658,4.04346227645874,3.32763743400574,3.16263747215271,1.98371243476868,1.51951253414154,0.23663750290871,-1.20243752002716,-9.99913787841797,-12.5720376968384,-8.18620014190674,1.98825001716614,8.43397521972656,12.4192752838135,15.7287626266479,9.05822467803955,-0.59688746929169,-4.56128740310669,-5.5338249206543,-8.23377513885498,-10.651575088501,-7.5460000038147,5.84512519836426,8.83995056152344,-0.58005005121231,-17.1679515838623,-25.3999519348145,-14.2699508666992,-5.97405052185059,6.57300043106079,37.9780502319336,39.8040008544922,13.4220008850098,14.3050508499146,7.93305015563965,1.21800005435944,-21.0280513763428,-34.4809532165527,-10.4449501037598,-25.9180507659912,-24.810001373291,-15.4630508422852,-15.4609508514404,-13.0800008773804,-10.5220508575439,4.75800037384033,15.6559505462646,18.0439510345459,2.56605005264282,-8.59305000305176,-19.2610511779785,-26.4850521087646,-8.7679500579834,8.51205062866211,0.93405002355576,2.16105008125305,12.4510507583618,11.6800508499146,5.37705039978027,0.83295005559921,-5.17695045471191,-5.23200035095215,28.8349514007568,16.8130512237549,11.3140506744385,5.92305040359497,3.89100027084351,6.11700010299683,SHAKE
3.70466256141663,4.2861499786377,3.32337498664856,1.52996253967285,1.04005002975464,2.50731253623962,1.53972494602203,-0.4687374830246,-3.87365007400513,-2.95253753662109,0.27403751015663,2.28373742103577,3.42608737945557,2.74188756942749,1.472487449646,2.67643737792969,0.27335000038147,-0.46461248397827,-2.13468742370605,-0.81523752212524,2.93782496452332,2.23176240921021,0.96854996681213,2.08999991416931,2.51391243934631,3.81988739967346,2.09371256828308,1.45351254940033,0.93059998750687,-0.29713749885559,-7.89167499542236,-10.0284252166748,-11.989312171936,-11.448112487793,0.24365000426769,11.40149974823,16.5571994781494,14.3532123565674,2.45245003700256,-2.06662487983704,-6.02621269226074,-9.64122486114502,-10.2777128219604,-10.386474609375,-7.82086229324341,17.3269500732422,7.11195039749146,2.88105010986328,-9.0799503326416,-39.4699516296387,-20.881950378418,-7.75395059585571,27.480001449585,43.8670539855957,23.965051651001,22.4910011291504,14.6160011291504,3.53400015830994,-1.96800005435944,-14.7970504760742,1.03694999217987,-10.5739507675171,-21.4360504150391,-28.8750019073486,-10.1010007858276,-14.9560508728027,-14.7499504089355,-11.3760004043579,14.3370008468628,23.7289505004883,11.7190504074097,-3.04395008087158,-11.331000328064,-18.7969512939453,-23.3650512695313,14.9389505386353,6.59805011749268,2.73300004005432,3.88905024528503,16.4970016479492,10.85205078125,5.4060001373291,-1.20195007324219,-0.4870500266552,18.0529499053955,14.1660003662109,9.03795051574707,4.13100004196167,0.68505001068115,0.11295000463724,SHAKE
2.28373742103577,3.42608737945557,2.74188756942749,1.472487449646,-0.09253749996424,1.04610002040863,0.73218750953674,-1.14441251754761,-5.66225004196167,-2.41615009307861,1.65701246261597,2.55131244659424,1.7352499961853,1.59348750114441,1.91358745098114,2.09371256828308,1.45351254940033,0.93059998750687,-0.29713749885559,-3.01427507400513,-0.51218748092651,-1.06438744068146,-0.54161250591278,1.88842499256134,0.66921252012253,4.22317504882813,2.17552495002747,1.06493747234344,-1.00457501411438,-2.16521239280701,-9.64122486114502,-10.2777128219604,-10.386474609375,-7.82086229324341,2.51968741416931,12.1039876937866,17.4538383483887,14.9824123382568,0.85208749771118,-2.82535004615784,-6.65170001983643,-9.82684993743896,-10.661337852478,-8.65892505645752,1.23323750495911,14.6160011291504,3.53400015830994,-1.96800005435944,-14.7970504760742,-33.7720527648926,-20.9080505371094,-7.75395059585571,31.8019523620605,52.2490539550781,16.1040000915527,23.9910011291504,11.7949504852295,1.08705008029938,-15.6559505462646,-31.5229511260986,-3.04395008087158,-11.331000328064,-18.7969512939453,-23.3650512695313,-13.276050567627,-17.0230503082275,-18.4710006713867,-14.6809511184692,14.2579507827759,30.4410018920898,8.50995063781738,-5.55900049209595,-17.1360015869141,-23.6920509338379,-16.4110507965088,9.03795051574707,4.13100004196167,0.68505001068115,0.11295000463724,9.09600067138672,6.10005044937134,3.42000007629395,-4.46805000305176,2.34795022010803,28.0500011444092,13.4029502868652,5.94000005722046,1.31205010414124,6.15495014190674,10.3980007171631,SHAKE
1.65701246261597,2.55131244659424,1.7352499961853,1.59348750114441,1.91358745098114,2.33626246452332,1.58372497558594,-2.09357500076294,-5.61343765258789,-1.61961245536804,3.95504999160767,5.00816249847412,2.7161750793457,-0.00329999998212,0.56718748807907,4.22317504882813,2.17552495002747,1.06493747234344,-1.00457501411438,-2.16521239280701,0.08524999767542,0.86460000276566,0.02406249940395,2.22928738594055,1.68079996109009,4.70085000991821,0.60692501068115,-0.5879499912262,-1.54330003261566,-0.71747499704361,-6.65170001983643,-9.82684993743896,-10.661337852478,-8.65892505645752,1.23323750495911,11.0105876922607,16.2223873138428,12.8992872238159,-0.09350000321865,-3.1527373790741,-7.34566259384155,-10.9654874801636,-12.6099872589111,-9.23312473297119,2.92654991149902,23.9910011291504,11.7949504852295,1.08705008029938,-15.6559505462646,-31.5229511260986,-21.2550010681152,-4.31100034713745,31.5240020751953,50.8639526367188,18.0120010375977,23.1900005340576,11.7469501495361,0.83805006742477,-17.8210506439209,-36.8590507507324,8.50995063781738,-5.55900049209595,-17.1360015869141,-23.6920509338379,-16.4110507965088,-16.4370002746582,-16.1380500793457,-10.4929504394531,14.0910005569458,27.6610507965088,5.53095006942749,-10.6680002212524,-23.1589508056641,-25.4029502868652,-15.5370006561279,13.4029502868652,5.94000005722046,1.31205010414124,6.15495014190674,10.3980007171631,7.39005041122437,2.2350001335144,-4.68105030059814,6.41595029830933,33.4800033569336,15.0709505081177,4.36304998397827,-3.0090000629425,6.84405040740967,14.5369510650635,SHAKE
3.95504999160767,5.00816249847412,2.7161750793457,-0.00329999998212,0.56718748807907,1.59348750114441,0.97652500867844,-2.78506255149841,-6.68112516403198,-2.59091258049011,3.46637487411499,4.6197247505188,2.70888757705688,-0.14506250619888,0.55261248350143,4.70085000991821,0.60692501068115,-0.5879499912262,-1.54330003261566,-0.71747499704361,1.54756247997284,0.40411248803139,1.58056247234344,3.08934998512268,1.6160374879837,4.79737520217896,1.68808746337891,0.38816249370575,-1.53848743438721,-1.94892501831055,-7.34566259384155,-10.9654874801636,-12.6099872589111,-9.23312473297119,2.92654991149902,12.8737125396729,18.0867500305176,12.3886127471924,-0.14121249318123,-2.83387494087219,-6.60769987106323,-10.179949760437,-11.9930248260498,-10.0053253173828,2.78726243972778,23.1900005340576,11.7469501495361,0.83805006742477,-17.8210506439209,-36.8590507507324,-21.0780010223389,-5.66295003890991,41.9790000915527,45.7240524291992,20.613000869751,21.9190502166748,11.9929504394531,2.31195020675659,-13.7269506454468,-41.9580001831055,5.53095006942749,-10.6680002212524,-23.1589508056641,-25.4029502868652,-15.5370006561279,-18.949951171875,-20.6149501800537,-14.2570505142212,13.1410503387451,23.4799518585205,5.33700037002563,-9.68895053863525,-21.094051361084,-27.2220020294189,-15.118950843811,15.0709505081177,4.36304998397827,-3.0090000629425,6.84405040740967,14.5369510650635,8.75594997406006,3.1230001449585,-6.79905033111572,8.7940502166748,29.3299522399902,15.8440504074097,3.86700010299683,-3.06600022315979,3.26700019836426,16.6600513458252,SHAKE
2.58802509307861,4.53901243209839,3.33203744888306,0.76999998092651,-0.93912500143051,1.31738746166229,2.23616242408752,0.07851249724627,-0.13034999370575,0.7627124786377,0.20322500169277,-1.9849499464035,-2.72029995918274,0.49390000104904,5.82422494888306,4.42708730697632,1.34117496013641,0.1915374994278,-1.90987503528595,-2.05040001869202,-0.19827499985695,-0.39737498760223,0.2268749922514,-0.00027499999851,1.02588748931885,1.61961245536804,2.16700005531311,2.48833751678467,-1.66306245326996,-0.59413748979568,-6.10073757171631,-9.11954975128174,-9.80608749389648,-6.37436246871948,4.72491264343262,12.5291376113892,14.1076374053955,7.00094985961914,0.03712499886751,-3.76227498054504,-8.05172538757324,-9.75122451782227,-11.2868251800537,-9.17207527160645,0.15565000474453,19.7989501953125,6.46605014801025,-3.56700015068054,-19.4389514923096,-33.3660011291504,-16.0270500183105,7.07400035858154,37.9729499816895,34.4010009765625,30.4429512023926,20.5459518432617,9.02400016784668,-1.27905011177063,-15.8659505844116,-30.0079517364502,5.03295040130615,-6.74295043945313,-16.3290004730225,-22.2109508514404,-13.5750007629395,-16.8559513092041,-18.65505027771,-3.12495017051697,20.0659503936768,20.9080505371094,7.34505033493042,-7.62405014038086,-23.5699520111084,-26.7840003967285,-17.8350009918213,17.871000289917,6.78405046463013,-0.3570000231266,2.25,12.0769510269165,11.7330007553101,5.24100017547607,1.14195001125336,10.1220006942749,8.91195011138916,2.68995022773743,-0.94905006885529,4.79100036621094,14.5009508132935,16.6219501495361,SHAKE
-1.9849499464035,-2.72029995918274,0.49390000104904,5.82422494888306,5.36607503890991,1.41267502307892,-1.82242500782013,-4.86323738098145,-3.28968739509583,0.95452499389648,0.97899997234344,-0.60321247577667,0.38032498955727,3.61418747901917,4.01609992980957,2.16700005531311,2.48833751678467,-1.66306245326996,-0.59413748979568,1.81142497062683,1.00031244754791,1.33746254444122,2.59820008277893,0.39544999599457,2.23904991149902,1.5940375328064,3.04301238059998,1.54508745670319,-0.9813374876976,-1.20491254329681,-9.75122451782227,-11.2868251800537,-9.17207527160645,0.15565000474453,8.00401210784912,13.4771995544434,14.1393995285034,3.98323750495911,-1.54371249675751,-6.14831256866455,-8.95826244354248,-9.26859951019287,-9.53975009918213,-5.45077514648438,4.90819978713989,9.02400016784668,-1.27905011177063,-15.8659505844116,-30.0079517364502,-20.6809501647949,-11.6880006790161,14.9920511245728,41.2900505065918,30.1390514373779,24.4770011901855,11.9170503616333,2.18700003623962,-5.81595039367676,-22.4629516601563,-31.2310523986816,-7.62405014038086,-23.5699520111084,-26.7840003967285,-17.8350009918213,-14.0200510025024,-12.421950340271,-10.3039503097534,7.9699501991272,22.6260013580322,11.568000793457,-1.60800004005432,-11.6490001678467,-21.1699504852295,-23.9629516601563,-13.993950843811,-0.94905006885529,4.79100036621094,14.5009508132935,16.6219501495361,5.14500045776367,-2.0830500125885,-3.09300017356873,1.75695013999939,23.0230503082275,16.5070514678955,6.35100030899048,2.0419499874115,8.57400035858154,11.3929510116577,7.49700021743774,SHAKE
3.20003747940063,1.65096247196198,-0.65807497501373,0.60885000228882,1.36867499351501,1.03881251811981,-0.41497498750687,-2.39910006523132,-3.99093747138977,-0.55673748254776,3.04603743553162,3.61295008659363,1.55196249485016,-0.2231625020504,-0.55921250581741,1.92623746395111,0.96236246824265,2.90977501869202,1.89695000648499,-1.3894374370575,-1.05709993839264,-2.46812510490417,-0.16898749768734,2.49810004234314,2.03623747825623,2.53714990615845,0.68255001306534,0.46021249890327,1.67585003376007,2.27081251144409,-8.02491283416748,-8.90573787689209,-8.80192470550537,-5.81844997406006,3.48479986190796,9.90742492675781,12.9457626342773,9.76442527770996,1.99430000782013,-2.24867486953735,-6.23136234283447,-8.56858730316162,-9.14155006408691,-10.1384248733521,-7.40671253204346,15.5779504776001,2.55795001983643,-3.35400009155273,-18.2929515838623,-32.7979507446289,-16.7179508209229,-2.80605006217957,27.2479515075684,35.1520500183105,24.8290519714355,16.9660511016846,6.47100019454956,-0.70200002193451,-3.26295018196106,-16.0290012359619,-0.20400001108646,-7.99305057525635,-17.9280014038086,-23.9940013885498,-16.5659999847412,-15.901050567627,-13.2019510269165,-4.08704996109009,15.7080011367798,15.4450511932373,4.50195026397705,-3.82395029067993,-9.15795040130615,-18.9979515075684,-22.7539520263672,11.9170503616333,1.15605008602142,0.85005003213882,7.62195014953613,8.60805034637451,2.76405024528503,0.99795007705688,1.84500002861023,16.8370513916016,24.8269519805908,15.5590505599976,6.52800035476685,0.89805006980896,1.67805004119873,3.09405016899109,SHAKE
3.61295008659363,1.55196249485016,-0.2231625020504,-0.55921250581741,-0.2756874859333,-0.11082500219345,-1.65989995002747,-3.92012500762939,-6.55655002593994,-1.23598754405975,4.14314985275269,4.57324981689453,2.68688750267029,1.50919997692108,1.71448743343353,0.68255001306534,0.46021249890327,1.67585003376007,2.27081251144409,-1.14138746261597,-2.26421236991882,-2.57083749771118,-1.54096245765686,2.08999991416931,-0.29713749885559,3.68307495117188,1.21893751621246,0.81331247091293,1.98989999294281,1.2311749458313,-8.56858730316162,-9.14155006408691,-10.1384248733521,-7.40671253204346,2.78726243972778,10.9873495101929,14.0001125335693,12.7832374572754,0.59551250934601,-1.47895002365112,-4.91438770294189,-8.66868782043457,-9.91485023498535,-10.4402370452881,-8.80673789978027,6.47100019454956,-0.70200002193451,-3.26295018196106,-16.0290012359619,-34.5880508422852,-20.9629516601563,-6.66300010681152,18.3349514007568,37.5070533752441,12.3190507888794,18.760950088501,9.76605033874512,0.92400002479553,-0.50894999504089,-11.803050994873,-3.82395029067993,-9.15795040130615,-18.9979515075684,-22.7539520263672,-12.1939506530762,-14.7550506591797,-15.5160007476807,-13.2640504837036,3.3510000705719,15.2299509048462,4.42995023727417,-5.73600006103516,-11.0290508270264,-19.7179508209229,-25.2169513702393,6.52800035476685,0.89805006980896,1.67805004119873,3.09405016899109,10.1749505996704,1.97205007076263,-1.91805005073547,-0.24000000953674,14.3440504074097,34.465950012207,20.6680507659912,9.32100009918213,2.41500020027161,1.72800004482269,3.56595015525818,SHAKE
2.68688750267029,1.50919997692108,1.71448743343353,0.85552501678467,0.35708749294281,-0.82059997320175,-3.43144989013672,-7.47642517089844,-2.70324993133545,4.74182510375977,6.71000003814697,6.15408754348755,2.44378757476807,-0.39173749089241,0.19346250593662,0.81331247091293,1.98989999294281,1.2311749458313,-1.47853744029999,-0.83723747730255,-1.86106252670288,-0.88481247425079,2.09247493743896,-1.1316249370575,3.72226238250732,1.86766254901886,-0.59523749351501,-0.39008748531342,0.5849249958992,-0.42061248421669,-9.91485023498535,-10.4402370452881,-8.80673789978027,1.08666253089905,11.035062789917,15.3415622711182,15.3916120529175,3.37975001335144,-0.52483749389648,-3.09045004844666,-7.74386262893677,-10.2704248428345,-9.60946273803711,-9.35165023803711,-4.61876249313354,0.92400002479553,-0.50894999504089,-11.803050994873,-32.0610008239746,-23.416051864624,-10.0609502792358,14.0800504684448,41.9410514831543,13.0060510635376,19.1389503479004,15.3790502548218,3.8689501285553,-2.76705002784729,-4.01205015182495,-19.8840007781982,-11.0290508270264,-19.7179508209229,-25.2169513702393,-15.2530508041382,-17.3369998931885,-20.2200012207031,-20.8999519348145,-2.94300007820129,17.5510501861572,5.92800045013428,-3.32205009460449,-9.94005012512207,-11.5009508132935,-20.5819511413574,-20.6059513092041,2.41500020027161,1.72800004482269,3.56595015525818,7.37295055389404,3.63795018196106,-0.35505002737045,-2.7240002155304,9.30195045471191,39.8299522399902,28.3210506439209,12.3049507141113,4.07595014572144,-2.14995002746582,2.48895001411438,10.4689502716064,SHAKE
2.44378757476807,-0.39173749089241,0.19346250593662,2.57331252098084,3.32337498664856,1.29291248321533,-2.85601258277893,-6.13868761062622,-4.66895008087158,2.23973751068115,4.96663761138916,3.99176239967346,1.27338755130768,-0.39173749089241,0.19456249475479,-0.39008748531342,0.5849249958992,-0.42061248421669,-0.84081250429153,0.22563749551773,0.29782500863075,1.59651243686676,3.271399974823,-0.28737500309944,1.55608749389648,2.11323738098145,0.03382499888539,0.22935000061989,1.32274997234344,-0.28008750081062,-9.60946273803711,-9.35165023803711,-4.61876249313354,5.13287496566772,10.0942878723145,13.4809122085571,15.5138502120972,6.96299982070923,-2.2094874382019,-3.90527486801147,-7.01456260681152,-9.29431247711182,-9.38217449188232,-10.4242877960205,-8.10067462921143,-2.76705002784729,-4.01205015182495,-19.8840007781982,-25.7680511474609,-11.1829509735107,-5.77995014190674,7.60005044937134,41.9359512329102,24.5610008239746,21.340051651001,14.2000503540039,6.19095039367676,-0.42705002427101,-0.64305001497269,-14.0880002975464,-11.5009508132935,-20.5819511413574,-20.6059513092041,-14.6689510345459,-16.2670516967773,-13.7260503768921,-10.5649509429932,-2.41200017929077,15.4450511932373,7.17495012283325,1.13295006752014,-5.45595026016235,-6.89205026626587,-16.0879516601563,-23.6569519042969,-2.14995002746582,2.48895001411438,10.4689502716064,12.8719501495361,4.44600009918213,-0.9250500202179,-1.91295003890991,8.05500030517578,33.5920524597168,25.1550006866455,13.19700050354,4.81500005722046,1.28295004367828,1.28295004367828,8.4790506362915,SHAKE
3.99176239967346,1.27338755130768,-0.39173749089241,0.19456249475479,1.82682502269745,2.65636253356934,1.40291249752045,-1.4913250207901,-5.85887479782104,-6.17044973373413,1.89282500743866,4.13091230392456,3.31608748435974,1.47372496128082,0.78347498178482,0.03382499888539,0.22935000061989,1.32274997234344,-0.28008750081062,-1.37843751907349,0.88054996728897,0.22935000061989,0.9147874712944,3.11258745193481,0.0362999998033,4.02036237716675,2.69472503662109,1.1944625377655,0.13653749227524,0.69973748922348,-9.29431247711182,-9.38217449188232,-10.4242877960205,-8.10067462921143,1.68410003185272,10.8040628433228,15.4185628890991,17.4733619689941,6.42551231384277,-2.21320009231567,-5.27477502822876,-7.79404973983765,-10.4878120422363,-12.4804620742798,-7.30523729324341,6.19095039367676,-0.42705002427101,-0.64305001497269,-14.0880002975464,-29.2669506072998,-19.8379516601563,-8.94105052947998,10.0500001907349,46.3720512390137,28.6150512695313,20.1889514923096,10.2919502258301,3.58695006370544,2.06505012512207,-20.0010013580322,-5.45595026016235,-6.89205026626587,-16.0879516601563,-23.6569519042969,-16.7650508880615,-17.7409515380859,-18.7729511260986,-19.2270011901855,-0.62205004692078,13.5139503479004,5.25405025482178,-4.26405000686646,-13.4820003509521,-28.0020008087158,-20.0599517822266,4.81500005722046,1.28295004367828,1.28295004367828,8.4790506362915,13.1809501647949,7.8870005607605,2.56305003166199,-1.62300002574921,1.51995003223419,28.3710021972656,18.3109512329102,9.81900024414063,2.09895014762878,1.61295008659363,6.65505027770996,SHAKE
2.92269992828369,1.70706248283386,-1.24451243877411,-1.47427499294281,1.19404995441437,2.33626246452332,2.14568758010864,0.37056249380112,-1.70266246795654,-1.41184997558594,-0.01306249946356,-0.90612500905991,-2.7057249546051,-2.84006237983704,1.1756249666214,1.42174994945526,-1.20614993572235,-2.72717499732971,0.51150000095367,1.28369998931885,0.36739999055862,0.30140000581741,1.95923745632172,1.53656244277954,-0.28256249427795,0.81083750724792,0.52868747711182,-0.2080374956131,-0.50737500190735,0.81454998254776,-9.64122486114502,-10.6772871017456,-9.88679981231689,-2.65911245346069,5.58868741989136,9.71313762664795,12.8517122268677,9.5128002166748,-2.44901251792908,-6.58941268920898,-6.90951251983643,-6.97056245803833,-7.92343759536743,-8.40977478027344,-1.3336124420166,10.4190006256104,0.17700000107288,-5.94495010375977,-21.2770519256592,-20.2290000915527,-11.6280002593994,-5.09100008010864,27.4660511016846,35.5300521850586,13.0560007095337,6.58800029754639,0.91905003786087,0.550950050354,-4.95900011062622,-25.2340507507324,-5.90100049972534,-13.4560508728027,-20.9119510650635,-12.4789505004883,-11.260950088501,-8.90700054168701,-7.00695037841797,3.67200016975403,14.3160009384155,15.7780504226685,7.06995010375977,-0.65295004844666,-9.51405048370361,-19.8210010528564,-12.3210010528564,7.52595043182373,3.36705017089844,7.45695018768311,12.9049501419067,14.7000007629395,7.36800050735474,4.45395040512085,2.79495024681091,3.16605019569397,13.0780506134033,7.85205030441284,5.0110502243042,5.14995002746582,10.756950378418,20.1630001068115,SHAKE
2.48531246185303,3.10846257209778,2.65512490272522,1.32343745231628,3.02775001525879,3.6924250125885,2.64288759231567,-1.08570003509521,-4.91452503204346,-5.06481266021729,-2.22309994697571,0.28751251101494,1.62524998188019,2.17263746261597,2.94470000267029,2.331862449646,0.46997499465942,-1.11086249351501,-1.60201251506805,1.02341246604919,2.86701250076294,1.72108745574951,0.59097498655319,3.36421251296997,0.91712498664856,0.44687500596046,1.51703751087189,0.27335000038147,-2.68564987182617,0.31982499361038,-8.42682456970215,-10.3107128143311,-12.5806999206543,-8.86421203613281,4.82267475128174,12.6941375732422,18.4519500732422,11.7485494613647,-2.04833745956421,-6.39512491226196,-6.94608736038208,-7.92838764190674,-8.56735038757324,-6.03350019454956,4.25699996948242,10.9930505752563,2.43105006217957,2.08004999160767,-17.6110515594482,-31.6000518798828,-17.0629501342773,-8.87400054931641,36.097053527832,41.4070510864258,14.5920009613037,8.6220006942749,2.8090500831604,-4.00200033187866,-16.1650505065918,-23.2000503540039,-2.48400020599365,-12.3480005264282,-26.8890018463135,-24.480001449585,-10.4400005340576,-14.4889507293701,-13.9099502563477,-9.28500080108643,12.562050819397,12.9900007247925,5.01900005340576,-7.3560004234314,-17.2099514007568,-16.4110507965088,-5.86800050735474,10.9930505752563,5.45895004272461,4.21905040740967,8.53605079650879,16.7029514312744,7.14795017242432,2.956050157547,-2.81295013427734,-2.48505020141602,17.2800006866455,13.3429508209229,9.02400016784668,8.62005043029785,11.1109504699707,10.7490005493164,SHAKE
-2.22309994697571,0.28751251101494,1.62524998188019,2.17263746261597,2.94470000267029,2.74917507171631,1.57877504825592,-0.97088748216629,-3.39844989776611,-2.4699125289917,0.57818752527237,1.63996243476868,0.21903750300407,-1.63185000419617,-1.53779995441437,0.44687500596046,1.51703751087189,0.27335000038147,-2.68564987182617,0.31982499361038,1.47303748130798,1.39370000362396,1.56956243515015,1.91894996166229,-1.65935003757477,2.11199998855591,2.67038750648499,0.17311249673367,-1.10481250286102,-0.72118747234344,-6.94608736038208,-7.92838764190674,-8.56735038757324,-6.03350019454956,4.25699996948242,10.834587097168,14.4545497894287,9.8756628036499,-1.41171252727509,-5.43853759765625,-6.63822507858276,-7.60581254959106,-8.94368743896484,-11.7974996566772,-6.83498764038086,8.6220006942749,2.8090500831604,-4.00200033187866,-16.1650505065918,-23.2000503540039,-12.6379508972168,-1.02495002746582,27.5929508209229,35.9629516601563,17.0089511871338,15.4300508499146,6.84405040740967,2.83800005912781,2.89095020294189,-22.1359519958496,5.01900005340576,-7.3560004234314,-17.2099514007568,-16.4110507965088,-5.86800050735474,-8.19405078887939,-8.42805004119873,-0.19395001232624,7.63905048370361,14.8660507202148,4.31805038452148,-2.2350001335144,-9.84195041656494,-26.2650012969971,-15.1830005645752,13.3429508209229,9.02400016784668,8.62005043029785,11.1109504699707,10.7490005493164,7.30605030059814,2.92500019073486,3.40605020523071,7.75305032730103,22.2550506591797,10.6320009231567,6.10995006561279,2.77095007896423,4.30995035171509,12.4650001525879,SHAKE
-2.83030009269714,-3.05139994621277,-3.8480749130249,-3.04535007476807,1.89406251907349,4.93611240386963,4.0760498046875,0.40356248617172,-4.78499984741211,-5.90534973144531,-2.22433757781982,2.01863741874695,3.29285001754761,3.63618755340576,5.09121227264404,0.40411248803139,1.03317499160767,0.69726252555847,-1.11086249351501,-1.88787496089935,0.0362999998033,-0.15551249682903,0.80726248025894,3.82854986190796,2.53110003471375,3.17858743667603,4.87423753738403,2.34657502174377,0.64226251840591,-1.35148751735687,-5.86740016937256,-7.05485010147095,-8.81540012359619,-8.88992500305176,3.20512509346008,11.7778377532959,14.4607372283936,13.2328624725342,2.35358738899231,-3.4435498714447,-4.0702748298645,-5.57534980773926,-8.17272472381592,-10.8873872756958,-9.03155040740967,9.33195018768311,3.95805025100708,0.58200001716614,-13.6620006561279,-31.7890510559082,-16.6150512695313,-3.22905015945435,20.1409511566162,41.6650505065918,21.1300506591797,10.1200504302979,7.68600034713745,3.28605008125305,-1.09200000762939,-14.9950504302979,13.7269506454468,1.80795013904572,-13.3020009994507,-28.396951675415,-15.1950006484985,-16.7479515075684,-13.9530010223389,-9.16995048522949,5.56905031204224,6.30600023269653,6.44505023956299,-1.9410001039505,-10.2660007476807,-19.5430507659912,-19.7539501190186,6.15495014190674,5.99205017089844,7.48305034637451,15.234001159668,17.7460517883301,8.59305000305176,1.23300004005432,-2.35605001449585,2.27400016784668,17.9590511322021,19.5670509338379,12.9270009994507,7.15305042266846,4.3289999961853,6.85905027389526,SHAKE
3.29285001754761,3.63618755340576,5.09121227264404,4.91411256790161,3.01798748970032,1.62153744697571,0.67347496747971,-0.88783746957779,-1.03688752651215,1.08033752441406,1.72906243801117,0.15922500193119,-1.75271248817444,-3.40202498435974,0.09075000137091,2.34657502174377,0.64226251840591,-1.35148751735687,-1.75835001468658,0.35158750414848,0.38211250305176,-0.31308749318123,0.11811249703169,1.06493747234344,0.18782499432564,1.92747497558594,2.13028740882874,0.45787498354912,-2.54512500762939,-1.86339998245239,-8.17272472381592,-10.8873872756958,-9.03155040740967,-2.28772497177124,6.29351234436035,11.3539247512817,15.4979000091553,13.4809122085571,0.66027498245239,-4.26813745498657,-5.37129974365234,-7.81357479095459,-10.7493371963501,-12.2641744613647,-3.23097491264343,3.28605008125305,-1.09200000762939,-14.9950504302979,-20.3070011138916,-21.3649501800537,-11.1450004577637,-5.67000007629395,23.1870002746582,45.7650032043457,20.1439514160156,16.324951171875,8.47305011749268,2.05305004119873,-2.31300020217896,-32.7940521240234,-10.2660007476807,-19.5430507659912,-19.7539501190186,-14.7240009307861,-9.88800048828125,-12.3000001907349,-12.8959503173828,-11.9460000991821,3.44895005226135,18.7110004425049,7.00305032730103,0.3649500310421,-9.13199996948242,-24.3790512084961,-9.61995029449463,7.15305042266846,4.3289999961853,6.85905027389526,6.56895017623901,6.22395038604736,4.71195030212402,4.1380500793457,5.55900049209595,13.4340009689331,18.9210014343262,6.35400009155273,1.80000007152557,1.06305003166199,6.37800025939941,22.2450008392334,SHAKE
0.70771247148514,-1.25427496433258,-1.51332497596741,1.25262498855591,4.48648738861084,4.36796236038208,3.63989996910095,0.45113748311996,-1.88223743438721,-1.26403748989105,-0.36616250872612,0.1127500012517,-0.59221249818802,-1.46451246738434,-1.2225124835968,1.14565002918243,1.74308753013611,0.06448750197887,-2.17497491836548,0.47616249322891,0.08758749812841,-0.21408750116825,2.19023752212524,0.20006249845028,0.41868749260902,0.27816250920296,2.11695003509521,1.47179996967316,1.0784125328064,-0.04922499880195,-7.61433744430542,-8.64668750762939,-9.09273719787598,-2.00915002822876,7.19152498245239,12.2480878829956,15.9499998092651,12.5841369628906,1.5801500082016,-5.87468767166138,-6.61498737335205,-7.08908748626709,-8.61863708496094,-9.54098701477051,-10.8421497344971,2.23995018005371,-0.64500004053116,-7.38300037384033,-24.4879512786865,-19.0849514007568,-9.69705009460449,-0.15000000596046,28.291051864624,43.8120002746582,32.3620529174805,12.9430503845215,9.95700073242188,4.69305038452148,-0.09705000370741,-3.45705008506775,-1.99095010757446,-9.65805053710938,-22.3789501190186,-12.6010503768921,-13.4320507049561,-14.4439506530762,-16.3290004730225,-9.68205070495605,6.00495052337646,13.8589506149292,15.8659505844116,3.88695025444031,-4.15395021438599,-9.86100006103516,-17.3320503234863,3.07095003128052,0.97905004024506,5.84400033950806,14.6089506149292,9.98100090026855,3.67095017433167,-0.27600002288818,-2.04704999923706,7.02795028686523,10.8000001907349,11.6320505142212,4.35300016403198,2.99205017089844,2.4100501537323,5.71005010604858,SHAKE
-1.46451246738434,-1.2225124835968,-0.74854999780655,1.89887499809265,3.51642489433289,2.56231260299683,2.02468752861023,-1.03441250324249,-4.84852504730225,-4.46861267089844,0.54285001754761,2.75165009498596,1.77306246757507,-0.32587498426437,-1.75271248817444,1.0784125328064,-0.04922499880195,-1.46025002002716,-1.44567501544952,1.47303748130798,0.45539999008179,-0.30579999089241,2.65196251869202,3.46073746681213,-0.28380000591278,1.84937500953674,1.55856251716614,-0.25685000419617,-0.63923752307892,-0.65518748760223,-9.54098701477051,-10.8421497344971,-8.90202522277832,1.12076246738434,7.86348724365234,11.9829874038696,15.9707622528076,10.0100002288818,-1.99691247940063,-5.39453744888306,-5.54111242294312,-7.17461252212524,-8.50011253356934,-10.001612663269,-6.55888748168945,-0.09705000370741,-3.45705008506775,-12.4369506835938,-25.2870006561279,-14.2729511260986,-8.84805011749268,-0.29805001616478,33.4890022277832,36.3870010375977,13.4650506973267,11.4430503845215,5.10405015945435,0.17700000107288,-1.19805002212524,-16.0390510559082,-9.86100006103516,-17.3320503234863,-23.9800510406494,-11.8090505599976,-12.9700508117676,-10.0960502624512,-10.1340007781982,4.64595031738281,9.85500049591064,14.3010005950928,4.34700012207031,-2.81400012969971,-7.00695037841797,-19.5049514770508,-19.5619506835938,2.4100501537323,5.71005010604858,8.17905044555664,17.0620498657227,8.83500003814697,4.44195032119751,2.10600018501282,2.05605006217957,3.48900008201599,25.3530006408691,15.6330003738403,9.4480504989624,3.99900007247925,2.04404997825623,10.1850004196167,SHAKE
-1.4522750377655,-0.15358750522137,1.00223743915558,1.34309995174408,2.86893749237061,3.33203744888306,3.10598754882813,1.04005002975464,-2.60920000076294,-2.06800007820129,0.23856249451637,0.46461248397827,-0.41868749260902,-1.00141251087189,-0.44068750739098,1.32893753051758,1.21646249294281,0.12677499651909,-2.53659987449646,-1.28672504425049,-0.21779999136925,-0.62823748588562,1.48527503013611,1.9849499464035,-0.25437501072884,2.7497251033783,1.10893750190735,-0.3436124920845,-0.5819000005722,0.93678748607635,-6.99132490158081,-8.86916255950928,-7.2308497428894,-1.58399999141693,5.17563724517822,10.9055376052856,15.8705253601074,10.2665748596191,-3.33354997634888,-4.92414999008179,-5.3530125617981,-6.79951238632202,-8.34006214141846,-10.0236120223999,-7.87338733673096,-0.97995007038116,-2.06400012969971,-9.85800075531006,-18.5389499664307,-17.2950000762939,-14.3299503326416,-3.77700018882751,32.7850532531738,33.1800003051758,9.11205005645752,10.4479503631592,5.22105026245117,2.86695003509521,1.53600001335144,-10.956000328064,-6.52605009078979,-15.7339506149292,-13.6369504928589,-5.80305004119873,-7.38495016098022,-7.47105026245117,-11.3929510116577,1.12800002098084,9.50100040435791,16.3639507293701,6.23700046539307,-0.46395000815392,-6.68100023269653,-17.6220016479492,-20.131950378418,8.05995082855225,5.44395017623901,5.92095041275024,9.12900066375732,9.27300071716309,7.94295024871826,7.08795022964478,3.14505004882813,3.34605026245117,17.4420013427734,9.97200012207031,7.44495058059692,5.15700006484985,6.12600040435791,8.75400066375732,SHAKE
-3.82607507705688,-3.56207489967346,-1.3532749414444,3.24884986877441,6.83828735351563,5.5578875541687,3.19632506370544,0.59289997816086,-0.16940000653267,-0.50421249866486,-1.22127497196198,-2.57620000839233,-3.81741237640381,-1.816237449646,3.42361259460449,2.31481242179871,1.24822497367859,0.38940000534058,-1.63982498645782,1.35946249961853,1.36798751354218,0.72778749465942,0.82678747177124,0.49692499637604,-0.28008750081062,1.56956243515015,1.04059994220734,-2.40707492828369,-3.51147508621216,1.07717502117157,-5.76235008239746,-7.8465747833252,-8.98273754119873,-2.67135000228882,7.10599994659424,12.198037147522,14.932225227356,7.77301263809204,-4.55399990081787,-6.69322490692139,-6.87527513504028,-8.99621200561523,-8.55758762359619,1.93929994106293,11.2817373275757,7.69305038452148,2.8050000667572,-2.17200016975403,-23.2669506072998,-18.6280517578125,-9.73305034637451,1.49595010280609,34.3889999389648,35.6950531005859,10.5049505233765,7.94895029067993,-0.00405000010505,-10.2570009231567,-32.2579498291016,-18.2400016784668,7.74495029449463,-7.01100015640259,-22.6729507446289,-14.998950958252,-13.2829504013062,-10.7490005493164,-10.2109508514404,2.72205018997192,13.1880006790161,16.7280006408691,4.04505014419556,-8.36595058441162,-21.9600009918213,-6.2029504776001,-13.4170503616333,6.10200023651123,8.40000057220459,10.2829504013062,17.5290012359619,9.83100032806396,5.95905017852783,2.0179500579834,2.67105007171631,5.11200046539307,6.59295034408569,0.85995006561279,2.31405019760132,8.87100028991699,18.7870502471924,12.6799507141113,SHAKE
3.42361259460449,3.51518750190735,1.84153747558594,-0.55549997091293,-1.51579999923706,-2.04104995727539,-3.3874499797821,-3.38497495651245,1.85130000114441,5.82917499542236,5.24644994735718,2.82617497444153,0.22879999876022,-1.02217495441437,-1.08817493915558,1.07717502117157,-0.27527499198914,-1.4334374666214,0.12801249325275,0.38816249370575,2.20481252670288,-0.00522499997169,-1.29167497158051,-0.57695001363754,0.04853750020266,0.08401250094175,-0.15798750519753,1.02960002422333,0.18782499432564,0.84026247262955,11.2817373275757,12.2603244781494,4.70648765563965,-3.14778757095337,-3.98351240158081,-5.71339988708496,-8.34982490539551,-8.73344993591309,0.67979997396469,9.30503749847412,12.5938997268677,10.2933874130249,-0.14492499828339,-4.42694997787476,-5.07196235656738,-18.2400016784668,1.74495005607605,28.5360012054443,24.3379516601563,11.778000831604,9.83295059204102,-0.42705002427101,-5.53095006942749,-30.0660018920898,-17.4240016937256,-4.65495014190674,20.3730010986328,31.9720516204834,15.1980009078979,8.06205081939697,-13.4170503616333,-12.1849508285522,2.26995015144348,15.234001159668,17.8950004577637,7.40505027770996,-7.66500043869019,-21.5580005645752,-8.91105079650879,-14.5729503631592,-10.8469505310059,-2.89800024032593,13.288950920105,15.6220502853394,9.95595073699951,12.6799507141113,5.49195003509521,3.20205020904541,2.67600011825562,7.45005035400391,3.57300019264221,4.48695039749146,9.87795066833496,22.6800003051758,12.0750007629395,4.50195026397705,3.10200023651123,4.13100004196167,5.84400033950806,5.86800050735474,SHAKE
-1.8211874961853,-2.54815006256104,-3.47545003890991,-4.05322504043579,-1.40703749656677,4.6660623550415,5.2097373008728,2.91417503356934,-0.95260000228882,-2.96230006217957,-2.98787498474121,-2.30614995956421,-1.66237497329712,-0.26344999670982,4.50477504730225,-0.28737500309944,1.4999874830246,1.55003750324249,-0.68323749303818,-2.59888744354248,-1.00581252574921,-0.76394999027252,0.46887499094009,1.63061249256134,0.36739999055862,2.0326623916626,2.92572498321533,0.36987498402596,-1.38448750972748,-0.12856249511242,-6.68717479705811,-6.62241268157959,-6.73598766326904,-6.64069986343384,-1.03798747062683,8.33139991760254,12.414324760437,10.5890121459961,-1.26637494564056,-4.8570499420166,-6.78603744506836,-8.45858764648438,-10.4597625732422,-9.25759983062744,3.02788758277893,11.2780504226685,3.43395018577576,-3.31800007820129,-8.30700016021729,-23.896951675415,-19.1950511932373,-8.67105007171631,21.4090518951416,35.6740531921387,17.1240005493164,13.735050201416,4.16100025177002,-0.3529500067234,-14.9280004501343,-29.6880016326904,12.9870004653931,5.3710503578186,-4.13505029678345,-14.8630504608154,-7.5450005531311,-11.1970500946045,-9.7470006942749,-0.76095002889633,11.2810506820679,17.3070011138916,8.35500049591064,-2.0029501914978,-16.3800010681152,-24.6160507202148,-9.82800006866455,3.27900004386902,2.5969500541687,3.97695016860962,9.02700042724609,17.1600017547607,12.7140007019043,5.81805038452148,2.62095022201538,-1.32900011539459,5.49900007247925,6.42300033569336,5.2219500541687,6.26505041122437,11.9509506225586,15.4279508590698,SHAKE
-2.98787498474121,-2.30614995956421,-1.66237497329712,-0.26344999670982,4.50477504730225,4.9531626701355,3.13651251792908,0.76023751497269,-1.03441250324249,-1.37651252746582,-1.08570003509521,-2.31110000610352,-3.61954998970032,-1.97518754005432,5.2720251083374,2.0326623916626,2.92572498321533,0.36987498402596,-1.38448750972748,-0.12856249511242,1.95566248893738,0.6154500246048,-0.38266250491142,0.35640001296997,-0.24103750288486,1.45722496509552,1.29951250553131,-1.18414998054504,-1.50796246528625,-0.47189998626709,-6.78603744506836,-8.45858764648438,-10.4597625732422,-9.25759983062744,3.02788758277893,10.8077745437622,14.4863128662109,10.502387046814,-2.45148754119873,-5.9907374382019,-7.01456260681152,-8.24353790283203,-9.74998760223389,-6.09950017929077,7.48467493057251,13.735050201416,4.16100025177002,-0.3529500067234,-14.9280004501343,-29.6880016326904,-17.6059513092041,-6.28500032424927,26.8870506286621,39.4210510253906,13.7400007247925,9.78000068664551,2.2020001411438,-0.27600002288818,-21.8629512786865,-28.4269504547119,8.35500049591064,-2.0029501914978,-16.3800010681152,-24.6160507202148,-9.82800006866455,-14.3700008392334,-12.3570003509521,-2.81205010414124,14.3440504074097,21.939001083374,9.00104999542236,-2.39595007896423,-21.5989513397217,-20.5339508056641,-15.8170509338379,6.42300033569336,5.2219500541687,6.26505041122437,11.9509506225586,15.4279508590698,7.25595045089722,2.22105002403259,0.43800002336502,3.43005013465881,8.43105030059814,3.79305028915405,1.89600014686584,6.76005029678345,19.5910511016846,18.8470516204834,SHAKE
-1.45585000514984,-2.53838753700256,-3.5902624130249,-1.29827499389648,4.7430624961853,4.53048753738403,3.67289996147156,1.33815002441406,-3.6122624874115,-4.65794992446899,-2.69720005989075,-0.92936247587204,-0.60678750276566,-0.43821248412132,0.84095001220703,1.33993744850159,-0.7345250248909,-1.55924999713898,-0.45966249704361,0.27087500691414,-0.90557497739792,-0.61847501993179,1.09064996242523,2.14995002746582,1.14317500591278,2.76320004463196,3.39968752861023,1.82613754272461,0.96607500314713,1.44375002384186,-9.52022457122803,-10.2093753814697,-10.8959121704102,-3.09045004844666,9.01793766021729,11.3917369842529,14.9395122528076,11.3392124176025,-1.17232501506805,-4.82886266708374,-5.36277484893799,-6.88503742218018,-8.02738761901855,-9.62417507171631,-9.07073783874512,3.3840000629425,0.07200000435114,-0.5950500369072,-30.738000869751,-22.4400005340576,-8.36895084381104,-3.24795007705688,27.5779514312744,38.0500526428223,14.32200050354,11.2660503387451,6.86505031585693,1.83795011043549,1.29705011844635,-9.40500068664551,-3.88905024528503,-13.2259502410889,-26.1670513153076,-15.3360004425049,-17.8270511627197,-15.5680503845215,-11.7019510269165,-1.75200009346008,13.2700510025024,17.1030006408691,8.11305046081543,-1.52700006961823,-8.55000019073486,-18.2029514312744,-25.3000507354736,1.80705010890961,2.98695015907288,4.61205005645752,20.6869506835938,15.234001159668,2.85495018959045,1.66095006465912,-3.21900010108948,-1.94595015048981,12.1609506607056,13.1299505233765,9.35205078125,6.13095045089722,5.67900037765503,8.66805076599121,SHAKE
2.74559998512268,-1.40703749656677,-3.59631252288818,-3.27745008468628,-1.55856251716614,-1.9519499540329,-2.66296243667603,-1.13464999198914,4.60006237030029,9.03127479553223,5.13768768310547,-0.57021248340607,-3.38126254081726,-3.00134992599487,-0.65450000762939,1.04665005207062,-0.04303750023246,0.47368749976158,-0.58066248893738,2.27933740615845,1.75890004634857,0.40411248803139,1.8408499956131,-2.89217495918274,0.4296875,1.21398746967316,-0.52195000648499,2.11695003509521,1.40703749656677,2.4919126033783,15.7617626190186,4.04676246643066,-5.04762506484985,-5.42506265640259,-6.07021236419678,-7.27361249923706,-9.41641235351563,-11.4420623779297,0.97542500495911,13.8083000183105,17.9902248382568,13.1839122772217,1.7659125328064,-3.03421258926392,-4.39394998550415,5.99895048141479,40.2900009155273,23.7499504089355,6.68400049209595,8.98605060577393,3.36195015907288,3.83400011062622,-5.88300037384033,-42.1740036010742,-22.4950504302979,-1.44900012016296,30.2899513244629,42.256950378418,17.6890506744385,17.1240005493164,-8.07900047302246,4.89705038070679,12.1759510040283,16.5220508575439,4.72695016860962,-1.84995007514954,-12.8719501495361,-29.4829521179199,-13.0699510574341,-23.017951965332,-23.0370006561279,-17.5500011444092,8.20200061798096,23.4210014343262,11.3119506835938,-1.18995010852814,-0.39105001091957,4.84095001220703,14.2840509414673,8.14800071716309,5.73900032043457,4.12095022201538,5.89200019836426,23.5660514831543,5.96400022506714,-0.54405003786087,-4.23900032043457,4.21005010604858,18.2850017547607,13.4010009765625,SHAKE
0.91547501087189,0.42913749814034,-0.49445000290871,-0.39421248435974,2.64660000801086,5.58360004425049,4.25438737869263,1.06809997558594,-2.56891250610352,-2.73501253128052,-0.68502497673035,0.43037500977516,0.36684998869896,0.37784999608994,0.14946250617504,3.83831238746643,1.79684996604919,-0.03822499886155,-1.15967500209808,-1.42243754863739,0.6484500169754,0.25011250376701,-1.37596249580383,0.96112501621246,1.92871248722076,3.50845003128052,4.6201376914978,3.29463744163513,2.23657488822937,-0.16032500565052,-6.41341257095337,-8.089674949646,-9.56793785095215,-8.70416259765625,0.84837502241135,11.8388872146606,16.7122993469238,12.3140878677368,-0.83517497777939,-6.32183742523193,-7.05237483978271,-7.75733757019043,-8.20943737030029,-9.32112503051758,-7.34194993972778,11.7250509262085,3.81195020675659,-0.73095005750656,-7.93905019760132,-34.4779510498047,-19.8030014038086,-5.74200010299683,31.6750507354736,45.1930503845215,20.4810009002686,13.1989507675171,8.30595016479492,1.58205008506775,-3.1360502243042,-16.4839515686035,1.87995004653931,-5.5420503616333,-16.0729503631592,-21.2040004730225,-10.2469501495361,-15.1069507598877,-16.6020011901855,-11.8980007171631,12.9520502090454,24.1360511779785,8.25405025482178,-1.3860000371933,-9.92400074005127,-16.17405128479,-24.810001373291,8.58405017852783,2.71605014801025,3.29295015335083,5.26695013046265,19.2160511016846,7.83495044708252,1.73805010318756,-3.60000014305115,1.86495006084442,14.7409505844116,9.74895000457764,4.35300016403198,-0.17805001139641,-0.64905005693436,1.41495001316071,SHAKE
0.43037500977516,0.36684998869896,0.37784999608994,0.14946250617504,1.24409997463226,3.65213751792908,2.65759992599487,0.39861249923706,-0.9953625202179,-0.9843624830246,-0.82555001974106,-1.54508745670319,-2.00694990158081,-1.08570003509521,1.38091254234314,4.6201376914978,3.29463744163513,2.23657488822937,-0.16032500565052,-4.51453733444214,-2.27149987220764,-2.89575004577637,-3.46871256828308,0.26606249809265,1.60256254673004,2.53467488288879,1.7491375207901,1.46698749065399,0.82926249504089,-1.9074000120163,-7.75733757019043,-8.20943737030029,-9.32112503051758,-7.34194993972778,4.06876230239868,14.1222124099731,16.9333992004395,10.6647748947144,0.58698749542236,-4.27913761138916,-6.86551237106323,-8.97421264648438,-9.3186502456665,-10.4585247039795,-5.72687482833862,8.30595016479492,1.58205008506775,-3.1360502243042,-16.4839515686035,-35.8300514221191,-18.6109504699707,-0.47505003213882,33.3760528564453,43.3789520263672,24.1249504089355,16.3290004730225,8.97105026245117,3.25005006790161,-2.0419499874115,-24.4260005950928,-1.3860000371933,-9.92400074005127,-16.17405128479,-24.810001373291,-11.6800508499146,-18.6270008087158,-21.3190517425537,-11.4570007324219,15.5809507369995,25.4260520935059,9.70905017852783,-3.40095019340515,-9.99300003051758,-23.5369510650635,-16.8940505981445,4.35300016403198,-0.17805001139641,-0.64905005693436,1.41495001316071,10.2660007476807,4.49205017089844,-0.01305000018328,0.16305001080036,5.81805038452148,11.577000617981,5.56905031204224,3.64005017280579,3.56400012969971,7.31805038452148,13.3429508209229,SHAKE
-1.58413743972778,-1.70142495632172,-1.55361247062683,-0.03011249937117,4.26662492752075,4.71735000610352,3.57761240005493,0.06641250103712,-3.88588738441467,-4.56637477874756,-2.7007749080658,-0.50778752565384,1.71682500839233,2.94965004920959,2.3069748878479,3.75278759002686,2.34905004501343,0.26716250181198,-0.85676246881485,0.83160001039505,-0.01498750038445,-2.60741257667542,-0.21175000071526,2.95253753662109,2.92324995994568,4.7679500579834,4.38927507400513,1.8321875333786,-0.83599996566772,-1.41996252536774,-7.00961256027222,-8.95468711853027,-10.4109497070313,-4.61999988555908,6.81161260604858,12.0136499404907,14.4717378616333,8.76631259918213,-1.45694994926453,-4.48194980621338,-5.80511236190796,-7.40547513961792,-9.50688743591309,-9.72675037384033,-1.20037496089935,6.35805034637451,2.12295007705688,-2.26500010490417,-22.9900512695313,-24.3990020751953,-12.1500005722046,-0.85995006561279,27.8130016326904,30.1459522247314,10.3399505615234,7.7989501953125,2.66100001335144,1.33095002174377,-5.46405029296875,-30.7600517272949,1.28100001811981,-9.68400001525879,-23.9479503631592,-15.2329511642456,-10.5649509429932,-13.9150505065918,-11.2210502624512,0.31500002741814,14.6860504150391,16.4359512329102,4.60005044937134,-4.45800018310547,-14.8459510803223,-23.5200004577637,-10.7490005493164,4.03995037078857,2.68305015563965,6.23400020599365,14.4750003814697,11.5920009613037,6.74805021286011,1.21605002880096,-1.17599999904633,3.57795023918152,12.8550004959106,9.92400074005127,6.39900016784668,5.10195016860962,4.30500030517578,7.85205030441284,SHAKE
-0.1560624986887,1.70472502708435,3.10598754882813,3.60442495346069,2.76760005950928,2.9606499671936,1.94411253929138,0.1727000027895,-0.72407501935959,-0.63731247186661,-0.39050000905991,-0.68860000371933,-0.93059998750687,-0.69602501392365,0.30456250905991,5.65372514724731,4.19746255874634,2.5249125957489,2.86948752403259,0.43587499856949,-0.07975000143051,-0.73823750019073,-0.16527499258518,0.78649997711182,1.10660004615784,2.15971255302429,1.84813749790192,0.86336249113083,0.96964997053146,1.12117505073547,-5.45806264877319,-7.0780873298645,-8.96926212310791,-7.10489988327026,3.29917502403259,12.7026624679565,15.9730997085571,11.9634628295898,-1.31889998912811,-4.9131498336792,-4.97433757781982,-7.60347509384155,-9.45065021514893,-9.30641269683838,0.37070000171661,7.13595056533813,2.9239501953125,1.86900007724762,-13.5979509353638,-31.4580020904541,-22.0330505371094,-7.52700042724609,22.9669513702393,35.9560508728027,6.91605043411255,7.12395048141479,4.77600002288818,0.12900000810623,-7.97205018997192,-35.3800506591797,1.68795013427734,-6.44205045700073,-19.3560009002686,-21.4740009307861,-7.33395051956177,-11.3590507507324,-14.1880502700806,-6.91800022125244,10.2880506515503,23.7360019683838,10.9300508499146,0.32895001769066,-10.1149501800537,-22.5580501556396,-9.75405025482178,11.6080503463745,7.41405057907104,3.66600012779236,2.6140501499176,7.14105033874512,4.97295045852661,3.08700013160706,3.62595009803772,6.95205020904541,11.0719509124756,5.82495021820068,3.61395025253296,3.6499502658844,5.08305025100708,9.71595001220703,SHAKE
-2.79606246948242,-2.63848757743835,-2.26462507247925,-0.97693747282028,1.43591248989105,4.04909992218018,3.98557496070862,1.34420001506805,-0.08153750002384,-0.5823125243187,-1.67818748950958,-2.63120007514954,-3.35568737983704,-3.16744995117188,1.58372497558594,1.79684996604919,1.79684996604919,1.37775003910065,1.78090000152588,0.19882500171661,-0.67718750238419,-2.27149987220764,-2.39359998703003,-1.65453743934631,1.535325050354,1.53174996376038,1.86642503738403,0.93788748979568,-0.96909999847412,-2.47788739204407,-5.52901268005371,-7.97238731384277,-9.08407497406006,-8.67487525939941,0.4281750023365,13.0923376083374,16.2859115600586,11.7704124450684,-0.12416250258684,-5.2052001953125,-5.87221240997314,-8.10067462921143,-9.06097507476807,-6.93508768081665,3.3602249622345,10.771050453186,5.32905006408691,-1.73595011234283,-6.20100021362305,-35.7540016174316,-29.238000869751,-7.72995042800903,22.6300506591797,38.3580017089844,19.2510013580322,10.9210500717163,5.62095022201538,-2.97795009613037,-13.9519510269165,-34.066951751709,12.0880508422852,0.26700001955032,-9.72495079040527,-22.8070507049561,-9.06900024414063,-14.2240505218506,-19.1100006103516,-11.7370510101318,15.7750511169434,20.5849514007568,12.2959508895874,-0.30900001525879,-10.3210506439209,-18.9019508361816,-4.13295030593872,5.49195003509521,4.7790002822876,5.23395013809204,5.19105005264282,12.5230503082275,9.75600051879883,1.57305002212524,-1.1380500793457,2.09205007553101,2.43900012969971,1.32900011539459,0.69705003499985,3.48495006561279,8.27505016326904,17.4709510803223,SHAKE
