gyro_x_0,gyro_y_0,gyro_z_0,acc_x_0,acc_y_0,acc_z_0,gyro_x_1,gyro_y_1,gyro_z_1,acc_x_1,acc_y_1,acc_z_1,gyro_x_2,gyro_y_2,gyro_z_2,acc_x_2,acc_y_2,acc_z_2,gyro_x_3,gyro_y_3,gyro_z_3,acc_x_3,acc_y_3,acc_z_3,gyro_x_4,gyro_y_4,gyro_z_4,acc_x_4,acc_y_4,acc_z_4,gyro_x_5,gyro_y_5,gyro_z_5,acc_x_5,acc_y_5,acc_z_5,gyro_x_6,gyro_y_6,gyro_z_6,acc_x_6,acc_y_6,acc_z_6,gyro_x_7,gyro_y_7,gyro_z_7,acc_x_7,acc_y_7,acc_z_7,gyro_x_8,gyro_y_8,gyro_z_8,acc_x_8,acc_y_8,acc_z_8,gyro_x_9,gyro_y_9,gyro_z_9,acc_x_9,acc_y_9,acc_z_9,gyro_x_10,gyro_y_10,gyro_z_10,acc_x_10,acc_y_10,acc_z_10,gyro_x_11,gyro_y_11,gyro_z_11,acc_x_11,acc_y_11,acc_z_11,gyro_x_12,gyro_y_12,gyro_z_12,acc_x_12,acc_y_12,acc_z_12,gyro_x_13,gyro_y_13,gyro_z_13,acc_x_13,acc_y_13,acc_z_13,gyro_x_14,gyro_y_14,gyro_z_14,acc_x_14,acc_y_14,acc_z_14,motion_type
0.72171664237976,1.96488034725189,0.6593986749649,-1.33530902862549,-2.36914825439453,1.60588622093201,0.7600662112236,-0.16724652051926,0.52783852815628,-0.33981937170029,-1.38590908050537,2.25676274299622,-0.73876088857651,-2.84372353553772,3.2831449508667,0.95128113031387,0.74195671081543,1.79656851291656,-2.1401162147522,-0.81599259376526,0.81439465284348,0.14753912389278,0.81332939863205,0.75420725345612,-2.86662673950195,-1.08017814159393,0.02024002373219,-1.06952548027039,1.59150505065918,-1.21759724617004,-8.30906295776367,-9.07285690307617,4.3542685508728,10.0283994674683,6.47893857955933,-2.76116538047791,-8.01931095123291,-8.74582099914551,4.09860515594482,10.7112340927124,6.85391139984131,-3.68474984169006,-9.04462814331055,-9.88725185394287,7.83608531951904,20.8080062866211,-2.39180755615234,-57.3435249328613,8.71249961853027,41.343074798584,38.5442543029785,19.7545585632324,-2.23857855796814,-60.099250793457,8.26957225799561,43.6032028198242,43.8210754394531,22.886173248291,-8.56405925750732,-53.5415344238281,13.0962829589844,-35.1564559936523,-43.9336013793945,-21.3634624481201,34.2538452148438,52.3300666809082,13.4147119522095,-30.9761810302734,-44.6470718383789,-22.620418548584,36.1404762268066,52.9070701599121,10.3549222946167,-45.3820915222168,-47.4075889587402,8.83939266204834,6.79474449157715,-7.98226833343506,-9.65820980072021,18.2318458557129,10.3644990921021,-0.03591302409768,4.7022123336792,-1.84114110469818,-7.89368295669556,15.3181028366089,2.08534979820251,-5.59524917602539,9.5217399597168,0.40940847992897,SHAKE
3.2831449508667,-0.64714813232422,-1.78751373291016,1.25488150119781,-1.13823509216309,0.66259449720383,1.40614902973175,-2.22054386138916,0.82771050930023,0.73876088857651,-0.77125144004822,1.83917903900146,-0.7062703371048,-4.26691675186157,-1.7763284444809,-1.21759724617004,-1.60162508487701,0.57630807161331,0.09161274135113,-0.35206991434097,1.22132575511932,-0.15819177031517,-0.65034395456314,-0.324373036623,0.29081720113754,0.48203217983246,1.61920201778412,0.57790595293045,0.35420042276382,-0.48149952292442,7.83608531951904,10.3602294921875,3.92496681213379,-5.37958526611328,-9.20601558685303,-7.96604776382446,8.37510871887207,10.010290145874,2.92681407928467,-6.11941146850586,-8.97059154510498,-6.06455039978027,8.60627174377441,8.85714149475098,4.32657146453857,-53.5415344238281,19.2757186889648,50.3835792541504,37.488410949707,18.3587379455566,-25.0720806121826,-41.0701370239258,19.0171432495117,54.5470962524414,33.9689331054688,12.3109855651855,-37.9409141540527,-29.4462871551514,19.8766632080078,42.5210227966309,-47.4075889587402,-11.9662199020386,46.7012977600098,42.3917350769043,1.63284552097321,-45.9375495910645,-43.6678466796875,-6.42603731155396,52.8520011901855,38.0342864990234,-4.66390514373779,-43.011833190918,-37.9864044189453,-7.94635534286499,40.9959144592285,0.40940847992897,-14.839262008667,20.2645225524902,-1.3407529592514,0.82599955797195,12.8736228942871,-6.98388624191284,-1.51074123382568,15.0260095596313,-1.93451499938965,7.26400804519653,11.0037508010864,-11.1641626358032,-2.76769709587097,26.0489139556885,SHAKE
-0.77125144004822,1.83917903900146,-0.7062703371048,-4.26691675186157,-1.7763284444809,2.16621518135071,-0.34727621078491,2.63386631011963,0.01917476020753,-1.53078496456146,-0.89588743448257,0.76166409254074,-0.62104916572571,1.20055305957794,0.73822826147079,0.48203217983246,1.61920201778412,0.57790595293045,0.35420042276382,-0.48149952292442,-0.66685557365417,-0.26631611585617,-1.44290065765381,2.42880296707153,-0.87884318828583,-0.1352885812521,0.2226402759552,-0.15712650120258,0.86126631498337,1.71454310417175,-8.97059154510498,-6.06455039978027,8.60627174377441,8.85714149475098,4.32657146453857,-3.93828272819519,-8.27710437774658,-8.46618938446045,4.91513013839722,9.39936065673828,5.63791227340698,-4.32710409164429,-9.05900859832764,-8.81612873077393,5.24589490890503,12.3109855651855,-37.9409141540527,-29.4462871551514,19.8766632080078,42.5210227966309,40.4859504699707,17.5303440093994,-7.13232707977295,-57.0921325683594,10.3142213821411,46.933536529541,39.6862869262695,18.3108539581299,-7.85537576675415,-53.0579032897949,-4.66390514373779,-43.011833190918,-37.9864044189453,-7.94635534286499,40.9959144592285,44.7596015930176,7.69496440887451,-34.0048484802246,-42.736499786377,-17.058687210083,40.6774864196777,47.776294708252,7.04374122619629,-37.9337310791016,-42.0158462524414,7.26400804519653,11.0037508010864,-11.1641626358032,-2.76769709587097,26.0489139556885,1.68312382698059,6.49786329269409,16.0794582366943,-3.52426481246948,0.00478840339929,14.839262008667,-2.20984816551209,5.58567237854004,14.6357545852661,-6.84262847900391,SHAKE
-0.62104916572571,1.20055305957794,0.73822826147079,-2.39418196678162,-2.94226050376892,0.69188928604126,-0.71585774421692,1.73691368103027,1.62186515331268,-1.32731950283051,-0.74461984634399,0.02130528911948,-0.12623383104801,1.80775380134583,-0.19334550201893,-0.15712650120258,0.86126631498337,1.71454310417175,-0.77338200807571,-0.66206187009811,-0.2226402759552,0.48309743404388,0.07723167538643,1.12651717662811,-1.45515120029449,-0.896952688694,0.83516734838486,0.47564056515694,0.8905611038208,2.28552484512329,-9.05900859832764,-8.81612873077393,5.24589490890503,9.44516754150391,6.54711532592773,-3.16330289840698,-8.3820333480835,-8.52105045318604,2.11827826499939,10.3128252029419,7.39613103866577,-2.11668038368225,-7.95486211776733,-8.40866470336914,2.19018363952637,18.3108539581299,-7.85537576675415,-53.0579032897949,12.5575876235962,38.2401885986328,41.3047676086426,19.3954277038574,-1.59693253040314,-55.5550575256348,1.59932672977448,41.2880096435547,38.2354011535645,21.02587890625,-3.23935484886169,-56.4026031494141,7.04374122619629,-37.9337310791016,-42.0158462524414,-18.1911449432373,32.891544342041,50.7307395935059,12.6078662872314,-26.9299812316895,-41.1970291137695,-23.6211948394775,27.1670074462891,49.1864814758301,15.2989492416382,-26.6738014221191,-38.4748229980469,5.58567237854004,14.6357545852661,-6.84262847900391,-6.93121385574341,15.6508960723877,6.9814920425415,6.43561410903931,17.0012264251709,-5.11640882492065,-5.17626428604126,8.23844814300537,6.87854146957397,8.87291145324707,12.4642143249512,-11.4275245666504,SHAKE
-0.38882151246071,2.30576491355896,0.66525763273239,-1.86474537849426,-1.39336585998535,0.64128917455673,-0.74355459213257,0.74834829568863,0.5949501991272,-0.68869346380234,-0.3627225458622,0.7984157204628,-1.32572162151337,-1.76034951210022,1.5627429485321,1.34329843521118,0.00852211564779,2.54864525794983,-1.91108441352844,-1.53611135482788,-0.15180018544197,0.62211441993713,-0.03302319720387,2.14277935028076,-1.8924423456192,-1.33371114730835,0.15819177031517,0.95767277479172,1.10894024372101,1.37578904628754,-8.05126857757568,-8.43263339996338,0.02982740476727,10.2861938476563,8.80281257629395,-1.23943519592285,-7.88775062561035,-9.21560287475586,-0.36218991875648,10.1413173675537,8.79375839233398,-2.34784293174744,-8.86832618713379,-10.2568988800049,4.00965547561646,22.1894607543945,2.28885674476624,-59.2852210998535,-2.07337856292725,35.4724922180176,48.7004585266113,24.0641212463379,6.0788779258728,-63.4104309082031,-2.46842193603516,35.6640281677246,47.2902717590332,25.8573780059814,-2.38701915740967,-55.5670280456543,18.1959323883057,-20.671537399292,-43.5696830749512,-31.4406566619873,18.1193180084229,55.5382957458496,21.351490020752,-22.2780475616455,-43.8952941894531,-28.5077590942383,21.6890735626221,53.991641998291,16.8982753753662,-34.8739433288574,-43.9814834594727,6.0597243309021,16.2638130187988,-7.64229202270508,-3.45962142944336,6.67982292175293,6.13394498825073,2.92332029342651,14.2311353683472,-0.70628952980042,-2.5091233253479,7.50103378295898,-0.94810384511948,1.27850365638733,5.564124584198,4.51546430587769,SHAKE
-1.32572162151337,-1.76034951210022,1.5627429485321,-1.52066504955292,-2.86236548423767,1.42851960659027,-1.49137020111084,1.80082952976227,2.34890818595886,-1.73531579971313,-2.24504494667053,1.80136215686798,-0.39734363555908,1.61494088172913,2.18858575820923,0.95767277479172,1.10894024372101,1.37578904628754,-1.49509871006012,-0.43516051769257,-1.07059073448181,1.15900778770447,-0.28975194692612,0.48576059937477,-1.13610458374023,-0.25300031900406,-0.9954896569252,0.48203217983246,-1.12278878688812,1.80881905555725,-8.86832618713379,-10.2568988800049,4.00965547561646,9.64117622375488,7.25764656066895,-2.79844975471497,-8.44967746734619,-8.47151565551758,3.47435998916626,9.54263877868652,7.358314037323,-2.58220100402832,-8.24408149719238,-8.71013450622559,1.64902937412262,25.8573780059814,-2.38701915740967,-55.5670280456543,5.9208607673645,38.7669143676758,41.426872253418,19.8982105255127,-4.72376012802124,-60.1160087585449,7.97029733657837,35.3048973083496,40.2297706604004,21.9739837646484,-1.1180921792984,-57.2070541381836,16.8982753753662,-34.8739433288574,-43.9814834594727,-20.3004360198975,27.3944549560547,49.045223236084,11.7148284912109,-30.0256843566895,-40.3207511901855,-19.7354049682617,25.8885021209717,48.9542427062988,13.3716163635254,-25.3665676116943,-39.3080024719238,1.27850365638733,5.564124584198,4.51546430587769,-11.1689510345459,17.1903686523438,4.74051952362061,4.47955131530762,20.0538330078125,-3.6343982219696,-5.03500604629517,14.0012912750244,6.14591598510742,3.13640427589417,19.6252708435059,2.11408019065857,SHAKE
-0.72224932909012,1.46953237056732,3.55851602554321,1.3869743347168,-2.66103053092957,-0.44421526789665,0.66046398878098,1.44929230213165,0.30999195575714,-0.2354234457016,-1.48338079452515,-0.42237734794617,-0.23808661103249,1.32785212993622,1.78751373291016,0.53902381658554,-1.32945001125336,-0.69188928604126,-1.05834019184113,0.79468727111816,0.41811630129814,-0.06178534030914,-2.16728043556213,0.93317168951035,0.38722363114357,0.60986387729645,0.7898935675621,0.39627838134766,-1.65329039096832,1.56806921958923,-7.17508888244629,-8.25100612640381,-1.92386758327484,9.52612781524658,7.57509565353394,-0.68975871801376,-7.48295021057129,-8.41292572021484,1.98565292358398,10.8177604675293,6.87947797775269,-3.63361716270447,-8.31225872039795,-7.78868103027344,5.78704929351807,22.3881797790527,2.88022470474243,-52.6341285705566,-7.46990919113159,27.7368259429932,44.4962387084961,22.064962387085,3.24653744697571,-60.0106658935547,13.2016277313232,36.1811752319336,40.584114074707,15.9477777481079,-11.7818670272827,-47.6733436584473,19.962854385376,-16.6492786407471,-40.0789375305176,-26.5708503723145,18.9908084869385,49.7227821350098,20.7194213867188,-20.3866271972656,-37.3926429748535,-23.7337207794189,31.6944427490234,46.0524711608887,7.66144561767578,-32.8125343322754,-35.1085739135742,1.18273568153381,19.5031661987305,3.94325017929077,-3.7541081905365,0.42616790533066,11.4586496353149,4.25689077377319,9.8808708190918,10.5727949142456,-2.559401512146,4.35505294799805,3.38300704956055,5.18584108352661,10.4291429519653,5.13556241989136,SHAKE
-1.76727378368378,-1.73052215576172,0.53316485881805,1.83278751373291,-1.15101826190948,0.04793690145016,-0.82025361061096,-1.98032665252686,0.88257157802582,2.07140684127808,-1.29642689228058,2.16514992713928,0.00852211564779,-2.79472136497498,1.12012553215027,1.3401026725769,1.90096437931061,2.04264450073242,-1.36460375785828,-0.39840891957283,0.09587380290031,0.46871635317802,0.61092919111252,2.26315426826477,-2.66422629356384,-0.31851407885551,0.04314320906997,0.12144014984369,1.1813782453537,1.68311786651611,-7.10105276107788,-9.23318004608154,-1.80509066581726,10.5690212249756,8.19827556610107,-0.80054622888565,-7.4914722442627,-9.33651065826416,0.86073368787766,10.7506484985352,7.71304750442505,-2.44158601760864,-8.26059341430664,-9.22678852081299,2.99019742012024,27.6985187530518,5.77960300445557,-53.1919784545898,-6.91445446014404,26.2596035003662,46.3541374206543,23.2237567901611,4.58010768890381,-61.1718521118164,-0.80684596300125,31.1198329925537,40.0645713806152,23.2740345001221,1.65439331531525,-56.5917472839355,30.3465061187744,-12.1888809204102,-38.2210350036621,-29.0680027008057,15.1433258056641,52.397102355957,21.5837287902832,-19.9724311828613,-40.3183555603027,-26.6331005096436,26.6259174346924,51.2742233276367,17.3244438171387,-26.9227981567383,-37.9145774841309,-2.60489153862,8.18338108062744,8.98065090179443,-8.22887134552002,-4.34068775177002,8.02057552337646,-0.87627780437469,6.19858837127686,11.3030261993408,-8.32463932037354,2.36068296432495,6.33745193481445,-3.93127918243408,4.41730213165283,12.1553621292114,SHAKE
0.35420042276382,-0.6141249537468,-0.56459015607834,-0.48576059937477,1.20108568668365,0.8175904750824,0.15339808166027,-0.61945128440857,0.70786821842194,0.68336713314056,-0.63809341192245,-1.0876350402832,1.76727378368378,-1.36833214759827,-1.7124125957489,-1.8066885471344,-1.0018812417984,0.8239820599556,1.51640391349792,-0.52996909618378,1.62878930568695,-0.94382429122925,-1.65435564517975,0.39254996180534,1.02371919155121,-0.3179814517498,3.1723575592041,-1.53131771087646,-1.07644975185394,0.44794371724129,9.94104766845703,7.6970682144165,-1.49882709980011,-7.31090974807739,-7.60971641540527,-2.18592262268066,9.69071102142334,8.42890453338623,-0.03195793181658,-6.8368673324585,-8.33889007568359,-2.88633394241333,9.44676494598389,8.28083324432373,0.17257283627987,0.03591302409768,30.2986221313477,41.2616729736328,18.6771678924561,2.83234071731567,-45.2623825073242,-8.09718990325928,21.217414855957,47.5488471984863,23.3291015625,6.30153894424438,-47.9869842529297,-9.50498104095459,24.5190200805664,43.5241928100586,-23.4583873748779,24.0952453613281,49.0931053161621,18.0091857910156,-11.2359886169434,-35.5682601928711,-27.0377197265625,15.3013429641724,50.261474609375,24.7249202728271,-8.59997272491455,-37.562629699707,-29.4630470275879,12.8377094268799,50.271053314209,-3.2082302570343,3.06218385696411,5.72693061828613,5.57609558105469,9.5624418258667,0.31842881441116,-5.56651878356934,-0.45489832758904,13.9701671600342,-0.5243301987648,3.48835182189941,8.12113189697266,-5.05415964126587,-6.70376491546631,12.033257484436,SHAKE
1.51746916770935,-0.11238539963961,-0.18748654425144,-0.56565541028976,-0.03355583176017,-0.70680296421051,1.63518095016479,0.73716300725937,-0.07723167538643,-0.04900216311216,-0.19600865244865,-1.81308007240295,1.6650083065033,0.32011196017265,-0.39840891957283,-1.65488839149475,-1.12385404109955,1.1989551782608,1.41200804710388,-1.03543710708618,1.58245038986206,-1.53824186325073,-1.00294649600983,0.8111988902092,0.76912093162537,-1.08337390422821,3.68528246879578,-2.30683016777039,-0.53795856237411,0.3850930929184,9.28537750244141,7.92823076248169,-1.17924773693085,-6.87734746932983,-7.95219898223877,-3.28634095191956,10.248908996582,8.64302349090576,-0.37816888093948,-7.32901954650879,-8.93810176849365,-2.01388239860535,10.751181602478,8.60041236877441,-1.0061422586441,-6.33505773544312,24.5429611206055,41.4867286682129,18.0810108184814,7.54891777038574,-44.7308692932129,-11.1354322433472,27.4183979034424,47.6302490234375,21.8039951324463,9.85214042663574,-54.2550048828125,-6.57926607131958,31.818941116333,47.3788566589355,-22.9149036407471,19.1560077667236,47.6589775085449,21.5023250579834,-7.82185697555542,-35.4030609130859,-30.3345355987549,15.9166526794434,53.4984359741211,24.6219711303711,-12.0356521606445,-40.550594329834,-31.1772937774658,16.4864730834961,53.6301193237305,0.25139117240906,-1.62326872348785,2.58094954490662,-0.3016694188118,5.50905799865723,4.24252557754517,-1.06541979312897,-2.98078107833862,2.8012158870697,-0.74459671974182,4.92726707458496,5.22414827346802,-0.16998831927776,-6.92881965637207,1.63763391971588,SHAKE
-0.40053942799568,-1.10680973529816,0.00639158673584,1.93398761749268,-0.264185577631,0.76539248228073,-1.35927748680115,-0.95873802900314,0.3115898668766,1.51001238822937,-0.86339682340622,-0.17843179404736,-1.1430287361145,-0.29880666732788,0.32490566372871,0.41971418261528,0.62424498796463,1.44503128528595,-3.08340787887573,-0.5310343503952,0.95607483386993,0.34567832946777,0.34301516413689,2.36488699913025,-3.0860710144043,-0.61252707242966,-0.08948221802711,0.79255676269531,-0.1193096190691,2.60137581825256,-8.10932540893555,-9.18577575683594,3.63414978981018,10.7250823974609,7.37429332733154,-2.81815719604492,-8.43636226654053,-9.43398189544678,0.70094400644302,10.5450525283813,7.96871089935303,-0.51399010419846,-7.18574142456055,-8.67444801330566,-4.62431287765503,17.1879749298096,1.30723416805267,-53.2302856445313,5.30315685272217,36.8228225708008,40.751708984375,18.4185943603516,5.81072759628296,-57.5422439575195,-0.0981622710824,29.5540256500244,42.7436828613281,19.9939785003662,6.8043212890625,-35.7286720275879,13.5320281982422,-24.918851852417,-37.2944793701172,-21.906946182251,28.6418342590332,49.6054649353027,16.1943798065186,-20.5230960845947,-38.4939765930176,-25.7999172210693,17.6811790466309,50.8983345031738,24.6578826904297,-6.56968927383423,-37.1699829101563,-0.99838209152222,2.14999318122864,2.04225397109985,-4.48912811279297,3.03584766387939,-2.72699570655823,-3.24414324760437,8.746018409729,-0.31603461503983,-4.37420654296875,-0.35194763541222,3.47638082504272,1.13485157489777,10.2711248397827,-0.39743748307228,SHAKE
1.51001238822937,-0.86339682340622,-0.17843179404736,-1.1430287361145,-0.29880666732788,0.32490566372871,0.84741789102554,0.60720074176788,0.60613548755646,0.40000680088997,-1.23570680618286,-0.60879862308502,-0.70999878644943,1.00827276706696,0.26258769631386,-3.0860710144043,-0.61252707242966,-0.08948221802711,0.79255676269531,-0.1193096190691,2.60137581825256,-1.53930711746216,-1.89563810825348,0.33289512991905,1.03916549682617,-0.56725335121155,0.5757754445076,1.35874485969543,-2.5944516658783,-0.24447819590569,10.5450525283813,7.96871089935303,-0.51399010419846,-7.18574142456055,-8.67444801330566,-4.62431287765503,9.8595552444458,9.94743919372559,3.02907943725586,-5.30661487579346,-8.5791072845459,-7.62143468856812,4.27384090423584,9.95969009399414,6.99399375915527,-0.0981622710824,29.5540256500244,42.7436828613281,19.9939785003662,6.8043212890625,-35.7286720275879,-21.818359375,23.082498550415,48.4610366821289,27.5069828033447,11.6334257125854,-7.62553262710571,-47.8983993530273,10.3932294845581,34.2945442199707,-25.7999172210693,17.6811790466309,50.8983345031738,24.6578826904297,-6.56968927383423,-37.1699829101563,-32.7335243225098,-2.29603934288025,45.674186706543,36.0997734069824,3.91691398620605,-26.8413944244385,-32.4677696228027,-16.1800155639648,31.6776828765869,-4.37420654296875,-0.35194763541222,3.47638082504272,1.13485157489777,10.2711248397827,-0.39743748307228,-2.67192912101746,-3.52187061309814,10.3549222946167,-6.89051246643066,-0.18914192914963,5.95916795730591,-1.87705409526825,2.03746557235718,3.56017804145813,SHAKE
1.00827276706696,0.26258769631386,0.81652522087097,-0.82984101772308,-1.21386885643005,-0.46392267942429,1.23943519592285,-0.86446207761765,0.58696073293686,0.02929477207363,-0.59974390268326,-0.70360720157623,1.20481407642365,0.07829693704844,0.07776430249214,-2.5944516658783,-0.24447819590569,1.06100344657898,0.108124345541,0.36751624941826,2.94279313087463,-3.03120994567871,-0.70520508289337,0.5608617067337,0.49481534957886,-0.63915866613388,3.34386515617371,-1.5536881685257,-1.35395109653473,-0.41065946221352,9.95969009399414,6.99399375915527,-3.04186272621155,-8.0411491394043,-8.78150749206543,0.32330775260925,10.6190891265869,8.63130569458008,-0.32011196017265,-7.28907203674316,-9.43611240386963,-4.97212171554565,9.48138618469238,9.68751525878906,3.42802095413208,10.3932294845581,34.2945442199707,35.7550086975098,17.3196544647217,3.36864185333252,-54.3004951477051,0.26096799969673,28.9004077911377,46.691722869873,21.5358448028564,11.5161104202271,-42.4420127868652,-19.7473754882813,22.6635131835938,44.0221862792969,-16.1800155639648,31.6776828765869,46.5313110351563,14.1473379135132,-18.4138050079346,-36.2960968017578,-26.858154296875,16.0148143768311,53.6971549987793,26.0106067657471,-8.54011726379395,-39.4013786315918,-32.573112487793,-2.16914677619934,46.0285263061523,2.03746557235718,3.56017804145813,-3.35188245773315,-2.67671751976013,5.85861158370972,0.641646027565,-2.18111777305603,-1.14921677112579,8.86572933197021,-2.47321033477783,5.95916795730591,3.93367338180542,-3.44525623321533,-6.13873338699341,7.15626907348633,SHAKE
0.96832537651062,-1.75395786762238,1.25807726383209,0.16138756275177,-1.06419920921326,-0.37923413515091,0.66046398878098,-0.90281164646149,1.48710918426514,0.55393749475479,-1.39230060577393,-1.99790346622467,1.31506896018982,-0.17949706315994,0.02130528911948,-3.03120994567871,0.01970739290118,0.556600689888,-0.8175904750824,0.47830373048782,2.38246393203735,-1.76993691921234,-1.22079300880432,-0.00159789668396,0.08042746782303,0.10226538777351,3.96384906768799,-2.31908082962036,-1.47592389583588,-0.21891184151173,10.8816766738892,6.25256967544556,-2.15716052055359,-7.48028707504272,-8.86726093292236,-2.44957566261292,10.025203704834,9.29975891113281,0.80853569507599,-7.14313077926636,-9.32319450378418,-5.37585687637329,9.88139343261719,10.1541004180908,3.31510305404663,12.6701154708862,35.343204498291,39.6312217712402,18.7298393249512,7.53215837478638,-46.5456733703613,-10.8984060287476,26.7336559295654,51.738697052002,24.6866130828857,17.4848556518555,-39.5450286865234,-21.1024932861328,25.165454864502,48.9350891113281,-19.0746040344238,30.5093116760254,49.2535171508789,19.4289474487305,-13.4817495346069,-39.7198066711426,-32.9633674621582,8.18816947937012,54.8487663269043,30.7535209655762,11.3437280654907,-42.9543724060059,-34.7662010192871,-2.82036972045898,48.9494552612305,-7.87452936172485,3.31118106842041,8.01339340209961,-3.79959797859192,6.84023427963257,3.40694904327393,-4.11802673339844,-0.3447650372982,10.9343194961548,-5.66468143463135,-2.84191751480103,2.29125094413757,-0.71586632728577,-11.2695074081421,12.2391586303711,SHAKE
-0.38615837693214,-1.90416026115417,1.81361269950867,-0.1257012039423,0.17789916694164,-0.46924898028374,-0.95074850320816,-0.37337517738342,1.90309500694275,-1.08390653133392,-0.83463472127914,-0.07936219871044,0.41864892840385,-0.44900897145271,-0.70893347263336,-3.43920636177063,-1.40561640262604,0.04527373984456,1.02265381813049,-0.04367584362626,3.14306282997131,-1.62772405147552,-2.2088258266449,-1.25914263725281,1.42106282711029,-0.15872439742088,3.12069225311279,0.3307646214962,-2.65463900566101,-1.0189254283905,9.70455932617188,8.08216190338135,-0.99602228403091,-7.24486351013184,-8.37084770202637,-4.29994010925293,8.8523473739624,9.67153644561768,2.35423445701599,-6.75963544845581,-9.45901584625244,-6.87628221511841,7.01316833496094,10.1045656204224,6.18971920013428,0.19153612852097,26.9012508392334,46.3541374206543,18.6867446899414,6.55292987823486,-36.5331230163574,-17.0227737426758,20.6859035491943,50.6804618835449,27.9403343200684,12.2894372940063,-21.739351272583,-33.0088577270508,13.4793558120728,44.4794807434082,-22.7018203735352,18.294095993042,51.9062919616699,23.9276523590088,-8.89206504821777,-38.0965385437012,-31.3951663970947,1.6448165178299,52.7729949951172,35.393482208252,-1.71903681755066,-36.5594596862793,-35.3791198730469,-13.4482307434082,39.8036041259766,-6.23689556121826,4.37181234359741,11.6956748962402,-3.41413164138794,7.92480754852295,-4.87459468841553,-5.69820022583008,0.61770403385162,7.05571222305298,-6.447585105896,9.34696388244629,2.61207413673401,-8.58560752868652,-10.2208471298218,14.4178829193115,SHAKE
-0.44900897145271,-0.70893347263336,1.77313268184662,-0.68496507406235,-1.63624620437622,0.27430561184883,0.96299904584885,-1.12758243083954,1.41573643684387,-0.97578221559525,-0.63756078481674,-1.35341846942902,-0.91559481620789,-4.00006818771362,1.57659137248993,-2.65463900566101,-1.0189254283905,0.40160471200943,-0.91772532463074,0.62637549638748,2.24824070930481,-2.42028093338013,0.73396718502045,-0.61092919111252,-0.63276708126068,0.38615837693214,3.79606986045837,-2.3073627948761,-0.48256480693817,-1.52119767665863,10.1045656204224,6.18971920013428,-3.90579223632813,-8.52637672424316,-9.18257999420166,2.99179530143738,11.4180374145508,8.08535766601563,-1.27032780647278,-7.91704559326172,-9.52719306945801,0.43036684393883,9.66887283325195,7.46803665161133,-0.71479243040085,13.4793558120728,44.4794807434082,35.0152015686035,17.2430400848389,-1.38863694667816,-50.8336906433105,6.83305168151855,38.3455352783203,41.2401237487793,22.1703071594238,3.85466480255127,-51.580680847168,-0.8930372595787,31.9506225585938,42.4491958618164,-13.4482307434082,39.8036041259766,46.5768013000488,10.0125513076782,-28.8477363586426,-39.5953063964844,-24.4687404632568,28.644229888916,54.5782203674316,19.2158622741699,-22.1224231719971,-40.7157936096191,-23.4224758148193,20.8295555114746,50.4242820739746,-10.2208471298218,14.4178829193115,-3.88100099563599,-2.75572609901428,6.48349809646606,0.89064306020737,-6.6271505355835,2.85628271102905,-1.81959331035614,-0.26575639843941,9.50019264221191,-0.23942017555237,-10.0388879776001,5.42286682128906,14.0970592498779,SHAKE
-0.91559481620789,-4.00006818771362,1.57659137248993,-0.24447819590569,0.01491370238364,0.11664646118879,1.29962265491486,-1.22079300880432,-0.64182186126709,0.01864212751389,0.08468852192163,0.62584286928177,0.14487597346306,0.2258360683918,0.68336713314056,-2.3073627948761,-0.48256480693817,-1.52119767665863,0.01810949668288,0.30786141753197,3.43920636177063,-2.34411454200745,-0.4868258535862,0.16884441673756,0.2290318608284,-0.76326197385788,2.21894598007202,-0.30786141753197,-1.87060439586639,-0.6551376581192,9.66887283325195,7.46803665161133,-0.71479243040085,-7.33594369888306,-9.14636039733887,-1.48391342163086,9.81907558441162,8.23449420928955,0.56405752897263,-6.55244159698486,-8.52637672424316,-5.83445358276367,7.8179759979248,9.25075626373291,5.81048488616943,-0.8930372595787,31.9506225585938,42.4491958618164,22.3211421966553,5.61679697036743,-49.3181610107422,-8.91600704193115,27.21728515625,44.089225769043,24.155101776123,9.41878986358643,-23.9563827514648,-30.7894344329834,-0.25617957115173,43.9743041992188,-23.4224758148193,20.8295555114746,50.4242820739746,23.2381210327148,-14.1521263122559,-37.5362930297852,-27.3992443084717,9.94790840148926,50.62060546875,30.0017414093018,-2.66953492164612,-35.4700965881348,-31.9003429412842,-24.042573928833,39.9807739257813,-10.0388879776001,5.42286682128906,14.0970592498779,1.50116443634033,11.9279127120972,-0.68713587522507,-5.41807842254639,-7.0509238243103,8.69095230102539,1.52989482879639,9.9981861114502,4.44842672348022,-4.04380655288696,-2.20505976676941,14.513650894165,SHAKE
1.34329843521118,2.6881947517395,0.42504051327705,0.63276708126068,-0.55074173212051,2.53106832504272,1.14942038059235,-1.64157247543335,-0.06551376730204,1.58191776275635,-2.5001757144928,0.79308938980103,-0.87937581539154,0.46339005231857,-1.07644975185394,1.51001238822937,1.00720751285553,2.70577168464661,-3.44240212440491,-0.82451468706131,0.72704297304153,-0.5091964006424,-0.4740426838398,2.04743838310242,-3.19153237342834,1.14569187164307,0.42504051327705,1.00507700443268,0.2338255494833,3.21337032318115,-7.32422590255737,-7.53940916061401,1.29376363754272,9.62466430664063,7.63581562042236,-2.68073797225952,-7.83075904846191,-9.18044948577881,2.50177359580994,10.3953828811646,6.17800140380859,-3.960120677948,-8.9588737487793,-8.6552734375,1.11479926109314,14.7554655075073,1.98239898681641,-48.0659942626953,1.12288057804108,30.3297462463379,40.1842803955078,18.6508312225342,4.37899494171143,-54.9565048217773,6.43321990966797,35.6951522827148,36.9305610656738,16.5295677185059,1.39821374416351,-48.1641540527344,13.4697790145874,-18.4377479553223,-31.9745635986328,-22.0960884094238,27.5405025482178,49.3516807556152,15.729905128479,-24.2484741210938,-37.4860153198242,-20.9037742614746,30.7247905731201,50.7858047485352,15.128960609436,-20.070592880249,-37.2992668151855,12.9574193954468,3.37582445144653,-9.0836009979248,-3.97437477111816,4.93923807144165,7.89607715606689,-6.98388624191284,0.65361708402634,5.66707563400269,-5.98071575164795,-0.20111294090748,4.29040956497192,-1.56580793857574,9.67018032073975,-4.75967311859131,SHAKE
0.81173151731491,-2.73559904098511,0.70573770999908,0.33875408768654,-0.05379585549235,-0.340351998806,1.22611939907074,-0.77870833873749,-1.57659137248993,1.46633648872375,-0.5821670293808,-1.51427340507507,1.28204572200775,0.29401299357414,-0.45859634876251,-2.85597395896912,-0.22210763394833,-0.64341974258423,0.3371562063694,-0.20080235600471,3.31030941009521,-1.73638105392456,-2.78140544891357,1.56540608406067,0.29028457403183,-0.87671262025833,2.85171294212341,-0.15180018544197,-2.7393274307251,0.30786141753197,9.43185138702393,7.65285968780518,0.11345066130161,-6.21688318252563,-8.37830448150635,-5.08610534667969,9.20974349975586,10.1498394012451,2.49697995185852,-5.17878293991089,-8.88537120819092,-7.80306196212769,6.3569655418396,9.64969825744629,5.12551975250244,-0.13407529890537,22.6898498535156,36.8731002807617,19.637243270874,8.36055278778076,-29.7288017272949,-21.7369575500488,23.7887878417969,43.0429573059082,22.2157974243164,14.0659351348877,-18.0498867034912,-35.2091293334961,13.0436105728149,38.8267707824707,-22.2804412841797,16.5175971984863,51.8488311767578,28.7591514587402,-3.2776620388031,-36.2362442016602,-34.7255020141602,-1.09175598621368,50.7355270385742,38.2928619384766,2.3056161403656,-35.0487174987793,-33.9665412902832,-8.32463932037354,39.6024894714355,-3.23456645011902,-2.29125094413757,16.4385890960693,-0.92655605077744,7.81946277618408,-1.52031803131104,-4.99430465698242,-7.40287160873413,17.1448783874512,-0.10295066982508,2.73896670341492,3.63679242134094,-3.91451978683472,-7.01979923248291,13.7953901290894,SHAKE
-0.5821670293808,-1.51427340507507,1.28204572200775,0.29401299357414,-0.45859634876251,1.65968203544617,-1.53078496456146,-2.05276465415955,-0.01544633507729,1.94197714328766,-0.33289512991905,1.42798697948456,-1.71028208732605,-4.9822416305542,1.12811505794525,-0.87671262025833,2.85171294212341,-0.15180018544197,-2.7393274307251,0.30786141753197,0.40213733911514,-0.280164539814,0.896952688694,1.30441629886627,-3.39979147911072,0.20825919508934,-0.07137271761894,-1.78218746185303,1.42851960659027,0.77444726228714,-8.88537120819092,-7.80306196212769,6.3569655418396,9.64969825744629,5.12551975250244,-3.99154591560364,-8.32184600830078,-8.61745643615723,5.67466354370117,10.8246850967407,5.78332090377808,-3.19472813606262,-8.08642292022705,-9.64170837402344,5.75935220718384,14.0659351348877,-18.0498867034912,-35.2091293334961,13.0436105728149,38.8267707824707,26.4271984100342,14.4514017105103,-5.27203226089478,-47.1921081542969,10.6063137054443,43.5481338500977,29.7144374847412,17.496826171875,-7.80030918121338,-43.8545913696289,2.3056161403656,-35.0487174987793,-33.9665412902832,-8.32463932037354,39.6024894714355,41.5058822631836,9.52892303466797,-29.4510746002197,-36.1620216369629,-17.8439846038818,35.0894203186035,46.6941146850586,12.6605386734009,-35.0702667236328,-35.7645835876465,2.73896670341492,3.63679242134094,-3.91451978683472,-7.01979923248291,13.7953901290894,-6.46913290023804,-2.99035787582397,4.36941814422607,1.14203417301178,-5.38934803009033,5.99747514724731,-6.55771827697754,-6.20816516876221,2.56658411026001,13.1944456100464,SHAKE
-0.35206991434097,-2.39791035652161,-1.918008685112,2.39684510231018,0.35846149921417,1.91641080379486,-0.81972098350525,-4.57264757156372,-0.1336906850338,3.37209463119507,-5.64004278182983,0.73822826147079,0.89375686645508,-2.33079862594604,2.84532141685486,-0.67910611629486,-0.21837921440601,3.84347414970398,-3.45625042915344,0.56565541028976,0.15925703942776,-1.18084561824799,-0.52890378236771,2.75956749916077,-2.90550875663757,1.35235321521759,0.54115432500839,-0.47244477272034,3.58141899108887,-1.06526446342468,-6.87308645248413,-9.05954170227051,-2.58433151245117,9.84836959838867,9.39829540252686,0.47883638739586,-6.86136817932129,-10.6148281097412,1.50042498111725,9.33011913299561,5.61767196655273,-3.20111966133118,-7.61344528198242,-8.353271484375,8.47790718078613,18.9333477020264,6.61996793746948,-49.9047393798828,-7.33583402633667,27.0113830566406,43.1961860656738,21.7321681976318,8.26478385925293,-56.9077796936035,3.71580100059509,30.42551612854,25.8094940185547,16.5966053009033,-17.5279502868652,-32.297779083252,22.0218677520752,-10.8672819137573,-41.3694114685059,-31.8237285614014,14.4370365142822,53.9724884033203,26.7192916870117,-21.3443088531494,-40.8139572143555,-19.9437007904053,31.8380947113037,46.6270790100098,12.8831996917725,-38.8076171875,-38.9560546875,-8.04212379455566,6.57926607131958,5.95437955856323,5.52102899551392,-5.18584108352661,1.83156430721283,-13.716381072998,3.69664740562439,19.0602397918701,-14.1832504272461,3.60566782951355,18.8088493347168,0.48123455047607,3.58651423454285,1.31681096553802,SHAKE
-1.61121249198914,-2.23812055587769,0.78296935558319,1.82479798793793,-0.11504855751991,4.38143253326416,-0.51558798551559,-4.9881010055542,-0.32224249839783,2.53692722320557,-1.08976554870605,3.06902694702148,-3.70871829986572,-3.11003947257996,2.51295876502991,-0.16671389341354,2.43732500076294,2.57634210586548,-2.31322169303894,0.36485308408737,-1.31347107887268,-3.0860710144043,-0.05219795927405,2.21574997901917,-1.38005006313324,2.27913331985474,-2.0037624835968,-1.83332014083862,0.79681783914566,0.52677327394485,-6.72288417816162,-9.45368957519531,0.96140116453171,9.87979507446289,8.04913806915283,-0.09054747968912,-6.17693614959717,-9.24542999267578,2.22054386138916,9.45422172546387,6.37134647369385,-1.09242868423462,-7.27309322357178,-8.71439552307129,4.13855218887329,20.6380195617676,2.82036972045898,-53.4337921142578,-1.48201084136963,27.5165596008301,33.4278450012207,18.4688720703125,5.19062948226929,-55.3635215759277,0.5746083855629,30.1860942840576,30.9785766601563,22.5246486663818,-4.60644388198853,-50.0507850646973,27.0640563964844,-17.7051219940186,-43.6175651550293,-22.857442855835,22.615629196167,46.6031379699707,23.7121734619141,-20.2740993499756,-40.6990356445313,-17.9900321960449,24.4017028808594,45.1690101623535,20.1304473876953,-25.9244155883789,-38.8052215576172,-2.55700731277466,18.2294521331787,4.98233366012573,-4.23294878005981,5.89931297302246,-3.96479797363281,-14.9398183822632,11.8129911422729,23.8127307891846,-0.08379705995321,1.20428347587585,-12.2511301040649,-11.5424461364746,26.2596035003662,10.0340995788574,SHAKE
-3.70871829986572,-3.11003947257996,2.51295876502991,-0.04527373984456,-2.26528477668762,1.92173707485199,-0.97258645296097,-0.91985583305359,-0.08202536404133,1.69643366336823,-0.07137271761894,1.39283323287964,-0.92944324016571,-1.793905377388,0.12144014984369,-1.83332014083862,0.79681783914566,0.52677327394485,-0.9225190281868,0.280164539814,-1.05407917499542,0.29454562067986,1.16699719429016,3.32149457931519,-3.79340672492981,-0.99708753824234,-0.09853696078062,0.20080235600471,0.2498045116663,2.71322846412659,-7.27309322357178,-8.71439552307129,4.13855218887329,9.36101150512695,6.34258460998535,-2.1401162147522,-8.02729988098145,-8.90720844268799,1.361407995224,10.0086917877197,8.17643737792969,-1.49776184558868,-7.6805567741394,-8.80441093444824,0.37763625383377,22.5246486663818,-4.60644388198853,-50.0507850646973,7.81706857681274,32.8843612670898,33.3033447265625,18.3419799804688,-1.00795888900757,-54.159236907959,0.31124621629715,30.1980667114258,39.2385711669922,19.7066745758057,1.86029469966888,-53.6899719238281,20.1304473876953,-25.9244155883789,-38.8052215576172,-15.9429893493652,28.1318702697754,45.0229644775391,15.9693250656128,-21.4831714630127,-37.4429206848145,-22.9819412231445,21.3395195007324,49.1098670959473,19.0171432495117,-18.1073474884033,-35.2761688232422,-11.5424461364746,26.2596035003662,10.0340995788574,-11.2479591369629,10.4147777557373,6.71094751358032,1.33357036113739,11.6860980987549,-0.82121115922928,-2.92092609405518,2.9352912902832,1.47722244262695,-2.49715232849121,9.99579238891602,5.98310995101929,SHAKE
0.80587255954742,1.95848870277405,-1.18883514404297,-0.11717908829451,0.30732879042625,-1.5153386592865,1.79869902133942,1.16167092323303,0.11345066130161,-0.84049367904663,-0.87724530696869,-0.27537086606026,1.2415657043457,-0.5182511806488,1.00667488574982,0.1384843736887,-2.47620725631714,1.08230865001678,1.51853454113007,-0.39787626266479,3.46210956573486,-2.05382990837097,-1.64743149280548,0.07989483326674,1.98085927963257,-0.02024002373219,3.49992632865906,-3.59526753425598,-1.36513638496399,0.73343455791473,6.57694292068481,8.57804203033447,1.76514315605164,-5.87227010726929,-8.22384166717529,-3.85412669181824,8.780442237854,8.4624605178833,-0.48203217983246,-7.47123241424561,-8.53862762451172,-0.2833603322506,10.1349258422852,7.57988929748535,-2.08845090866089,-35.2282829284668,15.8903169631958,45.7340393066406,20.4584541320801,7.66144561767578,-36.4182014465332,-17.0131969451904,22.6180229187012,49.2415466308594,18.5981578826904,2.98317527770996,-47.9965629577637,-1.58017313480377,27.8732967376709,39.2864570617676,-30.1190567016602,1.21386027336121,45.772346496582,30.6266288757324,-2.46123933792114,-32.2115898132324,-26.5636672973633,11.6884927749634,51.0324096679688,21.8973693847656,-15.828067779541,-31.902738571167,-22.2493171691895,24.7440738677979,49.8712196350098,3.9073371887207,-3.48595762252808,5.02782344818115,1.90339040756226,1.61848032474518,3.22259545326233,-1.4484920501709,-6.23450136184692,6.58405447006226,-2.7629086971283,3.56736063957214,-2.05661916732788,-4.13718032836914,0.04788403213024,7.13711547851563,SHAKE
1.39602911472321,0.01438106968999,-0.28282770514488,0.18908444046974,0.12144014984369,-0.96086853742599,-0.04527373984456,0.76592516899109,0.51452273130417,-1.39549648761749,-0.12516857683659,-0.01331580616534,0.70360720157623,1.31666684150696,0.75633776187897,-2.56196093559265,-0.85167890787125,1.88818120956421,0.73982614278793,-0.16351810097694,1.60162508487701,-3.0482542514801,-1.76141476631165,1.10521185398102,1.12332141399384,-0.99868541955948,1.5712651014328,-2.48579454421997,-0.51452273130417,0.83623260259628,9.73811531066895,7.44673109054565,-2.59391903877258,-7.18254566192627,-7.66191482543945,0.20879183709621,10.3202819824219,8.04860591888428,-2.52627468109131,-7.61024904251099,-7.43980693817139,-0.35047200322151,9.95755958557129,7.28055000305176,-1.97020661830902,-1.63523972034454,29.6497936248779,36.928165435791,14.2287406921387,1.66397023200989,-44.0844345092773,-1.23780226707459,31.7327499389648,45.0062026977539,12.9646024703979,0.61052143573761,-43.0381698608398,-3.50989961624146,31.2323608398438,38.9273262023926,-20.8319492340088,27.1981315612793,48.3245658874512,15.1959981918335,-17.2645893096924,-32.2882041931152,-23.0058841705322,25.7137260437012,50.7546806335449,15.2845840454102,-15.2797956466675,-31.1222286224365,-22.0122909545898,25.5221900939941,48.4466705322266,-2.24815535545349,0.23223756253719,0.72544312477112,0.26336219906807,1.16837048530579,-6.69897651672363,-0.7182605266571,4.86980628967285,-2.83712911605835,-4.21140098571777,5.31033945083618,-2.19069457054138,-0.19153612852097,4.75727891921997,-7.53694677352905,SHAKE
0.70360720157623,1.31666684150696,0.75633776187897,-1.61813676357269,-0.83090627193451,-0.05486112087965,0.65780079364777,0.00106526445597,-0.12942963838577,-1.61281037330627,-0.31585091352463,0.41864892840385,0.71159666776657,0.72757560014725,0.19654129445553,-2.48579454421997,-0.51452273130417,0.83623260259628,0.61572283506393,-0.66525763273239,2.59232115745544,-2.35103869438171,-0.67591029405594,0.29134982824326,1.73904418945313,0.21198762953281,2.29884076118469,-2.12573528289795,-0.8431568145752,1.00134861469269,9.95755958557129,7.28055000305176,-1.97020661830902,-7.45578575134277,-8.0107889175415,-1.47379338741302,9.709885597229,8.1173152923584,-0.94329166412354,-7.41743659973145,-8.0411491394043,-0.58056914806366,9.40575218200684,7.85472726821899,-1.54836189746857,-3.50989961624146,31.2323608398438,38.9273262023926,16.5439338684082,2.38223075866699,-40.8929634094238,-7.02219343185425,28.5484619140625,45.1067581176758,16.8216609954834,0.6033388376236,-43.2991371154785,-4.80516290664673,28.2539749145508,41.5178527832031,-22.0122909545898,25.5221900939941,48.4466705322266,16.7570171356201,-14.1042423248291,-32.9777336120605,-24.3226947784424,18.5742168426514,52.047550201416,19.5031661987305,-14.8895406723022,-31.7088069915771,-21.626823425293,21.4089508056641,49.0404319763184,-0.19153612852097,4.75727891921997,-7.53694677352905,-6.03099393844604,6.76122570037842,0.94810384511948,-4.64953947067261,0.21308395266533,0.00239420169964,-0.70150107145309,7.18978786468506,-2.81797528266907,-3.42849683761597,0.55306059122086,-0.23942017555237,SHAKE
-0.37816888093948,0.10599381476641,-0.11504855751991,-0.52943640947342,1.50095760822296,-0.26365295052528,0.1161138266325,0.21891184151173,0.34514567255974,-1.40295326709747,-0.05858954414725,0.10492854565382,0.19228023290634,-0.57044911384583,-0.02450108155608,-2.47620725631714,-2.44052076339722,-0.36005938053131,2.58220100402832,0.67164921760559,2.72974014282227,-3.07648372650146,-0.804807305336,0.01065264455974,1.88605070114136,0.76059883832932,2.71429371833801,-3.57502746582031,-1.63358306884766,0.69721555709839,7.67150211334229,8.45393848419189,0.62211441993713,-6.8144965171814,-7.57988929748535,-0.41065946221352,9.11972904205322,7.35778141021729,-1.29962265491486,-7.68907880783081,-8.03901863098145,-0.40799629688263,9.1660680770874,7.81478023529053,-1.72998952865601,-17.664421081543,16.8240547180176,44.3980751037598,18.9788360595703,1.721431016922,-42.3246994018555,-3.64636921882629,30.0639915466309,46.406810760498,16.6109714508057,1.39821374416351,-41.7500877380371,-5.63116216659546,28.6538066864014,43.3039245605469,-24.8566017150879,8.14986228942871,50.3931579589844,25.3138942718506,-13.3069734573364,-33.0591354370117,-20.9205341339111,22.8550491333008,53.1704330444336,18.047492980957,-17.1329078674316,-33.2841911315918,-21.5837287902832,21.9739837646484,52.9932594299316,-5.56891298294067,-0.12210428714752,5.78678560256958,3.59369683265686,5.05894804000854,-13.5463933944702,-0.92655605077744,0.09097966551781,0.86909520626068,-1.4484920501709,6.2201361656189,-11.0971250534058,-4.37660074234009,1.44370365142822,5.93043756484985,SHAKE
1.89936649799347,-2.01015400886536,0.19707392156124,-1.1515508890152,-0.02556634694338,0.20879183709621,0.69721555709839,-0.76539248228073,0.99762016534805,0.18535602092743,0.04527373984456,-1.68098735809326,1.18830251693726,-1.11533188819885,1.01519703865051,-1.63571357727051,0.86765789985657,-0.78243672847748,0.85593998432159,0.39734363555908,2.45223879814148,-2.58273363113403,-0.52570801973343,0.14487597346306,1.45568382740021,-0.63276708126068,3.17768383026123,-3.91324901580811,-0.22956448793411,0.17576862871647,9.11813068389893,5.91488075256348,-2.59338641166687,-7.65712070465088,-8.15353393554688,1.33317852020264,9.02651882171631,7.00784206390381,-1.68418312072754,-6.81289863586426,-7.87390232086182,1.9307918548584,9.20388507843018,5.88345575332642,-2.5433189868927,4.72615432739258,32.173282623291,35.8866882324219,16.867151260376,-2.22900176048279,-45.4706802368164,-1.25695586204529,28.4311447143555,39.2625122070313,16.9844665527344,-0.95049810409546,-44.4746894836426,-0.46208092570305,32.8604202270508,37.0023880004883,-14.8632040023804,28.2467918395996,44.2520294189453,15.3396501541138,-19.7521648406982,-33.0735015869141,-18.1193180084229,23.21657371521,47.850513458252,18.4545059204102,-18.397045135498,-32.2642631530762,-15.0954418182373,30.4398803710938,46.215274810791,-11.5927248001099,-0.9720458984375,2.28885674476624,4.14436292648315,8.06845951080322,-3.3231520652771,-6.2201361656189,1.84114110469818,5.47075080871582,1.48919343948364,1.08457338809967,-2.05661916732788,-4.47476291656494,1.43173265457153,8.2336597442627,SHAKE
1.18830251693726,-1.11533188819885,1.01519703865051,0.43409526348114,-0.09214537590742,-1.35927748680115,0.77870833873749,0.51505535840988,0.65194183588028,-1.47432601451874,-0.97045594453812,0.28389298915863,1.16380143165588,-0.90867060422897,0.04420847445726,-3.91324901580811,-0.22956448793411,0.17576862871647,0.35846149921417,0.82557994127274,2.00855612754822,-3.50685048103333,-1.42479121685028,0.30679616332054,1.24795734882355,1.34436368942261,1.0748518705368,-4.40273809432983,-0.85434210300446,1.56434082984924,9.20388507843018,5.88345575332642,-2.5433189868927,-7.25018978118896,-8.08588981628418,2.35263657569885,9.57566261291504,7.19532871246338,-3.64906334877014,-8.64568614959717,-9.08936882019043,3.07275533676147,10.5312042236328,7.0589747428894,-3.11483335494995,-0.46208092570305,32.8604202270508,37.0023880004883,16.0219974517822,-2.1475989818573,-44.7643890380859,0.48841714859009,37.0287246704102,43.5505294799805,16.9533424377441,-4.57771348953247,-47.6733436584473,3.80438661575317,39.1523818969727,39.5761528015137,-15.0954418182373,30.4398803710938,46.215274810791,14.513650894165,-22.2780475616455,-33.8348579406738,-17.6117477416992,30.6146564483643,49.6222229003906,12.0571994781494,-27.7057018280029,-37.4309501647949,-20.037073135376,31.2539081573486,48.6741218566895,-4.47476291656494,1.43173265457153,8.2336597442627,-0.01197100803256,2.48757553100586,-5.48032760620117,-2.83952331542969,2.84431171417236,-4.41730213165283,-1.33117616176605,5.32470464706421,-9.45949077606201,-7.58961915969849,5.12359142303467,3.78044438362122,SHAKE
0.30040457844734,0.6423544883728,0.71745562553406,-1.58031976222992,0.09427590668201,0.72278195619583,0.20985709130764,0.09693906456232,1.18191087245941,-1.84663593769073,-0.45593318343163,0.49801114201546,1.0700581073761,0.04474110901356,0.46818372607231,-4.08156061172485,-2.19018363952637,1.23410892486572,2.60563683509827,2.00855612754822,1.5329155921936,-4.17423868179321,-2.19178152084351,0.95128113031387,3.05358052253723,1.93292236328125,0.23648871481419,-4.38196516036987,-1.51906716823578,2.07193946838379,9.64437198638916,8.64089298248291,-1.74170744419098,-8.26219081878662,-8.53223609924316,-0.07510114461184,9.90589427947998,9.07019424438477,-1.79230749607086,-8.42624187469482,-8.62917518615723,1.53185033798218,9.73705005645752,7.32475852966309,-3.11536598205566,-7.11317348480225,29.8485126495361,48.7411575317383,18.0546741485596,1.21625447273254,-42.9328231811523,-4.90332508087158,25.9459629058838,51.731517791748,16.1321315765381,-1.60650932788849,-43.236888885498,-1.86029469966888,34.5219955444336,39.9592247009277,-23.5780982971191,18.1935386657715,52.523998260498,19.002779006958,-16.8144779205322,-34.5363578796387,-25.5820446014404,17.7027282714844,54.5111846923828,17.7577934265137,-20.0538330078125,-33.0711097717285,-18.7585697174072,30.3345355987549,46.9598731994629,-2.83712911605835,5.35343503952026,1.82198750972748,-3.60087943077087,4.17548799514771,-14.6118125915527,-2.76051449775696,3.32554626464844,1.67594122886658,-5.86579418182373,1.59214413166046,-11.1952867507935,-4.51307010650635,10.1921167373657,-1.27371525764465,SHAKE
0.76592516899109,-0.04420847445726,0.16085493564606,-0.37017938494682,0.15606124699116,-1.77845895290375,0.3755057156086,0.20133498311043,-1.8924423456192,0.97951066493988,2.00536036491394,0.25992453098297,0.87884318828583,-0.08788431435823,-0.15499597787857,-4.37397575378418,-1.74756634235382,2.5257420539856,2.71962022781372,0.89961582422256,2.67647695541382,-6.05443048477173,-1.5025554895401,2.14384460449219,1.93292236328125,1.47645652294159,0.50493532419205,-4.23123025894165,-1.06206870079041,1.94144451618195,9.92666721343994,8.05126857757568,-2.21415209770203,-7.41530609130859,-8.0826940536499,-1.44875967502594,9.6294584274292,6.9950590133667,-3.05730891227722,-7.55751848220825,-7.16656684875488,3.57342958450317,9.53411674499512,6.4736123085022,-3.80885314941406,-1.43173265457153,33.9641456604004,41.417293548584,15.2103633880615,3.09809708595276,-42.6718559265137,-8.52814674377441,41.4627838134766,36.2625770568848,12.7108163833618,-6.71094751358032,-41.5274276733398,2.70784211158752,34.7231063842773,35.343204498291,-18.9285583496094,24.8661785125732,47.6972846984863,15.4593601226807,-14.2646541595459,-31.3927726745605,-20.7242107391357,22.9508171081543,50.5344161987305,14.9661550521851,-23.4296569824219,-31.5819149017334,-14.2838077545166,31.8213348388672,42.5425682067871,-1.52271223068237,8.2312650680542,0.56981998682022,-3.78283858299255,-2.69587111473084,-12.9430541992188,0.90979665517807,1.27132105827332,11.3317565917969,7.50582218170166,0.19871874153614,-14.3652105331421,-4.43166732788086,8.58560752868652,-1.75255560874939,SHAKE
0.87884318828583,-0.08788431435823,-0.15499597787857,-0.8431568145752,0.58962386846542,-0.38669100403786,0.2737729549408,1.89723598957062,0.03408846259117,-2.29191637039185,0.09214537590742,0.64821344614029,-1.09828770160675,-1.05194866657257,-0.45699843764305,-4.23123025894165,-1.06206870079041,1.94144451618195,1.86900651454926,0.8431568145752,0.67377978563309,-4.27384090423584,-2.05382990837097,1.63518095016479,2.27487230300903,1.76940429210663,1.09242868423462,-3.20325016975403,-1.30494892597198,1.25328361988068,9.53411674499512,6.4736123085022,-3.80885314941406,-7.29333305358887,-6.29837608337402,1.54995977878571,9.63318634033203,7.62676095962524,-2.55397152900696,-7.96604776382446,-7.9676456451416,-1.18404150009155,8.6323709487915,7.09466123580933,-1.30175316333771,2.70784211158752,34.7231063842773,35.343204498291,9.50498104095459,-5.53060579299927,-37.2777214050293,-2.57855534553528,32.8628120422363,43.203369140625,15.2750072479248,1.8171991109848,-39.2385711669922,-5.54736518859863,25.5964107513428,37.7517738342285,-14.2838077545166,31.8213348388672,42.5425682067871,10.5392761230469,-17.0395336151123,-27.5021953582764,-17.1281185150146,25.0026473999023,46.9143829345703,15.1265659332275,-14.951789855957,-30.5117073059082,-19.7761058807373,21.301212310791,46.5815887451172,-4.43166732788086,8.58560752868652,-1.75255560874939,-1.1372457742691,2.20027136802673,-9.95748519897461,2.02310037612915,6.40209531784058,-7.53455257415771,-2.93768548965454,7.01501083374023,-13.2327527999878,-2.67671751976013,4.37660074234009,17.4680957794189,SHAKE
-0.23595607280731,2.39418196678162,1.67619359493256,-0.03515372797847,-0.28442561626434,-1.91214966773987,-0.69774824380875,1.74543583393097,0.64022392034531,-1.28364372253418,-0.37444046139717,-1.39176797866821,0.87724530696869,1.5110776424408,-0.05645901709795,-4.11085557937622,-3.8525288105011,0.37177729606628,3.06636381149292,0.56192702054977,1.94197714328766,-3.29113459587097,-4.12896490097046,0.29081720113754,3.58514761924744,0.7835019826889,2.03199195861816,-4.47464323043823,-3.26876401901245,2.40376925468445,8.32983493804932,8.61532592773438,0.95607483386993,-6.05709362030029,-7.30078983306885,-2.93693399429321,7.39985942840576,8.75540828704834,-0.21837921440601,-7.43554592132568,-7.99800539016724,-0.95927065610886,8.73783206939697,8.24141883850098,-2.83307075500488,-10.0963487625122,16.974889755249,44.2568168640137,18.8471565246582,3.19386506080627,-29.6952838897705,-16.0914287567139,18.923770904541,50.8935470581055,18.3419799804688,1.70227742195129,-39.2337837219238,-7.32146883010864,28.7998523712158,42.4994735717773,-19.8814506530762,11.5927248001099,43.670238494873,20.8750438690186,-6.15309858322144,-26.0130023956299,-20.1065063476563,11.487380027771,49.8975563049316,20.0993232727051,-13.4649906158447,-29.8652725219727,-19.7282218933105,25.6466884613037,47.0316963195801,-3.66073441505432,6.39251852035522,5.14035081863403,-5.53060579299927,-5.56173038482666,-8.85136413574219,-1.04626619815826,3.95522117614746,4.28562116622925,-3.49553442001343,-2.33674097061157,-9.96945571899414,1.59693253040314,3.97198057174683,-0.86670100688934,SHAKE
-1.61653876304626,1.361407995224,0.07936219871044,-0.38935416936874,0.37603834271431,-0.6657902598381,-0.40373522043228,2.38992071151733,0.94488954544067,-0.66951870918274,-0.39840891957283,-0.96299904584885,0.73822826147079,1.31506896018982,-0.48735848069191,0.62903863191605,-4.91140174865723,-1.74703371524811,3.04079747200012,1.7981663942337,3.43494534492493,-3.49087166786194,-3.67462968826294,-0.12783172726631,2.72654438018799,0.15180018544197,1.62878930568695,-4.43469572067261,-3.1382691860199,1.58884191513062,2.12147426605225,9.05634593963623,4.37450838088989,-5.24962329864502,-7.68961143493652,-4.72764348983765,7.49466800689697,8.39162063598633,0.35420042276382,-7.01050519943237,-7.44513320922852,-1.14249610900879,8.5402250289917,7.76311492919922,-2.39631247520447,-39.7892379760742,-0.86909520626068,43.169849395752,27.542896270752,8.22647666931152,-26.4559288024902,-19.5151386260986,18.6867446899414,46.7946739196777,18.373104095459,0.19393034279346,-37.0981559753418,-9.3637228012085,23.9611701965332,42.7652320861816,-28.2683391571045,-9.0452938079834,42.6670684814453,34.3496131896973,-2.08774399757385,-31.7997875213623,-24.0736980438232,12.4067535400391,50.5272331237793,20.5350685119629,-13.1585321426392,-29.5133247375488,-17.8320140838623,29.6426105499268,46.4379348754883,-6.97191524505615,2.74854350090027,6.20577096939087,5.99508094787598,-0.48362874984741,-12.6916627883911,-4.503493309021,2.82276391983032,4.91290187835693,-3.30878663063049,-2.13323378562927,-9.46667385101318,0.56503158807755,2.19069457054138,3.96958637237549,SHAKE
0.73822826147079,1.31506896018982,-0.48735848069191,-0.13741911947727,-0.05060006305575,-1.21227097511292,0.97258645296097,1.09083080291748,1.0018812417984,-0.42823630571365,-0.07669904083014,-2.3718113899231,1.57073247432709,0.94435691833496,-0.41545313596725,-4.43469572067261,-3.1382691860199,1.58884191513062,2.95131516456604,2.29830813407898,1.15794241428375,-4.81073427200317,-2.29085111618042,1.05088341236115,2.01494765281677,0.61625546216965,0.20772656798363,-4.079430103302,-1.31986260414124,1.71134734153748,8.5402250289917,7.76311492919922,-2.39631247520447,-7.58947658538818,-7.47815656661987,1.56114506721497,9.28005123138428,7.37802171707153,-3.12974691390991,-7.89893579483032,-7.53940916061401,2.86662673950195,9.49896335601807,6.18066453933716,-3.9047269821167,-9.3637228012085,23.9611701965332,42.7652320861816,14.0946655273438,-0.20350714027882,-40.541015625,-1.16358196735382,30.8397121429443,42.9567680358887,11.0588178634644,-5.09486103057861,-44.2735786437988,4.4723687171936,35.903450012207,37.2274436950684,-17.8320140838623,29.6426105499268,46.4379348754883,10.6446208953857,-20.5661926269531,-28.4550876617432,-14.8560218811035,30.0783557891846,47.0532455444336,9.71327590942383,-24.7129497528076,-31.4334735870361,-12.3038024902344,34.1293449401855,41.8865585327148,0.56503158807755,2.19069457054138,3.96958637237549,-0.76375031471252,-4.58489608764648,-12.5456171035767,-1.71185421943665,8.63827991485596,-1.6711528301239,-4.29040956497192,-4.89374828338623,-8.22647666931152,5.2863974571228,1.73340201377869,-2.73417830467224,SHAKE
0.15712650120258,2.38086605072021,0.36964675784111,0.18002969026566,-0.49534797668457,-0.43622580170631,0.82291680574417,0.84368944168091,-0.47883638739586,-1.49137020111084,-0.07723167538643,1.07698237895966,1.86634337902069,1.15847504138947,-0.47244477272034,0.26684874296188,-4.25413370132446,-1.04182863235474,2.05223202705383,1.49935972690582,2.39737772941589,-4.12683439254761,-3.40032410621643,1.52173030376434,3.05198264122009,3.38381242752075,-1.42212808132172,-3.91857528686523,-1.7251957654953,2.08845090866089,3.61550760269165,9.16500282287598,4.4874267578125,-5.38970565795898,-8.14128398895264,-3.12388801574707,8.95141696929932,9.03237724304199,-2.79685187339783,-8.20573234558105,-6.80544185638428,5.08024597167969,8.81825923919678,3.93402171134949,-5.56440877914429,-45.6574249267578,5.30076265335083,39.5330581665039,26.858154296875,7.16824007034302,-38.6041069030762,-12.7706718444824,21.0091190338135,45.698127746582,13.0699472427368,-10.5847654342651,-33.0184364318848,2.7629086971283,38.3599014282227,27.6985187530518,-29.156587600708,-6.55771827697754,41.5274276733398,34.6033973693848,-5.23133087158203,-31.6489524841309,-23.5804920196533,22.2995948791504,49.0619812011719,9.77073669433594,-23.3626194000244,-23.5613384246826,-1.11569797992706,37.2418060302734,29.4630470275879,-4.19942998886108,-3.78044438362122,6.55053567886353,-0.11971008777618,-2.24336695671082,-11.3413333892822,-2.70784211158752,1.39342534542084,2.00634098052979,-0.92176765203476,-2.62643933296204,-10.0771951675415,-4.28562116622925,6.20098257064819,-5.54497098922729,SHAKE
0.03036003746092,0.66525763273239,0.40320259332657,-0.55819857120514,-1.12971293926239,-0.56725335121155,0.89855057001114,0.70041137933731,0.06817692518234,-1.92013919353485,-0.46445530653,0.34567832946777,0.42450788617134,1.07538449764252,0.2178465873003,-0.96459698677063,-2.93000984191895,-1.59896194934845,2.10070157051086,2.20456480979919,2.34997344017029,-4.08156061172485,-2.45490193367004,-0.2258360683918,2.9454562664032,2.29884076118469,-0.35100463032722,-3.3518545627594,-2.06927609443665,1.60908198356628,4.64828157424927,8.57804203033447,4.48636102676392,-5.50209093093872,-8.26645183563232,-1.58724403381348,8.45979785919189,7.78601789474487,-1.55528604984283,-8.07949829101563,-7.12395620346069,3.13880181312561,9.01480007171631,5.65548896789551,-4.18755435943604,-31.0456142425537,4.08211374282837,41.0821075439453,28.4000205993652,5.02303504943848,-38.5538291931152,-9.41878986358643,21.7872352600098,45.398853302002,13.7499008178711,-6.16506958007813,-36.1261100769043,0.24420857429504,37.8188095092773,33.8707733154297,-25.3306541442871,-3.62960982322693,40.392578125,34.5579071044922,-5.75087261199951,-27.576416015625,-20.1663608551025,18.5239391326904,50.2902069091797,12.4905500411987,-19.8215961456299,-27.7296447753906,-10.5727949142456,34.7685966491699,39.8538818359375,-9.09317779541016,-2.85867691040039,8.40604209899902,-3.86663579940796,-0.75177931785583,-14.238317489624,-3.37582445144653,-0.1508347094059,0.71107792854309,-0.82121115922928,0.61052143573761,-13.1992340087891,-2.42532634735107,8.76038360595703,-5.28400325775146,SHAKE
-0.61039650440216,0.53795856237411,1.76514315605164,-0.73556512594223,-0.83889573812485,-1.29962265491486,0.21198762953281,1.13184344768524,0.62424498796463,-0.91932320594788,-0.2833603322506,-0.9353021979332,0.1177117228508,-0.55606806278229,0.78776305913925,-2.72494649887085,-3.05997204780579,-0.40426784753799,1.9052255153656,0.54701328277588,2.46022820472717,-3.59793066978455,-2.4016387462616,0.140082269907,2.13851833343506,0.1257012039423,3.0349383354187,-3.69806551933289,-1.89776861667633,0.69135665893555,7.62196731567383,9.59536933898926,2.00536036491394,-6.99772214889526,-8.26272392272949,-3.65385699272156,9.26034355163574,9.08617305755615,-0.3115898668766,-7.74127674102783,-7.99587488174438,-1.62026727199554,9.3487606048584,8.04327964782715,-0.90174633264542,-22.2588939666748,16.3164844512939,51.973331451416,23.4392337799072,5.56891298294067,-37.2058944702148,-14.9158763885498,23.1279888153076,53.7570114135742,19.4792251586914,4.65672206878662,-42.9424018859863,-7.06528902053833,26.671407699585,49.1553535461426,-29.0943393707275,5.85861158370972,52.5072364807129,27.3633308410645,-9.2224645614624,-36.7893028259277,-28.2252445220947,13.0053033828735,55.492805480957,20.2357921600342,-14.3723926544189,-35.8268356323242,-24.5142307281494,19.9413051605225,54.468090057373,-3.34709405899048,1.08936178684235,9.45709705352783,-10.936713218689,0.03591302409768,-9.10036087036133,0.6224924325943,-1.4484920501709,3.26329684257507,-5.04937124252319,1.25935006141663,-8.12352657318115,-3.54581260681152,2.00873517990112,11.3580932617188,SHAKE
0.77338200807571,0.3435477912426,-1.41254067420959,0.51771855354309,2.05329728126526,-1.84450542926788,-1.15634453296661,1.44556391239166,-0.25353294610977,-1.6953684091568,2.13692045211792,-0.1209075152874,-2.90284562110901,2.25250172615051,2.25090384483337,-3.99900269508362,-1.85409283638,2.91030240058899,0.91346424818039,0.39627838134766,2.32547235488892,-2.98380565643311,-3.19206500053406,0.01438106968999,3.6256275177002,0.14274543523788,1.76194739341736,-1.74756634235382,-4.00006818771362,-1.28098046779633,10.52161693573,5.72686195373535,-5.32791996002197,-7.53674602508545,-6.80384397506714,-1.08390653133392,9.36580467224121,9.51653957366943,0.18642127513885,-7.63581562042236,-7.15218544006348,-4.72338247299194,7.75405979156494,10.6015119552612,3.63148641586304,10.8672819137573,47.7284126281738,31.3784065246582,8.31745624542236,0.81402856111526,-37.7038879394531,-7.30949783325195,20.8032188415527,58.7034301757813,14.8823575973511,3.21301865577698,-23.9228630065918,-24.4950771331787,14.9996738433838,56.0147438049316,-9.82101535797119,45.8154449462891,43.1411209106445,7.67102241516113,-17.2933197021484,-31.0120944976807,-23.7887878417969,10.9199542999268,55.7082862854004,20.5637989044189,-6.2201361656189,-29.846118927002,-29.9490699768066,-3.66791701316834,49.6246185302734,1.13485157489777,6.06690692901611,-2.85388851165771,5.72214221954346,0.95768070220947,-14.3891525268555,2.57855534553528,1.8171991109848,2.50194072723389,0.97922849655151,5.69820022583008,-18.53590965271,0.35194763541222,8.09718990325928,-0.92655605077744,SHAKE
-1.21866250038147,0.86392945051193,0.49481534957886,-0.06977482140064,0.79415464401245,-0.64341974258423,-1.48817443847656,0.17843179404736,1.41733431816101,0.7984157204628,-0.75527250766754,-0.76326197385788,-1.0018812417984,-0.79521989822388,-2.34517979621887,-3.41364002227783,-1.89883387088776,1.31240582466125,1.28098046779633,-0.20559604465961,2.82827711105347,-2.83200550079346,-3.34919142723084,-0.68869346380234,0.18588864803314,-0.26684874296188,4.15932512283325,-1.57339560985565,-2.64558434486389,-0.36005938053131,9.68005847930908,8.75913715362549,-1.23304355144501,-7.66191482543945,-8.22543907165527,-4.23282814025879,9.34077167510986,9.51867008209229,1.47166287899017,-7.12289094924927,-9.38711071014404,-6.55190896987915,8.63716411590576,8.73623371124268,3.22562074661255,-7.04374122619629,31.21799659729,51.4585762023926,19.7713184356689,5.80833339691162,-37.4333419799805,-14.2000102996826,25.1510887145996,54.3747138977051,27.5333194732666,11.063606262207,-33.2602500915527,-25.1486949920654,21.9883480072021,42.0709114074707,-26.671407699585,18.76096534729,55.9165802001953,20.5207023620605,-11.9422779083252,-40.4117317199707,-31.1677169799805,6.48110389709473,56.4002113342285,31.6441631317139,-7.67102241516113,-42.3630065917969,-33.9713287353516,-2.37265396118164,47.249568939209,5.09007263183594,4.52982950210571,2.166752576828,-1.14442837238312,4.6830587387085,-9.19373416900635,-3.98155736923218,-0.0526724383235,12.1122665405273,-9.0836009979248,5.42047262191772,1.03190088272095,-7.37414121627808,-8.54251194000244,16.9246120452881,SHAKE
-0.3275688290596,-0.75687038898468,1.98778343200684,-0.22050973773003,-1.13237607479095,-0.17843179404736,0.34567832946777,-0.13422332704067,0.54914385080338,0.43835631012917,-0.6743124127388,-1.0189254283905,-0.38296258449554,1.38590908050537,0.29827404022217,-3.29379773139954,-0.98164117336273,0.50653326511383,0.21731394529343,0.73290193080902,2.3883228302002,-2.69565176963806,-1.67566096782684,0.46658584475517,0.95287907123566,-0.5949501991272,1.53025233745575,0.26897928118706,-3.11589860916138,-0.61465758085251,10.0001697540283,6.68187141418457,-2.82774448394775,-7.99587488174438,-8.228102684021,0.2210423797369,10.2100267410278,9.08617305755615,0.86020106077194,-6.46881818771362,-7.99108123779297,-6.30210447311401,5.82965993881226,10.0571613311768,6.36282444000244,8.69813442230225,34.644100189209,41.5824966430664,17.1113586425781,0.52672439813614,-45.3629379272461,-6.19140577316284,26.3338241577148,48.5568046569824,21.4496536254883,7.38132381439209,-13.785813331604,-39.5977020263672,11.954249382019,38.2138519287109,-17.7362461090088,31.0671615600586,50.5535697937012,14.853627204895,-17.1999454498291,-32.6401519775391,-27.2148914337158,7.88889455795288,51.6812362670898,27.5596561431885,-1.36230075359344,-27.5381088256836,-29.8533000946045,-12.993332862854,34.2969398498535,-2.20266556739807,10.6541976928711,3.30878663063049,-7.46272659301758,3.90494298934937,-0.30406361818314,-2.75572609901428,0.94810384511948,7.92001914978027,-6.27999114990234,1.78128612041473,1.74297881126404,-2.86825370788574,-1.50834703445435,5.76763200759888,SHAKE
1.92653071880341,0.92891061306,-0.01651159860194,1.20268356800079,-0.49428272247314,-1.7081515789032,1.71028208732605,-1.03437173366547,0.29880666732788,1.66820418834686,-0.04527373984456,-3.65652012825012,0.30945932865143,1.48125016689301,-1.08390653133392,-5.24855804443359,-1.15687716007233,1.95422768592834,-0.06125270575285,-0.05858954414725,4.03309106826782,-3.69114136695862,-1.19842255115509,0.52996909618378,0.6077333688736,-0.90867060422897,3.85412669181824,-3.17821645736694,-3.55851602554321,2.03891611099243,9.65715503692627,8.20786285400391,-3.4716968536377,-7.38547849655151,-8.49228858947754,-0.61891865730286,9.85582637786865,8.66858959197998,-0.29294773936272,-6.06668090820313,-7.96924352645874,-4.74202489852905,8.64994716644287,9.29443264007568,1.23197829723358,-2.79882168769836,31.8859786987305,37.763744354248,14.8081378936768,4.3646297454834,-47.9893798828125,-5.43483781814575,25.8430137634277,43.2751960754395,19.2876892089844,7.32865142822266,-31.2323608398438,-20.7601222991943,21.4855651855469,41.726146697998,-24.4400100708008,31.1964473724365,49.7323570251465,14.9039058685303,-17.0467166900635,-34.6919822692871,-23.9515933990479,16.8049011230469,49.6557426452637,25.0744743347168,-5.96156215667725,-34.3065147399902,-27.9403343200684,4.67587614059448,47.2016868591309,6.52659368515015,-12.4953384399414,6.60320806503296,-1.41736745834351,0.06943184882402,1.63045132160187,-4.81473970413208,-4.13718032836914,12.7539129257202,-2.29125094413757,-3.22020125389099,-3.0550012588501,2.22660756111145,-3.665522813797,8.42759037017822,SHAKE
-0.17204020917416,1.9222697019577,0.30519825220108,-0.59281969070435,-0.1432780623436,-1.48657655715942,0.21358552575111,1.52066504955292,-0.25353294610977,-0.89002847671509,0.140082269907,-0.11717908829451,-0.51505535840988,1.25647938251495,1.97979402542114,-2.76010012626648,-2.31375432014465,1.56327557563782,1.3102753162384,-0.52783852815628,2.92468357086182,-2.46448922157288,-2.42667245864868,0.23648871481419,1.72253262996674,-0.28069719672203,2.33932065963745,-1.5409049987793,-2.46661972999573,-0.31691616773605,9.73332118988037,9.0408992767334,-0.64608287811279,-6.9231538772583,-7.6209020614624,-3.44879364967346,9.15967655181885,8.77085494995117,-0.33981937170029,-7.19479608535767,-7.84034633636475,-3.83974575996399,8.15726280212402,9.06113910675049,1.17019295692444,-10.7930612564087,30.2172203063965,44.5489120483398,17.6572380065918,4.52743530273438,-33.6145935058594,-17.1400890350342,26.3577671051025,50.9701614379883,19.8048362731934,2.782062292099,-29.5971221923828,-22.2780475616455,19.1895275115967,49.6844749450684,-26.8102703094482,18.1145305633545,51.3795700073242,21.0186958312988,-9.02853488922119,-34.3998908996582,-27.2699565887451,11.6453971862793,51.5974426269531,22.3953628540039,-6.9814920425415,-30.504524230957,-26.1470775604248,5.0374002456665,50.9031219482422,2.39659595489502,2.10450339317322,-3.43567943572998,-3.3423056602478,4.48673391342163,-1.69270062446594,-2.90656089782715,-2.21942496299744,1.81480491161346,-0.07422025501728,4.97754526138306,-3.97916316986084,-3.69904160499573,4.29998636245728,1.47003984451294,SHAKE
-0.16298545897007,1.4088122844696,-0.1368864774704,0.63915866613388,1.17551934719086,-2.2008364200592,-0.90014845132828,0.93583482503891,-1.44769442081451,2.18592262268066,3.41257476806641,-2.58912515640259,0.49161955714226,-0.18588864803314,-0.42077946662903,-2.57367897033691,-1.99417507648468,1.81893908977509,1.5883092880249,-0.79948097467422,2.15822577476501,-2.76489400863647,-3.1382691860199,3.14572596549988,1.55049240589142,-0.78243672847748,0.39361521601677,-4.00113344192505,-0.6077333688736,1.44183540344238,9.69603729248047,7.82490015029907,-1.70708632469177,-7.07601928710938,-7.43448066711426,-2.57900524139404,9.27738857269287,7.99374437332153,-2.89698672294617,-7.87550020217896,-7.36949968338013,1.89350759983063,9.75409412384033,6.08106231689453,-3.41204214096069,-6.75643730163574,24.0401802062988,46.9383239746094,16.3284549713135,4.03183555603027,-35.0942077636719,-11.8632698059082,27.0879974365234,44.9319839477539,13.318943977356,1.16837048530579,-47.0269088745117,10.0173397064209,27.655424118042,36.3511657714844,-25.4479694366455,20.8295555114746,51.5471611022949,18.4760551452637,-10.7978496551514,-34.5124168395996,-26.0584907531738,24.2484741210938,55.9261589050293,14.5088624954224,-23.2907943725586,-36.0040054321289,-16.8072967529297,36.7845153808594,49.3540725708008,2.55700731277466,2.20745396614075,2.18111777305603,0.01915361359715,-1.2258312702179,-8.06367111206055,1.74537301063538,6.22731876373291,6.20816516876221,5.20020627975464,-9.41400146484375,-7.64708042144775,7.39090061187744,-0.99598789215088,5.19302368164063,SHAKE
2.98060989379883,1.96008658409119,0.46445530653,-0.46978163719177,-2.21681523323059,-2.0202739238739,-1.20641195774078,1.37632167339325,0.56991648674011,3.40245461463928,1.31613421440125,0.08202536404133,0.49854376912117,-1.25701200962067,-2.6796727180481,0.52411013841629,0.12516857683659,-0.02769687585533,-0.63649553060532,-0.09054747968912,0.50067430734634,-1.51800179481506,-1.14995300769806,2.40803027153015,-0.41651839017868,-1.09828770160675,-0.20186761021614,-1.5409049987793,0.85114628076553,1.62452828884125,-2.59338641166687,-3.75186133384705,-3.8104510307312,-2.85331082344055,-1.57925450801849,5.43444681167603,7.76151704788208,4.22750186920166,0.62371236085892,-2.54118847846985,-4.30260324478149,-5.31300640106201,-4.82085418701172,-1.23091304302216,6.92049074172974,13.5416049957275,5.15711069107056,-0.2777273952961,-4.39575433731079,-10.5919485092163,-19.5917530059814,8.59757804870605,18.8040599822998,26.0153961181641,14.1593084335327,10.6015253067017,3.41652584075928,-3.71340680122375,-24.7847766876221,-12.2271881103516,20.7242107391357,9.72524738311768,2.41335535049438,-4.12042093276978,-10.6685628890991,-9.20809936523438,-1.96563959121704,20.0179195404053,30.8468952178955,21.4448642730713,11.389217376709,1.38145434856415,-8.00381660461426,-14.4609785079956,-14.3053550720215,3.31596946716309,-3.15316367149353,-2.30322194099426,-1.73819041252136,-2.27209734916687,3.20104765892029,9.02135181427002,6.44279670715332,9.15303325653076,-0.6033388376236,-4.15633392333984,0.99838209152222,2.25054955482483,-3.30639243125916,-0.25139117240906,SHAKE
3.40245461463928,1.31613421440125,0.08202536404133,0.49854376912117,-1.25701200962067,-2.6796727180481,-0.63170182704926,0.12942963838577,0.29933932423592,0.92518216371536,1.15740978717804,1.43118274211884,1.4599449634552,-1.83704853057861,-2.34198379516602,-0.41651839017868,-1.09828770160675,-0.20186761021614,-1.5409049987793,0.85114628076553,1.62452828884125,-1.83971166610718,-0.57843858003616,1.23677206039429,0.47457531094551,-0.21252025663853,-0.20506340265274,-0.99815279245377,0.74941354990005,-0.06604639440775,-2.54118847846985,-4.30260324478149,-5.31300640106201,-4.82085418701172,-1.23091304302216,6.92049074172974,6.9439263343811,4.45919704437256,-0.18269285559654,-3.0860710144043,-4.62697601318359,-5.1031494140625,-4.28982019424438,-0.94595485925674,6.24244976043701,14.1593084335327,10.6015253067017,3.41652584075928,-3.71340680122375,-24.7847766876221,-12.2271881103516,6.56011247634888,25.268404006958,23.1878433227539,15.3133144378662,10.3405570983887,2.13323378562927,-3.45243883132935,-21.1695308685303,-14.4729490280151,21.4448642730713,11.389217376709,1.38145434856415,-8.00381660461426,-14.4609785079956,-14.3053550720215,0.90500825643539,23.9468059539795,33.0735015869141,23.0441913604736,11.1330375671387,1.01035308837891,-9.02374649047852,-16.7737770080566,-16.2039566040039,-0.6033388376236,-4.15633392333984,0.99838209152222,2.25054955482483,-3.30639243125916,-0.25139117240906,8.61673164367676,7.56328296661377,3.34948825836182,-0.24899697303772,2.17872357368469,2.827552318573,-1.34314715862274,-7.2999210357666,0.40701428055763,SHAKE
0.92518216371536,1.15740978717804,1.43118274211884,1.4599449634552,-1.83704853057861,-2.34198379516602,-1.71773898601532,-1.2069445848465,0.78403460979462,3.01736164093018,1.95795607566834,0.97471696138382,1.04715490341187,-2.17047643661499,-2.52307891845703,0.47457531094551,-0.21252025663853,-0.20506340265274,-0.99815279245377,0.74941354990005,-0.06604639440775,-1.36407113075256,-0.69242191314697,0.8239820599556,0.57630807161331,-0.36645096540451,0.03355583176017,-0.76699042320251,1.09509181976318,-0.2226402759552,-3.0860710144043,-4.62697601318359,-5.1031494140625,-4.28982019424438,-0.94595485925674,6.24244976043701,7.45045948028564,5.24429702758789,-0.03462109342217,-3.92816257476807,-5.19103384017944,-5.25175380706787,-4.19554424285889,0.5182511806488,6.34631299972534,15.3133144378662,10.3405570983887,2.13323378562927,-3.45243883132935,-21.1695308685303,-14.4729490280151,6.27759695053101,25.0289840698242,29.3696727752686,18.1648082733154,9.05008220672607,2.21463656425476,-3.87621259689331,-24.5046539306641,-6.35421133041382,23.0441913604736,11.1330375671387,1.01035308837891,-9.02374649047852,-16.7737770080566,-16.2039566040039,-3.46919822692871,24.0162372589111,38.1085090637207,24.0353908538818,9.51934623718262,-2.13562798500061,-12.1338138580322,-18.176778793335,-15.2821893692017,-0.24899697303772,2.17872357368469,2.827552318573,-1.34314715862274,-7.2999210357666,0.40701428055763,4.97993946075439,11.8584814071655,12.5743474960327,1.86268889904022,-2.12365698814392,0.46208092570305,-1.92733240127563,-6.36139392852783,1.01514148712158,SHAKE
3.01736164093018,1.95795607566834,0.97471696138382,1.04715490341187,-2.17047643661499,-2.52307891845703,-1.8924423456192,-3.14732384681702,-0.61572283506393,3.78381943702698,2.96676158905029,1.03916549682617,1.27938258647919,0.84688526391983,-2.04584050178528,0.57630807161331,-0.36645096540451,0.03355583176017,-0.76699042320251,1.09509181976318,-0.2226402759552,-2.13905096054077,0.04846953228116,1.18191087245941,-0.20186761021614,-0.92092114686966,0.13262543082237,-0.54754590988159,-0.3755057156086,0.93743270635605,-3.92816257476807,-5.19103384017944,-5.25175380706787,-4.19554424285889,0.5182511806488,6.34631299972534,6.57960605621338,4.1183123588562,0.04846953228116,-2.73613166809082,-4.01072072982788,-4.48476314544678,-3.54679799079895,-2.26688265800476,2.86982250213623,18.1648082733154,9.05008220672607,2.21463656425476,-3.87621259689331,-24.5046539306641,-6.35421133041382,4.70700073242188,26.7911167144775,19.603723526001,14.7841958999634,8.63349151611328,3.51947641372681,-1.80762231349945,-9.29429054260254,-17.1137542724609,24.0353908538818,9.51934623718262,-2.13562798500061,-12.1338138580322,-18.176778793335,-15.2821893692017,0.07661445438862,24.947582244873,34.9792861938477,23.7361164093018,12.5767412185669,3.37821865081787,-4.37181234359741,-12.5192804336548,-12.3660516738892,1.86268889904022,-2.12365698814392,0.46208092570305,-1.92733240127563,-6.36139392852783,1.01514148712158,3.43807363510132,11.7100400924683,18.0307331085205,8.24563026428223,-2.52109432220459,0.87148940563202,3.03345346450806,-4.10605573654175,-3.28245043754578,SHAKE
2.96676158905029,1.03916549682617,1.27938258647919,0.84688526391983,-2.04584050178528,-2.35316920280457,-2.85011506080627,-1.04502439498901,0.97471696138382,2.90124773979187,1.84184229373932,0.6657902598381,0.87298423051834,0.18695391714573,-1.92919397354126,-0.92092114686966,0.13262543082237,-0.54754590988159,-0.3755057156086,0.93743270635605,-0.55606806278229,-0.82664519548416,-0.04474110901356,0.372309923172,0.03515372797847,-0.56459015607834,-0.01970739290118,-0.71958613395691,0.04793690145016,1.18670463562012,-4.01072072982788,-4.48476314544678,-3.54679799079895,-2.26688265800476,2.86982250213623,5.19636011123657,5.96867656707764,2.95930457115173,-0.07989483326674,-3.00244784355164,-4.3457465171814,-4.51512336730957,-3.48341488838196,-1.7811222076416,3.64000868797302,8.63349151611328,3.51947641372681,-1.80762231349945,-9.29429054260254,-17.1137542724609,-1.05823719501495,7.55370616912842,21.8111782073975,19.682731628418,14.5902652740479,7.69017601013184,2.04464817047119,-3.71101260185242,-11.2000751495361,-14.0132627487183,12.5767412185669,3.37821865081787,-4.37181234359741,-12.5192804336548,-12.3660516738892,-6.73728370666504,6.02381134033203,27.3489665985107,33.3416519165039,22.2780475616455,11.0229043960571,1.27610945701599,-5.53539419174194,-11.9829797744751,-9.90481281280518,-2.52109432220459,0.87148940563202,3.03345346450806,-4.10605573654175,-3.28245043754578,1.60650932788849,5.08528423309326,15.9262294769287,8.01818180084229,2.94247388839722,-1.28568625450134,1.09175598621368,3.09330868721008,-2.94486808776855,-2.6623523235321,SHAKE
1.84184229373932,0.6657902598381,0.87298423051834,0.18695391714573,-1.92919397354126,-2.48366403579712,-2.54917788505554,-1.28790473937988,1.12651717662811,2.42986822128296,1.7555558681488,1.12491929531097,0.98750013113022,1.25701200962067,0.01651159860194,-0.56459015607834,-0.01970739290118,-0.71958613395691,0.04793690145016,1.18670463562012,-0.35792887210846,-1.08656978607178,0.3531351685524,-0.20240025222301,0.33609092235565,0.08522115647793,-0.16032229363918,-0.35420042276382,-0.35846149921417,-0.15339808166027,-4.3457465171814,-4.51512336730957,-3.48341488838196,-1.7811222076416,3.64000868797302,4.98170900344849,5.58251857757568,3.20964169502258,0.91080111265182,-1.77046954631805,-3.2021849155426,-3.61284446716309,-3.06583118438721,-2.17686796188354,-1.05248129367828,7.69017601013184,2.04464817047119,-3.71101260185242,-11.2000751495361,-14.0132627487183,-0.31124621629715,6.60081386566162,17.8822917938232,18.1456546783447,15.799337387085,8.2336597442627,4.07493114471436,-0.98162269592285,-3.65594601631165,-7.15866327285767,11.0229043960571,1.27610945701599,-5.53539419174194,-11.9829797744751,-9.90481281280518,-4.64475107192993,6.30153894424438,21.6292190551758,29.1589832305908,23.0250377655029,14.0012912750244,6.35421133041382,0.90021985769272,-2.4013843536377,-3.91930818557739,-1.28568625450134,1.09175598621368,3.09330868721008,-2.94486808776855,-2.6623523235321,0.53390699625015,6.71813011169434,12.265495300293,10.7834844589233,3.21062445640564,-1.14921677112579,1.12288057804108,2.06859016418457,0.91697925329208,-3.28484463691711,SHAKE
0.01704423129559,-1.00241386890411,0.38349521160126,2.27007865905762,1.8748654127121,-0.32969933748245,-0.50972902774811,0.73822826147079,-0.37284255027771,-0.56565541028976,1.50202286243439,1.22505414485931,0.33662357926369,-0.91186636686325,-1.58671140670776,-1.61494088172913,0.21731394529343,1.36993014812469,-0.30093720555305,-0.12623383104801,1.28470897674561,1.31347107887268,0.09108011424541,0.61359232664108,1.22558677196503,-0.31318774819374,-0.12783172726631,-0.26897928118706,-0.86286419630051,-0.47670584917068,-2.32547235488892,-4.97585010528564,-5.78172302246094,-4.71805620193481,-3.38807368278503,3.23627352714539,9.17299270629883,7.73275470733643,3.05784153938293,-2.92308568954468,-5.25974321365356,-5.43604469299316,-5.17185878753662,-2.81283068656921,4.10499668121338,19.4002170562744,13.0172748565674,4.17788219451904,-1.26174426078796,-11.0300874710083,-27.2795333862305,-0.66558808088303,13.5870943069458,30.308198928833,19.5917530059814,9.41160678863525,4.38617753982544,-0.66079968214035,-14.9853086471558,-23.7744235992432,25.9746932983398,15.306131362915,1.62566292285919,-8.33182144165039,-17.9972133636475,-19.0458736419678,-14.9110879898071,17.8727149963379,40.7852249145508,35.1205444335938,16.2973308563232,2.29125094413757,-10.7332057952881,-21.1024932861328,-21.2126274108887,2.29364514350891,8.26717853546143,8.12592029571533,2.25054955482483,-6.76361989974976,-3.98873996734619,-2.0829553604126,1.52271223068237,-5.42047262191772,3.98155736923218,1.5179238319397,-1.80762231349945,-5.27442646026611,-5.47793340682983,0.27533319592476,SHAKE
-0.56565541028976,1.50202286243439,1.22505414485931,0.33662357926369,-0.91186636686325,-1.58671140670776,-0.31585091352463,-0.28921929001808,-0.76592516899109,1.35022270679474,2.51349139213562,0.31531828641891,-0.4996090233326,0.16937704384327,-0.11717908829451,1.22558677196503,-0.31318774819374,-0.12783172726631,-0.26897928118706,-0.86286419630051,-0.47670584917068,-0.76858830451965,-0.77125144004822,1.0828412771225,0.89215898513794,-0.52677327394485,-0.09427590668201,0.21411815285683,-0.76272934675217,-1.64743149280548,-2.92308568954468,-5.25974321365356,-5.43604469299316,-5.17185878753662,-2.81283068656921,4.10499668121338,8.49654960632324,8.32930278778076,3.36357259750366,-1.49509871006012,-4.1348237991333,-4.96093654632568,-4.99715566635132,-4.29780960083008,-2.06714558601379,19.5917530059814,9.41160678863525,4.38617753982544,-0.66079968214035,-14.9853086471558,-23.7744235992432,1.81480491161346,16.812084197998,30.9833641052246,20.6595668792725,10.3429517745972,6.12197351455688,1.58735573291779,-4.32632255554199,-15.4282360076904,35.1205444335938,16.2973308563232,2.29125094413757,-10.7332057952881,-21.1024932861328,-21.2126274108887,-13.8504571914673,12.2032461166382,36.2984924316406,36.1596298217773,20.3243789672852,8.24323654174805,-2.42532634735107,-10.5704002380371,-16.591817855835,3.98155736923218,1.5179238319397,-1.80762231349945,-5.27442646026611,-5.47793340682983,0.27533319592476,2.71502470970154,3.02627086639404,3.84748220443726,7.14429807662964,-5.17626428604126,-5.11401462554932,-1.68072962760925,-1.62566292285919,-4.71657752990723,SHAKE
2.51349139213562,0.31531828641891,-0.4996090233326,0.16937704384327,-0.11717908829451,-1.17445409297943,-1.14995300769806,0.24714136123657,0.0042610578239,1.42212808132172,1.9350528717041,0.3850930929184,-0.09960222989321,0.39787626266479,-0.14274543523788,-0.52677327394485,-0.09427590668201,0.21411815285683,-0.76272934675217,-1.64743149280548,-0.57311224937439,0.23595607280731,-2.04850363731384,1.66926944255829,0.51718586683273,-0.33129724860191,0.48948901891708,0.06338323652744,-0.54008907079697,-1.19096565246582,-4.1348237991333,-4.96093654632568,-4.99715566635132,-4.29780960083008,-2.06714558601379,4.7217845916748,8.11198902130127,6.9050440788269,1.46047759056091,-1.02798020839691,-3.55105900764465,-4.35373592376709,-4.12097549438477,-3.37901878356934,-1.25381624698639,10.3429517745972,6.12197351455688,1.58735573291779,-4.32632255554199,-15.4282360076904,-20.34592628479,1.721431016922,26.1375007629395,20.3938102722168,14.7506771087646,9.43554878234863,5.31273365020752,0.55545479059219,-3.73974299430847,-10.512939453125,20.3243789672852,8.24323654174805,-2.42532634735107,-10.5704002380371,-16.591817855835,-14.4681606292725,-5.96395635604858,17.7577934265137,33.039981842041,30.1286334991455,19.5103492736816,9.03811168670654,-0.27293899655342,-6.91684865951538,-8.82742214202881,-5.17626428604126,-5.11401462554932,-1.68072962760925,-1.62566292285919,-4.71657752990723,-0.37828385829926,1.84353530406952,6.40448951721191,3.65834021568298,3.0550012588501,-3.40216064453125,-3.69904160499573,-1.45567464828491,-2.4013843536377,-3.82832860946655,SHAKE
0.3850930929184,-0.09960222989321,0.39787626266479,-0.14274543523788,-1.05940544605255,-1.45728182792664,-1.50308811664581,0.01384843792766,1.44449865818024,1.90096437931061,0.79308938980103,0.74515247344971,1.21706461906433,0.79894834756851,-0.38083204627037,0.48948901891708,0.06338323652744,-0.54008907079697,-1.19096565246582,-0.5693838596344,-0.4612595140934,-1.2197277545929,0.53902381658554,0.76432722806931,0.78137147426605,1.0572749376297,0.64555025100708,-0.42663842439651,-0.28921929001808,-1.19575929641724,-4.35373592376709,-4.12097549438477,-3.37901878356934,-1.25381624698639,2.5555694103241,5.5771918296814,6.75164604187012,3.54093909263611,0.3914846777916,-2.59924530982971,-4.2003378868103,-4.4442834854126,-4.17317342758179,-3.30285239219666,-0.16405072808266,5.31273365020752,0.55545479059219,-3.73974299430847,-10.512939453125,-13.8911581039429,-4.69742393493652,6.63672733306885,22.2157974243164,15.2414884567261,16.1321315765381,7.00303983688354,4.18027639389038,0.50278234481812,-5.71735382080078,-15.3372564315796,9.03811168670654,-0.27293899655342,-6.91684865951538,-8.82742214202881,-8.17380428314209,-3.98395156860352,7.60637903213501,23.2524871826172,30.0232887268066,26.2596035003662,15.3707752227783,4.7213659286499,-3.47877502441406,-11.2599306106567,-13.2950019836426,-3.69904160499573,-1.45567464828491,-2.4013843536377,-3.82832860946655,-2.00634098052979,-1.41257905960083,4.89135408401489,7.2304892539978,8.93755531311035,-2.10210919380188,-2.54024791717529,-0.24660277366638,-1.87226569652557,-4.50588750839233,-6.47152709960938,SHAKE
1.46101021766663,0.47990164160728,0.82291680574417,-0.91772532463074,-1.9606192111969,-2.19337940216064,-2.17154169082642,-2.71748971939087,0.37177729606628,3.59739804267883,2.72654438018799,1.44769442081451,0.97578221559525,-0.83463472127914,-2.07620048522949,-0.17417073249817,0.19281286001205,-0.87351685762405,-1.55475342273712,-0.27803403139114,-0.96992325782776,-0.77018618583679,0.29134982824326,0.51079428195953,0.16671389341354,-0.36538571119308,0.06178534030914,-0.34780883789063,-1.01146864891052,-0.1065264493227,-4.15080308914185,-3.80405926704407,-3.06689643859863,-1.26606678962708,1.98725080490112,4.56891918182373,6.57587766647339,4.87891101837158,-0.10439591854811,-3.99314379692078,-4.97425222396851,-4.6232476234436,-3.9942090511322,-0.16884441673756,4.701012134552,4.62559747695923,1.51552963256836,-2.07098436355591,-7.45554399490356,-11.8058090209961,-2.03028297424316,2.96881008148193,25.0481376647949,20.317195892334,14.7770128250122,7.58483076095581,5.3175220489502,-1.91536140441895,-14.662091255188,-8.95431423187256,10.5560350418091,-0.24899697303772,-8.85136413574219,-12.4618196487427,-11.0444526672363,-7.02219343185425,6.47631549835205,29.7838687896729,41.5154571533203,26.6690120697021,10.0149459838867,-4.25210237503052,-16.3404273986816,-17.1257247924805,-13.85524559021,-5.61200857162476,-0.33518823981285,-1.96563959121704,-3.82832860946655,-0.22744916379452,0.44292730093002,4.47476291656494,6.99346303939819,15.5503396987915,5.47075080871582,-2.02549457550049,-0.82839381694794,-2.43729734420776,-3.43567943572998,-1.0223240852356,SHAKE
3.59739804267883,2.72654438018799,1.44769442081451,0.97578221559525,-0.83463472127914,-2.07620048522949,-1.97979402542114,-2.24983859062195,-1.99417507648468,1.31560158729553,3.11323547363281,2.69405388832092,2.01281714439392,0.82344943284988,-1.4727281332016,0.16671389341354,-0.36538571119308,0.06178534030914,-0.34780883789063,-1.01146864891052,-0.1065264493227,-1.14728987216949,-0.99229383468628,0.76166409254074,0.83143889904022,0.61199444532394,0.07936219871044,-0.01331580616534,-0.45007422566414,-0.51665323972702,-3.99314379692078,-4.97425222396851,-4.6232476234436,-3.9942090511322,-0.16884441673756,4.701012134552,6.72022104263306,7.34819412231445,2.76755714416504,-1.32359111309052,-4.13535642623901,-4.92418479919434,-4.4996771812439,-3.96118593215942,-0.3371562063694,14.7770128250122,7.58483076095581,5.3175220489502,-1.91536140441895,-14.662091255188,-8.95431423187256,2.03507137298584,17.9541187286377,27.9211807250977,22.1559429168701,12.8377094268799,6.90966606140137,2.76530289649963,-1.50116443634033,-14.1760683059692,26.6690120697021,10.0149459838867,-4.25210237503052,-16.3404273986816,-17.1257247924805,-13.85524559021,-5.35822343826294,15.6772327423096,34.4501686096191,35.2665901184082,19.8431434631348,7.02219343185425,-3.05260705947876,-12.4235124588013,-14.1186075210571,5.47075080871582,-2.02549457550049,-0.82839381694794,-2.43729734420776,-3.43567943572998,-1.0223240852356,2.9161376953125,2.01591777801514,17.3962688446045,13.2327527999878,4.93205547332764,-0.59855043888092,-1.89620769023895,-5.16189908981323,-2.44208574295044,SHAKE
3.11323547363281,2.69405388832092,2.01281714439392,0.82344943284988,-1.4727281332016,-1.76141476631165,-1.35448372364044,-1.94943392276764,-2.36062598228455,0.77391463518143,3.3305492401123,2.66049790382385,1.68737888336182,1.0061422586441,-0.58056914806366,0.61199444532394,0.07936219871044,-0.01331580616534,-0.45007422566414,-0.51665323972702,0.14221280813217,-1.18830251693726,-0.36112466454506,0.55713331699371,1.2069445848465,0.36645096540451,0.30786141753197,0.33875408768654,0.61199444532394,-0.14860439300537,-4.13535642623901,-4.92418479919434,-4.4996771812439,-3.96118593215942,-0.3371562063694,4.36811685562134,5.75562381744385,6.96310091018677,2.43785762786865,-1.35235321521759,-4.24241590499878,-5.1542820930481,-5.18091344833374,-3.85465931892395,1.30228579044342,12.8377094268799,6.90966606140137,2.76530289649963,-1.50116443634033,-14.1760683059692,-7.38611221313477,3.25611424446106,15.5024557113647,25.1678485870361,19.4935894012451,11.9327011108398,10.4818153381348,6.58884286880493,-4.5418004989624,-17.2813472747803,19.8431434631348,7.02219343185425,-3.05260705947876,-12.4235124588013,-14.1186075210571,-11.8608751296997,-4.13957452774048,15.3109197616577,35.1157569885254,35.9656982421875,19.9125747680664,7.44117879867554,-5.71735382080078,-17.7889194488525,-17.7937068939209,4.93205547332764,-0.59855043888092,-1.89620769023895,-5.16189908981323,-2.44208574295044,0.07422025501728,3.07415509223938,1.73819041252136,14.3101434707642,14.8799638748169,6.17225217819214,-1.10851538181305,-1.29526317119598,-5.23851346969604,-7.11077928543091,SHAKE
3.3305492401123,2.66049790382385,1.68737888336182,1.0061422586441,-0.58056914806366,-2.07673311233521,-2.52467679977417,-3.71777296066284,0.34194988012314,3.34386515617371,3.15051960945129,1.28950262069702,1.46899974346161,1.22026038169861,-0.88736528158188,0.36645096540451,0.30786141753197,0.33875408768654,0.61199444532394,-0.14860439300537,-1.04928553104401,-1.83065700531006,-0.24447819590569,1.03969812393188,1.05993819236755,0.60933125019073,0.33449304103851,0.31691616773605,-0.85913580656052,-0.63276708126068,-4.24241590499878,-5.1542820930481,-5.18091344833374,-3.85465931892395,1.30228579044342,5.53032064437866,7.28907203674316,4.75960159301758,1.11906027793884,-2.06128668785095,-4.38462829589844,-4.94335985183716,-4.61046457290649,-2.51402401924133,1.82106959819794,11.9327011108398,10.4818153381348,6.58884286880493,-4.5418004989624,-17.2813472747803,-2.9855694770813,10.5560350418091,22.9412403106689,17.6141414642334,17.8104667663574,12.2918319702148,8.19056415557861,3.69664740562439,-8.26239013671875,-12.392388343811,19.9125747680664,7.44117879867554,-5.71735382080078,-17.7889194488525,-17.7937068939209,-12.9262952804565,2.31758713722229,22.7090034484863,35.3120803833008,30.6002922058105,17.6452655792236,5.11162042617798,-8.0924015045166,-15.3109197616577,-13.9605903625488,6.17225217819214,-1.10851538181305,-1.29526317119598,-5.23851346969604,-7.11077928543091,-3.19865345954895,3.90494298934937,14.3101434707642,19.2374114990234,7.85776996612549,-3.73256039619446,-2.69108271598816,1.31202256679535,-4.75009632110596,-4.55377149581909,SHAKE
3.15051960945129,1.28950262069702,1.46899974346161,1.22026038169861,-0.88736528158188,-2.25090384483337,-1.64157247543335,-2.11774563789368,-0.56991648674011,0.80054622888565,2.42613983154297,1.62985455989838,1.6650083065033,1.01786017417908,-0.5091964006424,0.60933125019073,0.33449304103851,0.31691616773605,-0.85913580656052,-0.63276708126068,-0.74195671081543,-1.52705657482147,-0.83410209417343,0.35153725743294,0.87085372209549,0.12303804606199,0.40639838576317,0.31052458286285,-0.02769687585533,-1.25221836566925,-4.38462829589844,-4.94335985183716,-4.61046457290649,-2.51402401924133,1.82106959819794,4.66372776031494,5.94257783889771,5.28957080841064,1.23783731460571,-1.69856417179108,-3.75292658805847,-4.29141807556152,-3.97130584716797,-2.64718222618103,0.77604514360428,12.2918319702148,8.19056415557861,3.69664740562439,-8.26239013671875,-12.392388343811,-2.71741890907288,3.40934324264526,23.1806602478027,13.8289089202881,18.6699848175049,10.7212352752686,8.12592029571533,4.75967311859131,-5.11640882492065,-11.5161104202271,17.6452655792236,5.11162042617798,-8.0924015045166,-15.3109197616577,-13.9605903625488,-8.91600704193115,2.94247388839722,20.7433643341064,33.7295150756836,30.4446697235107,17.9158115386963,6.04296493530273,-5.84185218811035,-13.0029096603394,-13.7211694717407,-3.73256039619446,-2.69108271598816,1.31202256679535,-4.75009632110596,-4.55377149581909,-0.62967503070831,3.71101260185242,7.28795003890991,7.64229202270508,10.3908357620239,2.61446833610535,-0.3016694188118,-0.14365209639072,-5.55215358734131,-4.78840351104736,SHAKE
2.42613983154297,1.62985455989838,1.6650083065033,1.01786017417908,-0.5091964006424,-2.10070157051086,-2.07406997680664,-1.87539803981781,-1.27512156963348,2.39098596572876,2.37820291519165,1.6522251367569,1.61121249198914,1.31560158729553,-1.10680973529816,0.12303804606199,0.40639838576317,0.31052458286285,-0.02769687585533,-1.25221836566925,-0.65247446298599,-2.16408467292786,-1.05993819236755,0.96512961387634,0.63063657283783,0.53156697750092,1.09828770160675,0.59867864847183,0.08096009492874,-0.69082397222519,-3.75292658805847,-4.29141807556152,-3.97130584716797,-2.64718222618103,0.77604514360428,4.59288787841797,5.52659177780151,5.73804712295532,0.25939190387726,-2.70630431175232,-4.42457580566406,-4.94975137710571,-4.19234848022461,-2.17367219924927,2.26155638694763,10.7212352752686,8.12592029571533,4.75967311859131,-5.11640882492065,-11.5161104202271,-5.0876784324646,7.62074422836304,22.0865116119385,23.7696342468262,14.4346418380737,12.11705493927,6.77080249786377,0.96486330032349,-7.70214700698853,-12.2535238265991,17.9158115386963,6.04296493530273,-5.84185218811035,-13.0029096603394,-13.7211694717407,-11.5232925415039,2.86825370788574,23.9491996765137,37.6512145996094,28.7112674713135,15.7490587234497,2.92810869216919,-8.69574069976807,-15.1959981918335,-13.5799121856689,2.61446833610535,-0.3016694188118,-0.14365209639072,-5.55215358734131,-4.78840351104736,-4.07493114471436,4.13957452774048,3.90973138809204,18.7753295898438,9.38766479492188,0.7182605266571,-0.91697925329208,-0.94570964574814,-6.95755004882813,-5.4755392074585,SHAKE
2.37820291519165,1.6522251367569,1.61121249198914,1.31560158729553,-1.10680973529816,-2.1875205039978,-1.77792632579803,-1.66767156124115,-0.26152241230011,2.906574010849,2.64505171775818,1.03969812393188,0.75101143121719,0.18429075181484,-1.27884995937347,0.53156697750092,1.09828770160675,0.59867864847183,0.08096009492874,-0.69082397222519,0.01171790901572,-2.09217929840088,-0.14860439300537,0.94062852859497,1.34649431705475,0.05858954414725,0.2386192381382,0.34248253703117,0.00213052891195,-0.58962386846542,-4.42457580566406,-4.94975137710571,-4.19234848022461,-2.17367219924927,2.26155638694763,5.37798738479614,6.1519021987915,5.29542970657349,1.33158051967621,-2.49538207054138,-4.54495096206665,-5.19422960281372,-4.83683347702026,-2.37553977966309,1.62719142436981,12.11705493927,6.77080249786377,0.96486330032349,-7.70214700698853,-12.2535238265991,0.13886369764805,6.69418811798096,29.0129356384277,18.2486057281494,19.8287792205811,12.00452709198,7.58483076095581,3.32794046401978,-8.00142192840576,-10.690110206604,15.7490587234497,2.92810869216919,-8.69574069976807,-15.1959981918335,-13.5799121856689,-9.03811168670654,4.40772533416748,21.8973693847656,35.2330703735352,30.0089244842529,17.3435974121094,4.14196872711182,-8.55208873748779,-15.2654304504395,-13.7355356216431,0.7182605266571,-0.91697925329208,-0.94570964574814,-6.95755004882813,-5.4755392074585,-1.24737906455994,3.97198057174683,10.8960123062134,12.6820859909058,7.80749177932739,-3.87860679626465,-2.54982471466064,-1.26653265953064,-4.72376012802124,-3.0693666934967,SHAKE
2.64505171775818,1.03969812393188,0.75101143121719,0.18429075181484,-1.27884995937347,-1.52652394771576,-1.22611939907074,-1.92067182064056,-0.7254450917244,0.62690812349319,2.4058997631073,2.24238157272339,2.19178152084351,2.00695824623108,-0.50706589221954,0.05858954414725,0.2386192381382,0.34248253703117,0.00213052891195,-0.58962386846542,-0.67963874340057,-1.50894713401794,-0.9097358584404,0.66685557365417,0.98164117336273,0.2466087192297,0.3914846777916,-0.17736652493477,-0.76379460096359,-0.46392267942429,-4.54495096206665,-5.19422960281372,-4.83683347702026,-2.37553977966309,1.62719142436981,4.62218236923218,6.24298238754272,5.43710994720459,1.24689209461212,-1.95795607566834,-3.90206360816956,-4.83949661254883,-4.35267066955566,-3.46317481994629,-0.42504051327705,12.00452709198,7.58483076095581,3.32794046401978,-8.00142192840576,-10.690110206604,-3.52187061309814,4.63517427444458,22.1894607543945,21.4664115905762,18.1743850708008,13.4602022171021,8.60476112365723,3.59848523139954,-1.54904854297638,-12.0404405593872,17.3435974121094,4.14196872711182,-8.55208873748779,-15.2654304504395,-13.7355356216431,-9.26795482635498,0.76614451408386,20.3626861572266,34.476505279541,30.4422740936279,18.531120300293,6.87614727020264,-3.28723883628845,-12.2487354278564,-13.3045787811279,-3.87860679626465,-2.54982471466064,-1.26653265953064,-4.72376012802124,-3.0693666934967,-0.7182605266571,0.54827219247818,6.14112758636475,8.4132251739502,9.65581512451172,4.60644388198853,0.29927521944046,-0.23942017555237,-3.87860679626465,-6.6271505355835,SHAKE
2.52840518951416,2.00962138175964,1.27192580699921,-0.08735168725252,-1.03863286972046,-1.42692172527313,-1.00880539417267,-3.78222155570984,-1.71187996864319,2.8336033821106,2.57634210586548,1.00081598758698,1.65968203544617,2.54278635978699,1.21440148353577,-0.04900216311216,0.18961706757545,0.19547602534294,0.31052458286285,-0.43782368302345,-0.69721555709839,-1.91481280326843,-1.02798020839691,0.96885800361633,1.05194866657257,0.68389976024628,1.23890256881714,0.5028048157692,-0.55713331699371,-0.63969129323959,-4.12523651123047,-4.73776388168335,-4.22750186920166,-1.92706334590912,1.68311786651611,4.77824354171753,5.98199272155762,5.2016863822937,1.08870029449463,-2.21681523323059,-4.13642168045044,-5.04988622665405,-4.77398252487183,-3.83015823364258,-1.27831733226776,11.3820352554321,7.44357299804688,2.21224236488342,-7.72848320007324,-12.45703125,-1.48201084136963,4.71418333053589,28.3305892944336,21.5789394378662,15.5934352874756,12.9765729904175,8.88488292694092,5.25287866592407,1.10851538181305,-7.7069354057312,14.3412685394287,2.77487969398499,-8.48265647888184,-12.9957265853882,-13.1944456100464,-9.33020401000977,2.49236392974854,22.4671878814697,34.7781753540039,28.5173358917236,18.3180370330811,8.64306831359863,-0.94092124700546,-9.58877754211426,-12.1218433380127,2.04943656921387,-1.05105459690094,-2.72220730781555,-5.23851346969604,-3.41892004013062,-1.76931500434875,0.77093297243118,2.90416669845581,19.9245471954346,8.41801357269287,-3.47877502441406,-1.72621941566467,2.48518133163452,0.08858546614647,-4.37899494171143,SHAKE
1.65968203544617,2.54278635978699,1.21440148353577,-0.40213733911514,-1.21599936485291,-0.85966843366623,-1.43757438659668,-0.47137951850891,-0.26897928118706,1.21599936485291,-0.30146983265877,1.15421402454376,2.78300333023071,2.80377602577209,0.88896316289902,0.5028048157692,-0.55713331699371,-0.63969129323959,-0.51558798551559,-0.00692421896383,-1.45408594608307,0.05113269388676,0.23595607280731,0.80853569507599,0.9161274433136,1.72040212154388,1.71028208732605,0.2274339646101,-1.18191087245941,-0.39627838134766,-4.77398252487183,-3.83015823364258,-1.27831733226776,2.3803334236145,4.95614290237427,6.41608762741089,6.29304981231689,2.53160095214844,0.49055427312851,-2.68659687042236,-3.91804265975952,-4.59182262420654,-4.06771230697632,-3.31297254562378,-2.02666568756104,5.25287866592407,1.10851538181305,-7.7069354057312,-9.71327590942383,-3.35667085647583,2.49954652786255,18.7729358673096,19.3259963989258,18.4473247528076,17.5159797668457,13.5176630020142,9.43076038360596,3.61045622825623,0.79008656740189,-4.83628749847412,-0.94092124700546,-9.58877754211426,-12.1218433380127,-10.8457336425781,-7.89847135543823,-0.0454898327589,13.673285484314,27.9666709899902,30.825345993042,24.9643402099609,16.6181545257568,6.59123706817627,-1.47722244262695,-6.40927791595459,-10.0364933013916,2.48518133163452,0.08858546614647,-4.37899494171143,-2.77009129524231,-0.82599955797195,0.16519992053509,2.782062292099,3.06457805633545,5.52821159362793,1.21864867210388,0.04070143029094,5.31033945083618,1.28808057308197,-2.56418991088867,-7.0820484161377,SHAKE
2.80377602577209,0.88896316289902,-1.38005006313324,-2.24557757377625,-1.80722117424011,-1.73744630813599,-0.86392945051193,-1.64849674701691,1.09882032871246,0.49481534957886,0.63649553060532,3.07169008255005,5.26560211181641,4.05333137512207,2.54385161399841,-1.18191087245941,-0.39627838134766,-0.24288029968739,-0.10865697264671,-1.17179095745087,-2.18645524978638,-1.59736406803131,0.2498045116663,0.74408721923828,1.92653071880341,2.26635003089905,2.23599004745483,-0.40746363997459,-1.30601418018341,0.46552056074142,-3.31297254562378,-2.02666568756104,1.26074051856995,3.43654322624207,4.77771091461182,7.07601928710938,5.22512197494507,2.3547670841217,-0.88097369670868,-3.11003947257996,-3.80565738677979,-5.24642753601074,-5.19050121307373,-3.93934798240662,-3.01789426803589,0.79008656740189,-4.83628749847412,-9.8593225479126,-1.21386027336121,0.217872351408,11.2048635482788,20.8870162963867,22.3905735015869,23.2141799926758,15.9789018630981,18.5957641601563,15.7418766021729,8.09000778198242,0.65361708402634,2.02070617675781,-6.40927791595459,-10.0364933013916,-9.98142719268799,-9.0644474029541,-4.99430465698242,2.48039293289185,19.4337348937988,30.9809703826904,34.2777862548828,27.5979633331299,20.1974849700928,7.05810642242432,-3.30639243125916,-5.2863974571228,-9.22964763641357,-2.56418991088867,-7.0820484161377,-5.53060579299927,-1.60890352725983,2.31758713722229,1.56820213794708,6.48110389709473,5.84424638748169,11.0516347885132,1.25456166267395,4.85783529281616,9.04768848419189,3.4117374420166,-1.77649760246277,-3.71340680122375,SHAKE
-1.42638909816742,-1.61600613594055,-2.6109631061554,-4.15985774993896,-5.1196608543396,-2.39045333862305,-1.82905912399292,-1.91694343090057,0.09108011424541,3.09246277809143,2.4570324420929,4.73030662536621,5.00248193740845,3.41097688674927,2.07193946838379,-0.40693101286888,0.42717105150223,0.91293162107468,-0.00798948295414,-1.78058958053589,-4.19554424285889,-1.88711595535278,-1.68897676467896,1.59363567829132,1.04981815814972,2.12253952026367,1.4727281332016,-0.6295713186264,-0.87564736604691,-0.67910611629486,0.81599259376526,2.78034019470215,3.50471997261047,4.92045640945435,5.79450607299805,5.92553377151489,5.86161756515503,2.40643239021301,-0.71798825263977,-3.29539561271667,-6.51622247695923,-8.74528884887695,-8.47151565551758,-6.2669506072998,-4.12949752807617,-4.49391651153564,-3.77086758613586,1.16358196735382,-0.55545479059219,10.7451772689819,13.4793558120728,23.0106716156006,31.2802448272705,30.1549701690674,28.9722347259521,33.1836357116699,22.1846733093262,9.96227359771729,3.06218385696411,-0.07661445438862,-11.5927248001099,-9.66778659820557,-7.9343843460083,-6.51701688766479,-2.53785371780396,9.99100399017334,19.5845699310303,29.4295272827148,31.7423267364502,29.6043033599854,20.4369049072266,0.1268926858902,-11.4371013641357,-11.0276927947998,-10.0867719650269,-1.81241071224213,0.96725749969482,0.38067805767059,-0.73023152351379,2.61446833610535,12.8401041030884,-0.51714754104614,13.2327527999878,12.6892690658569,11.6286373138428,4.12042093276978,7.99423933029175,2.70784211158752,0.80924016237259,-0.1268926858902,SHAKE
-0.2514024078846,-0.46498793363571,-1.6522251367569,-3.13986706733704,-5.29489707946777,-4.37930202484131,-2.15556263923645,0.48789110779762,-0.95500957965851,0.3115898668766,2.350506067276,2.33186388015747,3.6863477230072,4.64242267608643,3.12868165969849,0.25992453098297,0.6077333688736,0.90227901935577,1.09882032871246,-0.99655491113663,-1.71401047706604,-0.95181381702423,-0.92837798595428,0.49694585800171,1.3102753162384,0.51399010419846,0.75580513477325,0.59281969070435,-1.15954041481018,-0.61838603019714,0.07030745595694,3.05304789543152,5.17611980438232,6.23818874359131,7.34925937652588,7.77323484420776,6.7511134147644,4.63283491134644,1.83332014083862,-1.64902937412262,-3.96065330505371,-6.20995903015137,-7.79986619949341,-8.2813663482666,-7.26297283172607,-7.70454120635986,-5.61200857162476,-3.70861840248108,2.65277552604675,6.20337677001953,21.0905227661133,28.1917247772217,26.3721313476563,32.099063873291,25.4168453216553,29.0991268157959,27.6650009155273,23.3267078399658,16.1441020965576,7.4579381942749,-10.9822034835815,-11.6477909088135,-12.0979013442993,-11.7842607498169,-10.7451772689819,-0.36152446269989,15.4521780014038,25.1247520446777,28.8237934112549,27.7918930053711,28.0456790924072,22.811954498291,10.3142213821411,-3.78044438362122,-9.34456920623779,0.58179098367691,-1.3718775510788,-2.43490314483643,-1.71424841880798,0.00478840339929,11.0061454772949,15.9118642807007,4.74770212173462,4.89135408401489,2.58813214302063,8.26239013671875,-0.00718260509893,9.63905620574951,7.26640224456787,4.90093088150024,SHAKE
-1.58990716934204,-2.27540493011475,-2.33452701568604,-3.89460682868958,-5.53671216964722,-6.30103921890259,-2.76755714416504,-0.1288969963789,-3.17928171157837,-0.55074173212051,2.26741528511047,0.96779274940491,3.53774333000183,7.03340864181519,6.55457210540771,0.71159666776657,1.26926255226135,1.53078496456146,1.37578904628754,-1.40295326709747,-0.98377174139023,-1.83704853057861,-1.48604393005371,0.43729105591774,0.55500280857086,0.62211441993713,1.31134057044983,2.89751935005188,0.61199444532394,-0.70520508289337,1.733717918396,3.40618300437927,4.73190450668335,5.66081523895264,6.99346113204956,8.8827075958252,6.23818874359131,5.68478393554688,1.94730341434479,-0.22690132260323,-2.60616946220398,-4.85547542572021,-7.13460874557495,-7.00571155548096,-6.5151572227478,-3.76607918739319,0.78769236803055,2.11886858940125,3.82832860946655,4.51067590713501,20.480001449585,27.7894992828369,26.6187343597412,33.6481094360352,27.020959854126,24.4591636657715,32.3839721679688,27.6913375854492,17.496826171875,9.43794345855713,-12.8257389068604,-12.8520746231079,-11.729193687439,-11.473014831543,-8.7675666809082,-1.14682257175446,14.3005666732788,22.4073333740234,25.2923469543457,25.9627227783203,24.8661785125732,26.0560970306396,13.6589202880859,-0.14125789701939,-6.95515584945679,-1.21386027336121,3.37821865081787,1.40779054164886,-0.7493851184845,1.28568625450134,13.0986776351929,17.4297885894775,5.2672438621521,3.33272886276245,13.2806367874146,8.51378154754639,3.75650238990784,17.9589061737061,13.268666267395,5.62637376785278,SHAKE
-2.17686796188354,-2.12626791000366,-1.60375559329987,-3.51377487182617,-6.59878063201904,-5.79770183563232,-4.00219869613647,-1.30601418018341,1.83385276794434,1.81787383556366,1.3054815530777,3.43973898887634,6.33086681365967,6.51249408721924,4.31325578689575,1.70761895179749,1.90629076957703,1.66447567939758,1.02052330970764,-1.77579581737518,-2.06980872154236,-1.79017686843872,0.36432045698166,0.36964675784111,1.01359915733337,0.67910611629486,2.85437607765198,0.93690007925034,-1.68791151046753,-0.14860439300537,1.05834019184113,2.28499221801758,3.17874908447266,4.9060754776001,7.42862176895142,8.25633239746094,5.5095477104187,3.44719576835632,-0.4516721367836,-2.59019041061401,-4.72071933746338,-6.89758729934692,-5.88718414306641,-4.59288787841797,-3.895672082901,1.16118776798248,0.53390699625015,-1.64002811908722,-0.74699091911316,2.11647439002991,25.4264221191406,34.4788970947266,30.5093116760254,32.4917106628418,20.400993347168,26.7959060668945,21.3036060333252,10.9295310974121,4.67587614059448,2.06140756607056,-9.51216316223145,-9.25358963012695,-7.40287160873413,-7.99184513092041,-6.38773012161255,3.14598107337952,20.8989868164063,32.9154853820801,36.1883583068848,30.2387676239014,26.2811527252197,11.4371013641357,-1.47961664199829,-6.36618232727051,-6.05014753341675,4.47715711593628,1.9943699836731,1.6711528301239,-4.16112232208252,1.20907187461853,12.703634262085,16.946159362793,16.1752262115479,14.0395984649658,-1.25695586204529,11.7555303573608,15.907075881958,12.8975648880005,6.07648372650146,0.34955343604088,SHAKE
-2.39151859283447,-2.35743021965027,-2.63759469985962,-3.48820853233337,-5.75509119033813,-6.87947797775269,-4.00912284851074,-5.18410968780518,-0.88576740026474,2.69565176963806,2.81975507736206,5.03816843032837,6.79425668716431,5.39130353927612,2.81815719604492,1.4982944726944,1.99364244937897,2.34304928779602,1.4642059803009,-0.78776305913925,-2.71056532859802,-1.96115183830261,-1.22558677196503,0.53529536724091,0.45273739099503,1.74490320682526,1.80722117424011,0.02609897963703,0.16405072808266,0.04154531285167,1.29163312911987,1.88392019271851,3.30764603614807,3.87862777709961,4.85281229019165,4.18222808837891,2.47620725631714,0.48842376470566,-0.29561087489128,-0.86126631498337,-2.4911208152771,-4.35746431350708,-5.02751541137695,-4.85014915466309,-3.20378279685974,-2.60249733924866,-0.50996494293213,-3.50271701812744,2.41574954986572,7.27358484268188,20.6021060943604,22.7353401184082,18.1911449432373,12.349292755127,11.9470663070679,19.2086811065674,18.1576251983643,14.293384552002,5.70298862457275,-1.08217918872833,-8.06845951080322,-8.06127738952637,-8.46110916137695,-4.78840351104736,1.92254400253296,11.7267999649048,25.3593845367432,28.6873245239258,29.5516319274902,28.8190059661865,29.9203395843506,20.7912483215332,6.93121385574341,-1.97761058807373,-3.62482142448425,1.03668928146362,3.04303026199341,2.57616114616394,0.19871874153614,-1.23780226707459,8.66940402984619,12.6174430847168,9.89523601531982,22.6922435760498,15.2199401855469,11.0923366546631,16.3643684387207,11.6094837188721,4.21858358383179,1.44370365142822,SHAKE
-1.62133252620697,-0.71479243040085,-1.59629881381989,-2.34464716911316,-4.45972967147827,-4.95081663131714,-6.57534503936768,-1.86953914165497,-0.06231797114015,3.97556686401367,1.20055305957794,2.01281714439392,5.94524097442627,6.57001876831055,2.57048320770264,0.29614353179932,1.0828412771225,1.00347912311554,0.71585774421692,-0.36858150362968,-2.3670175075531,0.01917476020753,-2.30629754066467,1.03064334392548,0.06285060197115,0.05486112087965,2.30097126960754,0.31265512108803,-1.21599936485291,-0.22956448793411,1.11799502372742,1.35501635074615,2.68872737884521,3.3561155796051,5.92446804046631,7.31357336044312,5.38278150558472,4.66852140426636,0.6657902598381,-2.18166160583496,-4.42244529724121,-7.39453315734863,-6.60623741149902,-5.15747785568237,-4.02350378036499,1.2641384601593,0.27293899655342,-3.5003228187561,1.61608612537384,1.73579621315002,27.2388324737549,20.4608478546143,28.2539749145508,32.7311325073242,20.1879081726074,28.909984588623,21.8638496398926,11.5639944076538,6.02381134033203,3.14358687400818,-7.87931776046753,-7.99423933029175,-8.31745624542236,-7.74284839630127,-4.56334829330444,8.33421611785889,17.1137542724609,31.7423267364502,39.8371238708496,33.8947143554688,28.117504119873,9.86411094665527,-2.82515811920166,-6.49307489395142,-5.00148725509644,3.37103605270386,3.30399823188782,-1.82677590847015,3.51229381561279,-1.89620769023895,3.05021286010742,13.8887643814087,13.3811931610107,20.0274963378906,4.99191045761108,3.22498965263367,17.4992198944092,16.2805709838867,2.75333189964294,-5.77242040634155,SHAKE
-1.22345626354218,-1.6010924577713,-2.48206615447998,-3.26290512084961,-4.67704343795776,-5.94683885574341,-3.52229690551758,-1.43917226791382,0.46658584475517,2.51508927345276,0.16937704384327,2.82241821289063,5.47279596328735,4.4261736869812,2.27966594696045,-0.01651159860194,0.74035876989365,-0.13901701569557,0.15446335077286,-1.00827276706696,-1.11000561714172,-1.70282518863678,-1.99257719516754,0.41278997063637,-0.31318774819374,1.48338079452515,2.24451231956482,0.30306774377823,-0.74355459213257,0.74195671081543,1.95902132987976,3.09193015098572,5.2693305015564,6.27174425125122,7.62249994277954,5.80356073379517,4.62804126739502,2.64292120933533,-0.45273739099503,-2.59285378456116,-5.67679405212402,-8.0842924118042,-7.98149394989014,-6.54178905487061,-4.52577590942383,0.9241618514061,0.9528923034668,-0.22984336316586,9.76355457305908,12.0500173568726,30.2172203063965,21.7489280700684,31.1653232574463,26.6259174346924,24.1407356262207,33.2530670166016,25.8597717285156,17.3651447296143,8.31266784667969,2.3247697353363,-10.2400007247925,-8.66461563110352,-9.19852256774902,-6.39970111846924,2.06380176544189,14.4322481155396,22.9460296630859,31.8740081787109,33.2985572814941,34.0383644104004,26.2811527252197,8.55208873748779,-3.34948825836182,-7.46751499176025,-6.66306352615356,-1.95366859436035,1.67594122886658,2.81558108329773,3.03584766387939,4.70460653305054,8.58560752868652,16.5319633483887,7.03895282745361,15.9884786605835,-2.29843354225159,7.93917274475098,15.9262294769287,10.9606552124023,3.85466480255127,0.82839381694794,SHAKE
-0.23435817658901,-0.46445530653,-1.80242741107941,-4.27437353134155,-6.7037091255188,-6.45710039138794,-3.23361015319824,-3.34652829170227,0.87351685762405,4.12630176544189,2.87940979003906,5.58944272994995,6.18971920013428,2.16035628318787,-0.38456046581268,-0.07137271761894,1.77313268184662,0.84368944168091,2.71003270149231,-0.57151436805725,-1.50841450691223,-0.63543027639389,-1.20268356800079,0.99815279245377,-0.64075654745102,0.96939063072205,0.68443238735199,-2.39631247520447,-1.43118274211884,0.50972902774811,1.72892415523529,3.48607802391052,5.51274347305298,7.53355026245117,7.61877155303955,6.53273439407349,3.34493041038513,2.72760963439941,-0.85807049274445,-2.102299451828,-4.90021657943726,-7.23314571380615,-6.70317649841309,-5.53564691543579,-3.65811824798584,0.82599955797195,-1.79086291790009,-5.46835660934448,10.6733512878418,13.086706161499,38.6280517578125,28.0480728149414,26.6905612945557,27.2867164611816,22.1990375518799,35.2857437133789,19.8670864105225,9.86889934539795,4.40533113479614,0.99359369277954,-9.43076038360596,-10.6446208953857,-11.9566431045532,-11.8010206222534,-1.3215993642807,10.6972932815552,26.2093257904053,30.667329788208,31.3712253570557,28.5771923065186,22.7090034484863,4.38138914108276,-2.54503631591797,-3.10767388343811,-3.98395156860352,2.26730895042419,0.7493851184845,2.10689759254456,-2.24097275733948,8.81784439086914,13.3045787811279,20.9085636138916,7.17542266845703,25.5221900939941,5.30315685272217,11.4131593704224,11.2335939407349,2.58094954490662,-3.52905321121216,2.92571449279785,SHAKE
0.54328489303589,0.11078750342131,-0.81545996665955,-0.68656295537949,-0.58909124135971,-1.7853832244873,-4.12630176544189,-6.18865394592285,-3.6863477230072,-4.72071933746338,-1.41999757289886,-1.46367335319519,3.84666991233826,3.15691113471985,2.80963492393494,-0.85647261142731,-0.21997711062431,-0.00745685119182,0.86659264564514,2.22959852218628,1.58458089828491,2.97208786010742,-0.33555829524994,-1.60482084751129,0.05965480953455,-0.75687038898468,1.16060566902161,-0.07350324839354,-1.0828412771225,0.14700649678707,-2.71056532859802,-0.79415464401245,0.62903863191605,1.48710918426514,3.41790103912354,7.53834390640259,8.08802032470703,8.85980415344238,5.35881280899048,3.81364679336548,2.85970234870911,0.13795174658298,-2.0202739238739,-4.06717967987061,-7.2267541885376,1.06063139438629,-0.04788403213024,0.54108959436417,1.20428347587585,-8.15943908691406,-5.53060579299927,15.4138708114624,27.6290874481201,40.6224212646484,29.3792495727539,26.4224090576172,30.8875961303711,26.1758079528809,35.4557342529297,34.4477729797363,-7.23767185211182,-9.03811168670654,-9.35893440246582,-10.675745010376,-12.1984577178955,-17.963695526123,-17.1855792999268,-1.87226569652557,17.2837429046631,17.6524486541748,22.6515426635742,25.2851638793945,24.6626720428467,23.8199119567871,9.63905620574951,-0.66319388151169,-0.55545479059219,1.43891525268555,3.39976644515991,1.944091796875,0.55545479059219,2.71981310844421,12.9071416854858,3.38540124893188,20.0298919677734,8.37491798400879,13.0843124389648,9.72524738311768,2.48518133163452,10.2088756561279,SHAKE
0.51931643486023,-1.52386081218719,-3.59793066978455,-5.31780004501343,-6.20569801330566,-3.54839587211609,-1.45355331897736,-1.86581075191498,1.67672622203827,2.51402401924133,0.98110854625702,3.77316665649414,5.91541337966919,5.38704252243042,4.05972290039063,0.71745562553406,0.46339005231857,2.23279428482056,0.3179814517498,-0.80587255954742,-0.78403460979462,-1.77526319026947,0.56032907962799,0.84635263681412,0.82930839061737,0.35792887210846,1.21120572090149,-0.82504731416702,-1.06366658210754,-1.42319333553314,2.32547235488892,3.1936628818512,6.68613243103027,7.35245513916016,10.3522396087646,6.73406934738159,6.15456533432007,3.1079089641571,-0.7771103978157,-3.94467425346375,-6.33406257629395,-9.03717136383057,-8.963134765625,-7.81158447265625,-5.87653160095215,-1.77170920372009,-4.09169054031372,-2.11647439002991,10.5416698455811,30.0927219390869,39.1691398620605,34.8523941040039,41.726146697998,38.1420288085938,31.9601993560791,38.2401885986328,30.2267971038818,18.8447608947754,7.76200199127197,1.80283391475677,-11.0995187759399,-11.0707883834839,-16.5678749084473,-15.128960609436,-8.79150867462158,14.4226713180542,18.9357414245605,25.7496395111084,29.8006286621094,25.5652866363525,19.7904720306396,2.14999318122864,-9.23443603515625,-11.2096519470215,-8.93516063690186,0.30406361818314,-2.66714072227478,0.67995327711105,1.49398183822632,12.5839242935181,11.9374895095825,12.4690027236938,9.99100399017334,14.0419931411743,-1.77170920372009,7.80270338058472,17.2095222473145,13.5823059082031,8.45632076263428,3.09091448783875,SHAKE
-1.66181254386902,-0.56245964765549,-0.23755396902561,-1.63571357727051,-4.74735116958618,-7.07388877868652,-6.00649356842041,-3.15957427024841,-3.90579223632813,1.29536151885986,2.27860069274902,3.38807368278503,1.67246520519257,3.49566531181335,6.07520341873169,0.73769563436508,0.8713863492012,0.2466087192297,0.65993130207062,1.4295848608017,-1.36726689338684,-1.41999757289886,-2.51935052871704,0.16937704384327,-0.90227901935577,0.85807049274445,-1.0828412771225,2.07673311233521,0.55180698633194,-2.15503001213074,-0.29241508245468,1.40508377552032,3.04346060752869,4.74149227142334,7.15910959243774,9.46700477600098,9.47659301757813,7.67523050308228,5.20488214492798,2.80910229682922,-0.26312032341957,-2.83253812789917,-7.39133739471436,-8.24141883850098,-7.7050576210022,0.27293899655342,-3.03824186325073,-2.31998133659363,-4.15633392333984,0.25857377052307,14.4777374267578,39.6216430664063,34.1437110900879,42.2863922119141,30.5739555358887,35.3216590881348,37.4668617248535,42.9902839660645,23.0944690704346,18.6173114776611,-9.58877754211426,-9.43794345855713,-10.41956615448,-12.5384340286255,-16.5391445159912,-20.2740993499756,-3.0550012588501,12.0021333694458,16.8886985778809,23.5900688171387,26.2212963104248,27.7487983703613,15.3013429641724,1.4484920501709,-5.49948120117188,3.45483303070068,3.14598107337952,-1.55383694171906,-2.49236392974854,-4.0270471572876,4.42448472976685,22.6419658660889,9.73721790313721,18.7394161224365,18.3874683380127,5.19062948226929,4.91769027709961,6.03578233718872,13.3596458435059,13.9749555587769,SHAKE
