gyro_x_0,gyro_y_0,gyro_z_0,acc_x_0,acc_y_0,acc_z_0,gyro_x_1,gyro_y_1,gyro_z_1,acc_x_1,acc_y_1,acc_z_1,gyro_x_2,gyro_y_2,gyro_z_2,acc_x_2,acc_y_2,acc_z_2,gyro_x_3,gyro_y_3,gyro_z_3,acc_x_3,acc_y_3,acc_z_3,gyro_x_4,gyro_y_4,gyro_z_4,acc_x_4,acc_y_4,acc_z_4,gyro_x_5,gyro_y_5,gyro_z_5,acc_x_5,acc_y_5,acc_z_5,gyro_x_6,gyro_y_6,gyro_z_6,acc_x_6,acc_y_6,acc_z_6,gyro_x_7,gyro_y_7,gyro_z_7,acc_x_7,acc_y_7,acc_z_7,gyro_x_8,gyro_y_8,gyro_z_8,acc_x_8,acc_y_8,acc_z_8,gyro_x_9,gyro_y_9,gyro_z_9,acc_x_9,acc_y_9,acc_z_9,gyro_x_10,gyro_y_10,gyro_z_10,acc_x_10,acc_y_10,acc_z_10,gyro_x_11,gyro_y_11,gyro_z_11,acc_x_11,acc_y_11,acc_z_11,gyro_x_12,gyro_y_12,gyro_z_12,acc_x_12,acc_y_12,acc_z_12,gyro_x_13,gyro_y_13,gyro_z_13,acc_x_13,acc_y_13,acc_z_13,gyro_x_14,gyro_y_14,gyro_z_14,acc_x_14,acc_y_14,acc_z_14,motion_type
-0.01588249579072,1.27854096889496,0.42455133795738,1.85336518287659,2.08366131782532,0.86987209320068,0.34636059403419,-3.19726872444153,-5.6993727684021,0.38179078698158,-0.6023131608963,-0.35124751925468,-0.53450709581375,-0.30176743865013,-0.52412235736847,-0.92355191707611,-1.56434953212738,1.44049656391144,-1.09948110580444,-3.12449932098389,-0.55397844314575,-0.05367978289723,3.87174034118652,5.00794982910156,-0.5295438170433,2.0122663974762,2.1057288646698,1.14789211750031,1.11612713336945,0.59628081321716,-2.65894365310669,-3.68031048774719,-2.8391489982605,-2.53921413421631,-2.52272081375122,-2.10916495323181,-3.26125693321228,-1.10306990146637,15.3310375213623,5.59995460510254,1.2402092218399,-1.93690097332001,-2.78539276123047,-2.24599885940552,-1.5367842912674,5.56202983856201,3.43567943572998,-1.23061966896057,-2.87543630599976,-4.54419469833374,-1.36469495296478,-8.68167495727539,-49.4154243469238,-25.8295459747314,35.8830986022949,19.0057716369629,10.5802764892578,2.90416669845581,0.26336219906807,1.22343707084656,5.33697509765625,6.74715948104858,8.98813247680664,8.32733249664307,5.52372264862061,1.98000478744507,-5.53090524673462,-26.392183303833,-76.6383972167969,-3.56736063957214,-6.58674812316895,0.34237083792686,-0.75417351722717,1.15161097049713,2.54264211654663,15.87415599823,10.4222593307495,10.6497087478638,10.3552217483521,7.34331607818604,7.79582023620605,5.29387903213501,2.33434677124023,29.6818161010742,5.83018064498901,9.89792919158936,6.0504469871521,8.62181949615479,8.25550651550293,9.78540134429932,SWING_LEFT
0.94561940431595,2.00058364868164,2.48072385787964,2.30540537834167,-0.07208210229874,-1.20768058300018,-4.5692720413208,-0.49418997764587,-0.04398229718208,2.71040916442871,-0.02443460933864,0.33353242278099,-0.28283059597015,-0.2981022298336,0.47342056035995,-3.04142165184021,-1.43118095397949,-0.77938771247864,-0.53565245866776,-0.04696026444435,0.09170614182949,1.41667282581329,7.14353466033936,0.54924422502518,0.54435729980469,0.67202812433243,2.00676870346069,0.41302126646042,0.16562083363533,-0.7799985408783,-2.77195382118225,-3.87334370613098,-3.13114261627197,-3.16168570518494,-3.00408244132996,-2.85503149032593,-0.34926220774651,9.23765659332275,18.3419933319092,6.06543350219727,-2.32724380493164,-2.71453237533569,-3.42252516746521,-3.27041983604431,-4.78231143951416,9.60344219207764,3.64397501945496,2.82515811920166,-1.41497325897217,-5.31303262710571,-9.69681644439697,-29.3562049865723,-39.4504585266113,2.88501310348511,38.8471183776855,11.4182472229004,7.61386060714722,2.20027136802673,4.0462007522583,1.9943699836731,4.14675712585449,2.19308876991272,2.28406834602356,6.19649314880371,7.36965227127075,5.77511358261108,-15.0170316696167,-45.6756820678711,-64.5258331298828,-6.00974559783936,-1.37906014919281,0.37588965892792,0.63685762882233,1.76692080497742,1.79565131664276,21.3233585357666,13.5945768356323,5.66019201278687,-4.87220048904419,-3.33272886276245,1.89141929149628,28.1567096710205,15.7664165496826,-0.28969839215279,-8.37521648406982,13.5083856582642,9.43824195861816,11.4230356216431,11.0710878372192,7.04643487930298,SWING_LEFT
-0.21807889640331,0.74159038066864,0.30054569244385,0.20586158335209,0.35430184006691,0.6878342628479,1.36894905567169,-2.78065848350525,-0.20891591906548,-0.51373767852783,1.93644285202026,0.70982539653778,0.56016343832016,0.03481931984425,-0.59131753444672,0.03306308016181,-0.72379893064499,-1.07321393489838,-1.38964211940765,-1.02984249591827,-0.53259813785553,-0.40798163414001,-0.23388503491879,6.2895450592041,0.03795000165701,-3.00415897369385,2.52417159080505,2.08495950698853,2.00737953186035,0.98418027162552,-2.19896221160889,-2.21606636047363,-2.11160850524902,-1.70782649517059,-0.90209525823593,0.08872817456722,-0.10125091671944,-2.40543460845947,13.5888500213623,18.579008102417,7.55960988998413,1.51387679576874,-0.22036963701248,-1.95156168937683,-2.99247622489929,-0.31364041566849,-2.03028297424316,-2.86346530914307,-4.56334829330444,-5.51893424987793,-3.71101260185242,-2.33434677124023,-43.8869132995605,-25.7313842773438,37.7697296142578,39.076961517334,23.1118278503418,18.0648498535156,11.2410764694214,4.53701210021973,2.10210919380188,2.40617275238037,2.77487969398499,3.39976644515991,4.68784713745117,8.09988403320313,7.65216779708862,-25.1998710632324,-75.5514297485352,-36.074634552002,-5.62667322158813,-4.29998636245728,-0.2537853717804,0.54108959436417,0.29688102006912,12.5698585510254,8.35127449035645,8.34648609161377,10.178050994873,9.71836376190186,11.6456966400146,7.53245782852173,22.5037002563477,18.9243679046631,13.9417362213135,3.92409658432007,3.80438661575317,4.87459468841553,5.43034887313843,8.13100814819336,SWING_LEFT
0.41599923372269,0.17531833052635,0.60658919811249,-0.18020524084568,0.43066000938416,0.88819807767868,-0.05131268128753,1.46180057525635,0.51618111133575,-0.25717425346375,1.01709067821503,-0.45692721009254,-0.64996063709259,-0.9822713136673,-0.62858033180237,-0.32490396499634,-0.02069306001067,-1.10620057582855,0.0251218341291,-0.01824959926307,0.02023491077125,1.58771514892578,0.97013038396835,1.32931911945343,2.58586883544922,1.13628566265106,1.29877591133118,0.89193964004517,0.14118622243404,0.04344778880477,-2.83670544624329,-2.82265567779541,-2.73469090461731,-1.65284860134125,-1.54777979850769,-0.71211618185043,6.2993950843811,14.5723428726196,17.861852645874,1.46561849117279,1.18462038040161,-2.56181621551514,-3.05234098434448,-3.94603681564331,-3.90327620506287,0.50038814544678,-0.96725749969482,-2.49475812911987,-5.09994888305664,-7.22121143341064,-18.2683582305908,-26.3754234313965,-11.492467880249,38.2605400085449,13.6999216079712,17.7105083465576,8.09270095825195,7.31458568572998,3.41892004013062,-2.18830037117004,5.14543867111206,6.25395393371582,5.23402404785156,1.16358196735382,-3.2585084438324,-9.62977886199951,-22.2690677642822,-48.2422676086426,-26.8518695831299,-9.35923385620117,-0.5434837937355,0.5243301987648,2.34631776809692,2.00155258178711,2.96402168273926,8.29381370544434,10.0894651412964,9.22037029266357,10.5515460968018,11.2051630020142,8.79899024963379,11.3990936279297,0.94570964574814,26.5932960510254,12.3136787414551,7.28824901580811,8.61463737487793,8.33690929412842,10.5156335830688,10.8771572113037,SWING_LEFT
0.92362827062607,1.63162112236023,1.89856922626495,1.86985850334167,-1.28037357330322,-0.86132001876831,-0.98471474647522,0.60048055648804,-0.70921456813812,1.97859251499176,0.93401294946671,0.97860610485077,0.13255776464939,-0.67195177078247,-0.91568702459335,0.52969652414322,-0.55703276395798,-1.10314631462097,-0.77816593647003,-1.09031808376312,-0.17829629778862,0.98540198802948,-0.12942707538605,2.21629548072815,1.1112402677536,1.13323140144348,1.61153888702393,0.72150820493698,0.02390010282397,-0.48678323626518,-2.2313380241394,-2.35228943824768,-2.61251783370972,-2.48973393440247,-1.98821365833282,-0.45005497336388,2.80646777153015,7.3916220664978,14.023175239563,9.15030288696289,4.22856187820435,-0.04138612002134,-2.37977838516235,-3.35410833358765,-2.58502888679504,1.19949507713318,0.05985504388809,-2.72460150718689,-6.87644672393799,-8.83011531829834,-17.2053318023682,-18.3760967254639,-17.4854526519775,15.6993789672852,26.9356670379639,30.3402214050293,21.5220775604248,11.3512096405029,1.56580793857574,3.1387984752655,8.18607521057129,7.92271280288696,5.31303262710571,3.25611424446106,-2.71023631095886,-7.46302604675293,-14.2865009307861,-24.7641258239746,-27.3402862548828,-15.3570079803467,-8.5595703125,-0.92176765203476,0.59855043888092,-0.08858546614647,1.88423669338226,12.4429655075073,10.4653549194336,7.98256778717041,0.79487496614456,8.8564510345459,9.06235313415527,13.7214689254761,13.9944086074829,23.3440647125244,8.44464874267578,10.1517143249512,6.94587850570679,5.26754283905029,8.26508331298828,10.601824760437,SWING_LEFT
-0.07941248267889,-0.26572638750076,0.13927727937698,0.54672437906265,0.75808376073837,-0.41538837552071,0.22418753802776,-2.67803335189819,0.1600466966629,1.49112200737,0.14172074198723,2.09343528747559,0.33841934800148,-0.25289821624756,-0.69944071769714,0.38858664035797,-0.31635183095932,-0.21067215502262,-0.72685331106186,-0.93149316310883,-0.0622318983078,0.01290452852845,0.09292787313461,2.12283301353455,-0.34139731526375,-1.64131855964661,-0.90889114141464,1.91697144508362,0.15706872940063,0.54435729980469,-2.87091398239136,-2.38161087036133,-1.78601729869843,-1.54411458969116,-1.41216778755188,-1.2111930847168,-2.24599885940552,-3.94298243522644,6.16378307342529,19.9943828582764,11.1124019622803,3.79301500320435,0.58841592073441,0.31719177961349,0.30741792917252,2.27209734916687,-2.60728573799133,-2.57855534553528,-2.03746557235718,-2.16435837745667,-0.54827219247818,0.42616790533066,-23.1549224853516,-47.7227249145508,26.0785427093506,32.9068069458008,22.7790336608887,9.49570274353027,5.81820917129517,6.51971054077148,2.72938990592957,5.6937108039856,6.44788455963135,5.21008205413818,4.04380655288696,3.33751726150513,-0.75896191596985,-18.0624561309814,-47.361198425293,-49.3244438171387,-8.51408004760742,-3.3423056602478,-5.27711963653564,0.09337386488914,-0.67277067899704,10.0224275588989,11.6265430450439,10.3576154708862,10.7478704452515,7.26670122146606,10.2043867111206,2.86346530914307,18.0097827911377,13.4461364746094,0.39264908432961,15.0146369934082,0.74459671974182,5.86130523681641,6.72321748733521,10.1612911224365,SWING_LEFT
-0.64629542827606,-1.52655220031738,0.34086281061172,-0.32925635576248,0.23396138846874,0.06108652427793,-1.87046933174133,1.1966849565506,0.80756384134293,0.80573123693466,3.22170329093933,0.65362578630447,0.11362093687057,-0.74708819389343,-1.93277764320374,-0.42508584260941,0.38125628232956,0.28596130013466,-0.27969992160797,0.62804585695267,1.69767081737518,1.18210065364838,-0.84597200155258,0.34582608938217,0.33727398514748,-1.55213224887848,0.50648367404938,0.35926511883736,0.8589528799057,-0.06711881607771,-3.59417843818665,-2.86602711677551,-3.12625551223755,-3.00469350814819,-2.27043342590332,-1.4256067276001,-0.49342641234398,5.06300401687622,14.0555515289307,16.8801918029785,9.33356285095215,3.63785529136658,0.17547103762627,-3.47750306129456,-4.47076988220215,-0.54827219247818,1.47482824325562,0.27293899655342,-2.12126278877258,-4.17069959640503,-5.64582681655884,-8.49971485137939,-25.9348907470703,-9.02883434295654,23.7630500793457,27.4408435821533,24.6923007965088,20.7343845367432,12.0598936080933,6.22522354125977,3.60087943077087,4.42927312850952,3.50271701812744,1.13485157489777,-0.12210428714752,-2.04704236984253,-4.92756652832031,-20.9307098388672,-47.995662689209,-32.8684997558594,-10.8987054824829,-7.29782629013062,-3.55299520492554,-1.03190088272095,-1.50116443634033,6.96263790130615,15.450382232666,10.0320043563843,12.0958061218262,11.3775453567505,4.065354347229,13.9584951400757,6.72800588607788,13.6113357543945,14.2625589370728,-1.03190088272095,3.23217225074768,5.53329944610596,4.88656568527222,12.8547677993774,SWING_LEFT
0.40072759985924,0.02932153269649,-0.42577308416367,-0.27916541695595,0.79778999090195,1.11543989181519,0.51190507411957,-1.72386169433594,0.68600165843964,1.85519778728485,1.79838728904724,0.54916787147522,0.30482175946236,0.18509216606617,-0.02809980139136,-0.4947244822979,0.24381159245968,0.42523857951164,-0.30230194330215,0.47532951831818,1.13750743865967,0.25297456979752,1.01655614376068,0.52786391973495,0.21754439175129,-2.14711499214172,0.58528524637222,1.14667046070099,-0.05123632401228,1.25051748752594,-1.96988773345947,-1.33580958843231,-1.36146593093872,-0.87582802772522,0.92072665691376,0.99097615480423,-0.49892419576645,0.00259617739357,10.2553586959839,15.9938268661499,6.73005533218384,0.79855358600616,0.46502116322517,-0.46838092803955,-1.53617334365845,0.06943184882402,-0.42137950658798,-2.25773215293884,-6.49337434768677,-2.46602773666382,0.63446342945099,-3.33751726150513,-25.6475868225098,-18.2970886230469,26.796802520752,24.9628448486328,9.33768558502197,9.76624774932861,11.7055511474609,10.3552217483521,3.8379054069519,3.59848523139954,2.50433492660522,-0.05746084079146,1.0486603975296,2.74136090278625,-0.40940847992897,-13.1301012039185,-38.653190612793,-23.9162788391113,-3.27287364006042,-4.82671070098877,-1.90339040756226,-0.39983168244362,2.19548296928406,7.97059679031372,9.47415542602539,9.58189487457275,13.9082164764404,12.0718641281128,7.66174459457397,4.771644115448,13.3647327423096,16.3434200286865,5.69849920272827,1.9943699836731,5.38485908508301,6.0504469871521,8.82772064208984,9.62738418579102,SWING_LEFT
-0.26450464129448,0.38851028680801,0.31031954288483,0.47830748558044,0.11728613078594,-0.65057146549225,-0.09896016865969,1.26082587242126,0.13072516024113,0.96638882160187,0.04581489413977,-0.27122417092323,-0.34452798962593,-0.35979962348938,-0.31826078891754,-1.23814749717712,-1.95224893093109,0.10086912661791,-0.23144157230854,0.30428725481033,-0.06101016700268,-0.50999611616135,2.44659161567688,3.06051135063171,-1.67613792419434,1.48325717449188,0.62071543931961,-0.56680661439896,-0.399429500103,0.31345021724701,-2.99186515808105,-2.89840292930603,-2.30280923843384,-2.59113764762878,-1.95889210700989,-2.03647208213806,-1.27594482898712,4.05141115188599,14.1270227432251,12.1801948547363,0.86147272586823,-0.3272710442543,-1.2967141866684,-0.97417736053467,-1.98332679271698,1.33117616176605,1.21864867210388,1.17315888404846,-2.2864625453949,-3.51947641372681,-4.02225875854492,-9.91468811035156,-20.9067668914795,1.83874690532684,31.8557510375977,10.6832275390625,8.84926891326904,3.51708221435547,5.99777460098267,3.08133769035339,4.94432592391968,4.69263553619385,3.89536619186401,0.11971008777618,-1.53468334674835,-4.87459468841553,-8.81096172332764,-17.0592861175537,-35.4952354431152,-8.07594203948975,-2.13083958625793,0.22505496442318,-0.58179098367691,2.40617275238037,2.6240451335907,11.5618991851807,11.5738706588745,9.67766284942627,10.2474822998047,7.69286918640137,10.0846767425537,14.2769241333008,10.1445322036743,14.1356658935547,7.45105504989624,3.4811692237854,9.25867748260498,10.2115697860718,10.6425256729126,11.0830593109131,SWING_LEFT
-0.26328292489052,-0.46547931432724,-0.45875978469849,-0.98532563447952,0.41783183813095,1.35734260082245,1.25410640239716,0.80267691612244,-1.21501100063324,-0.11667526513338,2.33106184005737,0.33536502718925,1.20035016536713,0.80206608772278,0.28955012559891,-1.09276151657104,-0.29680415987968,0.46677741408348,0.27985262870789,-1.73417007923126,-2.50752544403076,-2.95223546028137,-0.3481168448925,6.47524785995483,-0.34506249427795,-2.19781684875488,0.26458099484444,0.78809255361557,0.1301906555891,-0.71219253540039,-2.93444395065308,-3.75727939605713,-3.84524393081665,-2.92772436141968,-2.76095819473267,-3.62349987030029,-2.73774528503418,1.00013911724091,10.8839387893677,20.0139312744141,6.85039567947388,1.21149849891663,1.28541314601898,1.56763291358948,0.11316278576851,4.88656568527222,4.03662395477295,-0.27054479718208,-0.95528650283813,-0.55545479059219,-4.52743530273438,-8.20044040679932,-25.6140670776367,-36.2709579467773,39.1248474121094,31.9730682373047,11.0854530334473,5.49978065490723,10.8340616226196,9.10784244537354,4.74051952362061,4.70460653305054,4.94911432266235,5.92355442047119,1.72621941566467,-3.54102420806885,-9.25149440765381,-15.7376861572266,-52.1663627624512,-45.0747375488281,-2.02549457550049,-5.11191987991333,-5.94510221481323,-0.39025488495827,-1.99197578430176,9.92905330657959,11.2865657806396,8.04242324829102,13.3719158172607,13.6161241531372,11.8396263122559,11.0854530334473,12.1365079879761,4.30238056182861,13.7980833053589,2.0135235786438,8.71279907226563,6.92433071136475,5.73441219329834,9.41908836364746,SWING_LEFT
-0.15821409225464,0.48624873161316,0.15027284622192,0.23090706765652,0.65362578630447,0.74953162670135,0.129503428936,-1.63039934635162,0.18997909128666,0.23090706765652,2.43002200126648,0.62124997377396,-0.27855455875397,-0.31031954288483,-0.82711154222488,-0.26076310873032,-0.03107776865363,-0.96814507246017,-2.0090594291687,-1.12635910511017,-2.1868212223053,2.84243226051331,3.70619583129883,-0.93699091672897,-1.06710517406464,0.27679830789566,1.23035895824432,0.4655556678772,-1.08359861373901,0.08620835840702,-1.05175721645355,0.03436116874218,-0.37675115466118,-1.87398183345795,-2.85564231872559,-3.70046901702881,-2.07923269271851,6.79602861404419,19.987663269043,15.8404989242554,4.19557523727417,0.79611015319824,-1.34741604328156,-2.36389589309692,-3.2936327457428,-5.49499225616455,-1.52271223068237,2.61446833610535,3.38779544830322,2.93768548965454,-1.06541979312897,-17.5500965118408,-46.4801330566406,10.7382936477661,50.2126960754395,26.2126178741455,17.2699756622314,10.2953662872314,9.888352394104,6.438307762146,5.80863237380981,8.94264221191406,9.50049209594727,5.37528228759766,-0.94092124700546,-7.68568658828735,-15.4312286376953,-39.8622627258301,-65.6870193481445,-7.96820259094238,-4.61362648010254,-4.62799167633057,-0.3447650372982,1.5753847360611,0.64643448591232,11.669638633728,9.47176074981689,9.35923385620117,12.6368961334229,12.6728086471558,15.1463184356689,4.9012303352356,14.4540948867798,6.51013374328613,20.4303207397461,-4.61362648010254,5.80623817443848,6.0696005821228,9.54837608337402,10.2331171035767,SWING_LEFT
0.66156703233719,-0.06352998316288,0.75136423110962,0.57848936319351,-0.06963863968849,0.10995574295521,-0.81122905015945,-0.11545353382826,-0.83077675104141,1.98836636543274,1.00181901454926,1.42820298671722,0.80328780412674,0.3249803185463,-0.06597344577312,-1.27113425731659,-0.46967902779579,-0.71830117702484,-0.49594622850418,-0.24915666878223,0.4136321246624,-0.17340937256813,1.45576822757721,3.33173537254334,-2.36213946342468,-1.9235383272171,-0.55581098794937,0.98173677921295,0.33849570155144,-0.17218764126301,-1.05297899246216,-0.45921793580055,-1.60214686393738,-1.69866347312927,-2.78844714164734,-2.49400997161865,-0.89537572860718,2.18338513374329,12.4819622039795,19.9259662628174,8.55348777770996,1.05633866786957,-0.38163805007935,-1.83061039447784,-2.7768406867981,-0.87627780437469,4.33350515365601,1.56101953983307,2.78924489021301,-1.70467162132263,-7.72878217697144,-10.6568908691406,-25.5087223052979,-26.8973598480225,30.1917819976807,39.0147132873535,12.5147914886475,11.2482585906982,8.21959400177002,6.90038871765137,7.05601167678833,7.36246967315674,3.53384160995483,2.80361008644104,-0.12928688526154,-2.88022470474243,-5.71047019958496,-16.163854598999,-54.6279029846191,-40.0107002258301,3.33512306213379,-4.22097778320313,0.24660277366638,-0.14844051003456,0.72304892539978,8.75589466094971,11.4110641479492,11.1261548995972,9.16290950775146,11.6720323562622,6.50295114517212,11.7558298110962,11.2410764694214,9.96496677398682,-5.23402404785156,6.25155973434448,5.72004699707031,5.45668506622314,7.47739124298096,6.78786087036133,SWING_LEFT
0.51495939493179,0.11362093687057,1.05252087116241,0.15515977144241,-0.18936823308468,-1.32435584068298,-1.33412969112396,-0.26450464129448,-0.82344633340836,1.16308736801147,-0.47464230656624,0.29871311783791,0.79840087890625,-0.10262536257505,0.30665436387062,-0.47028988599777,0.16134478151798,-0.48861584067345,-0.18012888729572,-0.81665045022964,-0.79160499572754,2.56143426895142,2.25172567367554,-0.22350032627583,-3.45986437797546,-1.75432860851288,1.16866159439087,1.46309864521027,0.39286270737648,0.42401683330536,-1.31748366355896,-0.46105054020882,-0.70112055540085,-1.34375083446503,-2.56059432029724,-3.16290760040283,-0.11041389405727,10.3097257614136,18.2100448608398,11.9022512435913,3.08563303947449,0.51327949762344,0.32757648825645,-1.71149170398712,-1.82633435726166,-2.3247697353363,0.63446342945099,0.97683429718018,0.27293899655342,-0.72544312477112,-7.17811584472656,-33.4574737548828,-19.3194122314453,9.8476505279541,36.2111053466797,22.4318733215332,11.9617309570313,13.6472492218018,6.87884092330933,3.77565598487854,5.65540361404419,7.16375064849854,8.25071811676025,4.51307010650635,1.3215993642807,-7.64737939834595,-17.5740394592285,-34.4178466796875,-52.5135231018066,-2.60967993736267,-1.86987149715424,-6.04087018966675,-1.36708915233612,-2.62643933296204,-1.97042798995972,8.35606288909912,11.2841720581055,6.5268931388855,7.57076501846313,8.97376728057861,10.4174709320068,16.135124206543,3.4620156288147,5.86369943618774,2.43250894546509,4.81713390350342,8.44943714141846,5.24120664596558,9.33529186248779,7.0727710723877,SWING_LEFT
0.61086523532867,0.24190263450146,-0.72265356779099,0.02382374368608,-1.64994704723358,-1.2400563955307,1.33962750434875,0.85582220554352,1.13620936870575,-0.10873401165009,0.38851028680801,1.04274702072144,0.06414084881544,-0.57238072156906,-0.47036623954773,1.04771029949188,-0.55031323432922,-1.49532175064087,-0.70364040136337,0.42218422889709,0.42768204212189,2.22484755516052,1.07336664199829,-1.93025779724121,-1.11292016506195,0.04222606122494,1.42766845226288,0.33910655975342,1.01594531536102,-0.14775303006172,-0.84467393159866,-0.47754389047623,-1.58931863307953,-1.93506836891174,-2.1201605796814,-3.35105395317078,0.36850446462631,10.1447916030884,18.6162719726563,11.2455711364746,0.4558582007885,0.26404649019241,-1.71271347999573,-2.01936769485474,-2.50011873245239,-2.32955837249756,2.18830037117004,2.20984816551209,1.50355863571167,2.3319525718689,-5.03051710128784,-32.8637084960938,-22.2762508392334,17.5453090667725,46.1329765319824,8.63379096984863,9.42148303985596,5.45189666748047,4.78361511230469,5.06403589248657,7.0224928855896,7.62583160400391,3.34709405899048,-0.13646949827671,-2.77727389335632,-12.1772089004517,-14.7919769287109,-32.471061706543,-47.4833030700684,4.5226469039917,-6.45506715774536,-1.98958158493042,1.33357036113739,2.48278713226318,2.55461311340332,13.0032091140747,5.41837787628174,12.4214172363281,6.00495719909668,8.2435359954834,16.5038299560547,9.43345355987549,5.08558368682861,-1.99197578430176,11.9066638946533,8.7391357421875,7.33852767944336,7.67132139205933,9.07192993164063,10.8508214950562,SWING_LEFT
-0.11789698898792,-0.98104959726334,-1.11849427223206,-0.33353242278099,0.4673119187355,-1.53632605075836,0.50762903690338,2.082439661026,2.85396242141724,4.56805038452148,-1.11910510063171,-0.03848451003432,-0.39461895823479,-0.00305432616733,-2.12458920478821,0.16806429624557,-0.58146733045578,-1.08665287494659,-2.03166151046753,0.32811099290848,0.19555324316025,-1.07687902450562,0.84795731306076,6.70493316650391,2.23645401000977,0.83757263422012,-2.99071979522705,0.97440642118454,2.16864800453186,2.13138508796692,-1.22768640518188,-1.47753036022186,-1.094517827034,-0.94668841362,-0.58505618572235,0.31230485439301,0.24083362519741,2.37764024734497,11.1820411682129,14.949857711792,11.6835613250732,4.27193355560303,0.77839505672455,-2.80310797691345,-5.93012714385986,0.14844051003456,-2.20266556739807,-1.944091796875,-0.9433154463768,-2.88740730285645,-1.72861361503601,-5.36809968948364,-16.5397434234619,-16.242862701416,8.30578517913818,26.1192436218262,20.2962455749512,27.3594398498535,23.4350452423096,5.84933423995972,6.66336250305176,3.96240377426147,1.36230075359344,-0.64643448591232,-3.56257224082947,-5.93073701858521,-7.57315921783447,-14.7297277450562,-38.3898277282715,-24.4046974182129,-3.86424160003662,-7.45823764801025,-4.96347951889038,2.94007968902588,2.79403328895569,6.26592493057251,7.35049867630005,8.31296730041504,13.6400661468506,4.97066211700439,13.8507556915283,16.3290538787842,15.2085676193237,17.9211978912354,-3.1196448802948,7.5180926322937,0.19153612852097,7.52288103103638,-2.6431987285614,8.02087497711182,SWING_LEFT
0.63407814502716,0.04459316283464,-1.56503677368164,-0.08918632566929,-0.28771752119064,-0.16554448008537,-0.59131753444672,-1.11421823501587,-0.27000242471695,2.12520027160645,3.39091300964355,1.5045610666275,1.07267940044403,1.12460291385651,0.11911872029305,-1.35482275485992,-1.44156563282013,-0.29924762248993,-1.53258454799652,-2.05731773376465,-0.39393171668053,-0.63033658266068,0.59628081321716,5.46121168136597,-0.11049024760723,-5.42013072967529,-0.60040420293808,1.40506637096405,1.01594531536102,0.38614320755005,-1.46470212936401,-1.19408881664276,-0.33399057388306,-0.32666018605232,0.15409076213837,1.58229374885559,-0.30405816435814,-1.16537821292877,10.2657432556152,18.391471862793,9.20955753326416,2.16078305244446,-0.07376197725534,-0.5789475440979,-2.59785723686218,-1.2258312702179,-2.84431171417236,-2.83234071731567,-1.5179238319397,-5.43034887313843,2.97120428085327,5.43992567062378,-17.9547176361084,-29.892505645752,23.4757461547852,29.6028079986572,20.5021476745605,10.8795518875122,15.0433673858643,13.2617826461792,7.4486608505249,6.74955368041992,4.35265874862671,3.80917501449585,2.6934769153595,2.68150591850281,-2.78924489021301,-18.1055526733398,-56.3110237121582,-35.8112716674805,-4.82431650161743,-3.68228220939636,-7.06558847427368,-1.21386027336121,1.6711528301239,7.71441698074341,4.17548799514771,9.9865140914917,10.5850648880005,10.2043867111206,16.1806144714355,9.96496677398682,14.5235271453857,17.2915229797363,-1.42215585708618,1.45328044891357,0.96725749969482,4.61841487884521,2.70544791221619,5.47583866119385,SWING_LEFT
0.65240406990051,-0.80328780412674,-0.32742378115654,0.00122173049022,-1.75257241725922,-0.09407325088978,1.79105687141418,2.73423290252686,-1.67926859855652,-2.66764855384827,1.64200580120087,-1.22356307506561,0.82894414663315,0.83199846744537,0.8655960559845,-0.95409512519836,-0.67859494686127,-1.10375714302063,0.08987355232239,-0.2528218626976,0.75388407707214,0.23831380903721,1.82778513431549,3.05501341819763,-1.30778610706329,-3.06585621833801,1.11734890937805,0.90660035610199,0.52786391973495,0.48571422696114,-0.35598170757294,-0.63881230354309,-1.06763970851898,-1.26372742652893,-1.76158261299133,-1.06763970851898,1.66781485080719,6.39957714080811,15.7103853225708,15.4312200546265,3.83333206176758,-0.14340060949326,-1.14949572086334,-3.0712776184082,-4.66074895858765,0.39504328370094,0.39983168244362,-0.45968672633171,-0.37110126018524,-3.77805018424988,-9.0575647354126,-10.5347871780396,-18.074426651001,-2.15478157997131,37.2238502502441,27.4121131896973,15.8502140045166,12.5746469497681,8.68885707855225,2.10210919380188,6.80462074279785,4.36223554611206,1.98958158493042,-1.03429508209229,-4.48433971405029,-9.51725101470947,-11.5978126525879,-20.8684597015381,-49.6883659362793,-5.02333450317383,-3.10288548469543,-6.87644672393799,-6.22282934188843,-4.85783529281616,-2.2553379535675,7.96341419219971,10.228328704834,12.5387334823608,4.69502973556519,15.0720977783203,13.161226272583,13.5347213745117,2.18351197242737,9.11502552032471,21.3927898406982,-7.11586666107178,11.7366762161255,6.08396577835083,8.40394687652588,7.57315921783447,SWING_LEFT
0.56688296794891,0.55710911750793,0.38240164518356,0.82527893781662,-0.95294976234436,-2.87289929389954,-2.17468023300171,3.06287837028503,1.51311326026917,0.49480083584785,1.24555420875549,-1.37627935409546,0.17898350954056,0.30909782648087,0.0421497002244,-0.55703276395798,-0.65843635797501,-1.14957201480865,-1.30656445026398,-0.84413939714432,-1.78059577941895,-0.52099168300629,3.29019665718079,0.24075727164745,-0.09827294945717,-1.09398329257965,0.96890860795975,0.34093916416168,0.76915568113327,1.02938425540924,-1.37612664699554,-1.53434073925018,-1.50318670272827,-1.76646959781647,-2.8147144317627,-3.92404556274414,-0.7939720749855,10.9132604598999,18.6297092437744,13.5992345809937,2.42284417152405,0.05268712714314,-0.66263610124588,-1.99859833717346,-2.45796895027161,1.50116443634033,-1.06302559375763,-0.90979665517807,1.75494980812073,2.68390011787415,-2.0973207950592,-29.2341003417969,-17.8948612213135,17.7943058013916,40.2884292602539,22.4797592163086,12.0718641281128,10.3552217483521,7.0416464805603,4.50828170776367,7.3792290687561,5.06882429122925,2.57137250900269,2.16435837745667,-2.27688574790955,-10.8364562988281,-15.5964288711548,-35.5024185180664,-47.8184928894043,1.58256733417511,-1.14203417301178,-5.21965885162354,-3.16513466835022,-3.80678081512451,-2.00155258178711,10.1732625961304,8.14058494567871,11.0136270523071,7.24754762649536,4.61841487884521,8.12621974945068,26.9667911529541,4.45800352096558,4.33350515365601,14.3726921081543,-7.15177965164185,11.0136270523071,6.97460889816284,7.9059534072876,7.35049867630005,SWING_LEFT
0.27122417092323,0.6872233748436,0.62369340658188,0.67011916637421,1.72874867916107,1.01831233501434,-1.9767599105835,-5.39210748672485,-1.40987694263458,2.16734981536865,-1.41965079307556,1.92361462116241,0.67622780799866,0.84055060148239,0.16737708449364,-0.03046690486372,-0.08605564385653,-0.52160257101059,-1.1733957529068,-0.96509075164795,-1.13552212715149,-1.60100150108337,2.84243226051331,3.52415800094604,-4.17518758773804,-0.07994698733091,-0.10071640461683,0.03000875562429,1.06970143318176,0.65003699064255,-0.20754146575928,-0.20754146575928,-0.12690725922585,-0.3663664162159,-0.32055154442787,-1.92285108566284,-3.22582674026489,-1.31504011154175,12.692099571228,19.9412384033203,10.8802738189697,2.54562830924988,0.28603765368462,-1.22524297237396,-2.63634157180786,-0.22744916379452,-1.21625447273254,-0.73980832099915,-1.25456166267395,2.34631776809692,2.80361008644104,-0.92895025014877,-35.5215721130371,-24.2514667510986,26.3059921264648,35.4353828430176,19.8628959655762,15.2779998779297,12.3424091339111,8.25790119171143,7.62583160400391,8.11664295196533,8.97376728057861,6.76391887664795,6.1198787689209,4.30716896057129,-5.35134029388428,-19.226037979126,-50.406623840332,-41.5836906433105,-2.81558108329773,-5.19811105728149,-3.95043277740479,-1.85311210155487,-2.90416669845581,9.83568000793457,8.33451557159424,8.62421417236328,11.5355634689331,5.86609363555908,0.99598789215088,0.79248076677322,22.6305923461914,12.4286003112793,-11.3009309768677,24.4525814056396,-2.4588451385498,6.95066690444946,5.68173980712891,7.21642303466797,SWING_LEFT
0.67011916637421,0.81306165456772,0.62552601099014,0.76663589477539,-1.02197754383087,-2.12275671958923,-0.48258355259895,1.89918005466461,1.65544486045837,1.92727982997894,0.56749379634857,1.10994219779968,1.33474051952362,0.76541417837143,0.25289821624756,-0.36338844895363,-0.35056027770042,-0.54176110029221,-0.70852732658386,-0.07383833825588,-0.61995184421539,0.24808764457703,1.36474931240082,0.18761198222637,-2.24363160133362,0.65492391586304,0.7606036067009,0.90415692329407,0.68302369117737,0.03428481146693,-0.60154956579208,-0.8556694984436,-1.10612428188324,-1.56854927539825,-1.6589572429657,-1.79945623874664,1.47966837882996,10.1954936981201,18.5515193939209,10.9419708251953,2.40207481384277,1.13269686698914,1.49616169929504,-0.21303924918175,-0.94668841362,1.14921677112579,0.46208092570305,0.33997663855553,-1.83635270595551,-2.50672912597656,-8.56435871124268,-23.8109340667725,-22.0416202545166,13.8363904953003,36.2709579467773,13.6664028167725,8.5787239074707,12.3926868438721,10.2355117797852,12.3160724639893,6.64660310745239,7.64498519897461,7.8173680305481,6.10551357269287,1.87465989589691,-6.00735139846802,-15.7640228271484,-36.7186737060547,-50.7561798095703,-2.71981310844421,-4.10126733779907,-5.85172843933105,-2.4013843536377,-1.78607451915741,-0.60094463825226,10.6449203491211,8.58590698242188,9.6920280456543,4.24013137817383,4.36941814422607,14.0470809936523,19.4989776611328,7.86764621734619,-1.37906014919281,10.858003616333,4.05098915100098,9.00010299682617,5.55724143981934,5.19332265853882,5.78469038009644,SWING_LEFT
-0.04459316283464,-0.01404990069568,-0.58215457201004,-0.33658674359322,0.25961771607399,0.11362093687057,1.21256756782532,-3.2314772605896,1.43308985233307,-1.99325335025787,3.4648277759552,-1.57175624370575,1.55587375164032,1.60779738426209,1.20951318740845,-0.37560576200485,-0.58146733045578,-0.8111526966095,-1.13552212715149,0.0752127841115,-0.44890961050987,0.45272749662399,3.36227869987488,-1.25036478042603,0.27618744969368,-5.51237154006958,1.6634624004364,0.65125870704651,1.86443710327148,0.70318228006363,-2.0822868347168,-1.92957055568695,-1.94667482376099,-1.34863770008087,-0.7512115240097,0.27076601982117,2.43322896957397,3.05753326416016,10.4202919006348,17.5906276702881,6.23830842971802,0.01298088673502,0.13698652386665,0.45769077539444,-0.39629882574081,-1.1372457742691,-0.89543145895004,-2.57137250900269,-1.76213240623474,-2.04464817047119,-4.31913995742798,-1.5945383310318,-14.2697410583496,-24.8742599487305,31.2236824035645,29.9164485931396,9.11981391906738,5.93552541732788,8.09748935699463,6.95066690444946,3.25132584571838,3.20104765892029,2.11647439002991,0.58897364139557,0.6033388376236,-2.42293214797974,-3.88818359375,-10.4390182495117,-46.5615386962891,-19.6522064208984,3.14119267463684,-6.10551357269287,-8.61224269866943,-2.42772054672241,-0.21068975329399,9.06474685668945,6.71364068984985,7.89158821105957,11.3464212417603,10.1684741973877,13.7166805267334,0.3208230137825,22.6688995361328,1.7597382068634,22.8245239257813,-8.70561695098877,13.8890628814697,7.24754762649536,6.19170475006104,5.46865606307983,SWING_LEFT
-0.7183775305748,0.69821900129318,-0.22602014243603,-0.43676865100861,-0.4978551864624,-1.03908181190491,-1.85947382450104,1.36589467525482,3.47643399238586,-0.97555178403854,-0.12889257073402,0.66034531593323,0.09346238523722,-0.33597588539124,0.0250454749912,-1.8923841714859,-0.79710280895233,0.39103010296822,-0.37132972478867,0.22243130207062,0.18516853451729,2.10084199905396,2.16437196731567,0.02390010282397,2.88458204269409,1.85955011844635,-1.09764850139618,-0.07933612167835,0.28901562094688,-0.94981908798218,-0.05849034711719,-0.55817812681198,-0.35842517018318,-1.51845824718475,-2.3724479675293,-2.31441569328308,1.04167795181274,8.44047737121582,18.1233024597168,6.26701927185059,1.275639295578,-0.03527746722102,-1.002277135849,-2.15436911582947,-2.00776124000549,3.83072280883789,1.68551802635193,4.02225875854492,1.93212080001831,-1.31681096553802,-9.36641597747803,-23.5667266845703,-33.3138198852539,15.5078430175781,14.7177562713623,11.3344497680664,8.68167495727539,9.41669464111328,4.23773717880249,7.08713626861572,0.29209262132645,0.21068975329399,1.91775560379028,2.01112937927246,0.21547815203667,-2.58573794364929,-9.90511131286621,-28.4871101379395,-49.305290222168,-10.601824760437,-3.2968156337738,-1.43173265457153,-0.47405192255974,-1.35990655422211,2.25294375419617,14.3726921081543,8.42788887023926,7.50133323669434,9.25628280639648,8.32972717285156,7.42471885681152,18.4144039154053,17.6315002441406,9.86441040039063,5.88764142990112,8.21241092681885,5.52372264862061,7.37204647064209,8.99052619934082,8.80138492584229,SWING_LEFT
-1.01770150661469,-1.54671084880829,0.01282817032188,0.46425759792328,-0.24923302233219,-0.55466562509537,-1.62612330913544,-0.22418753802776,1.16308736801147,0.49602258205414,1.1856894493103,-0.34758231043816,1.03847086429596,0.04886921867728,-0.25350907444954,0.84307038784027,1.08497297763824,1.11795973777771,0.22976168990135,-0.35361462831497,-0.02252565510571,0.64576089382172,-0.16363552212715,-1.09398329257965,1.12895536422729,-2.80684947967529,-0.53076553344727,0.30917418003082,-1.4501177072525,-0.22777637839317,-1.51357138156891,-1.90147078037262,-1.21791255474091,-1.14705216884613,-0.49709159135818,0.3086396753788,1.02274107933044,4.00865030288696,18.8557300567627,15.9327402114868,2.65619468688965,0.27443119883537,0.71669763326645,-0.60460388660431,-0.92042118310928,1.80043971538544,-1.58256733417511,-1.03429508209229,-2.39899015426636,-3.72298359870911,-3.67988801002502,-8.00890350341797,-34.913444519043,-1.64721071720123,48.2614212036133,20.9857769012451,8.74631786346436,9.79737281799316,6.91475391387939,1.30483996868134,-1.60650932788849,-1.90817880630493,-0.80205756425858,0.27293899655342,0.38786068558693,-0.67516487836838,-6.07438898086548,-18.6825542449951,-67.166633605957,1.87465989589691,0.62967503070831,-3.5960910320282,-1.23301386833191,-0.40222588181496,-1.46046304702759,5.56921243667603,12.0910177230835,8.75110626220703,6.27310752868652,7.46542024612427,7.32416248321533,10.1588973999023,14.8781681060791,5.26275444030762,17.1167469024658,-2.74136090278625,13.7286520004272,4.03183555603027,7.48457384109497,8.25550651550293,SWING_LEFT
-0.49663344025612,-0.88270026445389,-1.34146010875702,-0.78068578243256,0.47830748558044,-0.0299323964864,0.25350907444954,0.87598073482513,-2.63282918930054,0.13072516024113,-1.65666651725769,1.28648221492767,0.80756384134293,0.32070425152779,0.50885075330734,-0.10682506114244,-0.87162834405899,-1.02434468269348,-0.09766208380461,0.0037415495608,0.23098342120647,0.45150578022003,4.15212726593018,4.71534538269043,-6.73776721954346,-1.7201201915741,-0.33834299445152,0.76487964391708,-0.05306891724467,0.43989932537079,-2.06579351425171,-2.01325917243958,-1.58809697628021,-0.88071495294571,-0.61926466226578,-0.55939984321594,0.44364088773727,5.86751317977905,17.0286331176758,11.4361610412598,4.26338148117065,1.06672346591949,0.11927144229412,-1.10856771469116,-1.2044734954834,1.20188927650452,-0.49320554733276,-1.38145434856415,-1.19710087776184,0.25857377052307,-3.26569104194641,-9.33529186248779,-29.8757457733154,11.0806646347046,32.0448951721191,21.7375564575195,13.048698425293,11.0710878372192,5.48302125930786,3.44765043258667,0.11492168158293,-1.82438170909882,-2.31279873847961,-3.17231726646423,-3.64636921882629,-5.35852289199829,-7.15896224975586,-19.0129547119141,-43.3554000854492,-6.64420890808105,0.79487496614456,-2.32955837249756,-1.16837048530579,-2.47560453414917,-0.80205756425858,7.74075317382813,6.86208152770996,11.217134475708,13.3431854248047,9.967360496521,8.97376728057861,15.3139123916626,5.38246488571167,16.5110130310059,-8.05918216705322,19.4606704711914,5.72244119644165,6.99615669250488,6.7543420791626,8.48056125640869,SWING_LEFT
0.1472185254097,-0.62430429458618,-0.92607170343399,-0.88575458526611,-0.24984388053417,-0.43066000938416,0.13683381676674,-0.57482421398163,-1.7379115819931,-1.78983521461487,1.16553092002869,-1.89734745025635,0.80267691612244,0.54244834184647,0.13927727937698,-1.42873740196228,-2.55822730064392,-1.85328876972198,1.55045235157013,1.20775699615479,0.79175770282745,1.14667046070099,2.49484992027283,1.7367662191391,-2.843501329422,-4.61623239517212,1.54617631435394,-0.13736832141876,0.6683629155159,-0.66087985038757,0.5816964507103,-2.95826768875122,-3.53797888755798,-2.82754254341125,-2.5612051486969,-1.17759549617767,1.05450618267059,3.43565893173218,13.7641687393188,19.7335433959961,6.01656436920166,-0.2429716438055,-0.79702645540237,-1.46653473377228,-1.99004626274109,10.1684741973877,7.37683486938477,2.23857855796814,1.54904854297638,-4.75967311859131,-8.80617332458496,-8.41591835021973,-20.7726917266846,-21.4670104980469,41.9093017578125,39.1080894470215,15.1487131118774,10.5276041030884,7.24275922775269,4.35026454925537,11.6600618362427,-0.9911994934082,-9.21797561645508,-8.62181949615479,-5.9115834236145,-3.66791701316834,-3.22259545326233,-13.1301012039185,-48.1991691589355,-23.3967380523682,2.34631776809692,-4.73812532424927,-3.44765043258667,-2.59052634239197,-2.01591777801514,5.55724143981934,9.32810878753662,13.5778169631958,11.9473657608032,7.35289287567139,9.58189487457275,6.83813953399658,7.93468379974365,3.26808524131775,15.0673093795776,-3.48595762252808,12.9864492416382,10.7047748565674,6.88123512268066,10.4366245269775,SWING_LEFT
0.60597831010818,-0.14233160018921,0.15027284622192,0.60903263092041,-1.83381748199463,-1.64078402519226,-1.09039449691772,-0.12583823502064,1.04396867752075,-0.52962017059326,-2.15635442733765,1.15942227840424,-0.13683381676674,0.12705996632576,-0.20830504596233,-0.90522593259811,-0.85085892677307,-0.92110842466354,-0.46967902779579,0.11247556656599,0.05077817291021,-0.60590195655823,-1.32977724075317,3.99635672569275,-0.58513253927231,-1.54113662242889,-2.26501202583313,1.25662612915039,0.61155247688293,-0.45379650592804,-1.31320750713348,-2.2124011516571,-2.76523423194885,-2.80921649932861,-3.40542101860046,-2.62778949737549,-0.69317930936813,1.61161518096924,8.64939403533936,18.8080825805664,10.0598812103271,1.99035167694092,0.32207870483398,0.34040465950966,-0.69256848096848,2.35350036621094,2.28406834602356,1.08217918872833,0.98401689529419,-0.07900865375996,-5.15980386734009,-6.48379755020142,-13.0917940139771,-30.4048652648926,23.035213470459,31.7839260101318,17.1550540924072,8.39197635650635,7.98496198654175,4.51785850524902,7.8556752204895,4.82671070098877,1.38384854793549,-0.17956513166428,-3.51229381561279,-6.84771633148193,-6.76870727539063,-9.32810878753662,-31.1757984161377,-33.8620910644531,4.60883808135986,1.48201084136963,-1.06063139438629,0.01675941236317,-1.72382521629334,8.023268699646,10.4797201156616,11.1716442108154,2.75093770027161,7.86285781860352,10.0128507614136,9.30416679382324,14.5091619491577,5.07361268997192,5.01854610443115,19.9083862304688,3.29442143440247,8.2243824005127,6.64181470870972,11.4469776153564,SWING_LEFT
-0.22235494852066,-1.14781582355499,-0.90713489055634,-0.04948008432984,-0.24801129102707,-0.6884451508522,-1.76173532009125,0.12278391420841,0.15271630883217,-1.79288947582245,2.75011539459229,-0.77946406602859,0.64751714468002,0.59925878047943,0.20647245645523,-0.53320902585983,0.67935848236084,0.19127717614174,0.24014639854431,0.28657215833664,0.18089246749878,-0.89178687334061,3.92732906341553,-1.48432624340057,-2.47637128829956,-2.75614762306213,0.51503574848175,-1.60039055347443,-0.2613739669323,-0.00847575534135,-1.32725751399994,-1.26311659812927,-2.13359951972961,-2.74874091148376,-3.66442799568176,-3.80737042427063,-2.70353674888611,7.23279714584351,18.8380146026611,16.6841049194336,4.39654970169067,-0.06765332818031,-0.11285735666752,-1.38040268421173,-1.98393762111664,2.21463656425476,3.88818359375,3.9384617805481,0.76375031471252,-2.49954652786255,-4.7907977104187,-24.4932823181152,-32.73681640625,2.94965648651123,44.1362113952637,27.4145069122314,7.21881723403931,7.49654483795166,6.75194787979126,4.98023891448975,6.15100336074829,6.9722146987915,7.01052188873291,4.60644388198853,-0.19393034279346,-6.09593677520752,-13.1540431976318,-30.7783603668213,-67.1738204956055,-10.3695869445801,-0.18195933103561,-7.85806941986084,-5.61470222473145,-0.28012159466743,0.76135611534119,7.39359426498413,8.96179580688477,9.71357536315918,11.1285486221313,10.0176391601563,5.60512542724609,18.0840034484863,8.80138492584229,2.46363353729248,22.0966854095459,-10.9441947937012,7.60188961029053,10.9154644012451,6.73758268356323,7.3409218788147,SWING_LEFT
-0.99021255970001,-0.24740041792393,0.14844025671482,0.12522737681866,-0.01466076634824,-1.1545352935791,-0.49907690286636,-1.5222761631012,-0.58826321363449,0.71715581417084,1.67987942695618,-0.04581489413977,1.11910510063171,0.91080009937286,-0.19425514340401,0.13813190162182,-0.4519639313221,-0.8966737985611,0.01107193250209,0.07826711237431,-0.76045089960098,0.62132632732391,2.96032929420471,1.30610620975494,-2.02372026443481,-6.57894229888916,-0.3175735771656,0.51014882326126,-0.03168863430619,-0.53870677947998,-2.26554656028748,-2.75546050071716,-2.1012237071991,-1.87764704227448,-1.34924864768982,-0.85017168521881,-0.68584895133972,2.33426880836487,15.1679363250732,19.1312313079834,9.33111953735352,2.13757014274597,0.94760471582413,0.6189591884613,-2.02975249290466,0.98880529403687,-1.9249382019043,-0.69192427396774,-1.97761058807373,-3.59130263328552,-2.17393517494202,-6.99615669250488,-35.0475196838379,-21.4646167755127,29.6028079986572,29.2556476593018,16.2261028289795,10.2786073684692,13.1372842788696,7.46063184738159,4.96826791763306,1.0989385843277,0.58418524265289,-0.37588965892792,-0.88824880123138,-1.84114110469818,-4.28801536560059,-18.5724220275879,-61.4202537536621,-33.656192779541,-1.08217918872833,-3.84508800506592,-6.05284118652344,-0.93613284826279,-1.15161097049713,10.036792755127,11.2841720581055,10.5946416854858,9.75906562805176,5.36091709136963,11.379940032959,8.43507194519043,12.0622873306274,13.2976951599121,1.35511815547943,0.13646949827671,7.40077686309814,4.49391651153564,3.68946480751038,8.07115364074707,SWING_LEFT
-0.23823744058609,-0.72448617219925,0.00122173049022,-0.94500851631165,-1.01159286499023,0.49968776106834,-0.92301738262177,-2.79776287078857,-2.58273816108704,-1.5534303188324,2.64321398735046,0.59864795207977,-0.29688051342964,0.28344148397446,-0.59070670604706,0.38186714053154,0.13507758080959,-0.49900054931641,-0.49105930328369,0.05566509440541,0.35621079802513,-1.29434704780579,-0.75984001159668,5.54306745529175,1.20836782455444,-6.10857629776001,-3.7891206741333,-1.43484604358673,0.25053110718727,-0.41592288017273,-1.02060306072235,-1.71454608440399,-2.81654691696167,-2.92222666740417,-1.96011388301849,-1.19103455543518,-2.113440990448,-2.84342503547668,8.56631565093994,20.0139312744141,12.0720720291138,4.70809125900269,1.8223637342453,0.87369000911713,-0.27840182185173,3.49314022064209,4.07493114471436,2.09971499443054,-1.78368031978607,-2.58573794364929,0.11492168158293,1.05105459690094,-19.3936328887939,-49.9517250061035,14.9308404922485,32.9642677307129,20.5907325744629,13.2378406524658,11.2243165969849,11.5618991851807,8.24832439422607,7.00573348999023,3.82593441009521,0.70868372917175,-0.1723825186491,0.5434837937355,-1.66397023200989,-14.5809879302979,-54.4339714050293,-47.8639831542969,-4.88177728652954,-2.66714072227478,-4.95150852203369,-4.0964789390564,-0.66079968214035,6.95066690444946,9.29937839508057,7.49654483795166,7.96341419219971,12.6273193359375,5.86609363555908,5.54527044296265,15.352219581604,12.1939687728882,12.9672956466675,-4.79319190979004,-3.26090264320374,5.90918922424316,2.30322194099426,3.59848523139954,SWING_LEFT
0.11423180252314,0.31398472189903,0.03848451003432,-0.31887164711952,-1.46852004528046,0.13866640627384,-1.38422060012817,-2.22721457481384,-0.34208452701569,-0.52717667818069,1.03236222267151,0.51679199934006,0.42699480056763,-0.27183502912521,-0.51923543214798,-0.3261256814003,-0.92171931266785,0.06421720981598,0.46799913048744,0.57612228393555,1.09719038009644,1.17354846000671,2.71598315238953,-1.06649434566498,-2.22041869163513,0.03123048506677,0.59017217159271,0.25419628620148,-0.46357035636902,-0.17524196207523,-0.79275035858154,-1.24967753887177,-1.65956819057465,-2.36389589309692,-3.06822347640991,-2.38038921356201,-2.25210738182068,-0.76526141166687,16.0995063781738,8.97498512268066,1.16812705993652,0.3733913898468,-0.03711006417871,-0.90820389986038,-1.44332182407379,1.29765737056732,1.83156430721283,2.58813214302063,2.00873517990112,-1.39581954479218,-2.85388851165771,-4.09887313842773,-51.5055618286133,-11.9306058883667,37.0011901855469,14.3966341018677,10.065523147583,9.12699604034424,7.68808078765869,4.88177728652954,7.71202278137207,7.47260284423828,6.21564674377441,4.29998636245728,0.26575639843941,-2.20745396614075,-9.70639324188232,-22.0655612945557,-57.7667007446289,1.93212080001831,-4.73573112487793,-4.78122091293335,-1.30244576931,-0.83318221569061,-1.23301386833191,10.0128507614136,8.87321090698242,8.2243824005127,5.6625862121582,12.0814409255981,7.39598846435547,5.43753147125244,14.2817125320435,2.92810869216919,12.9816608428955,1.71424841880798,7.07755947113037,4.67827033996582,7.27627801895142,8.8971529006958,SWING_LEFT
0.25289821624756,0.20280726253986,0.31398472189903,-0.07024950534105,0.00855211354792,0.47464230656624,-2.58823609352112,2.04823112487793,-0.31642818450928,-2.06961154937744,2.90222072601318,1.5778648853302,1.77089834213257,1.52655220031738,0.44959682226181,-0.10804679244757,-0.06650795042515,-0.547258913517,-1.02923154830933,-2.21369934082031,-0.88934344053268,2.36656832695007,-1.93636643886566,1.46859645843506,-1.20393908023834,-2.9125292301178,-1.61871659755707,-0.65232771635056,1.22486114501953,0.89132875204086,-1.02243566513062,-0.84589564800262,-1.09696125984192,-1.51540398597717,-2.41154336929321,-4.19404792785645,-2.4591908454895,3.52728867530823,15.103796005249,20.0139312744141,6.85467147827148,3.55722093582153,2.11557912826538,0.43020185828209,-1.5923730134964,0.65361708402634,2.4588451385498,2.22660756111145,2.36068296432495,5.53329944610596,4.64235687255859,-21.1653423309326,-30.7089290618896,-21.0671787261963,47.0762901306152,22.7000255584717,14.1739730834961,14.9883012771606,14.3248081207275,9.00010299682617,5.43753147125244,6.58674812316895,6.27071332931519,5.13346767425537,3.01429986953735,-1.09415018558502,-11.9042701721191,-17.0544967651367,-65.1100158691406,-35.3372192382813,-7.1613564491272,-8.03284645080566,-5.56921243667603,-0.81163436174393,-0.48602294921875,9.90511131286621,9.19882202148438,7.81976222991943,7.77187776565552,13.4557132720947,7.63540840148926,16.2261028289795,6.80462074279785,-2.59052634239197,25.1902942657471,1.26653265953064,5.42795467376709,6.883629322052,3.69185900688171,4.86501789093018,SWING_LEFT
-0.14477506279945,0.73487091064453,-1.25044119358063,-0.52900928258896,0.76297068595886,-1.63162112236023,0.45326200127602,0.3805690407753,-0.70677107572556,1.09100532531738,2.86251449584961,1.19424152374268,0.94439768791199,-0.51984632015228,-1.21623265743256,-1.9901225566864,-1.40369200706482,0.44478625059128,0.3189480304718,-0.97547543048859,1.00861489772797,1.01044750213623,0.03428481146693,1.3323734998703,-0.08972083032131,-1.69202041625977,-1.87772345542908,1.77708339691162,-0.23938281834126,-0.57413697242737,-3.2490394115448,-2.78783631324768,-2.96071124076843,-3.28996753692627,-3.74506211280823,-2.92161583900452,-0.65897089242935,4.27620935440063,14.6798553466797,20.0139312744141,9.37632369995117,3.88097953796387,-0.82879143953323,-2.17819285392761,-2.05540871620178,-0.64643448591232,0.89782565832138,-0.90261405706406,-0.8451532125473,-2.827552318573,-6.02650499343872,-17.0473155975342,-23.7726268768311,-25.0538234710693,41.14794921875,33.1031303405762,20.7104434967041,14.3176250457764,6.68012189865112,7.09431886672974,3.99352836608887,7.06319427490234,5.23162984848022,2.92810869216919,-2.0135235786438,-6.60350751876831,-11.9976444244385,-22.7335433959961,-70.2719116210938,-59.9142990112305,-9.60344219207764,-11.7989253997803,1.55383694171906,0.00478840339929,2.78685069084167,11.5930242538452,5.58597183227539,10.7358999252319,13.6089420318604,4.67827033996582,11.8037137985229,10.9465894699097,9.76385402679443,12.4381771087646,12.0598936080933,-5.71525859832764,4.46997451782227,0.91458505392075,6.93151330947876,8.27466011047363,SWING_LEFT
-0.43860125541687,-0.36346483230591,0.1814269721508,0.23762658238411,-0.46181413531303,-0.48258355259895,-0.50640726089478,0.28466320037842,0.0745255574584,5.14776134490967,0.57787853479385,1.01831233501434,0.90774577856064,-0.22968533635139,-0.78068578243256,-0.90705853700638,0.80886197090149,-0.22411118447781,-0.71341425180435,0.56207239627838,0.37575846910477,1.24685227870941,0.81008368730545,2.15154385566711,-2.84166884422302,-3.11777997016907,-0.71769028902054,0.91331988573074,1.26456737518311,-0.23144157230854,-1.21180391311646,0.10399980843067,0.00015271631128,0.11621711403131,-0.4531092941761,-1.26067316532135,-1.63757705688477,6.57611703872681,18.8764991760254,11.5076322555542,4.09539318084717,2.04838395118713,0.2261728644371,-1.35718989372253,-1.65040516853333,0.06224924325943,1.08936178684235,-0.02633621916175,2.52109432220459,2.98796367645264,1.19231247901917,-14.8614082336426,-38.8519096374512,14.1979150772095,29.4495792388916,18.354549407959,16.1854019165039,13.8842744827271,7.1996636390686,6.93630170822144,-0.53151279687881,-0.54108959436417,-0.31842881441116,0.85233581066132,-0.07900865375996,-2.08534979820251,-8.88039302825928,-30.7855434417725,-45.7570838928223,-5.46147346496582,-5.87806463241577,-5.27233123779297,-0.16759411990643,0.27054479718208,0.50517654418945,13.077428817749,10.0870714187622,9.68484497070313,8.57154178619385,9.59865379333496,9.64174938201904,12.3855047225952,6.46224975585938,25.3914070129395,-10.5012683868408,4.62559747695923,6.48619174957275,3.20583605766296,4.57531929016113,9.51964569091797,SWING_LEFT
0.69333207607269,-0.09590584039688,0.40439277887344,0.22418753802776,-0.25595253705978,-0.62063908576965,-1.26693451404572,0.75564032793045,-0.35674530267715,3.03844380378723,0.9828822016716,0.62369340658188,1.09650313854218,0.37079519033432,-0.33292156457901,-0.29802587628365,0.04711298272014,-0.19051359593868,-0.2613739669323,0.08071056753397,0.65064781904221,1.369025349617,-1.87283647060394,-0.04207334294915,-1.90521228313446,-1.4678328037262,-2.33220720291138,1.09841203689575,1.56389141082764,0.60177862644196,-1.95095086097717,-2.06823706626892,-2.35473275184631,-2.09389328956604,-1.89963817596436,-1.13361322879791,0.98242402076721,0.92439180612564,20.0139312744141,8.11794090270996,2.31838631629944,1.35138666629791,0.6067419052124,-0.67546427249908,-1.39750695228577,1.64721071720123,0.61052143573761,-0.82599955797195,-1.82917010784149,-3.39976644515991,-7.73835897445679,-2.77009129524231,-21.3544826507568,37.3387718200684,28.1614990234375,11.8444147109985,10.9513778686523,11.3512096405029,9.65611457824707,8.21001720428467,4.14196872711182,3.665522813797,1.92972660064697,0.93373864889145,-1.07739078998566,-3.80917501449585,-3.54102420806885,-10.3169145584106,-34.5351638793945,-1.57777893543243,-5.11191987991333,-4.13239192962646,0.28730419278145,1.30483996868134,0.84754741191864,6.85968732833862,10.0415811538696,8.8947582244873,8.5787239074707,7.85328102111816,8.07354736328125,9.77343082427979,12.9625072479248,17.3729267120361,-1.10133278369904,-0.67755907773972,6.62026691436768,3.46919822692871,3.82114601135254,6.60590171813965,SWING_LEFT
0.82527893781662,0.33964106440544,-0.26694810390472,-0.53084188699722,-0.4459316432476,-0.71532320976257,-0.71959924697876,-0.65973448753357,3.69268035888672,4.53323078155518,-0.08368854224682,0.13133603334427,0.20158553123474,-0.32375857234001,-1.06351637840271,-1.26319301128387,-0.03168863430619,0.48999029397964,0.04955644160509,0.25969409942627,0.40874519944191,-0.33773213624954,-1.6700291633606,-0.79954624176025,-2.66818308830261,-1.39941596984863,0.48510336875916,0.97929334640503,0.74655365943909,0.31283935904503,-1.38162446022034,-1.48486065864563,-2.45980167388916,-2.49400997161865,-2.16597533226013,-1.49219107627869,-1.09024178981781,0.57253342866898,16.8404865264893,7.18698215484619,2.29028654098511,0.36239579319954,-0.66080349683762,-1.30709886550903,-2.593581199646,1.08457338809967,3.36385345458984,0.62488663196564,-1.6448165178299,-4.40054273605347,-3.12203907966614,-5.19811105728149,-17.5189723968506,35.8352127075195,23.9833164215088,15.2420864105225,12.0982007980347,9.75906562805176,10.1110134124756,8.96419048309326,4.84347009658813,4.63517427444458,2.81079268455505,0.48602294921875,-0.0526724383235,-1.33596456050873,-3.1890766620636,-10.9010992050171,-17.3561668395996,-1.71664261817932,-3.24893164634705,-4.05577754974365,-1.69988322257996,0.94570964574814,1.07020819187164,9.56752967834473,8.33690929412842,8.28663158416748,9.20839881896973,9.69681644439697,9.28980159759521,10.1876277923584,13.8842744827271,9.38556957244873,-12.0191917419434,4.89374828338623,6.77588987350464,4.0270471572876,4.72854852676392,6.68251609802246,SWING_LEFT
1.14659404754639,1.05496430397034,-0.04276056587696,-0.44104471802711,-0.17287486791611,-1.48684597015381,-2.45201301574707,-5.35301208496094,0.46120324730873,3.79041886329651,-1.41048789024353,-0.01038470957428,0.20891591906548,-0.36896261572838,-0.51251596212387,-1.26258206367493,-0.80870920419693,0.19616410136223,0.00985020212829,-0.88201308250427,0.32261320948601,1.13017702102661,1.99882745742798,-2.69445013999939,-2.08419585227966,-0.83436554670334,-2.10801959037781,0.5211443901062,-0.48922669887543,-0.79099410772324,-2.50805997848511,-2.97598266601563,-2.96620893478394,-2.73163676261902,-2.51966643333435,-1.17698466777802,1.00197172164917,8.69520854949951,20.0139312744141,10.0556058883667,-0.21303924918175,0.20540343225002,-0.24969117343426,-1.11589813232422,-0.66019260883331,2.94486808776855,1.43891525268555,-0.18914192914963,-0.18435353040695,-2.48757553100586,-5.29866743087769,-12.3471975326538,-43.7456550598145,30.2300891876221,43.408073425293,7.89398241043091,7.96580839157104,7.52288103103638,3.24414324760437,2.21942496299744,7.45584344863892,5.12389087677002,3.19865345954895,2.34631776809692,0.72065472602844,-0.67516487836838,-2.88022470474243,-32.5716171264648,-47.2726135253906,12.7637882232666,-1.48440504074097,-0.98401689529419,1.31681096553802,0.17717093229294,1.17076468467712,9.12220764160156,6.6657567024231,6.55801773071289,8.1046724319458,5.58118343353271,7.15656805038452,2.99754047393799,15.5676975250244,18.3928565979004,-7.64977359771729,7.88679981231689,9.09347724914551,5.40640687942505,7.38880586624146,9.13657283782959,SWING_LEFT
-0.34513887763023,-0.05131268128753,0.09407325088978,-0.08185594528913,-0.93462383747101,-0.72021013498306,0.51740288734436,-0.22479841113091,1.08428585529327,1.01709067821503,-1.41842913627625,0.15760323405266,-0.21074850857258,-0.6750060915947,-0.41294491291046,-0.29802587628365,-0.60834544897079,-0.45440739393234,-0.2222785949707,0.15401439368725,-0.58146733045578,-0.89606297016144,1.26945436000824,-3.21612906455994,-3.35907173156738,-0.2955824136734,-0.95165169239044,-0.47334420681,-0.73601627349854,-0.37988182902336,-2.01448082923889,-2.9258918762207,-3.91671514511108,-3.78354668617249,-3.3302845954895,-3.17756819725037,-1.60825550556183,1.02518463134766,19.4519348144531,5.63477373123169,0.0258090570569,0.13332134485245,-0.33582317829132,-1.33580958843231,-1.32175970077515,4.42209053039551,4.38138914108276,3.17471146583557,-1.08457338809967,-1.87705409526825,-4.90362453460693,-6.55801773071289,-25.3794364929199,36.9916114807129,31.5181694030762,9.36641597747803,6.64899730682373,7.31458568572998,3.99113416671753,4.46758031845093,3.75650238990784,3.37821865081787,3.87621259689331,3.85945320129395,4.8410758972168,3.47398662567139,1.95845699310303,-5.67455720901489,-22.4941234588623,8.50689792633057,-3.73974299430847,-1.82438170909882,1.06302559375763,-0.40701428055763,0.07182604819536,7.92989540100098,11.1070013046265,9.02643966674805,6.36408758163452,7.65935039520264,11.7103395462036,10.1732625961304,6.00495719909668,4.66629934310913,-2.66953492164612,8.84926891326904,8.54999351501465,6.6849102973938,8.8779993057251,8.59308910369873,SWING_LEFT
0.81611597537994,0.32009339332581,0.15271630883217,0.5589417219162,0.82405722141266,-0.33231070637703,-1.73302471637726,-1.56809103488922,-1.62978851795197,-0.61208695173264,0.16065755486488,0.48624873161316,0.02932153269649,-0.46975538134575,-0.90591317415237,-0.72624242305756,0.10392344743013,-0.06528622657061,-0.06039930135012,-0.31635183095932,0.57367885112762,2.10267448425293,4.35493469238281,-0.22350032627583,-2.46415400505066,1.61764752864838,0.44722971320152,0.89132875204086,0.6866888999939,-0.50938522815704,-2.1757493019104,-1.07435929775238,-0.73227471113205,-0.43111816048622,-0.68707066774368,-0.64492100477219,-0.92347556352615,9.4685640335083,20.0139312744141,17.2619819641113,1.81381165981293,0.46379944682121,-0.75976365804672,-1.50929534435272,-1.43782413005829,-4.92517232894897,-3.79002118110657,-4.95390272140503,-2.65516972541809,-2.70784211158752,-2.41814374923706,-19.860502243042,-41.8350830078125,8.05439376831055,46.094669342041,17.7152976989746,14.8111305236816,10.1445322036743,5.09037208557129,4.91798973083496,4.20182418823242,5.13586187362671,5.5045690536499,4.37181234359741,2.85149431228638,-1.39821374416351,-12.3615627288818,-38.6651611328125,-66.8865127563477,-14.6623907089233,-7.00094509124756,-2.97599267959595,-0.8451532125473,-1.39581954479218,-0.7972691655159,7.48217964172363,8.20762252807617,10.0894651412964,10.0248222351074,8.72716426849365,9.26825428009033,15.5748805999756,9.06714153289795,8.87081623077393,14.9547824859619,6.74715948104858,6.98897409439087,7.03925228118896,7.86525201797485,9.99609184265137,SWING_LEFT
-0.45509460568428,-1.03908181190491,-0.24678955972195,0.28466320037842,1.28220617771149,1.27731919288635,-2.07266569137573,-1.64750361442566,-1.0378600358963,1.98714458942413,-0.02321287989616,0.54305922985077,0.5705481171608,0.27061331272125,0.34880405664444,-0.27664560079575,-0.27786731719971,-0.70058608055115,-0.51060700416565,-1.23081707954407,-1.83496284484863,2.60724925994873,1.52785038948059,-0.91622149944305,1.73493361473084,1.6323082447052,-1.22470843791962,1.12529015541077,1.00922572612762,-0.62606054544449,-1.67239630222321,-2.93138957023621,-3.29485440254211,-2.78172755241394,-3.23804402351379,-3.08227324485779,-1.13055884838104,8.53149700164795,18.7958660125732,5.81070280075073,1.77288365364075,1.11742520332336,-0.56795197725296,-1.58504259586334,-1.39933955669403,4.69981813430786,3.36145925521851,-0.82599955797195,0.87148940563202,-0.96965169906616,-0.19871874153614,-25.2597255706787,-25.044246673584,2.6431987285614,28.6882228851318,19.7551574707031,16.4798889160156,11.5116214752197,5.87567043304443,4.76446151733398,9.1940336227417,6.16776275634766,3.25372004508972,2.20505976676941,-0.37110126018524,-2.53067111968994,-14.4229707717896,-30.9339828491211,-63.1752014160156,-1.60650932788849,-4.87220048904419,-1.23780226707459,-0.23942017555237,-1.73100781440735,0.09337386488914,7.00573348999023,11.2099514007568,12.0479221343994,12.7015390396118,10.163685798645,9.15572643280029,9.99369716644287,11.0782709121704,5.68173980712891,1.83635270595551,-2.29603934288025,10.4749317169189,8.75589466094971,9.27543640136719,8.17649841308594,SWING_LEFT
-0.25656339526176,0.94989544153214,-0.67928212881088,0.61147612333298,1.15758967399597,0.15271630883217,-1.43247902393341,-0.38606682419777,-2.00180530548096,1.3390166759491,3.18382954597473,0.51923543214798,-0.04764748737216,-0.79107052087784,-0.57299160957336,-1.24731051921844,-1.75310695171356,0.30917418003082,-1.0023535490036,-1.76471328735352,1.22486114501953,1.85588502883911,0.45761442184448,1.03182780742645,-3.6681694984436,-0.88751083612442,1.56633484363556,0.75571668148041,0.3488804101944,0.09414960443974,-2.89046168327332,-3.08899283409119,-2.96437621116638,-3.79393124580383,-4.13845920562744,-3.39870142936707,-1.62169456481934,6.0092339515686,17.7390689849854,20.0139312744141,7.21263885498047,2.0080668926239,0.26343563199043,-0.66874474287033,-0.91736686229706,0.651222884655,0.50517654418945,2.46363353729248,1.10372698307037,-0.47884035110474,-5.97622680664063,-19.6665706634521,-28.0633354187012,-3.71580100059509,44.5192832946777,34.1446075439453,18.0720329284668,12.1125659942627,8.64336776733398,6.99855089187622,6.58195972442627,4.75967311859131,2.55221891403198,-0.14844051003456,-3.63918662071228,-6.96024370193481,-12.1125659942627,-26.1719169616699,-65.9719314575195,-25.5374526977539,-1.95845699310303,-3.72777199745178,-1.26174426078796,-1.02950668334961,-0.90740245580673,13.6735849380493,7.01531028747559,12.1939687728882,10.75026512146,10.3552217483521,4.93714332580566,11.0998182296753,7.53006362915039,11.7294931411743,10.1301670074463,-1.93451499938965,2.91853189468384,4.98742151260376,7.51091003417969,9.15812110900879,SWING_LEFT
-0.05742133408785,-0.71043628454208,0.42577308416367,-0.14294247329235,-1.16736352443695,-1.6823228597641,-0.38789942860603,-0.75136423110962,0.85643309354782,-0.82466810941696,-0.18264870345592,0.82039201259613,0.24923302233219,-0.70738196372986,-0.64629542827606,-0.22716552019119,-1.21310198307037,-2.82089924812317,-2.18376684188843,-0.24549147486687,0.87300276756287,1.33909296989441,4.27246809005737,-1.00601875782013,1.39468169212341,-0.73357278108597,0.48143815994263,0.68180197477341,0.51564663648605,0.33910655975342,-4.36631202697754,-4.1769437789917,-3.03279328346252,-3.37854290008545,-3.43596434593201,-1.30526626110077,1.17240309715271,7.16010427474976,17.0420703887939,15.6621265411377,0.61468315124512,0.57192260026932,-0.36942076683044,-1.46958911418915,-2.04685664176941,2.12605118751526,-3.18189406394959,-1.53707754611969,-0.16998831927776,-5.39443588256836,-7.29303741455078,-14.130877494812,-25.8079986572266,-5.66737461090088,44.3684463500977,11.7510414123535,11.4685258865356,11.8731451034546,9.15572643280029,6.8141975402832,5.89721822738647,2.95683908462524,4.07014274597168,1.58974993228912,-1.84832370281219,-4.12520933151245,-9.81652641296387,-29.7416706085205,-62.397087097168,-3.03824186325073,-6.68012189865112,-1.34314715862274,1.08457338809967,0.84754741191864,0.91697925329208,5.51175165176392,10.7023811340332,8.81096172332764,7.69286918640137,7.71920537948608,10.5706996917725,11.8156843185425,12.5411281585693,8.89236450195313,17.6745948791504,8.68885707855225,7.498939037323,6.07199478149414,10.489296913147,9.79258441925049,SWING_LEFT
0.4111123085022,0.86681777238846,1.8912388086319,-0.12095131725073,-0.5711590051651,-1.38360977172852,-1.02442097663879,0.96638882160187,-2.58945775032043,0.35613444447517,0.9767735004425,0.38362336158752,1.09711396694183,0.19975294172764,-0.34574973583221,-0.38415786623955,-0.41164681315422,-0.75800740718842,0.80947279930115,0.54802250862122,-1.69446384906769,-1.71217894554138,3.89067721366882,0.82046836614609,-5.79153680801392,-0.55092412233353,2.44536995887756,0.57184624671936,0.70501482486725,0.23953554034233,-2.94238519668579,-2.15314722061157,-2.35717630386353,-2.31258320808411,-2.22522926330566,-2.52149891853333,-1.1934779882431,8.54432487487793,17.6492710113525,12.5583200454712,2.42834210395813,-0.93874716758728,-0.548404276371,-0.31932979822159,-0.50991976261139,-0.15322890877724,2.01591777801514,1.01753568649292,-1.98958158493042,-2.93768548965454,-5.5740008354187,-21.2682914733887,-26.6794872283936,8.96179580688477,37.4800300598145,21.1773128509521,6.25634813308716,3.4811692237854,4.34068775177002,4.22816038131714,3.63679242134094,5.12389087677002,6.21564674377441,4.3143515586853,3.40455484390259,-0.29688102006912,-4.77403831481934,-23.5044765472412,-44.583927154541,1.64242231845856,1.70227742195129,-2.57376670837402,-0.105344876647,1.82917010784149,1.23780226707459,10.5467576980591,12.3184671401978,6.83335113525391,6.32099199295044,3.9767689704895,8.91870021820068,17.8493728637695,1.31920516490936,18.1414642333984,10.7215347290039,4.88656568527222,6.20606994628906,4.20900678634644,5.49020385742188,7.57555341720581,SWING_LEFT
0.54916787147522,1.57908666133881,1.0256427526474,-0.84482663869858,0.24862214922905,-0.61819565296173,0.91324353218079,0.62980204820633,0.36957347393036,1.47707211971283,3.37503051757813,-1.10077917575836,-0.8167268037796,-0.2119702398777,0.08552113175392,-1.73783528804779,-1.98523569107056,-0.67187541723251,-0.30841058492661,0.33483052253723,-0.34017556905746,0.79664462804794,5.13317680358887,1.94323873519897,-2.4702627658844,-3.35296297073364,0.13080151379108,0.67813676595688,1.25968050956726,1.08863818645477,-0.16722436249256,-0.88193666934967,-0.75060069561005,-1.15132832527161,-1.09757208824158,-0.19837848842144,3.39167666435242,10.2816257476807,14.9425277709961,13.732403755188,7.62985944747925,1.59878706932068,-0.66630125045776,-0.96501439809799,-1.41888725757599,1.66875863075256,-0.79487496614456,0.20111294090748,-0.78050976991653,-2.92571449279785,-10.7119579315186,-17.7823352813721,-11.1979808807373,1.47961664199829,20.1238632202148,31.2308654785156,17.7105083465576,9.16769790649414,6.53886413574219,5.55724143981934,6.72321748733521,5.08797788619995,3.51708221435547,0.89064306020737,-3.19386506080627,-6.60590171813965,-14.0686283111572,-27.4959106445313,-33.5436630249023,-17.748815536499,-1.64721071720123,-3.51229381561279,-6.15339756011963,-3.03584766387939,-2.24576115608215,13.5610580444336,11.0208101272583,5.83018064498901,12.694356918335,8.76786613464355,14.4229707717896,15.2636346817017,9.47415542602539,2.07337856292725,11.6241483688354,-9.12460231781006,4.35026454925537,9.93623638153076,10.4007110595703,8.96658420562744,SWING_LEFT
0.13561208546162,1.21073496341705,0.43860125541687,0.46059238910675,0.91202181577682,0.17409659922123,-0.69821900129318,-1.96332085132599,-6.45867824554443,2.38665056228638,-4.63891077041626,2.6114490032196,0.52290064096451,2.40253305435181,0.99326688051224,-1.20149552822113,-1.79586744308472,-1.1856130361557,-1.15506982803345,-0.28764116764069,-0.46540296077728,1.92369103431702,2.15032196044922,4.319504737854,-7.55571603775024,-0.99868834018707,-1.85695397853851,0.62926757335663,0.16989690065384,1.39529252052307,-1.81839311122894,-2.2258403301239,-2.25271821022034,-1.77318906784058,-1.53556251525879,-1.37368321418762,-0.99555760622025,0.95065903663635,12.6078004837036,19.406120300293,10.3378248214722,1.56213510036469,1.35444092750549,0.49739703536034,-0.4922046661377,1.68551802635193,0.76853877305984,-1.36948335170746,-1.67833542823792,-2.27449154853821,-1.08936178684235,-7.62343740463257,-26.0761489868164,-29.7368831634521,31.07763671875,38.8878211975098,12.2274875640869,11.5116214752197,10.8675804138184,7.95623159408569,5.44710826873779,4.19703578948975,2.6623523235321,1.14203417301178,0.87148940563202,0.98880529403687,-1.85311210155487,-8.64815616607666,-44.1242408752441,-34.8655624389648,1.53468334674835,-5.58836603164673,-3.76607918739319,-1.43652105331421,-0.29927521944046,11.7678003311157,9.16290950775146,9.82370853424072,11.6361198425293,7.38401746749878,6.54125833511353,6.76152467727661,0.41419690847397,23.5427837371826,-15.4431991577148,33.9506797790527,-1.53468334674835,11.3751516342163,4.37660074234009,5.99538040161133,SWING_LEFT
0.21258109807968,-0.44715335965157,0.11911872029305,-0.59986966848373,-0.28771752119064,-1.25593888759613,-1.55831718444824,-1.4379768371582,-4.07263851165771,0.43066000938416,-0.46364670991898,0.91874134540558,1.15758967399597,1.39643800258636,0.62369340658188,-0.48311805725098,-1.12025046348572,-0.69081223011017,-0.34872770309448,-0.18807013332844,0.40080395340919,1.29205632209778,1.90536510944366,2.41482663154602,-7.35168695449829,-1.74027872085571,1.69400572776794,-0.8239808678627,0.16317738592625,0.04039346426725,-2.25088572502136,-1.85260152816772,-1.37918102741241,-1.9845484495163,-1.59420561790466,-0.98089689016342,-0.47998735308647,1.3978123664856,13.8997802734375,19.3212089538574,6.05077314376831,0.49312096834183,0.2347249686718,-0.27412578463554,-0.18677204847336,-0.66558808088303,-1.23301386833191,0.3256114423275,-1.32638776302338,-3.15316367149353,-4.50588750839233,-8.53802299499512,-33.3904342651367,-20.4039859771729,39.6874847412109,34.3795394897461,11.748646736145,8.24832439422607,4.09887313842773,1.4676456451416,5.1861400604248,2.74375510215759,2.12126278877258,0.45968672633171,-0.38307225704193,0.42377370595932,-2.0973207950592,-11.3679685592651,-54.8266220092773,-29.4950695037842,4.69502973556519,-3.71580100059509,-2.83473491668701,-2.59531474113464,-1.33357036113739,8.75110626220703,13.5802116394043,5.78469038009644,9.174880027771,6.51252794265747,7.68808078765869,9.24191761016846,5.29148483276367,8.97855567932129,-9.88595771789551,18.2468090057373,4.00549936294556,8.62421417236328,6.07678318023682,7.63540840148926,SWING_LEFT
1.05801856517792,0.10140363126993,0.50640726089478,-0.76297068595886,-0.54367005825043,-0.07574728876352,-0.67867130041122,-1.10383355617523,-2.73423290252686,0.70310592651367,-0.66523224115372,1.48256993293762,0.59559363126755,0.24495697021484,-0.18692477047443,-0.5466480255127,-0.06956227868795,-0.94859737157822,0.12652546167374,-0.0622318983078,-0.21189388632774,-0.31268665194511,-0.66149067878723,4.01223945617676,-4.94671058654785,-2.90275526046753,0.84184867143631,0.05444336682558,0.02634356357157,0.40569087862968,-2.06762623786926,-1.78479552268982,-1.71882212162018,-1.38284623622894,-1.64429652690887,-1.36696374416351,-1.12383937835693,-1.32481396198273,11.1392803192139,19.7298774719238,9.40931034088135,2.63603615760803,0.56886827945709,0.0209221355617,-0.86544334888458,0.49320554733276,-1.63523972034454,-1.03190088272095,0.63685762882233,-0.69431847333908,-1.95127439498901,-1.58256733417511,-24.2011890411377,-33.1127090454102,23.5643310546875,37.8822555541992,28.6690692901611,10.6832275390625,8.22917079925537,5.55963563919067,6.77588987350464,2.98078107833862,1.37666594982147,-0.03112462162971,-0.69910687208176,-0.83318221569061,-0.91458505392075,-10.2833957672119,-45.9390449523926,-38.2270202636719,2.51870012283325,1.6903064250946,-2.26970314979553,-1.18991827964783,-1.58735573291779,9.26107120513916,9.25867748260498,5.9115834236145,8.30339050292969,9.63696098327637,6.70166969299316,6.53886413574219,9.27304267883301,11.8539915084839,-15.3091239929199,21.7088260650635,4.29998636245728,5.23402404785156,6.91714811325073,9.01446914672852,SWING_LEFT
0.20280726253986,1.05557513237,0.33169981837273,0.49846604466438,-0.69882982969284,-0.45020768046379,0.05619960278273,-4.0824122428894,-10.1531915664673,7.22531414031982,2.75072622299194,0.55588740110397,0.064751714468,0.30360001325607,0.42699480056763,-0.9095019698143,-0.89300864934921,-0.11782063543797,-0.28153252601624,-0.1984548419714,-2.10801959037781,-0.29436069726944,3.36594390869141,1.0189995765686,-13.0895442962646,-1.77815234661102,0.3794236779213,0.72639513015747,0.28901562094688,-0.00786488968879,-1.05847680568695,-1.53495168685913,-2.113440990448,-2.36878275871277,-2.18857741355896,-3.09449052810669,-2.87396836280823,3.4735324382782,16.9602146148682,17.5484790802002,6.21143054962158,1.22249412536621,-0.22647829353809,-0.63881230354309,-0.5172501206398,-3.5506010055542,0.82121115922928,0.6033388376236,-2.26012635231018,-0.32321724295616,1.77410340309143,-8.99770927429199,-59.610237121582,-0.59855043888092,33.7112579345703,29.1239681243896,8.09509563446045,6.35690498352051,4.07732534408569,6.883629322052,6.37845277786255,6.46703815460205,3.49314022064209,1.30005156993866,0.31364041566849,-0.30406361818314,-2.76530289649963,-21.0887279510498,-60.9366226196289,-30.359375,2.06859016418457,0.05746084079146,-1.95606279373169,-1.62566292285919,0.72304892539978,8.85884571075439,8.03524017333984,10.5587291717529,5.37767648696899,7.27867221832275,11.1165781021118,4.28562116622925,-10.4485950469971,44.2391624450684,-16.9180278778076,4.15633392333984,5.13586187362671,8.77504825592041,7.94665479660034,8.84208583831787,SWING_LEFT
0.20708331465721,0.41538837552071,0.57910025119781,1.21928703784943,0.80023348331451,1.47096347808838,1.79350030422211,0.07757988572121,-7.57045316696167,5.23206090927124,2.69452667236328,-0.99204516410828,1.0622946023941,2.10565257072449,-0.3683517575264,-0.31574097275734,-0.82520258426666,0.3580434024334,0.24930937588215,-0.89178687334061,-0.08666650950909,-1.07443559169769,-1.74088954925537,8.71895599365234,-4.43663787841797,-1.99317693710327,0.64881527423859,-0.22288945317268,0.99028891324997,1.21753084659576,-1.93262493610382,-3.28263711929321,-3.61800217628479,-3.35899519920349,-2.31808090209961,-0.91858863830566,0.01298088673502,1.47661399841309,15.6370811462402,20.0139312744141,10.569953918457,2.94513416290283,1.69835805892944,0.81382524967194,-1.34619426727295,5.37767648696899,2.13323378562927,-1.49637603759766,-5.72244119644165,-7.76708936691284,-7.9753851890564,-6.49337434768677,-26.392183303833,-24.2730159759521,35.7178993225098,39.4528541564941,18.1223106384277,15.3737678527832,16.1614608764648,13.6448545455933,8.70801067352295,6.26353073120117,2.66714072227478,-0.05746084079146,-1.86029469966888,-1.89141929149628,-4.08211374282837,-17.5884037017822,-77.3686294555664,-54.2376480102539,-2.6934769153595,-7.87482881546021,-7.13262605667114,0.28730419278145,3.38540124893188,11.6241483688354,12.7278757095337,12.4788789749146,9.15333271026611,12.3017072677612,8.7199821472168,6.11030197143555,0.06943184882402,42.3163185119629,-9.56992340087891,-6.32817459106445,5.89961242675781,9.73991203308105,0.22984336316586,3.55778384208679,SWING_LEFT
0.64934974908829,1.98225772380829,3.40923881530762,2.41780471801758,1.05129909515381,-2.9480357170105,-5.75129652023315,-3.42878651618958,-0.57543504238129,-3.07998251914978,3.41779112815857,1.13376593589783,0.82650065422058,-0.50152039527893,-0.97371917963028,0.23159427940845,-2.00295066833496,-2.84411215782166,-1.64742720127106,-2.42811298370361,0.49548807740211,2.58281469345093,5.49358749389648,-1.06527268886566,-2.13306498527527,-0.16730071604252,-1.02006864547729,-0.86490881443024,0.28962647914886,0.27618744969368,-0.98761636018753,-0.91919946670532,-2.27287697792053,-3.24048733711243,-3.80126166343689,-3.69252777099609,-1.19164538383484,14.1801671981812,20.0139312744141,12.7953357696533,3.24995589256287,0.4033237695694,-0.60277128219604,-1.92712712287903,-2.52944016456604,-1.92014980316162,2.66474652290344,0.83318221569061,0.16041150689125,0.18914192914963,-4.30956315994263,-44.3205642700195,-26.7154006958008,43.6450996398926,45.1274108886719,25.56618309021,14.6983032226563,11.4182472229004,7.48457384109497,3.26808524131775,9.41908836364746,10.0152454376221,5.61949062347412,1.56101953983307,-0.79008656740189,-8.65294456481934,-21.2754745483398,-68.8210296630859,-61.3029365539551,-2.58334374427795,-6.27310752868652,-5.11670827865601,-1.21625447273254,0.428562104702,-0.74699091911316,11.7941370010376,15.6012172698975,9.10784244537354,7.77906036376953,2.84910011291504,4.47476291656494,19.8197994232178,16.7169151306152,11.8922986984253,32.6937217712402,-6.71603488922119,6.00735139846802,3.66312861442566,5.61230802536011,6.76391887664795,SWING_LEFT
0.68539083003998,0.62002819776535,0.47280970215797,0.22357667982578,0.8655960559845,-0.96150189638138,-0.0372627787292,1.66766214370728,-4.17098808288574,0.23029619455338,-0.71349060535431,0.9523389339447,1.81915664672852,1.13376593589783,0.26572638750076,-1.41529846191406,-0.87834787368774,-0.54359370470047,-0.75678569078445,-1.24120187759399,-2.10313272476196,-0.07872525602579,2.91573619842529,5.92608022689819,-1.64925980567932,-2.81540155410767,-2.09580230712891,1.26029133796692,0.91270905733109,-0.23693935573101,-3.38770604133606,-1.96744418144226,-1.55877542495728,-1.0334312915802,-1.0823005437851,-0.58383446931839,0.01908953860402,2.62198638916016,19.279670715332,19.134895324707,3.79301500320435,1.74967074394226,1.51204419136047,0.31658092141151,-1.03770732879639,-3.57214903831482,-1.99676418304443,-4.34308195114136,-3.74692559242249,-2.94965648651123,-1.74297881126404,-3.99113416671753,-43.7408676147461,-4.28562116622925,49.6500587463379,18.4000377655029,11.5690822601318,12.1915740966797,10.6401319503784,6.3377513885498,2.46123933792114,5.00178670883179,6.67293930053711,5.19092845916748,1.82917010784149,-2.37265396118164,-4.65193367004395,-19.9466934204102,-75.9297103881836,-11.3296613693237,-4.35984134674072,-4.95629692077637,-2.1475989818573,0.58897364139557,-0.24660277366638,10.5778827667236,8.14058494567871,8.31536197662354,11.9306058883667,7.58273601531982,12.773365020752,15.4910831451416,0.41898530721664,21.6202392578125,9.20600509643555,9.11741924285889,8.23874759674072,4.70460653305054,4.61362648010254,7.57315921783447,SWING_LEFT
0.32436943054199,0.04276056587696,0.47708576917648,1.99264240264893,0.32559117674828,-1.49784159660339,-3.91198110580444,-5.77145481109619,1.10566604137421,-0.79962259531021,4.04759311676025,1.09528136253357,-0.64018678665161,-0.79107052087784,-1.10322260856628,-1.3633748292923,0.36842811107635,0.11308643221855,-1.29373621940613,-0.2833651304245,1.08314049243927,-0.29313895106316,4.14662981033325,-4.38899040222168,-2.0713677406311,-1.71217894554138,0.29206994175911,-0.49105930328369,-0.60101503133774,-0.05001459270716,-2.21789908409119,-1.82389092445374,-1.46470212936401,-2.3223569393158,-2.72247362136841,-3.6326630115509,-3.84463310241699,11.8991966247559,20.0139312744141,12.8527574539185,3.31104230880737,-0.20326541364193,-1.2234103679657,-1.53434073925018,-1.9423987865448,0.13407529890537,-2.14041638374329,0.86670100688934,0.60573303699493,2.18830037117004,-0.4525041282177,-34.4130592346191,-33.6753463745117,24.9389019012451,41.6986122131348,17.8541603088379,9.45500183105469,6.07199478149414,6.27071332931519,3.67031121253967,6.60590171813965,6.54844093322754,6.39281797409058,5.53329944610596,3.71340680122375,-2.58094954490662,-15.6706485748291,-56.9957656860352,-70.769905090332,-2.63841032981873,-5.30106163024902,0.18914192914963,0.91937345266342,1.7405846118927,2.0973207950592,9.76624774932861,8.38718795776367,13.1564378738403,5.39204168319702,4.51785850524902,2.50433492660522,5.09994888305664,20.5572147369385,2.95923328399658,24.0599308013916,-2.16435837745667,2.05661916732788,7.40795946121216,8.80856704711914,10.2307233810425,SWING_LEFT
1.04274702072144,1.83198487758636,2.07144403457642,0.38240164518356,-1.04824471473694,-3.77942323684692,-2.67864418029785,0.87536990642548,-4.83011150360107,2.37260055541992,2.14963483810425,1.67621421813965,1.84603476524353,0.53572881221771,-0.70310592651367,-1.1178070306778,-1.15018284320831,-1.71584415435791,0.07399105280638,0.78809255361557,-1.80625212192535,-4.63272571563721,5.39401626586914,3.25415563583374,-6.67118310928345,1.06847965717316,0.18944458663464,0.3403283059597,1.58221733570099,-0.9400452375412,-2.21850991249084,-1.66445505619049,-2.39382815361023,-3.17756819725037,-3.11281657218933,-2.6479480266571,-0.92408639192581,12.5845880508423,20.0139312744141,9.23154830932617,3.06791806221008,1.89627838134766,-0.2069306075573,-0.73227471113205,-1.19836485385895,-0.11971008777618,2.02070617675781,2.09253239631653,-1.30962836742401,-6.23240613937378,-6.28986692428589,-24.2131595611572,-35.7633895874023,47.6389274597168,32.8038558959961,13.2833299636841,14.6599960327148,9.04559326171875,7.22839403152466,6.41436576843262,7.0919246673584,7.47978544235229,6.49576854705811,2.54503631591797,-1.99197578430176,-8.00172138214111,-11.5211982727051,-51.4888038635254,-60.9485931396484,-0.50757074356079,-7.98735618591309,-1.78128612041473,-0.14604631066322,-0.16041150689125,3.01429986953735,11.0064449310303,9.72315216064453,6.08875417709351,4.33350515365601,-1.6711528301239,8.05439376831055,23.9761352539063,5.47105026245117,43.4439888000488,4.64714527130127,0.3687070608139,5.37528228759766,5.31782102584839,3.51708221435547,8.21719932556152,SWING_LEFT
-0.03665191307664,0.75564032793045,0.59131753444672,0.99693208932877,2.69880270957947,2.3658812046051,-0.88758718967438,-2.80936932563782,-6.86979055404663,5.76473522186279,2.72995686531067,0.88392198085785,0.34452798962593,-0.89736104011536,-1.33718407154083,-2.32426595687866,-3.51178789138794,-1.44095480442047,0.13446670770645,-2.1556670665741,-2.01211380958557,0.08376489579678,2.63779258728027,7.91811180114746,-2.80746030807495,-1.36704003810883,-0.32856914401054,1.51929819583893,1.34825599193573,0.04833471402526,-3.78171396255493,-3.13602948188782,-3.1024317741394,-1.85932111740112,-2.48973393440247,-1.41949808597565,-0.1458440721035,2.30494737625122,15.7995710372925,20.0139312744141,6.84245443344116,1.51754200458527,-0.13668109476566,-1.59603822231293,-1.42438507080078,-2.29603934288025,-0.30885201692581,-2.96881008148193,0.41898530721664,-2.63601613044739,-4.81713390350342,-3.56736063957214,-30.8286380767822,-17.7583923339844,36.6923370361328,32.1047477722168,12.56028175354,11.8875102996826,6.76391887664795,6.34493398666382,4.3837833404541,4.89644193649292,2.00634098052979,1.69270062446594,1.00317049026489,0.66798228025436,-1.19710087776184,-10.8268795013428,-65.6367416381836,-36.0961837768555,2.37265396118164,-2.00155258178711,2.08774399757385,0.16519992053509,2.18111777305603,11.6552734375,10.5108451843262,13.8148431777954,12.5626754760742,10.0080623626709,1.88423669338226,6.01213979721069,3.88818359375,43.5229949951172,1.93451499938965,-4.37181234359741,6.26831912994385,4.41011953353882,6.66815090179443,9.68723964691162,SWING_LEFT
-0.6444628238678,0.76235979795456,0.93401294946671,0.96272361278534,0.37629300355911,-0.52167892456055,-0.96699970960617,-1.03724920749664,-6.41041994094849,2.82525181770325,0.21746802330017,0.97921699285507,0.62186080217361,-0.14416420459747,-0.51801371574402,-1.55579745769501,0.12224940955639,0.6689738035202,-0.97303199768066,-0.61750841140747,-0.26320657134056,-0.45074218511581,4.89738321304321,7.0671763420105,-9.06394195556641,-0.15263995528221,-0.46234863996506,1.11246192455292,0.96524345874786,0.51320314407349,-4.07737302780151,-3.55202865600586,-1.92162930965424,-1.58259916305542,-2.19712948799133,-1.86481893062592,-1.21546912193298,7.59626197814941,19.1379508972168,15.0873022079468,0.78267109394073,0.87185740470886,-0.4103487432003,-1.60214686393738,-1.73470461368561,4.06296014785767,-2.9352912902832,-2.89937829971313,0.94092124700546,-1.63045132160187,-1.65199911594391,-18.8693027496338,-30.3019142150879,2.85867691040039,41.5549621582031,8.17171001434326,10.4629602432251,10.4126825332642,6.68012189865112,7.23557662963867,4.31195735931396,3.58651423454285,4.55855989456177,3.83311700820923,0.42616790533066,-2.3511061668396,-7.12544345855713,-24.3232936859131,-67.6622314453125,-9.06714153289795,-6.45267295837402,-1.86508309841156,2.22421336174011,0.12928688526154,1.64721071720123,13.6424608230591,9.25628280639648,7.60428380966187,7.57794761657715,7.47020864486694,8.96658420562744,14.3702974319458,5.98340940475464,34.8847160339355,0.4764461517334,5.23162984848022,5.26036024093628,3.23935484886169,4.8410758972168,8.56675338745117,SWING_LEFT
-1.41598558425903,-0.93156951665878,0.69088858366013,0.19669860601425,0.47342056035995,0.87292641401291,-1.6701055765152,-2.24615144729614,-2.46972823143005,2.75927829742432,1.8924605846405,2.25103831291199,1.30419731140137,0.62430429458618,0.04642575979233,-0.96631246805191,-0.27725645899773,-0.93149316310883,-0.6022367477417,-1.09276151657104,-4.47878742218018,0.62804585695267,4.74100160598755,3.49422550201416,-4.52032661437988,-1.46538937091827,-0.86063277721405,-0.03657555580139,0.41851904988289,0.40385827422142,-4.3846378326416,-3.43046641349792,-3.31318044662476,-3.07494282722473,-4.11646795272827,-4.58500194549561,-0.87521719932556,6.5651216506958,19.937572479248,17.613842010498,4.93777656555176,1.95980846881866,0.92622441053391,-0.60460388660431,-0.86727595329285,-1.89620769023895,-0.92895025014877,-2.87543630599976,0.14604631066322,1.25695586204529,-8.51647472381592,-18.5197486877441,-34.3603858947754,6.78067827224731,47.7706069946289,20.6386165618896,11.4134588241577,11.4613428115845,7.08713626861572,3.38300704956055,4.23294878005981,6.30902051925659,5.76074838638306,4.37899494171143,-0.02633621916175,-1.56820213794708,-6.00256299972534,-21.8476886749268,-78.3502502441406,-9.32571506500244,-2.93768548965454,-4.82910490036011,-0.56024318933487,0.16041150689125,-0.78290396928787,9.50049209594727,11.9473657608032,7.41753625869751,9.39754104614258,11.0160217285156,7.7862434387207,10.2403001785278,13.8435735702515,20.4662342071533,9.69681644439697,4.70460653305054,1.98718738555908,3.91930818557739,3.11485648155212,4.66629934310913,SWING_LEFT
-0.3072652220726,0.48258355259895,0.57421332597733,0.27611109614372,-0.01343903504312,-1.28464961051941,-1.96454262733459,-0.97555178403854,2.3591616153717,-1.65972089767456,5.44464206695557,0.47952923178673,0.99754291772842,0.53206360340118,-0.48136180639267,1.00250625610352,-0.50816351175308,-2.16666269302368,-2.00600504875183,-0.28092166781425,-0.5600870847702,-4.94976472854614,-0.74517923593521,6.05008554458618,2.99637031555176,-1.84779095649719,1.54312193393707,-1.09520506858826,0.73616898059845,0.10636691004038,-3.37548851966858,-2.11099767684937,-2.35045671463013,-1.9857702255249,-2.85014462471008,-4.04805135726929,-4.24108457565308,0.77472984790802,15.7317657470703,20.0139312744141,5.49488544464111,2.14184617996216,0.87246829271317,-0.0517708286643,-1.002277135849,-1.76692080497742,0.86430680751801,0.07661445438862,2.3511061668396,2.18351197242737,0.35434186458588,-5.06164169311523,-37.9516868591309,-5.20289945602417,45.2710609436035,25.8965835571289,13.6951332092285,10.4940853118896,8.60266590118408,5.52611684799194,5.01136350631714,7.44387245178223,6.99615669250488,6.30662631988525,3.85705900192261,-3.0693666934967,-10.9681367874146,-10.5778827667236,-58.8895797729492,-23.3991317749023,-1.98958158493042,-1.08936178684235,-0.39025488495827,1.35511815547943,1.00077629089355,8.37761116027832,6.31620359420776,5.95467901229858,9.3927526473999,6.00974559783936,8.25790119171143,13.3934631347656,29.7919502258301,-1.25456166267395,24.7665195465088,-8.69364547729492,5.84933423995972,6.6849102973938,4.44842672348022,6.38084697723389,SWING_LEFT
-0.47403141856194,-1.31091678142548,-0.28893926739693,-0.92423909902573,0.5400048494339,0.86987209320068,-2.38298535346985,-6.40614366531372,0.40133845806122,5.75435066223145,-0.5711590051651,1.49845242500305,0.50457471609116,-0.01343903504312,-0.79840087890625,-2.25645995140076,-2.82028841972351,-0.97608631849289,-0.20761781930923,-1.54907786846161,-1.99317693710327,-0.53443074226379,0.58711785078049,5.83750486373901,-3.88197231292725,-1.56557130813599,0.6811910867691,1.70439040660858,-0.20089830458164,0.45456010103226,-4.77864599227905,-4.67540979385376,-2.99919557571411,-3.00224995613098,-2.39382815361023,-1.38773310184479,-0.76159626245499,-0.41523563861847,17.7916030883789,18.4220161437988,8.36595249176025,0.96654152870178,-0.41645738482475,-0.69317930936813,-1.05664420127869,0.87148940563202,-2.61446833610535,-2.46363353729248,-3.52665901184082,-5.39922428131104,-4.12042093276978,2.24815535545349,-51.2254409790039,0.59615623950958,33.0672187805176,35.8543663024902,16.2644100189209,8.09030723571777,6.78307247161865,5.15501546859741,5.49020385742188,1.35272395610809,4.27365016937256,3.44046783447266,3.04303026199341,5.16938066482544,-0.56024318933487,-26.1264266967773,-69.805046081543,-27.4216899871826,2.34631776809692,-2.63122773170471,-1.26892685890198,1.72621941566467,2.90177249908447,3.12203907966614,11.0303869247437,5.47823286056519,9.54119300842285,7.4486608505249,1.06302559375763,-3.58651423454285,34.6045951843262,26.9213008880615,-25.3602828979492,15.3857383728027,1.34314715862274,4.07253694534302,6.25634813308716,7.52288103103638,SWING_LEFT
0.14294247329235,-0.28221973776817,-0.20341812074184,0.05681046843529,-1.11910510063171,-2.47400426864624,-1.32679927349091,-0.75380772352219,-2.02929425239563,3.89060068130493,3.11358022689819,1.78922426700592,1.04763388633728,-0.11239920556545,-0.54794609546661,-0.35178202390671,-0.47762027382851,0.94752836227417,0.04344778880477,-1.43118095397949,-0.42875105142593,1.05381894111633,0.80214244127274,0.58406352996826,-2.9736156463623,-1.71828758716583,0.2884047627449,0.09842566400766,-0.18562667071819,-0.03779728710651,-2.7768406867981,-3.52637243270874,-2.04074811935425,-1.38834393024445,-1.66201162338257,-1.49280190467834,-0.418900847435,4.32080268859863,19.6749000549316,14.2192630767822,4.55415296554565,1.89016973972321,0.82237732410431,0.17486017942429,-0.3236058652401,1.44130945205688,-2.09253239631653,-4.31195735931396,-2.84431171417236,-1.93451499938965,-3.98634576797485,-10.1756563186646,-42.3474426269531,23.743896484375,34.4106636047363,15.9411935806274,8.83490371704102,7.51569843292236,6.87644672393799,6.51731634140015,7.39838266372681,3.95282697677612,4.54419469833374,5.65540361404419,2.78685069084167,-0.07661445438862,-3.17949986457825,-20.4542636871338,-56.4858016967773,-8.62900257110596,-3.67270541191101,-0.94810384511948,0.5147533416748,1.95845699310303,2.18830037117004,6.00974559783936,6.0312933921814,3.65834021568298,1.16837048530579,4.73094272613525,13.529932975769,11.0495405197144,8.55238819122314,36.7258567810059,4.99460411071777,1.01753568649292,3.16752886772156,1.36708915233612,4.32392835617065,5.90440082550049,SWING_LEFT
-1.01464712619781,0.56321775913239,1.00914943218231,0.54367005825043,-0.08063421398401,0.15088371932507,-2.30479454994202,-4.19053554534912,-8.83983135223389,6.02007722854614,-2.15085649490356,3.75559949874878,1.50761544704437,0.10812314599752,0.54428094625473,-0.15325081348419,-0.86185449361801,-2.39390444755554,-1.94308602809906,-1.14529597759247,-1.71767675876617,-0.18562667071819,3.80210161209106,6.60230779647827,-9.9686336517334,0.94080883264542,-1.56923639774323,0.49548807740211,0.28901562094688,-0.3261256814003,-3.94848012924194,-2.79211235046387,-2.40848898887634,-2.16658639907837,-2.23378157615662,-2.87396836280823,-3.56119155883789,0.95737856626511,14.5137004852295,18.288236618042,10.3934135437012,3.41672205924988,1.5890132188797,0.55481833219528,-0.72005742788315,-1.43412685394287,-0.77093297243118,-1.01274728775024,-0.28251579403877,0.4525041282177,0.24660277366638,-7.74075317382813,-49.5447120666504,-10.7526588439941,24.4382152557373,27.3977470397949,15.8286657333374,10.6377372741699,10.0128507614136,6.7543420791626,4.54419469833374,6.1007251739502,6.43591356277466,6.05523538589478,6.71842908859253,2.41814374923706,-5.2172646522522,-15.9723176956177,-48.9078559875488,-32.2843132019043,-4.52025270462036,-2.94247388839722,-0.72544312477112,2.2864625453949,0.48602294921875,13.3336086273193,8.97616100311279,6.42873096466064,7.02488708496094,7.83891582489014,6.62266111373901,7.21881723403931,7.46542024612427,37.5422782897949,-15.6012172698975,14.4971904754639,1.37666594982147,-0.85473001003265,7.0224928855896,3.25372004508972,SWING_LEFT
0.03359758853912,0.82833325862885,0.00122173049022,1.10505521297455,0.97310835123062,-1.12093770503998,-2.78737807273865,-2.76844120025635,-2.55219507217407,3.69512391090393,3.22964453697205,1.63650798797607,-0.6023131608963,-0.91080009937286,-1.33779489994049,-1.53441715240479,-0.94798648357391,-1.11536359786987,-0.27298039197922,-1.00052094459534,-0.67126452922821,1.86688053607941,3.21567106246948,3.45513010025024,-4.35478210449219,0.65125870704651,0.38675406575203,0.37698021531105,0.08315403014421,0.21143573522568,-2.34251546859741,-1.81045186519623,-2.05357623100281,-1.73287200927734,-1.89475131034851,-2.78844714164734,-2.17636013031006,2.90481686592102,17.0054187774658,18.9052104949951,4.06790447235107,0.70509123802185,-1.79273676872253,-2.68215656280518,-3.52209639549255,-0.07661445438862,0.93613284826279,-0.78769236803055,-0.54587799310684,1.55144274234772,0.02394201606512,-2.46842193603516,-37.333984375,-9.50049209594727,27.2852210998535,19.6210823059082,14.4109992980957,9.65611457824707,8.21001720428467,5.35612869262695,6.90517711639404,8.46619606018066,7.2499418258667,6.2778959274292,4.58729028701782,0.02154781483114,-2.20505976676941,-17.8445835113525,-58.2599067687988,-32.9068069458008,-3.11725068092346,-1.48440504074097,0.46926352381706,1.39342534542084,1.46525144577026,12.4214172363281,6.91235971450806,11.4182472229004,8.94982528686523,4.59447288513184,7.35768127441406,7.52527523040771,11.6265430450439,21.2228031158447,-4.15154552459717,0.16998831927776,0.24899697303772,5.90679502487183,7.19487524032593,9.13657283782959,SWING_LEFT
0.15271630883217,0.04642575979233,0.11239920556545,-0.62186080217361,-0.69638639688492,0.39950588345528,-0.01710422709584,-1.38605320453644,-2.65482044219971,0.62430429458618,0.21746802330017,4.01766061782837,1.24494338035584,0.57910025119781,-0.74403387308121,-0.29130637645721,-0.66637760400772,-1.72500705718994,0.29023733735085,0.37514761090279,-0.15202908217907,-0.06650795042515,1.48692238330841,4.73916912078857,-1.49776518344879,-1.15568065643311,-2.81723403930664,-0.15569427609444,-0.39759692549706,0.4264602959156,-2.73041486740112,-2.28631591796875,-2.83181858062744,-2.36817193031311,-2.409099817276,0.06307183951139,0.61223971843719,2.85411524772644,12.2180681228638,15.3267612457275,11.222357749939,5.04956483840942,2.53218913078308,0.32268956303596,-0.93935805559158,-0.34715923666954,1.12048637866974,1.22104287147522,-1.40060794353485,-4.69024133682251,-3.27526783943176,-3.19865345954895,-25.7457485198975,-6.58914232254028,8.60984897613525,25.6954708099365,17.6506538391113,15.8526077270508,11.7701950073242,8.33930397033691,6.32578039169312,7.46302604675293,6.14382076263428,4.21858358383179,1.48201084136963,-1.15639936923981,-2.71741890907288,-11.9497594833374,-30.7903308868408,-32.1574211120605,-5.06882429122925,-2.54982471466064,-0.10055647045374,0.62009823322296,-0.06224924325943,8.02087497711182,7.84849262237549,7.65935039520264,8.83969211578369,9.91947650909424,8.1022777557373,4.96108531951904,10.2714242935181,16.3936977386475,10.134955406189,18.8764839172363,-1.91296720504761,1.92014980316162,1.75255560874939,3.89776039123535,SWING_LEFT
-1.37994456291199,0.09957103431225,-0.09040805697441,1.05496430397034,1.65910995006561,-1.83503913879395,-1.27365398406982,-0.34819319844246,0.85460048913956,0.48991394042969,4.2546763420105,1.3078625202179,1.38605320453644,0.51679199934006,-0.71043628454208,0.29206994175911,-1.45561552047729,-0.57352608442307,-1.91620790958405,-1.55518651008606,0.57428967952728,3.61578774452209,1.39773607254028,1.25357186794281,-1.49409997463226,-0.11476630717516,1.04771029949188,-1.27235591411591,0.69340842962265,0.19738583266735,-4.16411542892456,-3.78537917137146,-3.15374445915222,-2.58930516242981,-2.2502748966217,-2.53127288818359,-1.85748851299286,3.48819327354431,14.0207319259644,14.6114387512207,5.91088485717773,2.85716938972473,2.17177867889404,0.44730606675148,-1.31198585033417,0.12449848651886,0.68234747648239,-5.91637182235718,-5.98819780349731,-6.73279428482056,-8.20044040679932,-26.8973598480225,-37.8894386291504,-22.0703506469727,36.5941772460938,37.3387718200684,14.3152313232422,15.9292221069336,15.0673093795776,9.5124626159668,1.97521638870239,3.65115761756897,4.99939250946045,5.74638319015503,6.76152467727661,-0.76853877305984,-11.0160217285156,-27.2612781524658,-63.1967506408691,-25.2788791656494,-12.1963624954224,-9.14136123657227,-3.07654929161072,0.22744916379452,-1.25456166267395,11.99524974823,12.2969188690186,12.4142351150513,13.5275392532349,4.92277812957764,14.5139503479004,14.0710229873657,13.1684083938599,6.11269617080688,16.7001552581787,27.4216899871826,3.06457805633545,2.82276391983032,2.78445649147034,5.77271938323975,SWING_LEFT
0.0299323964864,-0.40194934606552,-0.24678955972195,-0.48930305242538,-0.3933972120285,-0.51740288734436,-0.90530228614807,2.87534260749817,0.23457226157188,3.58394646644592,-1.64506006240845,1.58763873577118,1.58641707897186,1.98409032821655,1.00365161895752,0.31161764264107,0.02145664207637,0.43684500455856,-0.15325081348419,0.23342688381672,0.47044259309769,1.92491269111633,0.28107437491417,1.45699000358582,-4.29247379302979,2.25661253929138,-0.47212249040604,0.674471616745,0.89438307285309,1.58771514892578,-2.02058959007263,-1.75180876255035,-1.64551830291748,-1.43843495845795,-1.50440835952759,-0.61865377426147,1.30984783172607,8.16742134094238,19.7756938934326,9.37143611907959,3.49491286277771,4.51505756378174,2.74415946006775,0.83154028654099,-1.03220951557159,-1.05105459690094,-1.01514148712158,-1.76692080497742,-3.28005623817444,-5.44950246810913,-8.00650978088379,-12.9744787216187,-26.6746997833252,38.4616546630859,37.8319778442383,11.3679685592651,14.667179107666,16.6833953857422,12.8619508743286,5.72244119644165,2.99035787582397,2.43250894546509,0.9433154463768,2.35828876495361,-0.08619125932455,-3.90015459060669,-9.53879928588867,-32.2723426818848,-54.9056282043457,-1.33357036113739,-9.01446914672852,-9.2538890838623,-4.3646297454834,-2.54743051528931,-0.39025488495827,6.46943235397339,10.1565027236938,8.32733249664307,10.8627920150757,11.0686941146851,10.8388500213623,19.5636215209961,2.54024791717529,12.1939687728882,-8.5811185836792,12.2490348815918,6.39281797409058,7.06080007553101,3.36864185333252,4.88177728652954,SWING_LEFT
0.66278880834579,0.16554448008537,1.02014493942261,1.46057879924774,-0.44837507605553,-1.04091441631317,-2.35549640655518,0.35369098186493,0.82405722141266,3.3402111530304,0.32009339332581,1.05374252796173,1.01098203659058,0.18753562867641,0.02138028293848,-3.3358588218689,-1.87894511222839,-1.13979816436768,-1.66514229774475,0.29390254616737,-1.52525413036346,-0.41409027576447,3.66710042953491,2.56448864936829,2.35068583488464,-1.16667628288269,0.04466952010989,0.29390254616737,1.73126840591431,0.15034921467304,-2.20568180084229,-1.78418469429016,-2.04746747016907,-3.18795299530029,-2.88740730285645,-1.47691941261292,0.5206099152565,9.54370021820068,20.0139312744141,17.0048084259033,5.75205993652344,0.93477654457092,-0.40912699699402,-1.45309567451477,-1.88375568389893,-1.78128612041473,-0.47884035110474,-1.18034148216248,-4.92756652832031,-6.43591356277466,-6.39521217346191,-19.6713600158691,-33.0456695556641,26.6292095184326,46.9781265258789,26.1695232391357,14.5642280578613,12.7829418182373,8.0831241607666,4.08450794219971,8.44464874267578,8.75350093841553,9.07192993164063,4.64714527130127,0.00478840339929,-11.8899049758911,-23.5834846496582,-51.7378005981445,-78.1012573242188,-15.2253274917603,-8.65054988861084,-1.80283391475677,0.09576806426048,0.55545479059219,0.14844051003456,10.9130706787109,13.9034280776978,13.3120603561401,8.57633018493652,13.5730285644531,11.3895168304443,26.7393417358398,12.7326641082764,22.5204601287842,-3.38300704956055,3.20344185829163,6.86208152770996,6.12227296829224,6.50055694580078,7.58034181594849,SWING_LEFT
0.17715092003345,0.3720169365406,1.32985365390778,0.1795943826437,0.87414819002151,-1.35245561599731,-2.46667385101318,-1.4556919336319,1.81549155712128,5.07506847381592,3.11480188369751,3.35609364509583,1.80449593067169,1.3567316532135,0.49663344025612,-1.24486696720123,-1.92598176002502,-1.72928309440613,-2.96628522872925,-1.72195279598236,0.41974079608917,1.01289093494415,3.57669234275818,-0.4770093858242,-4.42442083358765,2.19063901901245,1.14300525188446,1.31954526901245,0.49732068181038,1.40323388576508,-2.28692674636841,-1.99310052394867,-1.43599152565002,-2.44514083862305,-3.04989743232727,-4.00467967987061,-5.20319747924805,11.4789218902588,20.0139312744141,13.9358215332031,8.33296585083008,4.79422330856323,2.54135203361511,1.00258255004883,-0.89781922101974,-0.26096799969673,-2.4205379486084,0.97922849655151,0.22984336316586,-0.12449848651886,0.2537853717804,-8.5811185836792,-39.71142578125,33.0839767456055,26.5621719360352,25.9564380645752,24.5055522918701,19.4151802062988,17.1574478149414,12.349591255188,8.02566337585449,7.32655668258667,9.70160484313965,7.54442882537842,5.03530550003052,-0.98880529403687,-10.1014366149902,-62.2103385925293,-70.0085525512695,-21.7686805725098,-12.0838356018066,-5.17177486419678,-5.44710826873779,-1.84592950344086,-0.56503158807755,8.05200004577637,10.0990419387817,6.3377513885498,14.6767559051514,9.99609184265137,9.74709415435791,12.2322759628296,13.776535987854,12.9194116592407,3.46919822692871,9.40472316741943,1.91536140441895,3.665522813797,3.71819519996643,3.86424160003662,SWING_LEFT
0.08979719132185,-0.08124507963657,0.06841690838337,0.49663344025612,-0.35491269826889,-2.36954617500305,1.47523951530457,-0.71226888895035,3.00057005882263,5.88813018798828,2.77638244628906,2.39825701713562,0.49480083584785,0.53023105859756,-0.29199358820915,-0.24243713915348,0.04100432991982,-0.09644035249949,-0.91133457422256,-0.99685573577881,1.45882260799408,-0.87223923206329,3.11426734924316,-3.11044955253601,-2.45743441581726,2.5101215839386,1.43622052669525,-1.65597927570343,2.22057151794434,1.84916543960571,-1.29060554504395,-1.17942810058594,-2.30525279045105,-4.60393857955933,-5.43288278579712,-5.35469198226929,-2.53005123138428,13.2614259719849,20.0139312744141,16.716480255127,9.42946910858154,3.87303829193115,2.04838395118713,-2.34495902061462,-3.15863156318665,0.73262572288513,2.78924489021301,4.03901815414429,2.11408019065857,-3.59130263328552,-11.0088386535645,-53.3419151306152,-22.6784763336182,16.3027172088623,25.0801601409912,27.8765888214111,18.2492046356201,18.8549365997314,12.2873420715332,3.89297199249268,9.00967979431152,11.1836156845093,11.7965307235718,5.85891103744507,-1.47482824325562,-11.2386817932129,-25.1687469482422,-59.7060050964355,-70.5448532104492,-28.9827098846436,-10.7957544326782,-12.0574989318848,-10.1565027236938,-2.66953492164612,-1.60172092914581,9.46697235107422,9.79737281799316,9.78779602050781,8.79420185089111,5.34894609451294,15.6060056686401,12.0910177230835,16.4679183959961,14.4780368804932,-0.7781155705452,8.80856704711914,-3.80438661575317,5.38007068634033,3.55538964271545,6.19649314880371,SWING_LEFT
-0.29138273000717,-0.13866640627384,0.76358157396317,0.50152039527893,-0.72143185138702,-1.52899575233459,-1.65361225605011,0.40011674165726,4.09707307815552,3.17222332954407,1.52655220031738,2.52226257324219,1.62184727191925,0.36407569050789,0.06108652427793,0.66714119911194,-0.20639608800411,-1.29068195819855,-0.12087496370077,0.02939788997173,-0.49167016148567,5.47404003143311,0.54741162061691,-1.65964448451996,0.26458099484444,0.67630416154861,1.24318718910217,0.28107437491417,0.08009970188141,1.48875498771667,-2.91978311538696,-2.58319640159607,-1.86665141582489,-2.05724143981934,-2.49217748641968,-3.29180002212524,-0.98944896459579,7.6329140663147,17.4244728088379,18.0744342803955,9.41908359527588,4.87730073928833,2.27623653411865,0.06856962293386,-1.03831815719604,-1.2641384601593,-2.94247388839722,-0.98880529403687,-0.98880529403687,-2.09253239631653,-7.8365216255188,-34.2020683288574,-38.7633209228516,-0.02873042039573,32.5500717163086,31.1829814910889,23.305757522583,19.2811050415039,14.0327157974243,8.70322227478027,5.34176349639893,6.71364068984985,8.33930397033691,8.33451557159424,4.67827033996582,-8.15495014190674,-21.6681232452393,-43.0273971557617,-69.2280426025391,-37.9708404541016,-15.3330659866333,-12.0479221343994,-7.58034181594849,-4.49391651153564,-1.58735573291779,8.382399559021,9.19882202148438,10.4964799880981,5.67934560775757,12.4764842987061,15.4695358276367,15.9411935806274,18.6873435974121,7.7862434387207,-2.17872357368469,9.15333271026611,2.50672912597656,1.75734400749207,5.60751962661743,5.62667322158813,SWING_LEFT
0.1991420686245,0.24190263450146,0.15027284622192,1.31030595302582,-0.24495697021484,-1.03847086429596,-1.00304079055786,4.94189977645874,2.32556390762329,2.53875589370728,0.15271630883217,1.53143918514252,1.42209434509277,0.58276546001434,0.01221730466932,-0.93821263313293,-1.30595350265503,-0.84902632236481,-0.26259568333626,0.59383738040924,0.25541803240776,0.01779145002365,-1.78365015983582,2.60541653633118,1.48081374168396,1.6946165561676,0.40813434123993,0.730060338974,1.30977141857147,1.06970143318176,-2.03952622413635,-1.68033754825592,-1.85199069976807,-2.99797391891479,-4.06149053573608,-5.90141630172729,-3.51782011985779,15.7085523605347,20.0139312744141,9.87845420837402,3.86692976951599,1.68614077568054,1.12719905376434,-0.60521471500397,-1.43660235404968,-0.99359369277954,1.01035308837891,2.74136090278625,0.77332717180252,0.03591302409768,-10.1134071350098,-34.1039085388184,-6.68251609802246,2.80600428581238,35.0858306884766,20.7822685241699,13.9010343551636,14.6049299240112,10.0415811538696,5.08318948745728,6.88602352142334,8.46380233764648,8.23395919799805,6.71603488922119,2.46842193603516,-8.62660789489746,-20.8014221191406,-64.1259994506836,-69.8577194213867,-9.85722732543945,-7.95144319534302,-8.77504825592041,-2.65038132667542,-0.00478840339929,-0.04070143029094,10.4222593307495,9.90271759033203,15.0936460494995,7.94186639785767,7.92750120162964,11.8659629821777,17.2388515472412,-1.02950668334961,5.26514863967896,-4.90841293334961,11.2506532669067,7.54442882537842,5.79426717758179,6.05762958526611,7.50372743606567,SWING_LEFT
-0.51068335771561,0.07574728876352,0.77213364839554,-0.020158553496,-0.56810468435287,-3.08486938476563,1.20401537418365,1.30725157260895,0.99082344770432,4.45870542526245,0.07024950534105,1.94132971763611,1.26937794685364,-1.00548422336578,-1.41537475585938,0.29756772518158,-0.11293371021748,-1.07504642009735,0.16439910233021,0.64515006542206,2.56998634338379,-3.3725106716156,0.1692860275507,0.55474197864532,-5.06949424743652,0.69707357883453,0.33910655975342,1.24807405471802,1.18393325805664,0.78992509841919,-2.49645352363586,-2.04135894775391,-2.14826035499573,-1.88070142269135,-2.5025622844696,-1.62535965442657,-1.1623238325119,3.87548184394836,20.0139312744141,9.44229698181152,2.73743987083435,1.17912268638611,-0.35292738676071,-2.24722051620483,-2.44330835342407,-0.9241618514061,-1.81241071224213,-4.44363832473755,-2.21463656425476,-8.55717658996582,-10.3240966796875,-14.4995851516724,-40.1423835754395,37.3172264099121,38.559814453125,22.9298686981201,19.3265953063965,15.9771060943604,8.9953145980835,3.62721562385559,7.84849262237549,8.82772064208984,6.45985555648804,4.18267059326172,-0.64643448591232,-7.37683486938477,-14.554651260376,-34.163761138916,-43.2237205505371,-6.68730449676514,-11.5188035964966,-7.45344924926758,-0.63925182819366,-0.93134444952011,-2.16914677619934,10.9226474761963,12.7781534194946,9.49330902099609,10.419864654541,5.85172843933105,15.3163070678711,12.0862293243408,15.2109622955322,15.1726551055908,-10.9010992050171,6.51492214202881,2.26252055168152,-1.50355863571167,4.62559747695923,10.3791637420654,SWING_LEFT
0.04398229718208,1.04335784912109,0.36041048169136,0.09468411654234,-0.53267449140549,-0.92729341983795,-2.5613579750061,-0.39584067463875,2.18567585945129,6.35971784591675,-0.61147612333298,3.36953258514404,1.39827048778534,-0.04764748737216,-0.85704392194748,-0.81298530101776,-1.13063526153564,-0.96814507246017,-0.85024803876877,1.0312168598175,1.24990665912628,0.75144058465958,1.76486599445343,-2.23752307891846,-3.93695020675659,6.65789651870728,0.34277176856995,0.25541803240776,0.4783838391304,-0.55703276395798,-2.42314982414246,-1.66628766059875,-2.14826035499573,-2.19957304000854,-2.90817666053772,-3.53492450714111,1.0300714969635,9.28958034515381,18.0622158050537,16.759241104126,7.92368602752686,3.09174180030823,1.37887561321259,-1.21546912193298,-1.19103455543518,-3.77565598487854,-1.4484920501709,-2.18830037117004,-2.72699570655823,-7.92989540100098,-15.8095121383667,-30.5389404296875,-21.3832130432129,7.29782629013062,39.4121513366699,29.0760841369629,20.3584957122803,18.8118419647217,7.2499418258667,6.40478897094727,5.04488229751587,5.67216300964355,4.76446151733398,2.07816696166992,-2.38462495803833,-8.33690929412842,-18.3593368530273,-40.8414878845215,-72.2710723876953,-21.8907852172852,-7.81497383117676,-7.85328102111816,-2.76530289649963,0.59615623950958,1.03668928146362,12.8643445968628,9.19163990020752,7.05840587615967,13.5921821594238,9.05277633666992,5.38246488571167,14.5235271453857,16.6235408782959,12.773365020752,-3.2585084438324,13.4054346084595,-0.79966336488724,4.12281513214111,6.01692819595337,8.42549514770508,SWING_LEFT
0.33414328098297,0.22540926933289,-0.27794370055199,-0.15027284622192,-1.32741022109985,0.53878313302994,-1.49600899219513,-1.59374737739563,6.27175331115723,1.16430914402008,1.21501100063324,1.42637038230896,0.76969021558762,-1.17652642726898,-1.29869949817657,-0.47762027382851,-0.84963721036911,0.16134478151798,-0.47151160240173,-1.06771612167358,-2.17582559585571,-0.10010553896427,2.15826320648193,-0.03168863430619,2.43987226486206,1.2266937494278,0.35621079802513,1.16255295276642,-0.01336267683655,0.69646275043488,-3.06761264801025,-2.93077874183655,-2.27837467193604,-2.44636249542236,-2.36878275871277,-1.85199069976807,-2.63145470619202,-2.07434558868408,16.0610218048096,15.9571743011475,3.45215225219727,1.45828807353973,0.321467846632,-1.01082921028137,-1.36635279655457,-0.13168109953403,-1.66157603263855,-0.68474167585373,-1.13485157489777,-3.83072280883789,0.88585460186005,-3.09091448783875,-10.9034938812256,2.42532634735107,32.2579765319824,19.3241996765137,16.1159706115723,12.9864492416382,8.87321090698242,5.95707321166992,6.44070196151733,5.63864421844482,6.29944372177124,6.0504469871521,4.00789356231689,5.06403589248657,0.97444009780884,-5.34894609451294,-58.6142463684082,-25.2669086456299,-8.31536197662354,-5.52372264862061,-1.24977326393127,0.24420857429504,0.73980832099915,8.88518142700195,7.88919401168823,10.6377372741699,5.59794282913208,13.0175743103027,8.37521648406982,8.72955894470215,17.1143531799316,1.73100781440735,13.0798234939575,4.01747035980225,3.1196448802948,3.63200402259827,8.81096172332764,12.2586116790771,SWING_LEFT
-0.99021255970001,-0.06597344577312,0.15454891324043,0.31215214729309,0.62980204820633,0.68416905403137,-0.06841690838337,-1.64383840560913,2.50149321556091,0.91751956939697,2.85518407821655,0.54855698347092,-0.39278635382652,-1.79838728904724,-1.91811692714691,-0.31024318933487,-0.82459169626236,0.15767958760262,-0.60773456096649,-0.61873012781143,0.29512426257133,-2.13306498527527,6.63407278060913,-1.57717776298523,0.58833956718445,-1.0756573677063,0.34155002236366,0.87117022275925,-0.60406935214996,-0.69692087173462,-3.84035706520081,-3.04195618629456,-1.56182968616486,-1.6345226764679,-1.8067866563797,-1.21485829353333,-2.28937029838562,1.32389771938324,17.3041324615479,17.529541015625,7.2596755027771,-0.22281309962273,-0.59360831975937,-1.22646474838257,-1.06275284290314,-3.9767689704895,-5.59794282913208,-2.827552318573,-1.63045132160187,-4.54658889770508,-3.00232887268066,-6.91714811325073,-25.8558826446533,-2.2864625453949,36.2781410217285,31.7982902526855,9.23952388763428,8.51408004760742,5.18374586105347,5.03530550003052,1.95845699310303,2.97120428085327,7.05601167678833,9.25628280639648,7.8173680305481,5.51893424987793,-2.09013819694519,-17.5500965118408,-59.8568382263184,-26.662727355957,-9.60823059082031,-2.3319525718689,2.03028297424316,0.66798228025436,1.32399356365204,12.7613945007324,11.0279922485352,10.2355117797852,11.7151279449463,11.2051630020142,7.68329238891602,15.6802253723145,12.5746469497681,13.2665710449219,14.8829565048218,2.90416669845581,5.57878923416138,3.80199241638184,7.95623159408569,11.3296613693237,SWING_LEFT
-0.34086281061172,0.21991148591042,0.31642818450928,0.07147123664618,-0.06291911751032,0.18020524084568,-0.74830991029739,1.45141577720642,-0.13194689154625,8.12511825561523,0.52106803655624,2.88817095756531,1.18324601650238,1.57481062412262,0.42455133795738,-0.14408783614635,-1.59550368785858,-2.24424266815186,-0.35300374031067,0.72211909294128,0.95608049631119,0.44173192977905,1.01105833053589,2.7813458442688,-5.67669439315796,4.84362697601318,-0.64438647031784,-0.3603341281414,1.02144300937653,1.61092805862427,-4.01872968673706,-3.50315952301025,-3.0792191028595,-3.31501293182373,-4.15373086929321,-2.83975982666016,0.3208569586277,8.10205841064453,19.4421615600586,18.323055267334,9.48139190673828,2.85045003890991,1.7356208562851,0.45402559638023,-1.61314237117767,-2.47799873352051,-2.91134929656982,-3.58651423454285,-3.1196448802948,-9.76385402679443,-14.6192951202393,-22.9083194732666,-29.9547557830811,6.45267295837402,33.5795783996582,32.0113754272461,17.0233726501465,15.7400808334351,16.3889083862305,10.1373491287231,4.77643251419067,6.59871912002563,5.69849920272827,2.827552318573,-4.18506479263306,-6.44070196151733,-18.1773777008057,-40.6068572998047,-74.3447494506836,-30.4671154022217,-7.86285781860352,-10.3169145584106,-8.65054988861084,-2.72938990592957,-0.48602294921875,8.8971529006958,8.11424922943115,11.8539915084839,11.5906295776367,12.5961942672729,7.1613564491272,17.8972568511963,11.669638633728,26.9835510253906,-8.06636524200439,5.20289945602417,-0.9720458984375,5.42077207565308,2.57855534553528,2.50194072723389,SWING_LEFT
-0.81917029619217,-0.58459806442261,-0.29260444641113,-0.18814650177956,-0.44898596405983,0.86803948879242,1.04396867752075,0.3720169365406,3.30417013168335,2.5436429977417,4.94617605209351,2.15757608413696,1.59557998180389,0.76969021558762,-0.25350907444954,-1.10620057582855,-3.36334776878357,-1.18133699893951,0.86750501394272,0.90415692329407,-0.03657555580139,0.51686835289001,4.65120410919189,1.90780854225159,-1.63704252243042,-3.94183707237244,0.14057536423206,1.54495453834534,1.6701819896698,0.90598952770233,-4.10119676589966,-4.95579719543457,-3.5147659778595,-2.56059432029724,-1.56549489498138,0.5755877494812,1.33306062221527,7.89925098419189,19.7359867095947,15.4428262710571,8.53332901000977,3.92923808097839,1.11192750930786,-0.28756481409073,-1.15682601928711,0.6033388376236,-3.95522117614746,-6.56998872756958,-7.46063184738159,-9.96975517272949,-10.7191400527954,-12.984055519104,-36.0411148071289,9.65372085571289,25.6020965576172,22.956205368042,20.6122817993164,14.8446493148804,12.9289884567261,11.2291049957275,5.55245304107666,1.12766897678375,-0.67995327711105,-2.42772054672241,-5.31063842773438,-4.52504110336304,-11.7055511474609,-40.9899291992188,-63.4122276306152,-20.765510559082,-10.1014366149902,-6.55322933197021,-5.55963563919067,-2.84910011291504,-1.85790050029755,9.06714153289795,14.8518314361572,13.8914575576782,12.7829418182373,15.5653038024902,16.4918594360352,10.8053312301636,21.2706871032715,6.15100336074829,9.62738418579102,-5.56921243667603,1.30244576931,2.53545951843262,2.63601613044739,6.3377513885498,SWING_LEFT
-0.62124997377396,-0.10812314599752,-0.18631389737129,-0.45142942667007,0.48075094819069,0.01710422709584,0.28771752119064,1.89673662185669,3.14962124824524,5.00909519195557,3.54485106468201,0.86070913076401,0.50518554449081,0.58215457201004,-0.59009581804276,-1.50448477268219,-0.90583682060242,0.04833471402526,1.42583584785461,0.21632266044617,-0.05917757004499,-0.4647921025753,0.0947604700923,2.42154622077942,3.53942966461182,-0.24976752698421,0.62010461091995,0.36109772324562,2.02998161315918,1.36597108840942,-2.23561406135559,-2.48118185997009,-2.48973393440247,-2.03769373893738,-2.22278594970703,-1.21974515914917,0.41370847821236,6.0428318977356,13.0879402160645,17.9589805603027,11.9651699066162,4.55476379394531,1.44301640987396,0.25366178154945,-1.48302805423737,-1.13006317615509,-0.1723825186491,-1.46046304702759,-3.5506010055542,-5.26754283905029,-7.12544345855713,-6.06720638275146,-14.5857763290405,-15.1415300369263,20.6242523193359,29.4759140014648,22.8771953582764,15.2301158905029,15.2779998779297,12.349591255188,6.12466716766357,6.62505531311035,5.95228481292725,2.89458990097046,-0.66798228025436,-4.54658889770508,-8.27705478668213,-20.4590511322021,-51.6875228881836,-39.3882102966309,-13.0271511077881,-8.48534965515137,-8.31296730041504,-2.59531474113464,-0.28969839215279,11.5068330764771,11.3847284317017,11.7773771286011,12.3687448501587,9.11502552032471,11.1596736907959,15.6083993911743,11.6073894500732,23.7008018493652,5.25317764282227,-2.38941335678101,-0.11013327538967,6.17973375320435,2.85867691040039,5.64103841781616,SWING_LEFT
