gyro_x_0,gyro_y_0,gyro_z_0,acc_x_0,acc_y_0,acc_z_0,gyro_x_1,gyro_y_1,gyro_z_1,acc_x_1,acc_y_1,acc_z_1,gyro_x_2,gyro_y_2,gyro_z_2,acc_x_2,acc_y_2,acc_z_2,gyro_x_3,gyro_y_3,gyro_z_3,acc_x_3,acc_y_3,acc_z_3,gyro_x_4,gyro_y_4,gyro_z_4,acc_x_4,acc_y_4,acc_z_4,gyro_x_5,gyro_y_5,gyro_z_5,acc_x_5,acc_y_5,acc_z_5,gyro_x_6,gyro_y_6,gyro_z_6,acc_x_6,acc_y_6,acc_z_6,gyro_x_7,gyro_y_7,gyro_z_7,acc_x_7,acc_y_7,acc_z_7,gyro_x_8,gyro_y_8,gyro_z_8,acc_x_8,acc_y_8,acc_z_8,gyro_x_9,gyro_y_9,gyro_z_9,acc_x_9,acc_y_9,acc_z_9,gyro_x_10,gyro_y_10,gyro_z_10,acc_x_10,acc_y_10,acc_z_10,gyro_x_11,gyro_y_11,gyro_z_11,acc_x_11,acc_y_11,acc_z_11,gyro_x_12,gyro_y_12,gyro_z_12,acc_x_12,acc_y_12,acc_z_12,gyro_x_13,gyro_y_13,gyro_z_13,acc_x_13,acc_y_13,acc_z_13,gyro_x_14,gyro_y_14,gyro_z_14,acc_x_14,acc_y_14,acc_z_14,motion_type
-3.58902502059937,1.19391250610352,3.36489987373352,5.19873762130737,1.3894374370575,-3.70383739471436,-4.51508760452271,-4.65684986114502,-1.54632496833801,2.99598741531372,6.08451223373413,3.62271237373352,-2.75467491149902,-3.71854996681213,-2.33433747291565,1.05558753013611,3.25104999542236,2.46180009841919,-0.49967500567436,0.98601251840591,2.74161243438721,-1.31449997425079,-0.15262499451637,1.00058746337891,2.51308751106262,-0.39586248993874,-0.74648749828339,3.30714988708496,2.04146242141724,-0.02557500079274,5.48391246795654,-3.40284991264343,-6.23837518692017,-6.11256265640259,-4.90187501907349,3.16511249542236,7.93952512741089,6.30849981307983,-0.28380000591278,-5.54812479019165,-5.96227502822876,-5.60188770294189,-0.31075000762939,4.77523756027222,7.75018739700317,36.6889533996582,30.1980018615723,11.1090002059937,2.38394999504089,-10.5160503387451,-27.8310012817383,8.46000003814697,18.1789512634277,32.1570014953613,7.03605031967163,7.65105056762695,-3.74205017089844,-27.0430507659912,-21.7780513763428,13.206000328064,48.6010513305664,43.9849510192871,11.1019506454468,-14.1829509735107,-31.2280521392822,-25.8270015716553,-16.7639999389648,31.408052444458,55.5829544067383,25.8150005340576,-4.17795038223267,-22.2469501495361,-28.3050022125244,-25.1730003356934,13.5990009307861,27.9700508117676,11.4180002212524,6.0400505065918,1.81200003623962,-12.1600503921509,-8.58300018310547,1.28295004367828,13.6180505752563,24.0289516448975,12.0589504241943,2.80305004119873,-7.93695020675659,-7.49805021286011,-0.5020500421524,1.5289500951767,SHAKE
-3.72350001335144,0.05898749828339,1.89887499809265,3.86581254005432,3.11451244354248,-2.20604991912842,-1.86037504673004,-2.1487123966217,-1.77113747596741,0.83104997873306,3.92081236839294,3.6507625579834,-1.20546245574951,-2.28305006027222,-1.06260001659393,-0.53267496824265,2.17346239089966,1.03111255168915,-0.54243749380112,-1.00182497501373,2.18817496299744,-0.77206248044968,0.65367501974106,-0.36286249756813,2.80142498016357,-0.25533750653267,-1.51373744010925,1.69578754901886,-0.80753749608994,-1.16668748855591,6.92065000534058,-3.52866244316101,-6.28856229782104,-6.29956245422363,-6.38137483596802,1.76013743877411,8.79835033416748,8.03481292724609,3.11616253852844,-6.10279989242554,-6.27013731002808,-6.47666263580322,-2.67960000038147,7.05993747711182,9.32497501373291,29.0730018615723,25.7760009765625,3.50205016136169,5.26605033874512,0.05205000191927,-28.0230007171631,1.29195010662079,12.3940505981445,42.2460021972656,11.3100004196167,6.21495008468628,-0.06000000238419,-22.7959518432617,-13.2949504852295,12.3420009613037,46.2379531860352,48.9510040283203,16.6540508270264,-8.00400066375732,-16.678050994873,-24.5940017700195,-19.19700050354,15.6840009689331,55.1970024108887,33.0409507751465,2.73795008659363,-18.8520011901855,-30.0409507751465,-25.348051071167,-7.19895029067993,16.6210498809814,8.05905055999756,5.85795021057129,2.52495002746582,-0.44700002670288,-2.6620500087738,1.02900004386902,-2.00100016593933,19.4100017547607,5.83200025558472,5.00805044174194,-2.62395024299622,-5.68800020217896,1.10295009613037,-1.65900003910065,SHAKE
-3.54873752593994,-0.46268749237061,2.41683745384216,4.32148742675781,0.06998749822378,-0.67773747444153,-0.05458749830723,-3.17858743667603,-3.49373745918274,0.33880001306534,3.73023748397827,2.71493744850159,-1.0674124956131,-0.35268750786781,-1.28974997997284,-0.64872497320175,1.15458750724792,-1.111687541008,-2.81847500801086,-0.41538751125336,-0.85758751630783,-2.89299988746643,-0.63153749704361,-0.19662499427795,1.18868744373322,-0.87958747148514,-1.59912502765656,1.41349995136261,-0.7402999997139,-0.68901246786118,7.36779975891113,-4.60872507095337,-5.73746252059937,-6.08080005645752,-4.52320003509521,3.67702507972717,8.81677532196045,7.74042510986328,-0.17874999344349,-6.12356233596802,-5.73993730545044,-6.43884992599487,-0.54642498493195,4.81676244735718,9.33955001831055,24.2080516815186,18.1759510040283,7.76805019378662,5.64000034332275,-10.675950050354,-22.3630504608154,7.56495046615601,19.0980014801025,39.2200508117676,5.9320502281189,7.13595056533813,0.1000500023365,-26.2390518188477,-20.730001449585,15.65505027771,37.3000526428223,37.582950592041,10.5199508666992,-10.312050819397,-24.5959510803223,-21.6130504608154,-14.0680503845215,29.5140018463135,50.9910011291504,27.4330520629883,14.2789506912231,-19.900951385498,-26.4250507354736,-26.017951965332,-1.1869500875473,7.51005029678345,1.74195003509521,7.63695049285889,1.7980500459671,-3.6889500617981,-0.51405000686646,-4.06305027008057,-6.49500036239624,13.7670001983643,16.1080513000488,13.314001083374,-6.74895048141479,-0.35895001888275,0.10500000417233,-7.42695045471191,SHAKE
-2.89506244659424,-0.94283747673035,2.07968759536743,4.46929979324341,-0.77426248788834,0.46213749051094,0.11027500033379,-4.20722484588623,-1.91894996166229,0.81152498722076,2.86041259765625,3.01675009727478,-0.41745001077652,-1.49627494812012,-1.98866248130798,-1.32302498817444,1.68107497692108,-0.4824874997139,-2.48613739013672,0.27004998922348,0.54243749380112,-1.78612494468689,1.03606247901917,-0.31391251087189,3.79953742027283,0.66948747634888,-0.68048751354218,1.55044996738434,-1.31697499752045,-2.50318741798401,6.25597476959229,-4.41691255569458,-5.95003747940063,-6.58899974822998,-5.92927503585815,3.98364996910095,9.13673782348633,8.75434970855713,3.09058737754822,-5.0106372833252,-5.07539987564087,-6.5071873664856,-5.37954998016357,3.39721250534058,7.95423746109009,38.8800010681152,24.4110012054443,6.50895023345947,7.84305047988892,-9.80505084991455,-25.2360019683838,5.38095045089722,14.0509510040283,50.2219505310059,16.4140510559082,10.9240503311157,10.0600500106812,-14.0569505691528,-17.824951171875,6.02295017242432,46.3120536804199,44.683952331543,16.4359512329102,-7.66605043411255,-27.8569507598877,-25.711950302124,-18.0640506744385,14.8270511627197,46.6110038757324,33.0379524230957,9.51705074310303,-11.9020509719849,-25.4530506134033,-24.0120010375977,-14.1070508956909,13.4839506149292,1.23000001907349,8.15205001831055,0.24405001103878,-4.19400024414063,-0.02100000157952,-7.75005054473877,-2.02305006980896,21.6889514923096,1.6560001373291,3.32505011558533,-2.61900019645691,-6.10695028305054,-7.56300020217896,-3.23895025253296,SHAKE
-1.91894996166229,0.81152498722076,2.86041259765625,3.01675009727478,-0.41745001077652,-1.49627494812012,-1.98866248130798,-3.18106245994568,-2.40886259078979,-0.20239999890327,7.06309986114502,4.04181241989136,-0.69231247901917,-0.91355001926422,-1.76137495040894,-0.31391251087189,3.79953742027283,0.66948747634888,-0.68048751354218,1.55044996738434,-1.31697499752045,-2.50318741798401,-2.0622251033783,0.01952499896288,3.05305004119873,-1.22168743610382,-1.36221253871918,2.31275010108948,-0.49472498893738,-1.19116246700287,3.09058737754822,-5.0106372833252,-5.07539987564087,-6.5071873664856,-5.37954998016357,3.39721250534058,7.95423746109009,7.97499990463257,-1.43096244335175,-7.22562503814697,-6.05756235122681,-6.57566261291504,-0.96057498455048,3.95436239242554,8.50148773193359,50.2219505310059,16.4140510559082,10.9240503311157,10.0600500106812,-14.0569505691528,-17.824951171875,6.02295017242432,20.5129508972168,48.4740028381348,7.73505020141602,10.3090505599976,-0.46395000815392,-25.5760517120361,-20.6820011138916,13.2180004119873,46.6110038757324,33.0379524230957,9.51705074310303,-11.9020509719849,-25.4530506134033,-24.0120010375977,-14.1070508956909,32.5500030517578,55.4220008850098,24.1360511779785,-5.32395029067993,-22.4220008850098,-25.6590003967285,-22.945951461792,0.08295000344515,21.6889514923096,1.6560001373291,3.32505011558533,-2.61900019645691,-6.10695028305054,-7.56300020217896,-3.23895025253296,6.47400045394897,10.2810001373291,20.4829502105713,8.1109504699707,-8.85795021057129,-6.39495038986206,-3.9019501209259,-5.92095041275024,SHAKE
-2.7277250289917,-0.27939999103546,1.24409997463226,4.90311241149902,1.30996251106262,-0.40039998292923,0.60995000600815,-1.6770875453949,-0.80107498168945,-1.31546247005463,0.1127500012517,2.26902508735657,0.78347498178482,-0.53473746776581,-0.02048750035465,-2.18556237220764,1.16916251182556,-0.85758751630783,-3.30343747138977,-2.46908760070801,0.30057498812675,-2.64371252059937,-0.50943750143051,-1.77883744239807,0.32986250519753,-2.25527501106262,-3.42072486877441,-1.31821250915527,-0.92963749170303,-2.13551259040833,6.03363752365112,-4.70401239395142,-6.11380004882813,-6.07227516174316,-5.58965015411377,1.9959499835968,8.61272525787354,8.37072467803955,2.71301245689392,-6.1443247795105,-6.79057502746582,-6.53042507171631,-4.34967517852783,4.95247507095337,8.09352493286133,42.952953338623,23.7340507507324,7.26300048828125,4.68000030517578,-9.4980001449585,-29.3970012664795,-2.69805002212524,15.3300008773804,43.8360023498535,17.8510513305664,6.97395038604736,6.20700025558472,-20.1460514068604,-24.5490016937256,-9.32295036315918,44.7580528259277,42.3499526977539,13.6879510879517,-7.95795059204102,-23.3419513702393,-23.0920505523682,-16.9680004119873,12.8659505844116,49.7620506286621,31.185001373291,6.94500017166138,-3.58395028114319,-24.775951385498,-23.2480506896973,-20.0730018615723,18.4140014648438,-1.91700005531311,9.74400043487549,4.46205043792725,-2.40795016288757,0.86400002241135,-2.83005023002625,-5.73900032043457,8.82705020904541,-6.42105007171631,8.47005081176758,10.0890007019043,-1.54905009269714,1.58400011062622,0.48495003581047,SHAKE
-0.08401250094175,1.14014995098114,0.30579999089241,1.70101249217987,1.24520003795624,-0.14011250436306,-0.34416249394417,-1.01241254806519,1.24038743972778,-0.08401250094175,0.5489000082016,2.22145009040833,-0.76450002193451,-0.90254998207092,-0.25616249442101,-0.56072497367859,1.05311250686646,0.3616249859333,-1.07511246204376,-0.63896250724792,0.43009999394417,-1.30597496032715,0.16376249492168,-0.7097749710083,1.38421249389648,-0.9785875082016,-2.2760374546051,1.61273753643036,-1.2644499540329,-1.3194500207901,5.37638759613037,-4.0613374710083,-7.30991268157959,-6.80652475357056,-4.25562477111816,-0.17503750324249,8.62496280670166,7.73189973831177,0.32463750243187,-6.08327484130859,-6.49137496948242,-6.41437482833862,-2.05892491340637,7.56689977645874,9.12463760375977,32.8990516662598,28.9699516296387,9.01395034790039,3.37995004653931,-20.4109516143799,-27.9370517730713,1.84005010128021,17.9490013122559,33.7369499206543,10.1770505905151,4.84305000305176,-2.0350501537323,-28.0270519256592,-12.8170509338379,12.5140504837036,42.8160018920898,40.5199508666992,13.4220008850098,-9.01605033874512,-21.7230014801025,-22.9780502319336,-12.8449506759644,25.0129508972168,48.1270523071289,25.1389503479004,3.00195002555847,-18.4000511169434,-25.2259521484375,-21.0430507659912,-1.66395008563995,8.6380500793457,-5.93505048751831,-1.56495010852814,3.31305027008057,-2.73105001449585,-2.6050500869751,0.50505000352859,6.1360502243042,2.83395004272461,-4.19400024414063,4.25895023345947,3.3229501247406,-3.33000016212463,0.46395000815392,-4.14195013046265,SHAKE
1.24038743972778,-0.08401250094175,0.5489000082016,2.22145009040833,-0.76450002193451,-0.90254998207092,-0.25616249442101,-0.95988750457764,-0.77426248788834,0.84328746795654,2.37654995918274,3.1988000869751,-0.51521247625351,-0.19387499988079,-0.33934998512268,-0.7097749710083,1.38421249389648,-0.9785875082016,-2.2760374546051,1.61273753643036,-1.2644499540329,-1.3194500207901,0.15399999916553,-0.51796251535416,0.05128749832511,-1.28149998188019,-2.34561252593994,2.14651250839233,-1.44897496700287,-0.37743750214577,0.32463750243187,-6.08327484130859,-6.49137496948242,-6.41437482833862,-2.05892491340637,7.56689977645874,9.12463760375977,7.60113763809204,0.47368749976158,-6.68318748474121,-6.1626124382019,-6.32761240005493,-1.1866250038147,7.99933767318726,8.84729957580566,33.7369499206543,10.1770505905151,4.84305000305176,-2.0350501537323,-28.0270519256592,-12.8170509338379,12.5140504837036,21.1980018615723,33.1930503845215,4.68900012969971,3.88500022888184,-2.35095000267029,-31.1640014648438,-9.63000011444092,13.0890007019043,48.1270523071289,25.1389503479004,3.00195002555847,-18.4000511169434,-25.2259521484375,-21.0430507659912,-1.66395008563995,23.401050567627,50.6149520874023,13.5529508590698,2.83395004272461,-20.8440017700195,-24.996000289917,-21.1650009155273,-0.07905000448227,2.83395004272461,-4.19400024414063,4.25895023345947,3.3229501247406,-3.33000016212463,0.46395000815392,-4.14195013046265,-1.32405006885529,4.57005023956299,5.72895050048828,7.12005043029785,-0.26805001497269,-3.1189501285553,-0.88800007104874,-6.06405019760132,SHAKE
-1.25674998760223,0.53542500734329,0.3936625123024,2.20673751831055,0.12127500027418,-0.70331251621246,-0.04124999791384,-2.15105009078979,-1.97518754005432,-0.91836249828339,3.64347505569458,3.09732508659363,0.66371250152588,-1.34103751182556,-0.6349750161171,-1.09711253643036,0.84672498703003,1.20463752746582,-1.85336244106293,0.92358750104904,-0.04399999976158,-1.86064994335175,-0.80877500772476,-0.17710000276566,2.49480009078979,-0.48014998435974,0.35557499527931,2.00846242904663,-1.56736254692078,-0.31638750433922,5.65743732452393,-3.66423749923706,-5.86698770523071,-6.04174995422363,-4.89816236495972,4.78142499923706,8.57601261138916,7.14903736114502,-1.13286244869232,-6.95433759689331,-5.85241270065308,-5.64217519760132,-3.33313751220703,7.6573748588562,8.14962482452393,28.3450508117676,24.2839508056641,10.8810005187988,4.16505002975464,-18.3619499206543,-20.506950378418,7.33800029754639,18.2820014953613,37.8670501708984,5.99700021743774,4.53105020523071,-6.57495021820068,-21.6010513305664,-1.55595004558563,10.0000505447388,44.6190032958984,42.1870536804199,27.0450019836426,-9.11700057983398,-25.6470012664795,-22.7620506286621,-12.6630010604858,32.0040016174316,49.9630508422852,21.5620517730713,-2.46105003356934,-22.336051940918,-23.2819519042969,-17.7750015258789,11.6449508666992,4.89600038528442,-2.09895014762878,-2.31000018119812,5.56605005264282,-2.70300006866455,-2.10705018043518,-5.12100028991699,-1.11795008182526,6.60000038146973,9.25095081329346,7.51005029678345,-7.99905061721802,-9.67005062103271,-0.40200001001358,-3.40395021438599,SHAKE
-2.82067489624023,-1.03688752651215,0.50118750333786,3.941575050354,-0.2880625128746,-0.62026250362396,-0.54697501659393,-1.42051243782043,-0.34058749675751,-0.84383749961853,1.92692494392395,2.13345003128052,-0.40892499685287,-0.7510250210762,-0.52497500181198,0.06476250290871,1.07882499694824,0.59372502565384,-1.98646247386932,0.68296247720718,-0.08181250095367,-0.93706250190735,0.51796251535416,-0.95053750276566,0.92001247406006,-1.23392498493195,-0.58643752336502,1.49778747558594,-0.41043749451637,0.73796248435974,2.87553739547729,-3.86952495574951,-4.66839981079102,-4.94573736190796,-3.11808753013611,3.94088745117188,7.36175012588501,5.91524982452393,0.53721249103546,-5.73498725891113,-5.50536251068115,-5.25607490539551,0.39311251044273,6.91212511062622,6.74231243133545,24.8419513702393,10.57200050354,2.14394998550415,0.19800001382828,-18.1200008392334,-18.5940017700195,6.82005023956299,13.7209510803223,30.5839519500732,9.31005001068115,3.80400013923645,-5.36805009841919,-23.5500011444092,-2.0419499874115,12.6379508972168,43.5750007629395,34.2109527587891,22.9369506835938,-7.79295015335083,-21.574951171875,-19.9249515533447,-7.62495040893555,28.5250511169434,46.0390510559082,23.3170509338379,1.8550500869751,-17.60205078125,-20.3730010986328,-14.7630004882813,11.836950302124,4.10295009613037,4.48905038833618,6.78705024719238,-0.80895006656647,-1.4190000295639,0.77505004405975,-3.47100019454956,-1.03905010223389,0.73200005292892,1.21305000782013,7.46205043792725,-1.13205003738403,-3.25800013542175,-0.11700000613928,-4.48905038833618,SHAKE
0.36808750033379,0.45718750357628,2.2372624874115,0.60376250743866,-1.69784998893738,-0.36258751153946,-0.55673748254776,-1.11636245250702,-0.07424999773502,0.93981248140335,1.60930001735687,-0.72049999237061,0.25203749537468,-1.94837498664856,-3.44863748550415,-0.15510000288486,1.15568745136261,-1.17534995079041,-0.57048749923706,1.42573750019073,-0.48620000481606,0.53872501850128,-0.23952500522137,0.00123749999329,-0.55591249465942,-0.82472497224808,3.22286248207092,-0.9345874786377,-0.47767499089241,-0.80024999380112,-0.37661248445511,-5.12902498245239,-4.93844985961914,-5.00568723678589,-0.12003749608994,6.51873731613159,6.61773729324341,3.62202501296997,-1.50425004959106,-6.37642478942871,-6.75152492523193,-3.24279999732971,6.24139976501465,8.13010025024414,6.88159990310669,25.8570003509521,6.61695051193237,2.85795021057129,-4.125,-23.5960502624512,-5.01405000686646,9.10500049591064,31.8049507141113,26.8870506286621,6.39705038070679,2.7480001449585,-24.7309513092041,-13.7580003738403,11.0989503860474,25.0270519256592,41.5639533996582,21.3210010528564,2.69100022315979,-14.2819509506226,-17.3920516967773,-14.5570507049561,8.74095058441162,42.8599510192871,47.4520530700684,11.0130004882813,-12.8860502243042,-25.7410507202148,-23.707950592041,-7.25400018692017,37.699951171875,1.57995009422302,-1.04100000858307,1.35000002384186,-5.57805013656616,0.94305002689362,1.83105003833771,-4.22805023193359,5.28600025177002,-1.44300007820129,4.26405000686646,-0.59595000743866,-1.6519501209259,-5.92500019073486,-6.24600028991699,12.6169509887695,SHAKE
-3.05029988288879,0.93733751773834,1.42972505092621,2.08216238021851,0.33866250514984,-0.69726252555847,-1.74185001850128,-3.65144991874695,0.70276248455048,1.896399974823,3.79005002975464,3.50418758392334,-0.02777500078082,-1.60503745079041,-2.56533741950989,-0.01828750036657,-0.74772500991821,0.16981250047684,-0.56443750858307,0.97487497329712,-0.06957499682903,-0.7928249835968,0.16376249492168,0.82829999923706,0.98834997415543,-0.45814999938011,-0.00123749999329,2.04517507553101,-1.13863754272461,-0.28338751196861,4.5115122795105,0.16211250424385,-3.83886241912842,-5.09726238250732,-3.58352494239807,3.50226259231567,6.73626232147217,5.94577503204346,-2.09068751335144,-6.56699991226196,-6.37037515640259,-6.27013731002808,-1.57753753662109,7.94199991226196,7.38127517700195,12.0139503479004,15.6859502792358,8.4529504776001,-0.30600002408028,-16.0200004577637,-17.8519515991211,7.12905025482178,15.8089504241943,29.3820018768311,6.43695020675659,7.56300020217896,1.15305006504059,-25.5570011138916,6.20700025558472,12.2980508804321,23.6929512023926,37.933952331543,21.28005027771,-1.29495000839233,-21.3760509490967,-19.3770008087158,-6.35595035552979,37.0030517578125,49.480052947998,19.1899509429932,-7.9200005531311,-19.4910011291504,-27.0240020751953,-13.1779508590698,-0.34005001187325,6.42795038223267,4.45005035400391,-0.29895001649857,1.87200009822845,-4.23495006561279,-4.2180004119873,-5.72205018997192,8.9970006942749,8.29095077514648,1.98405003547668,3.42600011825562,-0.84705001115799,-6.48795032501221,-4.08900022506714,-3.98100018501282,SHAKE
-3.15177488327026,2.73817491531372,3.08756256103516,1.09738755226135,-0.68378752470016,-1.97147500514984,-3.50473737716675,-3.17006254196167,-0.32587498426437,2.53659987449646,5.05945014953613,1.69235002994537,-1.95071244239807,-3.0405375957489,-3.14435005187988,-0.42143750190735,0.0622874982655,-0.40810000896454,-1.27421247959137,1.98893749713898,0.38733750581741,-0.77824997901917,-0.83682501316071,1.04582500457764,1.28273749351501,-0.87835001945496,1.8631249666214,0.11481250077486,-1.36702501773834,-0.69519996643066,5.46810007095337,-1.04238748550415,-4.94463729858398,-5.99403762817383,-4.29096269607544,3.4791624546051,6.37697505950928,6.08629989624023,-2.70517492294312,-6.67452478408813,-6.0245623588562,-4.53901243209839,4.39422512054443,8.00428771972656,7.36532497406006,20.0800514221191,22.5580501556396,7.77300024032593,3.82500028610229,-20.110050201416,-16.7770500183105,8.47500038146973,16.371000289917,30.363000869751,7.43595027923584,8.27595043182373,-19.9420509338379,-19.7100009918213,10.7110500335693,12.9880504608154,36.5069999694824,45.7690505981445,18.6750011444092,-7.46295022964478,-26.943000793457,-23.7940502166748,-9.52605056762695,41.2909507751465,55.9750518798828,18.5020503997803,-11.6479501724243,-30.2160015106201,-28.1320514678955,-13.9750509262085,29.9329509735107,14.1589508056641,1.99905014038086,-6.16995048522949,1.00995004177094,0.27195000648499,-6.1360502243042,-4.21095037460327,9.58395004272461,8.08695030212402,7.50600051879883,3.63195013999939,-7.77105045318604,-8.00594997406006,-4.00305032730103,10.9770002365112,SHAKE
-3.51340007781982,-2.55791258811951,0.61476248502731,2.67464995384216,2.38383746147156,-0.59097498655319,-3.10653758049011,-3.82854986190796,0.05156249925494,2.15902495384216,1.32948744297028,0.25685000419617,-2.1987624168396,-3.4461624622345,-2.19394993782043,-0.76972502470016,-1.472212433815,1.23268747329712,1.94865000247955,2.97357487678528,1.58826243877411,-1.53078746795654,-0.2773374915123,1.17163753509521,3.91682505607605,3.59177494049072,4.32849979400635,1.55402493476868,-0.01952499896288,-1.52831244468689,6.62997484207153,4.08869981765747,-4.33001232147217,-7.57253742218018,-6.13579988479614,1.65137493610382,8.12405014038086,7.21998739242554,0.1915374994278,-6.66104984283447,-6.20784997940063,-3.80710005760193,2.45162487030029,5.61343765258789,5.95677518844604,9.50400066375732,16.6470012664795,16.5869998931885,3.39195013046265,-3.03600025177002,-23.1379508972168,4.42095041275024,11.8080005645752,33.1459503173828,5.88195037841797,3.43200016021729,-8.19300079345703,-14.0140504837036,2.55105018615723,13.1080503463745,3.73395013809204,45.2040023803711,39.9000015258789,2.90100002288818,-25.1110515594482,-27.07200050354,-17.238000869751,30.7210521697998,50.5360527038574,19.5460510253906,-7.62495040893555,-20.6340007781982,-18.1339511871338,-5.27205038070679,39.0769500732422,-4.0339503288269,16.2180004119873,8.55405044555664,4.10100030899048,-9.71805000305176,-16.5130500793457,-7.04400014877319,9.07605075836182,23.0440502166748,0.74895006418228,-4.56105041503906,-10.6800003051758,-12.3970508575439,-0.97605001926422,17.6070003509521,SHAKE
0.60623747110367,-1.82613754272461,0.28380000591278,2.54636240005493,2.36059999465942,0.19332499802113,0.87257498502731,-1.81266248226166,-1.29470002651215,0.80905002355576,2.68688750267029,2.04297494888306,-0.60926252603531,-1.42793750762939,-3.25682497024536,-3.85687494277954,-2.65471243858337,-0.57667499780655,-2.41408753395081,-1.06287503242493,-0.24557499587536,-2.68413758277893,-0.79777497053146,-0.90034997463226,0.35557499527931,-1.58949995040894,1.10934996604919,0.66948747634888,-1.77265000343323,0.68777501583099,8.74224948883057,3.32763743400574,-2.30326247215271,-6.72704982757568,-6.18090009689331,1.61961245536804,8.90477466583252,7.76971244812012,0.76202499866486,-6.80652475357056,-7.51258754730225,-6.81738758087158,2.68496251106262,9.49231243133545,8.46986198425293,8.84400081634521,38.7270011901855,29.0940017700195,2.88195013999939,-8.41095066070557,-31.3560009002686,-1.3860000371933,17.9250011444092,36.1480522155762,11.6929502487183,6.5110502243042,-12.1560001373291,-31.1640014648438,5.96595048904419,15.8880004882813,-9.40694999694824,48.0910530090332,48.5320510864258,3.01605010032654,-22.7070007324219,-25.4869518280029,-18.7350006103516,20.2339515686035,54.9649543762207,28.4340019226074,-3.52605009078979,-28.2469520568848,-30.1150512695313,-22.3099517822266,17.0560512542725,-9.91200065612793,18.9330005645752,5.16600036621094,8.37495040893555,-1.43595004081726,-2.84895014762878,-4.56494998931885,-4.86495018005371,11.2530002593994,4.125,8.42505073547363,-3.1429500579834,-9.02595043182373,-2.76495003700256,3.07800006866455,SHAKE
1.5054874420166,-1.12117505073547,1.15114998817444,2.21154999732971,-0.69478750228882,-2.74119997024536,-1.83108747005463,-0.96002501249313,0.27032500505447,2.9250373840332,2.89822506904602,-0.90007501840591,-2.11695003509521,-1.7467999458313,-2.44433736801147,-1.28768754005432,1.13987493515015,0.80024999380112,0.5656750202179,2.46537494659424,-0.29438748955727,0.18328750133514,-1.32550001144409,0.08057499676943,-0.1575749963522,0.06599999964237,2.26874995231628,-0.35667499899864,-0.03299999982119,-0.10381250083447,2.11199998855591,-5.8157000541687,-7.13638734817505,-6.4924750328064,-1.24396252632141,7.49608755111694,7.66713762283325,4.24146270751953,-1.64711248874664,-7.20843744277954,-6.65499973297119,-3.51889991760254,7.38127517700195,9.07211208343506,6.94264984130859,37.711051940918,18.1189517974854,8.03205013275146,-4.90605020523071,-25.4340019226074,-4.89405012130737,14.9200506210327,36.6439514160156,37.2640533447266,5.70195007324219,1.33695006370544,-24.2160015106201,-13.4509506225586,14.7739505767822,30.2680511474609,47.0710525512695,29.0400009155273,1.28805005550385,-20.3530502319336,-29.1019515991211,-22.2210006713867,8.62800025939941,57.5820045471191,58.8010520935059,5.22600030899048,-18.0240001678467,-32.5039520263672,-27.457052230835,-6.89295053482056,47.7460517883301,0.27000001072884,-1.23000001907349,9.94305038452148,-0.62895005941391,-5.68095016479492,-3.6820502281189,-1.24695003032684,14.0299510955811,6.01905012130737,6.67695045471191,-0.82995003461838,-3.69600009918213,-0.1219500079751,-0.591000020504,14.1379508972168,SHAKE
-2.44433736801147,-0.00219999998808,1.25743746757507,3.13280010223389,0.6599999666214,-2.36857509613037,-1.47922503948212,-2.67891240119934,-0.34911251068115,0.10298749804497,1.45048749446869,3.02898740768433,-0.9843624830246,-2.82301259040833,-0.98188751935959,-0.10381250083447,1.6773624420166,1.26692497730255,-0.18809999525547,1.17768752574921,1.33168745040894,-1.44168746471405,0.14409999549389,-0.25162500143051,2.35179996490479,0.78429996967316,-0.58148747682571,1.81417500972748,0.37014999985695,-1.15211248397827,6.94264984130859,-3.71071243286133,-7.5981125831604,-6.71357488632202,-5.81693744659424,3.63549995422363,9.5644998550415,8.60172462463379,1.35451245307922,-6.68552494049072,-7.26577472686768,-6.55476236343384,-3.95009994506836,6.4039249420166,9.52407455444336,30.2680511474609,30.3850517272949,5.92200040817261,5.76900005340576,-13.9830007553101,-26.6460018157959,7.88595056533813,17.3980503082275,42.3970527648926,12.961950302124,6.90405035018921,2.20395016670227,-22.0320014953613,-18.4189510345459,12.8490009307861,47.7460517883301,52.305004119873,14.4940509796143,-9.53805065155029,-27.9310512542725,-29.310001373291,-19.900951385498,24.5380516052246,56.3989524841309,29.5470008850098,14.4270009994507,-15.2920503616333,-27.3160514831543,-25.0440006256104,-12.4159507751465,14.1379508972168,-2.40300011634827,4.18005037307739,3.49695014953613,-5.37000036239624,-2.1780002117157,-1.10805010795593,6.05505037307739,8.57100009918213,3.54495024681091,4.77105045318604,1.95105004310608,-6.32295036315918,1.72095012664795,-1.1869500875473,SHAKE
-1.0723625421524,-1.76632499694824,1.29043745994568,2.8969874382019,0.21037499606609,1.65206253528595,-0.41511249542236,-2.8254873752594,0.57818752527237,1.95263743400574,1.77663743495941,-0.89649999141693,-0.76821249723434,-0.12801249325275,-3.09058737754822,-1.63336253166199,-1.68231248855591,0.98834997415543,-1.30116248130798,1.72383749485016,-0.01223750039935,-0.96029996871948,0.7012500166893,-0.10504999756813,1.09340000152588,-1.25839996337891,1.20092499256134,0.681725025177,-0.97130000591278,1.10440003871918,7.65861225128174,3.77602505683899,-6.34947490692139,-8.02821254730225,-7.37701225280762,2.72896242141724,9.32497501373291,7.7624249458313,0.33811250329018,-6.59876251220703,-6.63657474517822,-6.30066251754761,3.1516375541687,7.58532476425171,7.32146263122559,3.91395020484924,33.058952331543,18.9570007324219,8.6419506072998,-11.0449504852295,-30.0120010375977,5.85495042800903,17.0149517059326,40.3810501098633,9.31800079345703,5.68995046615601,-10.7959508895874,-27.5200519561768,-10.4200506210327,16.3450508117676,-12.6340503692627,54.2490043640137,37.678050994873,-0.95295006036758,-30.9510021209717,-32.6310005187988,-18.9979515075684,31.1490020751953,54.7570533752441,24.201000213623,-3.70800018310547,-27.151050567627,-25.9369506835938,-23.5930519104004,23.9449520111084,-7.31205034255981,14.8339509963989,6.21705007553101,5.29800033569336,1.92900013923645,-3.7350001335144,-8.19300079345703,3.52605009078979,10.5030002593994,-1.48905003070831,-0.13095000386238,-0.54300004243851,0.5020500421524,-0.36600002646446,1.75005006790161,SHAKE
-1.47922503948212,-2.59586238861084,0.61723750829697,3.54942488670349,1.47496247291565,-2.27947497367859,-0.2050125002861,-0.44563749432564,-1.85061252117157,0.20679999887943,3.29518747329712,1.69853746891022,-2.23904991149902,-0.2208250015974,0.12856249511242,0.24681249260902,0.38238748908043,2.49837493896484,-0.6682500243187,-0.40686249732971,2.56808757781982,-1.70307493209839,0.56072497367859,-0.70853751897812,2.45190000534058,-1.11182498931885,-0.38362500071526,1.67983746528625,-1.79231250286102,-0.88824999332428,8.31091213226318,7.61337518692017,-5.65922498703003,-6.54995012283325,-6.77462482452393,-1.80358743667603,8.89006233215332,8.84977531433105,3.85178756713867,-6.77462482452393,-6.98967504501343,-7.14848756790161,-0.46818751096725,9.12339973449707,9.34573745727539,15.6340503692627,17.6899509429932,18.3580513000488,7.22505044937134,4.89795017242432,-31.8490524291992,-2.77995014190674,17.485050201416,46.2540016174316,16.3229999542236,8.23305034637451,1.66995012760162,-35.4550514221191,0.3649500310421,13.4500503540039,4.14900016784668,36.7110023498535,39.0810012817383,5.69505023956299,-20.1259517669678,-29.9089508056641,-24.5989513397217,9.00705051422119,57.373950958252,34.2139511108398,2.00100016593933,-24.7540512084961,-27.8620510101318,-22.4359512329102,-12.4620008468628,-3.06900024414063,3.25800013542175,2.87295007705688,1.43805003166199,-5.52795028686523,-2.16600012779236,2.29305005073547,-5.44905042648315,8.45100021362305,2.7769501209259,2.10405015945435,-6.94095039367676,-3.44295024871826,3.61995005607605,-2.70300006866455,SHAKE
-1.98013746738434,-0.41139999032021,0.9813374876976,2.68193745613098,0.80781251192093,-1.47070002555847,-1.50479996204376,-1.7688000202179,-0.8952624797821,-0.17434999346733,1.98673748970032,0.92152500152588,-2.27823758125305,-0.69121247529984,-0.04372499883175,-1.38902497291565,-0.53020000457764,1.06534993648529,-0.86858749389648,-0.10999999940395,1.76660001277924,0.20762500166893,0.63896250724792,0.38362500071526,1.82888746261597,-0.81001251935959,-0.16733749210835,2.08669996261597,-0.31886249780655,0.94435000419617,7.73066234588623,0.93912500143051,-4.13462495803833,-6.84805011749268,-6.94333744049072,-4.72711229324341,7.31156253814697,8.86929988861084,1.01983749866486,-6.39223766326904,-6.75386238098145,-6.71481227874756,0.81454998254776,9.93836212158203,9.10634994506836,10.8210000991821,37.161003112793,18.4399509429932,5.32905006408691,-4.29495000839233,-24.1129512786865,-15.4000511169434,19.0380001068115,39.7660522460938,8.58000087738037,4.08795022964478,-3.91500020027161,-34.5040512084961,2.50305008888245,18.8350505828857,21.5839519500732,48.3640518188477,43.0339508056641,0.89505004882813,-24.3660011291504,-28.9420509338379,-26.6910018920898,21.8880004882813,51.9769515991211,26.0350513458252,1.12995004653931,-22.8649501800537,-25.5799503326416,-21.6030006408691,18.5380516052246,0.82500004768372,16.5559501647949,5.42700004577637,3.12600016593933,-3.37995004653931,-4.54200029373169,2.62095022201538,-0.79395002126694,8.32695007324219,3.15000009536743,3.85200023651123,-1.98000013828278,-0.56700003147125,6.18105030059814,0.31500002741814,SHAKE
-0.64721250534058,-0.3783999979496,1.78282499313354,2.26655006408691,1.0729124546051,-2.1707124710083,-0.74978750944138,-2.5616250038147,0.11632499843836,-1.07483744621277,0.96662497520447,0.70523750782013,0.1127500012517,-0.85483747720718,-0.45787498354912,1.3034999370575,1.17645001411438,2.32979989051819,-0.51919996738434,0.00371249997988,2.17470002174377,-0.45086249709129,0.95411247014999,-0.52043747901917,1.66636252403259,-0.34691250324249,1.73965001106262,1.60407495498657,1.69688749313354,2.37256240844727,7.81990003585815,1.90066254138947,-5.99032497406006,-6.56328725814819,-6.89809989929199,2.73391246795654,10.1582250595093,8.21204948425293,-0.80547499656677,-7.18272495269775,-7.71292495727539,-5.96474981307983,5.3116250038147,10.0164623260498,9.20892524719238,20.5519504547119,41.050952911377,11.1709508895874,6.71700048446655,-5.21700048446655,-36.0439529418945,11.3170509338379,19.9699516296387,41.9710502624512,9.18105030059814,6.33705043792725,-18.7930507659912,-29.7370510101318,-6.91695022583008,18.6600017547607,20.0970001220703,50.3389511108398,27.6199512481689,0.1410000026226,-30.1939506530762,-28.7689514160156,-19.4170513153076,33.9430503845215,52.7239532470703,21.5310001373291,-8.25300025939941,-30.9670505523682,-27.7450504302979,-25.3120517730713,11.1109504699707,-2.14005017280579,12.5790004730225,0.57195001840591,2.43195009231567,-2.81805014610291,0.37095001339912,-0.02400000020862,5.75100040435791,-0.79395002126694,2.55900001525879,4.53194999694824,-0.03299999982119,-3.7110002040863,-1.24200010299683,3.61500024795532,SHAKE
-1.18470001220703,-1.39246249198914,-1.03812503814697,0.43161249160767,1.4357750415802,0.11632499843836,-0.11948750168085,-0.48468750715256,-1.21288752555847,1.45653748512268,2.40831255912781,-0.55068749189377,-0.23306250572205,0.19208750128746,-3.55492496490479,0.54119998216629,-0.83077502250671,2.11969995498657,0.00728749996051,-1.18263745307922,2.39208745956421,-0.77701246738434,0.43243750929832,1.41473746299744,2.01465010643005,-0.37386250495911,1.63102495670319,1.04458749294281,-1.21316254138947,1.17521250247955,9.45202541351318,4.52251243591309,-5.39288759231567,-7.45153760910034,-7.10448741912842,-2.58541250228882,10.5918998718262,8.49915027618408,0.04124999791384,-7.65311241149902,-8.18331241607666,-7.32929992675781,5.27381229400635,11.5814876556396,9.57054996490479,17.6350517272949,44.2770004272461,20.8920001983643,6.2509503364563,4.38300037384033,-36.634952545166,-6.2920503616333,25.2010517120361,50.3629531860352,13.1839504241943,8.55105018615723,-12.8119506835938,-34.4730033874512,13.4569501876831,32.2669525146484,7.24500036239624,45.9940528869629,33.7180519104004,7.67505025863647,-17.7390003204346,-27.0859508514404,-27.0649509429932,21.9570007324219,56.9119529724121,25.4389514923096,-5.06400012969971,-35.0620498657227,-34.8010520935059,-23.6929512023926,33.0430526733398,-5.0779504776001,13.2540006637573,-0.95700001716614,5.53500032424927,0.60000002384186,-2.82495021820068,-1.64205002784729,-0.27495002746582,13.1509504318237,4.78305006027222,-0.11400000751019,-2.96805024147034,0.16500000655651,-1.59195005893707,12.2989501953125,SHAKE
-0.48468750715256,-1.21288752555847,1.45653748512268,2.40831255912781,-0.55068749189377,-0.23306250572205,0.19208750128746,-3.55492496490479,-2.03018760681152,1.22815001010895,2.76498746871948,1.1035749912262,-0.96854996681213,0.27761250734329,-3.33492493629456,0.43243750929832,1.41473746299744,2.01465010643005,-0.37386250495911,1.63102495670319,1.04458749294281,-1.21316254138947,1.17521250247955,0.05981250107288,1.29016244411469,-1.21192502975464,-0.48014998435974,1.94369995594025,-2.14417505264282,0.46915000677109,8.49915027618408,0.04124999791384,-7.65311241149902,-8.18331241607666,-7.32929992675781,5.27381229400635,11.5814876556396,9.57054996490479,5.42891263961792,-7.16072511672974,-8.10878753662109,-8.03921222686768,2.92324995994568,12.1814002990723,9.74531269073486,25.2010517120361,50.3629531860352,13.1839504241943,8.55105018615723,-12.8119506835938,-34.4730033874512,13.4569501876831,32.2669525146484,52.654052734375,11.403000831604,12.5020503997803,-7.20195055007935,-39.8149528503418,8.26905059814453,31.2160511016846,21.9570007324219,56.9119529724121,25.4389514923096,-5.06400012969971,-35.0620498657227,-34.8010520935059,-23.6929512023926,33.0430526733398,52.734001159668,25.420051574707,-4.83795022964478,-33.6850509643555,-35.6220016479492,-29.0140514373779,23.1499519348145,-0.27495002746582,13.1509504318237,4.78305006027222,-0.11400000751019,-2.96805024147034,0.16500000655651,-1.59195005893707,12.2989501953125,22.4340019226074,4.39995002746582,5.13495016098022,-1.30395007133484,-0.73200005292892,-3.67995023727417,2.69100022315979,SHAKE
-3.43997502326965,-0.4296875,1.04981243610382,2.41807508468628,0.13584999740124,0.0930875018239,-0.47616249322891,-5.11128759384155,-2.06318759918213,1.62153744697571,5.64093732833862,2.10168743133545,-0.49087500572205,-0.18177500367165,-1.0784125328064,2.10746240615845,1.11058747768402,-1.53450000286102,-2.02922487258911,2.36403751373291,-0.20157499611378,-1.50755000114441,1.60778748989105,0.83929997682571,1.31326246261597,-2.55337500572205,-1.8631249666214,0.35062500834465,-0.82706248760223,-0.65601247549057,7.65861225128174,-5.09973764419556,-7.89992475509644,-9.08366203308105,-7.37453746795654,8.3390998840332,11.4764375686646,8.68477535247803,-0.95810002088547,-6.61100006103516,-7.19867515563965,-8.3848876953125,-7.62739992141724,9.06716251373291,10.4513750076294,32.2210502624512,29.9920520782471,16.5360012054443,13.3519506454468,-23.695951461792,-24.775951385498,20.824951171875,29.0080509185791,45.2250022888184,16.0120506286621,14.9010009765625,4.31595039367676,-10.9320001602173,-15.1819505691528,18.8179512023926,38.4490509033203,44.9020538330078,12.5449504852295,-16.1899509429932,-39.6750030517578,-35.9230499267578,-21.9600009918213,31.828950881958,56.7630043029785,27.8280010223389,0.63405001163483,-21.5220012664795,-29.3940010070801,-30.1650009155273,-13.1749505996704,6.67200040817261,0.28905001282692,6.6870002746582,6.39900016784668,-1.58700013160706,-4.4170503616333,-7.7359504699707,8.43705081939697,10.6200008392334,15.7369508743286,5.3100004196167,-0.28395000100136,0.71100002527237,-1.31400001049042,-6.59295034408569,SHAKE
-2.82796239852905,-0.08277499675751,0.7627124786377,2.15545010566711,-0.50545001029968,-0.58244997262955,0.81276249885559,-0.02529999986291,-1.50727498531342,-0.50297498703003,0.47437500953674,0.54271250963211,0.2727999985218,0.62342500686646,-0.10230000317097,0.2773374915123,0.84658747911453,0.13310000300407,-2.34327507019043,-1.25345003604889,3.00904989242554,-1.80083751678467,0.13681249320507,-0.96882498264313,0.09776250272989,-0.70853751897812,-1.63954997062683,2.54237508773804,-1.31821250915527,-2.03293752670288,7.5535626411438,-2.76993751525879,-7.4160623550415,-7.54187488555908,-7.72763729095459,0.09006249904633,11.2040500640869,8.8057746887207,3.11011242866516,-5.72893762588501,-7.77768754959106,-8.46917533874512,-3.46513748168945,10.1716995239258,11.394624710083,37.1200523376465,36.6289520263672,12.4849510192871,9.91395092010498,-1.53495001792908,-39.6010513305664,-0.46905001997948,30.0760517120361,33.0949516296387,25.3210506439209,13.5030002593994,5.66205024719238,-34.7530517578125,-10.396050453186,12.4570503234863,45.3040504455566,53.7870025634766,18.7630500793457,-4.27800035476685,-26.4229507446289,-28.1880016326904,-27.5239505767822,6.04500007629395,60.2250022888184,37.9249534606934,21.2490005493164,-22.9110012054443,-35.1450004577637,-32.3850021362305,-26.3299503326416,19.5030002593994,-0.55500000715256,4.59900045394897,5.12295007705688,2.050950050354,4.13400030136108,-2.74305009841919,-6.67005014419556,-0.80205005407333,4.27800035476685,3.43500018119812,5.86500024795532,3.44700026512146,-5.38695049285889,-6.48600053787231,SHAKE
-3.52797508239746,-1.7577999830246,2.20673751831055,3.69228744506836,-0.78031247854233,-0.59839999675751,0.66618752479553,-2.33076238632202,-1.13836252689362,0.8457624912262,3.34661245346069,-0.92331248521805,-0.90859997272491,1.56777501106262,-2.29033756256104,-0.22481249272823,1.35245001316071,-0.08552499860525,-2.67671251296997,1.12887501716614,0.29809999465942,-2.61566257476807,-0.45210000872612,-0.49843749403954,-0.18452499806881,-3.76530003547668,-0.8234875202179,1.363450050354,-3.26686239242554,0.19057500362396,6.94141244888306,-3.29766249656677,-6.85038757324219,-7.01415014266968,-6.9591498374939,4.86337518692017,10.7727127075195,7.30798768997192,-1.49696254730225,-6.37890005111694,-7.00920009613037,-7.62134981155396,3.09058737754822,10.0324125289917,7.45332479476929,36.8020515441895,30.7560005187988,10.2940502166748,10.4980506896973,-12.4020004272461,-30.7159519195557,12.69105052948,31.9080009460449,42.1150512695313,10.8000001907349,12.4279508590698,-5.84700012207031,-36.2160034179688,11.5830001831055,25.3429508209229,47.6790008544922,52.6159515380859,16.6159515380859,-8.96595001220703,-32.1570014953613,-28.3810520172119,-20.4880504608154,32.1570014953613,56.2699508666992,27.6970520019531,-1.92195010185242,-35.6459999084473,-31.498950958252,-20.5549507141113,29.9779510498047,13.1110506057739,8.06595039367676,10.2970504760742,3.54495024681091,-1.68495011329651,1.00995004177094,-4.55100011825562,0.23895001411438,3.93300008773804,8.83005046844482,5.18505001068115,0.12900000810623,3.35595011711121,-7.49100017547607,-6.97905015945435,SHAKE
-2.33076238632202,-1.13836252689362,0.8457624912262,3.34661245346069,-0.92331248521805,-0.90859997272491,1.56777501106262,-2.29033756256104,-3.06501245498657,-1.47922503948212,3.43090009689331,2.62088751792908,0.07356250286102,0.92509996891022,-0.84631252288818,-0.45210000872612,-0.49843749403954,-0.18452499806881,-3.76530003547668,-0.8234875202179,1.363450050354,-3.26686239242554,0.19057500362396,-1.96088743209839,0.49114999175072,-2.71218752861023,-0.96882498264313,1.472212433815,-3.32914996147156,-1.10082495212555,7.30798768997192,-1.49696254730225,-6.37890005111694,-7.00920009613037,-7.62134981155396,3.09058737754822,10.0324125289917,7.45332479476929,-0.4131875038147,-8.17850017547607,-7.59206247329712,-7.73368740081787,0.61049997806549,10.0116500854492,8.81182479858398,31.9080009460449,42.1150512695313,10.8000001907349,12.4279508590698,-5.84700012207031,-36.2160034179688,11.5830001831055,25.3429508209229,46.8859519958496,15.6600008010864,11.7840003967285,-1.60695004463196,-35.9959526062012,2.65905022621155,23.7580509185791,32.1570014953613,56.2699508666992,27.6970520019531,-1.92195010185242,-35.6459999084473,-31.498950958252,-20.5549507141113,29.9779510498047,56.3299522399902,23.4540004730225,-3.83295011520386,-28.2000007629395,-26.8060512542725,-22.8600006103516,6.99300050735474,0.23895001411438,3.93300008773804,8.83005046844482,5.18505001068115,0.12900000810623,3.35595011711121,-7.49100017547607,-6.97905015945435,5.26905012130737,14.4250507354736,14.0590505599976,-1.33095002174377,-5.8609504699707,-3.67995023727417,-10.1490001678467,SHAKE
-0.42116248607635,-1.28988754749298,0.44261249899864,2.18954992294312,1.7216374874115,-0.25011250376701,-1.56351244449615,-1.62580001354218,0.55618751049042,-0.08401250094175,1.30391252040863,2.17373752593994,-0.6154500246048,-2.17923760414124,-2.41862487792969,-0.89677500724792,0.6707249879837,-0.43862500786781,-0.77948749065399,1.16063749790192,1.75683748722076,-1.39892494678497,-0.56938749551773,-0.78553748130798,0.4311999976635,-0.19181250035763,-0.09157499670982,1.17287504673004,-1.66636252403259,-0.04647500067949,5.12476253509521,-3.84628748893738,-6.55118751525879,-6.61100006103516,-3.80104994773865,1.13464999198914,9.66212463378906,8.04223728179932,3.6122624874115,-7.62506246566772,-8.08431243896484,-7.9316873550415,2.62391257286072,10.8399496078491,8.63224983215332,33.7919998168945,17.4679508209229,7.54605054855347,1.58895003795624,-21.5320510864258,-31.5730514526367,13.2610502243042,29.4700508117676,41.6310005187988,14.568000793457,7.68000030517578,2.84100008010864,-37.5619506835938,4.51905012130737,21.3700504302979,41.6430015563965,39.670051574707,13.7070007324219,-9.67995071411133,-28.3810520172119,-28.021951675415,-13.747950553894,40.7260513305664,54.5479507446289,20.0680503845215,-6.43095016479492,-19.2330017089844,-26.310001373291,-22.4959506988525,12.4999504089355,0.94500005245209,-3.89295029640198,4.11495018005371,6.94995021820068,-6.52200031280518,-9.50700092315674,-2.08995008468628,12.1939506530762,8.78400039672852,0.87795001268387,8.08995056152344,6.46605014801025,-9.96495056152344,-0.45195001363754,4.41000032424927,SHAKE
-1.23364996910095,-0.91107499599457,-0.12925000488758,3.77657508850098,1.37472498416901,0.06132499873638,-0.60197502374649,-1.05283749103546,0.33137500286102,-0.57749998569489,0.57447499036789,1.33801245689392,1.2977249622345,-0.32216250896454,-0.76326251029968,-1.4502124786377,1.74212503433228,2.78918743133545,-0.90530002117157,0.7012500166893,2.35661244392395,-2.47156238555908,-0.72448748350143,-1.27063751220703,1.08611249923706,-1.32921254634857,-1.75931251049042,1.84841251373291,-1.46354997158051,-1.53931248188019,6.93536233901978,-2.55364990234375,-6.20289993286133,-6.99709987640381,-6.78205013275146,-4.35201263427734,10.5076122283936,9.2724494934082,3.60126256942749,-5.04102516174316,-6.98486232757568,-7.38553762435913,-4.37648725509644,8.16310024261475,9.6695499420166,33.177001953125,32.9440498352051,18.3490505218506,6.76800012588501,-7.51305055618286,-26.7559509277344,3.90405011177063,20.9590511322021,44.0419502258301,22.4359512329102,9.8230504989624,6.08295011520386,-27.4069519042969,-15.4909505844116,18.2389507293701,43.9129524230957,49.6470031738281,31.5349521636963,-6.83295011520386,-27.9049510955811,-29.9500522613525,-23.2530002593994,10.5940504074097,51.0120010375977,35.6580009460449,8.98995018005371,-16.5180015563965,-29.7250518798828,-27.025951385498,-9.71595001220703,14.2669506072998,4.1100001335144,7.63500022888184,4.50104999542236,-3.90495014190674,-5.61705017089844,-0.49005001783371,-2.48205018043518,6.6870002746582,-2.69805002212524,5.78595018386841,7.44105052947998,-2.53995013237,-5.94000005722046,-7.23705053329468,SHAKE
-1.7271374464035,-1.60256254673004,0.14451250433922,1.91963744163513,0.91176247596741,-1.50603747367859,-0.95260000228882,-2.25747489929199,-0.34182500839233,1.45172500610352,4.11619997024536,1.16709995269775,-2.39057493209839,-0.18658749759197,-3.41068744659424,-2.04393744468689,2.31879997253418,2.10017490386963,0.60224997997284,4.48360013961792,2.98223757743835,-3.28638744354248,-0.65477502346039,-1.12516248226166,2.25403738021851,-1.06040000915527,0.81124997138977,2.61813759803772,-2.54237508773804,-0.14781250059605,5.15157508850098,-4.59882497787476,-7.21091222763062,-7.91821241378784,-7.26948738098145,-1.16091251373291,8.85953712463379,6.94017505645752,0.62645000219345,-6.48518753051758,-6.30437517166138,-7.10820007324219,0.33316248655319,9.13316249847412,9.41421222686768,35.1109504699707,28.4500522613525,13.2199506759644,12.5040006637573,-22.5450019836426,-38.5170021057129,10.8709506988525,16.6849498748779,38.2620010375977,9.62895011901855,5.93400049209595,-4.72395038604736,-33.5100021362305,-1.81005012989044,17.3460006713867,47.7870025634766,42.5100021362305,27.0570011138916,-13.1830501556396,-33.117000579834,-28.3840522766113,-12.8980503082275,30.7129516601563,53.1790542602539,25.2109508514404,-1.16805005073547,-26.7460517883301,-29.4370517730713,-23.6310005187988,9.69600009918213,8.90895080566406,6.81405019760132,8.76000022888184,2.85300016403198,-13.2660007476807,-18.1990509033203,-2.27700018882751,6.67500019073486,11.5609502792358,9.55305004119873,7.16100025177002,-4.43400001525879,-3.7300500869751,-1.93395006656647,-9.79500007629395,SHAKE
-2.25747489929199,-0.34182500839233,1.45172500610352,4.11619997024536,1.16709995269775,-2.39057493209839,-0.18658749759197,-3.41068744659424,-3.13087487220764,1.9514000415802,4.69287490844727,2.21897506713867,-1.72837495803833,-1.60256254673004,-0.41992500424385,-0.65477502346039,-1.12516248226166,2.25403738021851,-1.06040000915527,0.81124997138977,2.61813759803772,-2.54237508773804,-0.14781250059605,-1.90093743801117,4.67788743972778,0.55343747138977,0.22838750481606,3.16181254386902,-2.70613741874695,-0.81001251935959,6.94017505645752,0.62645000219345,-6.48518753051758,-6.30437517166138,-7.10820007324219,0.33316248655319,9.13316249847412,9.41421222686768,4.24517488479614,-6.75633764266968,-6.74052476882935,-7.13872480392456,-2.24097490310669,8.81429958343506,9.32497501373291,16.6849498748779,38.2620010375977,9.62895011901855,5.93400049209595,-4.72395038604736,-33.5100021362305,-1.81005012989044,17.3460006713867,47.1979522705078,15.9589509963989,6.24795007705688,1.74000012874603,-34.1899528503418,-6.55800008773804,15.5040006637573,30.7129516601563,53.1790542602539,25.2109508514404,-1.16805005073547,-26.7460517883301,-29.4370517730713,-23.6310005187988,9.69600009918213,54.6540031433105,31.7050514221191,1.57500004768372,-25.0270519256592,-30.9360008239746,-26.0020503997803,-0.79005002975464,6.67500019073486,11.5609502792358,9.55305004119873,7.16100025177002,-4.43400001525879,-3.7300500869751,-1.93395006656647,-9.79500007629395,31.3690509796143,12.1120510101318,1.3000500202179,-8.21895027160645,-9.61500072479248,2.13000011444092,-3.22905015945435,SHAKE
-1.81637501716614,-2.60686254501343,-0.26730000972748,5.26583766937256,-0.57873749732971,-0.79254996776581,-0.69121247529984,-2.67891240119934,-1.7491375207901,-1.42051243782043,4.61587476730347,0.96428751945496,-3.25558757781982,-1.50603747367859,-1.58675003051758,-1.04830002784729,3.43543744087219,3.33162498474121,-1.03358745574951,4.0951623916626,0.26014998555183,-1.33292496204376,0.54367500543594,0.68653750419617,3.71525001525879,-0.2223374992609,0.99082499742508,3.58325004577637,-1.93764996528625,0.59743750095367,4.93790006637573,-4.68806266784668,-7.11438751220703,-6.68428754806519,-5.08378744125366,6.11063766479492,8.97434997558594,7.01112508773804,-1.39067494869232,-5.37831258773804,-5.92927503585815,-6.88105010986328,-0.14327499270439,9.2394495010376,8.82777500152588,33.2410507202148,23.7769508361816,7.9069504737854,7.52895021438599,-20.6629505157471,-18.1849517822266,10.7520008087158,18.4330501556396,35.9470520019531,19.4740505218506,8.04900074005127,-1.00995004177094,-33.6730499267578,0.15705001354218,14.2519502639771,52.7500534057617,46.3600540161133,27.7969512939453,-14.7169504165649,-29.9830513000488,-26.356050491333,-12.4240503311157,36.6150016784668,52.1160011291504,36.0649528503418,-2.33400011062622,-23.7559509277344,-26.0089511871338,-22.5589504241943,6.7900505065918,10.2229509353638,10.8190507888794,17.1900005340576,-0.27300000190735,-7.15605020523071,-4.64700031280518,-6.90900039672852,5.03205013275146,6.046950340271,9.23895072937012,2.05395007133484,-10.993950843811,-6.76605033874512,0.95205003023148,-3.63600015640259,SHAKE
-2.60314989089966,-3.36916255950928,3.56152486801147,5.06426239013672,-0.24158750474453,-0.16224999725819,0.19580000638962,-1.91042494773865,-1.23722493648529,0.78457498550415,2.41807508468628,3.19508743286133,-0.39187499880791,-1.83713746070862,0.3106124997139,-1.39892494678497,3.76158738136292,-0.00494999997318,-1.35121250152588,2.57661247253418,-1.99993753433228,-2.22351241111755,-1.63349997997284,-1.04334998130798,0.05981250107288,-1.34640002250671,-2.60218739509583,1.67612504959106,-0.55591249465942,-2.27232503890991,7.38498735427856,-7.21201229095459,-6.6305251121521,-6.2346625328064,-3.20732498168945,6.7997875213623,9.34945011138916,7.31156253814697,0.03506249934435,-6.02827501296997,-6.02951240539551,-6.12232494354248,-4.27501249313354,5.84306240081787,8.69577503204346,26.9280014038086,16.1440505981445,1.13895010948181,0.75600004196167,-25.19700050354,-14.4400510787964,7.71300029754639,23.3340015411377,34.3710021972656,10.6129503250122,5.68305015563965,1.73505008220673,-23.6910018920898,-18.9240016937256,6.80100011825562,41.2720527648926,30.7710018157959,4.19400024414063,-17.9179515838623,-26.344051361084,-23.9980506896973,-8.85599994659424,30.670051574707,49.6549530029297,25.0459518432617,13.5799503326416,-13.5199508666992,-25.6590003967285,-22.1560516357422,-10.9030504226685,6.49500036239624,14.202000617981,16.3429508209229,-2.30295014381409,-9.40904998779297,-3.33195018768311,-9.53805065155029,4.54905033111572,1.94400012493134,8.20499992370605,7.48395013809204,2.03895020484924,-6.90000009536743,1.46505010128021,-4.07505035400391,SHAKE
-1.17012500762939,-0.08524999767542,0.67828750610352,2.26407504081726,1.35396254062653,-0.36492499709129,-0.64473748207092,-1.50727498531342,0.30208748579025,0.81757497787476,1.90987503528595,-0.11453749984503,-0.84631252288818,-0.28435000777245,-1.27888751029968,-1.25963747501373,0.89182502031326,-0.85525000095367,-1.43178749084473,0.27004998922348,-0.32010000944138,-2.54361248016357,-0.87725001573563,-1.33539998531342,0.90777498483658,-1.94865000247955,2.81118750572205,-1.35245001316071,-3.48919987678528,-0.58520001173019,5.5694375038147,-5.41365003585815,-6.3116626739502,-6.13689994812012,-4.6793999671936,3.56345009803772,8.58096218109131,7.54489994049072,1.32893753051758,-5.91098737716675,-6.98238754272461,-5.70198726654053,7.31774997711182,10.3903245925903,7.63166236877441,27.787052154541,17.1559505462646,6.50895023345947,2.28299999237061,-13.6930503845215,-24.1560020446777,3.92595028877258,15.1260004043579,34.6080017089844,13.57200050354,7.35405015945435,-23.730001449585,-21.5050506591797,-0.05295000225306,32.7619514465332,41.4880523681641,27.3900012969971,7.14900016784668,-9.20100021362305,-22.056001663208,-21.1750507354736,-13.6399507522583,26.5399513244629,51.8599510192871,28.6969509124756,-10.7980508804321,-31.6639518737793,-29.4679508209229,-25.687952041626,33.6420021057129,8.87700080871582,-2.57595014572144,3.81105017662048,5.83905029296875,-3.13395023345947,-5.1589503288269,-4.20900011062622,2.4340500831604,2.32395005226135,1.21605002880096,2.50095009803772,-5.77905035018921,-5.08695030212402,-3.24600005149841,11.1540002822876,SHAKE
-2.47733759880066,-0.18053749203682,3.33918738365173,3.14008736610413,0.01003750041127,-0.64116251468658,0.0417999997735,-0.71073746681213,-0.83283752202988,-1.18359994888306,1.09738755226135,0.66852498054504,-0.97088748216629,-0.62645000219345,-0.41139999032021,1.29868745803833,0.59372502565384,-1.67254996299744,-1.50755000114441,2.95528745651245,-2.17222499847412,-1.77760004997253,-1.08006250858307,0.85277497768402,1.95965003967285,-0.62548750638962,-0.34581249952316,2.85271239280701,-1.51002502441406,-2.51789999008179,-1.74611246585846,-5.57493734359741,-5.73622512817383,-6.29818725585938,-2.83841252326965,8.13752460479736,9.05258750915527,7.93842506408691,-2.06373739242554,-5.41736268997192,-6.30795001983643,-6.04161262512207,-2.51941251754761,6.80336236953735,8.24738788604736,29.4060020446777,7.71300029754639,8.64705085754395,7.12005043029785,-29.578950881958,-8.13794994354248,15.9310503005981,22.195951461792,33.646053314209,19.7779502868652,6.48795032501221,1.95795011520386,-24.5610008239746,-9.69705009460449,10.6939506530762,45.6780014038086,22.6210517883301,3.82800006866455,-4.98000001907349,-25.1059513092041,-23.4349517822266,-5.62095022201538,16.3020000457764,44.4060020446777,28.7980518341064,8.24505043029785,-15.5050506591797,-20.9950504302979,-19.1710510253906,-7.9680004119873,-1.10805010795593,10.6350002288818,4.13700008392334,0.90195006132126,-8.95905017852783,-3.2989501953125,-5.67405033111572,-2.31705021858215,-7.16805028915405,-0.49800002574921,2.72700023651123,-1.52205002307892,-5.49000024795532,-2.87295007705688,-9.22695064544678,SHAKE
-0.83283752202988,-1.18359994888306,1.09738755226135,0.66852498054504,-0.97088748216629,-0.62645000219345,-0.41139999032021,-3.0685875415802,-2.98429989814758,-0.72173750400543,1.59458744525909,2.87622499465942,2.86770009994507,-1.09312498569489,-1.64903748035431,0.85277497768402,1.95965003967285,-0.62548750638962,-0.34581249952316,2.85271239280701,-1.51002502441406,-2.51789999008179,-1.39026248455048,-1.31463754177094,1.6883624792099,0.85525000095367,0.70853751897812,1.63336253166199,0.38843750953674,-3.22533750534058,-2.06373739242554,-5.41736268997192,-6.30795001983643,-6.04161262512207,-2.51941251754761,6.80336236953735,8.24738788604736,5.96901226043701,2.20976257324219,-5.97203731536865,-6.69281244277954,-6.97386264801025,-6.33489990234375,2.95624995231628,7.83090019226074,33.646053314209,19.7779502868652,6.48795032501221,1.95795011520386,-24.5610008239746,-9.69705009460449,10.6939506530762,20.881950378418,38.0830535888672,19.3279514312744,9.66000080108643,10.1839504241943,-10.2829504013062,-28.8030014038086,-10.7239503860474,44.4060020446777,28.7980518341064,8.24505043029785,-15.5050506591797,-20.9950504302979,-19.1710510253906,-7.9680004119873,22.2450008392334,45.6010513305664,29.896951675415,9.73500061035156,0.08295000344515,-28.4050521850586,-29.0899505615234,-25.9750518798828,-7.16805028915405,-0.49800002574921,2.72700023651123,-1.52205002307892,-5.49000024795532,-2.87295007705688,-9.22695064544678,-0.21300001442432,8.4660005569458,13.0390510559082,8.80605030059814,7.66800022125244,-9.94305038452148,-12.6510009765625,-7.00005054473877,SHAKE
-2.98429989814758,-0.72173750400543,1.59458744525909,2.87622499465942,2.86770009994507,-1.09312498569489,-1.64903748035431,-2.13523745536804,-0.60816252231598,-1.77485001087189,1.79863750934601,1.72658753395081,0.53171247243881,1.47606253623962,-0.10106249898672,-1.31463754177094,1.6883624792099,0.85525000095367,0.70853751897812,1.63336253166199,0.38843750953674,-3.22533750534058,-1.69578754901886,-1.42821252346039,1.49407494068146,-1.472212433815,-0.86982500553131,2.33956241607666,-2.63642501831055,-1.42326247692108,2.20976257324219,-5.97203731536865,-6.69281244277954,-6.97386264801025,-6.33489990234375,2.95624995231628,7.83090019226074,8.02147483825684,0.25506249070168,-6.89933729171753,-6.38495016098022,-6.12479972839355,-1.38696253299713,8.03123760223389,9.2724494934082,38.0830535888672,19.3279514312744,9.66000080108643,10.1839504241943,-10.2829504013062,-28.8030014038086,-10.7239503860474,23.0730018615723,44.6479530334473,8.43900012969971,3.70995020866394,-1.50105011463165,-27.9820518493652,-10.4490003585815,11.5249509811401,45.6010513305664,29.896951675415,9.73500061035156,0.08295000344515,-28.4050521850586,-29.0899505615234,-25.9750518798828,31.3770008087158,53.1330032348633,24.3829517364502,1.49595010280609,-17.506950378418,-24.0979518890381,-21.4500007629395,-4.63995027542114,8.4660005569458,13.0390510559082,8.80605030059814,7.66800022125244,-9.94305038452148,-12.6510009765625,-7.00005054473877,8.22405052185059,1.15605008602142,5.26395034790039,8.14200019836426,0.77805006504059,-2.87505006790161,-6.02595043182373,-9.52200031280518,SHAKE
-1.66980004310608,0.24956250190735,-1.37651252746582,1.15114998817444,-0.05348749831319,0.35942500829697,0.71376252174377,-1.65632498264313,-1.98247504234314,-1.59527504444122,0.32656249403954,3.29889988899231,0.59771251678467,-0.42363750934601,-0.69368749856949,-1.46354997158051,-0.40810000896454,0.20157499611378,-1.7433625459671,0.39820000529289,-0.72820001840591,-2.48503756523132,-0.46667498350143,-1.45502495765686,1.52831244468689,0.30538749694824,-1.02987504005432,2.16122508049011,-0.96882498264313,-1.64559996128082,7.25903749465942,-2.11997509002686,-6.48271226882935,-6.33242511749268,-5.03126239776611,3.88836240768433,9.23092460632324,7.21875,1.80166244506836,-6.0526123046875,-6.56328725814819,-6.43389987945557,-4.03438758850098,5.3886251449585,8.93653774261475,30.2680511474609,33.4260025024414,8.06805038452148,3.8950502872467,-13.7839508056641,-26.086051940918,4.18395042419434,17.8050003051758,39.4039535522461,14.9200506210327,6.03300046920776,1.19895005226135,-20.2699508666992,-18.8809509277344,7.17900037765503,37.5180015563965,42.8040008544922,17.2450504302979,-0.61005002260208,-22.3980007171631,-19.2829513549805,-13.9129505157471,20.5740013122559,47.0830535888672,27.9649505615234,17.8200016021729,-10.6810503005981,-23.2309513092041,-21.4399509429932,-13.7599506378174,9.10500049591064,-5.71200037002563,0.54495000839233,5.56905031204224,-2.54700016975403,-4.05495023727417,-6.17205047607422,-5.44905042648315,3.12600016593933,7.921950340271,10.5409507751465,-0.41100001335144,-6.31800031661987,-6.19095039367676,-4.15799999237061,SHAKE
-1.98247504234314,-1.59527504444122,0.32656249403954,3.29889988899231,0.59771251678467,-0.42363750934601,-0.69368749856949,-1.64656245708466,-0.28311249613762,-1.2641749382019,3.17308759689331,3.53842496871948,-0.03396249935031,-2.63243746757507,-1.14688754081726,-1.45502495765686,1.52831244468689,0.30538749694824,-1.02987504005432,2.16122508049011,-0.96882498264313,-1.64559996128082,-0.22357499599457,-1.27187502384186,2.98952507972717,-0.03176249936223,-0.90158748626709,2.73047494888306,-0.36891248822212,-0.05747500061989,1.80166244506836,-6.0526123046875,-6.56328725814819,-6.43389987945557,-4.03438758850098,5.3886251449585,8.93653774261475,7.72213745117188,2.18171238899231,-6.16013765335083,-6.13208723068237,-6.03061246871948,-3.03379988670349,6.66655015945435,7.77947473526001,39.4039535522461,14.9200506210327,6.03300046920776,1.19895005226135,-20.2699508666992,-18.8809509277344,7.17900037765503,16.0380001068115,44.4900016784668,16.2949504852295,7.57005023956299,2.83095002174377,-22.992000579834,-12.153000831604,13.4170503616333,47.0830535888672,27.9649505615234,17.8200016021729,-10.6810503005981,-23.2309513092041,-21.4399509429932,-13.7599506378174,19.9890003204346,47.0400009155273,27.8980522155762,4.57695007324219,-13.5559511184692,-26.988000869751,-22.3099517822266,-2.60205006599426,3.12600016593933,7.921950340271,10.5409507751465,-0.41100001335144,-6.31800031661987,-6.19095039367676,-4.15799999237061,2.97300004959106,1.44600009918213,7.01205015182495,7.88100051879883,-2.88195013999939,-9.42600059509277,-1.46505010128021,-0.91905003786087,SHAKE
-1.23241245746613,-1.15541243553162,-0.08401250094175,2.5561249256134,1.11210000514984,-1.30075001716614,-1.07965004444122,-1.0564124584198,1.63253748416901,-0.45168748497963,0.52566248178482,1.31120002269745,-0.23787499964237,-1.85308754444122,-1.83232498168945,0.53624999523163,1.59183752536774,2.07446241378784,0.64501249790192,2.60218739509583,1.2644499540329,-0.41414999961853,0.77948749065399,-0.03795000165701,3.79334998130798,1.96941244602203,1.31092500686646,2.53508758544922,1.83136248588562,-0.18452499806881,6.85712480545044,-3.12427496910095,-6.98486232757568,-6.13937473297119,-4.68558740615845,3.1933000087738,7.93952512741089,7.59989976882935,0.95988750457764,-6.57800006866455,-6.67933750152588,-5.47717475891113,-1.83782494068146,1.92142498493195,7.51437473297119,17.6230506896973,31.47705078125,5.74500036239624,3.98100018501282,-11.0350503921509,-22.5919513702393,2.42400002479553,14.1829509735107,43.1200523376465,13.314001083374,3.56700015068054,-3.03795003890991,-18.4699516296387,-21.9150009155273,5.25000047683716,19.4290504455566,44.3989524841309,14.8320007324219,-6.46395015716553,-22.863000869751,-20.2600517272949,-11.6479501724243,24.9649505615234,45.2130012512207,22.7910003662109,1.96995007991791,-12.7990503311157,-21.151050567627,-19.2379512786865,-2.28900003433228,-0.94305002689362,1.35000002384186,5.60205030441284,2.6620500087738,-8.40795040130615,-7.45305013656616,0.82305002212524,6.13095045089722,4.37895011901855,-4.47900009155273,1.74000012874603,-1.81905007362366,-9.52605056762695,-9.10500049591064,0.68400001525879,SHAKE
0.01374999992549,-0.49087500572205,0.53294998407364,1.39548754692078,0.78100001811981,-1.13093745708466,-1.02960002422333,-0.7265499830246,0.77371251583099,0.30937498807907,1.95263743400574,1.22815001010895,-0.78154999017715,-1.03331243991852,-0.7510250210762,-1.24368751049042,2.70118737220764,1.72136247158051,0.60843747854233,1.06534993648529,0.93706250190735,-0.85525000095367,-0.9785875082016,0.0867625027895,2.75976252555847,0.46172499656677,0.63167500495911,2.27480006217957,-1.04211246967316,-0.29205000400543,3.58544993400574,-4.96539974212646,-6.38371229171753,-5.49312496185303,-4.50106239318848,2.89148759841919,7.30427503585815,6.79236268997192,0.54339998960495,-6.08561229705811,-6.02827501296997,-5.86946249008179,-1.45172500610352,6.70202493667603,7.86994981765747,35.9250030517578,18.4110012054443,2.53695011138916,-3.02205014228821,-7.56795024871826,-17.545051574707,0.19995000958443,13.5150003433228,38.2189521789551,11.2950000762939,4.8400502204895,-1.90095007419586,-23.0430011749268,-9.60105037689209,10.6009502410889,42.5220031738281,28.4959506988525,7.5730504989624,-7.82205057144165,-13.5679502487183,-14.9500503540039,-8.21895027160645,25.4389514923096,42.6820526123047,22.431001663208,2.45100021362305,-15.5959510803223,-20.1979503631592,-17.4799499511719,0.45405003428459,11.8219509124756,-0.81600004434586,2.74305009841919,-1.42695009708405,-3.96705007553101,-5.54505014419556,-1.47000002861023,7.68000030517578,3.97905015945435,0.13095000386238,1.42605006694794,-5.72205018997192,-7.24500036239624,-1.61295008659363,-4.4389500617981,SHAKE
-1.06012499332428,0.684475004673,0.684475004673,1.69235002994537,-0.52497500181198,-1.78337502479553,-0.68145000934601,-1.95071244239807,0.22137500345707,0.3948999941349,1.96968746185303,2.09673738479614,-1.90437495708466,-1.49380004405975,-0.36258751153946,-1.06658744812012,2.34327507019043,1.4025000333786,0.01581249944866,2.10870003700256,2.40061259269714,-1.50273752212524,0.21628749370575,-0.28228750824928,3.00423741340637,0.2088624984026,-0.29328748583794,2.50456237792969,-1.32921254634857,-0.97611248493195,5.78201246261597,-4.15291261672974,-6.87115001678467,-6.75757503509521,-5.51017475128174,-1.68382501602173,8.29262542724609,7.72337484359741,1.53174996376038,-5.74117517471313,-5.9047999382019,-5.97451257705688,-2.73212504386902,7.02817487716675,8.26333713531494,34.9290008544922,27.2269515991211,6.63795042037964,5.42400026321411,-13.1449508666992,-25.2070503234863,3.95205020904541,14.2830009460449,39.5719528198242,12.2220001220703,6.13995027542114,6.60000038146973,-26.5500011444092,-9.99900054931641,10.5289506912231,42.5839538574219,37.6639518737793,11.9680509567261,-7.60395050048828,-22.8700504302979,-21.4279518127441,-12.9739503860474,22.4269504547119,46.6810531616211,26.2410011291504,5.29305028915405,-4.13700008392334,-22.5799503326416,-19.9900512695313,-3.54600024223328,16.47705078125,-2.25300002098084,-0.46200001239777,-1.73100006580353,-8.43900012969971,-8.11605072021484,-1.53405010700226,3.74895024299622,7.04595041275024,-0.35895001888275,-0.56894999742508,-1.74000012874603,-8.43195056915283,2.35500001907349,-3.93600010871887,SHAKE
0.30085000395775,-0.10230000317097,2.2702624797821,1.00814998149872,-1.03331243991852,-1.05036246776581,-0.58616250753403,-1.08336246013641,-0.22329999506474,0.06022499874234,3.3929500579834,0.8262374997139,-1.33141243457794,-0.60197502374649,-0.36134999990463,0.91753751039505,2.38479995727539,-0.04771250113845,0.00976249948144,2.70118737220764,-0.5681499838829,-0.40314999222755,-0.65119999647141,-0.8955374956131,1.61507499217987,-1.06782495975494,0.36643749475479,1.98274993896484,-1.58207499980927,-0.46791249513626,-1.47496247291565,-6.5694751739502,-6.19189977645874,-5.96227502822876,-1.74006247520447,6.65073728561401,8.57491207122803,6.88641262054443,2.95253753662109,-6.5401873588562,-6.07103729248047,-6.37642478942871,-0.70647501945496,7.92371225357056,8.50162506103516,30.1620006561279,8.1870002746582,4.09800004959106,-0.74505001306534,-23.931001663208,-10.5610504150391,9.15705013275146,27.4780521392822,41.1979522705078,7.27500057220459,6.088050365448,-3.06705021858215,-28.3669509887695,-6.12195014953613,11.7070503234863,43.9270515441895,19.19700050354,1.57500004768372,-13.9729509353638,-18.5599517822266,-18.2370014190674,-5.23095035552979,37.7260513305664,47.2050018310547,18.6409511566162,-0.77805006504059,-19.7400016784668,-22.8460502624512,-18.9550514221191,2.48700022697449,-4.24695014953613,0.04695000126958,0.49695003032684,-5.02995014190674,-4.45095014572144,-0.44700002670288,-2.43900012969971,10.756950378418,5.78400039672852,7.44105052947998,3.29595017433167,-5.83695030212402,-4.64205026626587,-0.32295000553131,-3.30600023269653,SHAKE
-1.24093747138977,-1.18470001220703,1.62882494926453,1.70334994792938,-0.94036251306534,-0.87449997663498,0.07603749632835,-0.6569749712944,-2.49933743476868,0.28984999656677,4.55235004425049,3.23661255836487,-2.78519988059998,-5.19199991226196,-0.43463748693466,2.51184988021851,2.46166253089905,-0.02804999984801,-0.61943751573563,2.3040874004364,-0.86624997854233,-1.09835004806519,-0.54119998216629,1.74831247329712,2.17703747749329,-1.30968749523163,-2.06469988822937,3.14709997177124,2.1929874420166,-2.86371254920959,-4.57682514190674,-6.95186233520508,-6.32018756866455,-5.95732498168945,-1.81939995288849,7.21751260757446,8.68972492218018,6.59931230545044,-1.98563754558563,-5.92679977416992,-4.89939975738525,-4.76011228561401,-4.28119993209839,3.57568740844727,8.89377498626709,24.2320518493652,8.80995082855225,2.82405018806458,-2.37495017051697,-25.17405128479,-11.19105052948,9.01395034790039,25.0380020141602,27.564001083374,4.98195028305054,2.75205016136169,1.38795006275177,-11.7199506759644,-24.703950881958,3.37995004653931,37.1730003356934,22.5370502471924,1.28805005550385,-15.7879505157471,-21.5580005645752,-18.7230014801025,-4.84605026245117,36.9889526367188,41.8440017700195,18.6439514160156,3.39000010490417,-7.87395048141479,-19.6540508270264,-14.5159511566162,-9.18900012969971,-2.59995007514954,1.51500010490417,4.67805004119873,-1.92705011367798,-5.47800016403198,0.79005002975464,-3.59100008010864,9.35205078125,-1.1580001115799,8.82000064849854,1.34700012207031,-5.56605005264282,-12.0960006713867,-0.27000001072884,6.13395023345947,SHAKE
-2.49933743476868,0.28984999656677,4.55235004425049,3.23661255836487,-2.78519988059998,-5.19199991226196,-0.43463748693466,1.98440003395081,0.66495001316071,-0.02172499895096,1.52982497215271,1.32591247558594,-1.99347496032715,-3.20911240577698,-0.56416249275208,1.74831247329712,2.17703747749329,-1.30968749523163,-2.06469988822937,3.14709997177124,2.1929874420166,-2.86371254920959,-1.36097502708435,0.04399999976158,2.1012749671936,0.6377249956131,-0.25657498836517,3.01757502555847,1.87769997119904,-2.97728753089905,-1.98563754558563,-5.92679977416992,-4.89939975738525,-4.76011228561401,-4.28119993209839,3.57568740844727,8.89377498626709,6.98912477493286,0.25382500886917,-6.12232494354248,-5.9207501411438,-6.07956266403198,-3.36984992027283,1.77856254577637,8.24009990692139,27.564001083374,4.98195028305054,2.75205016136169,1.38795006275177,-11.7199506759644,-24.703950881958,3.37995004653931,16.945951461792,36.6409530639648,10.7689504623413,5.61105012893677,1.21800005435944,-23.4210014343262,-26.6599521636963,10.6849508285522,41.8440017700195,18.6439514160156,3.39000010490417,-7.87395048141479,-19.6540508270264,-14.5159511566162,-9.18900012969971,30.1819515228271,42.8190002441406,19.9990501403809,1.69200003147125,-14.9449510574341,-20.8350009918213,-17.2219505310059,-1.06500005722046,-1.1580001115799,8.82000064849854,1.34700012207031,-5.56605005264282,-12.0960006713867,-0.27000001072884,6.13395023345947,3.17400026321411,0.14805001020432,-0.65595000982285,2.10195016860962,-3.37095022201538,-11.2930507659912,-7.39305019378662,-0.49305000901222,SHAKE
-1.03083753585815,-1.01983749866486,0.66247498989105,3.04975008964539,0.67828750610352,-2.20000004768372,-1.81513750553131,-1.40222501754761,0.93362498283386,0.69671249389648,1.63501250743866,2.14568758010864,-1.97147500514984,-1.60256254673004,-0.71926248073578,-1.82159996032715,1.95469999313354,1.46602499485016,-0.59138751029968,0.50572502613068,2.52161240577698,-1.69826245307922,-0.60967499017715,1.58207499980927,2.12946248054504,0.22110000252724,-0.02571249939501,2.18322491645813,-1.59073746204376,-0.79777497053146,5.83096265792847,-3.2878999710083,-6.17113733291626,-5.50659990310669,-5.57617473602295,2.31357502937317,8.52596282958984,7.95052480697632,-0.61489999294281,-5.75093746185303,-6.01727485656738,-5.91456270217896,-0.6514750123024,7.84189987182617,8.48567485809326,28.8910522460938,25.5220508575439,4.40505027770996,3.09195017814636,-7.82205057144165,-29.5600509643555,3.30105018615723,19.1700000762939,31.0270519256592,9.99795055389404,3.74100017547607,2.77605009078979,-28.1380519866943,-4.39305019378662,12.4999504089355,39.0169525146484,38.4180030822754,15.4980010986328,-2.61900019645691,-21.6510009765625,-19.9320011138916,-12.3829507827759,30.5770511627197,43.2400512695313,21.7900505065918,2.56095004081726,-6.838050365448,-20.8009510040283,-18.0330009460449,4.09095001220703,9.89505004882813,2.65200018882751,4.97205018997192,1.29705011844635,-5.1739501953125,-7.88595056533813,1.6750500202179,6.41100025177002,6.44505023956299,-2.54700016975403,2.25705003738403,1.40700006484985,-7.63305044174194,1.41000008583069,-0.55695003271103,SHAKE
0.70523750782013,0.27390000224113,0.84700000286102,1.61424994468689,-1.10536253452301,-2.28676247596741,-1.59032499790192,-3.0552499294281,1.69729995727539,0.34732499718666,2.66846251487732,1.95745003223419,-0.8927875161171,-2.39910006523132,-2.0460000038147,-1.78736245632172,1.33402502536774,1.82283747196198,1.25839996337891,2.60713744163513,0.52538752555847,-0.55343747138977,0.84782499074936,0.14781250059605,3.16786241531372,0.61201250553131,0.22838750481606,1.78612494468689,0.8760125041008,-0.21876250207424,3.57445001602173,-2.25197505950928,-6.84805011749268,-6.44490003585815,-4.1174373626709,5.44115018844604,8.33662509918213,7.64513731002808,1.85418748855591,-4.70387506484985,-5.53341245651245,-6.06484985351563,-4.69163751602173,4.09612512588501,7.93099975585938,42.6840019226074,32.7340507507324,3.58305025100708,1.09800004959106,-19.54905128479,-18.2899513244629,10.3450508117676,12.7680006027222,41.2240524291992,13.3999509811401,8.06100082397461,1.42095005512238,-15.1489505767822,-24.445951461792,-8.61705017089844,42.4789505004883,42.3570022583008,7.09395027160645,-11.076000213623,-22.851001739502,-22.5270004272461,-13.9129505157471,23.9950504302979,49.5990028381348,29.5279521942139,6.94800043106079,-9.02595043182373,-24.3829517364502,-21.7159519195557,-20.2720508575439,6.51900053024292,-4.24500036239624,3.59595012664795,-1.82595014572144,-7.08405017852783,-3.26505017280579,-0.41595003008842,13.3930501937866,11.6980504989624,2.41995000839233,2.0179500579834,-5.19795036315918,-6.67005014419556,-2.08995008468628,2.17605018615723,SHAKE
1.51401245594025,0.62466251850128,2.71865010261536,1.54577493667603,-1.86518752574921,-1.18236243724823,-0.27211248874664,-1.64051246643066,-0.57873749732971,0.35585001111031,3.3709499835968,2.61717510223389,-0.38334998488426,-0.15234999358654,0.07851249724627,0.5351499915123,2.87223744392395,0.16857500374317,-0.42762500047684,1.70665001869202,-0.76601248979568,-1.09463751316071,-0.52896249294281,-0.9285374879837,1.42326247692108,-0.91753751039505,-0.34457498788834,1.2754499912262,-1.67378747463226,-1.6883624792099,-0.02846249938011,-3.80599999427795,-5.86946249008179,-5.77169990539551,-4.23115015029907,6.04958724975586,8.82158756256104,6.68002510070801,1.78213751316071,-6.36047506332397,-5.60793733596802,-5.88046264648438,0.70345002412796,8.01900005340576,8.96706199645996,41.1780014038086,25.3690509796143,5.4340500831604,1.25595009326935,-19.1380500793457,-19.2520503997803,9.88500022888184,32.3200531005859,43.6470031738281,3.20295023918152,3.68100023269653,-0.0259500015527,-24.7519512176514,-5.05695009231567,5.07495021820068,48.7849540710449,37.9320030212402,2.9520001411438,-11.623950958252,-25.5900020599365,-20.5210514068604,-5.28105020523071,37.3380012512207,47.7370529174805,16.8120002746582,-2.5969500541687,-10.9390506744385,-19.9699516296387,-16.6420516967773,-9.95505046844482,5.52495002746582,-2.7529501914978,1.13895010948181,-6.11505031585693,-3.63405013084412,-0.28005000948906,-1.63200008869171,9.8569507598877,10.113000869751,9.45405006408691,3.34200024604797,-2.00400018692017,-7.21605014801025,-2.00100016593933,-4.34295034408569,SHAKE
-0.64721250534058,-2.16452503204346,-0.0314874984324,3.70081257820129,2.0845000743866,-0.01677500084043,1.79258751869202,-1.17136251926422,-2.62638759613037,0.02956249937415,0.32161250710487,0.38885000348091,1.08638751506805,1.59458744525909,0.01251249946654,-2.28951239585876,-1.97064995765686,1.32426249980927,-1.57478749752045,-0.14904999732971,-0.81372499465942,-4.94917488098145,-0.2895750105381,-1.16187500953674,0.96029996871948,-0.70001250505447,-0.42033749818802,-0.89058750867844,-2.40680003166199,-1.27421247959137,5.29581260681152,3.60621237754822,-4.76492500305176,-4.27391242980957,-5.64712476730347,-0.55137497186661,7.54008722305298,7.21875,2.84143757820129,-3.71304988861084,-3.58118748664856,-2.59159994125366,-0.4131875038147,0.79750001430511,1.12969994544983,19.560001373291,28.8790512084961,4.90500020980835,6.39195013046265,-1.3860000371933,-29.0929508209229,0.1950000077486,14.4820508956909,35.7600021362305,9.29100036621094,-2.85195016860962,-4.80300045013428,-7.27605056762695,-1.09200000762939,-1.27095007896423,26.8680019378662,38.1240005493164,21.1650009155273,3.85695028305054,-16.5349502563477,-20.2939510345459,-15.2560510635376,16.0939502716064,42.8040008544922,23.752950668335,5.04705047607422,-3.06405019760132,-1.56795012950897,3.68400025367737,9.47805023193359,-1.50600004196167,5.14200019836426,13.44105052948,4.6560001373291,-6.83295011520386,-10.1059503555298,-4.68495035171509,-11.2360506057739,11.2810506820679,3.47100019454956,-0.46200001239777,1.31595003604889,-0.591000020504,-1.27095007896423,-4.4239501953125,SHAKE
-3.05634999275208,-1.8211874961853,2.03321242332459,1.08886253833771,-0.59097498655319,-1.88966250419617,-0.37963750958443,-3.05029988288879,-1.96542501449585,-0.93788748979568,3.12785005569458,-0.04001250118017,-1.0283625125885,-1.644087433815,-2.65567493438721,-0.26386249065399,-0.09033749997616,1.79836249351501,2.06717491149902,-0.09528750181198,1.77636253833771,-4.1721625328064,-1.34997498989105,0.28709998726845,3.18133759498596,1.62249994277954,4.1562123298645,-1.38902497291565,-1.6603125333786,-0.16857500374317,9.4873628616333,5.95306253433228,-4.22867488861084,-6.75771236419678,-8.33360004425049,0.91960000991821,9.6058874130249,7.72571229934692,-0.47437500953674,-4.65506267547607,-6.30437517166138,-4.41925001144409,7.43984985351563,10.2730379104614,7.25532484054565,15.9090003967285,32.8729515075684,22.5409507751465,12.2149505615234,9.45900058746338,-42.0990028381348,2.47995018959045,15.9349508285522,29.6209506988525,13.4290504455566,5.8840503692627,-23.2770004272461,-16.6000499725342,12.3150005340576,25.7590503692627,-4.74495029449463,50.1240005493164,43.6639518737793,24.3589515686035,-8.77005004882813,-30.8950519561768,-22.3669509887695,26.1739521026611,53.5720520019531,42.271053314209,7.72800016403198,-31.6690521240234,-31.678050994873,-13.5460510253906,40.360050201416,0.57900005578995,23.5500011444092,-4.88895034790039,-7.78305053710938,-1.06995010375977,-6.69405031204224,-4.58895015716553,7.84095048904419,20.9950504302979,15.6199502944946,9.4950008392334,-14.803050994873,-6.49500036239624,-2.67900013923645,27.4710006713867,SHAKE
0.09075000137091,0.93733751773834,0.36079999804497,1.71434998512268,0.90323752164841,-2.03500008583069,-2.16328740119934,-0.23663750290871,-0.12306249886751,-0.61668747663498,2.65141248703003,1.12433743476868,-2.45409989356995,-2.45409989356995,-0.56402498483658,-1.29868745803833,-0.42886251211166,3.55643749237061,0.04647500067949,-0.39462500810623,1.40126252174377,-1.29497504234314,-0.91753751039505,-0.54491251707077,3.689537525177,-0.348149985075,0.16005000472069,1.62002503871918,-1.76660001277924,-1.85336244106293,9.48859977722168,3.70012497901917,-6.8260498046875,-6.6024751663208,-6.37037515640259,-0.684475004673,6.37326240539551,9.12463760375977,1.32151246070862,-7.3416748046875,-6.44737482070923,-6.92257499694824,0.13158750534058,6.12892484664917,8.73606204986572,7.84305047988892,47.0989532470703,12.3820505142212,4.69695043563843,0.32205000519753,-35.4379501342773,-23.871000289917,21.9240016937256,47.1210021972656,10.9770002365112,7.14405012130737,0.71700000762939,-33.5250015258789,-17.859001159668,17.8800010681152,-11.1739501953125,54.0739517211914,27.7780513763428,0.69600003957748,-23.8849506378174,-26.5879516601563,-24.1290016174316,19.2210006713867,57.096004486084,24.2320518493652,-2.581050157547,-27.8400020599365,-26.1310520172119,-24.8500518798828,20.6670017242432,3.71805024147034,9.46605014801025,-3.35205006599426,0.95505005121231,-4.77405023574829,-6.1840500831604,-1.59195005893707,1.36395001411438,5.58105039596558,4.55595016479492,3.05205011367798,-10.0720500946045,-7.44300031661987,-1.66095006465912,1.1869500875473,SHAKE
-0.23663750290871,-0.12306249886751,-0.61668747663498,2.65141248703003,1.12433743476868,-2.45409989356995,-2.45409989356995,-0.56402498483658,1.02162504196167,-0.35763749480247,-0.36616250872612,1.74377501010895,-0.0314874984324,-0.6154500246048,-1.58427500724792,-0.91753751039505,-0.54491251707077,3.689537525177,-0.348149985075,0.16005000472069,1.62002503871918,-1.76660001277924,-1.85336244106293,-1.45378744602203,1.73112499713898,1.01406252384186,-0.18328750133514,4.29426240921021,-0.42143750190735,-0.64377498626709,9.12463760375977,1.32151246070862,-7.3416748046875,-6.44737482070923,-6.92257499694824,0.13158750534058,6.12892484664917,8.73606204986572,1.23475003242493,-5.10344982147217,-7.80835008621216,-7.54572486877441,-4.11881256103516,8.45748710632324,8.81182479858398,21.9240016937256,47.1210021972656,10.9770002365112,7.14405012130737,0.71700000762939,-33.5250015258789,-17.859001159668,17.8800010681152,49.2139511108398,29.4420013427734,6.40095043182373,6.04200029373169,-33.7909507751465,-11.8090505599976,11.3290500640869,19.2210006713867,57.096004486084,24.2320518493652,-2.581050157547,-27.8400020599365,-26.1310520172119,-24.8500518798828,20.6670017242432,56.2410011291504,44.5519523620605,11.5330505371094,-17.7700500488281,-28.851001739502,-25.9030513763428,-3.32805013656616,1.36395001411438,5.58105039596558,4.55595016479492,3.05205011367798,-10.0720500946045,-7.44300031661987,-1.66095006465912,1.1869500875473,5.35305023193359,-9.47895050048828,8.02500057220459,0.76605004072189,-3.13800024986267,-3.34905004501343,-0.98100006580353,SHAKE
1.31738746166229,-0.73397499322891,-1.77966248989105,0.18356250226498,2.51955008506775,-0.67278748750687,-1.55361247062683,-0.47616249322891,-0.60678750276566,-1.65989995002747,0.3106124997139,1.94768750667572,-1.24946248531342,0.28132501244545,0.70166248083115,-1.51731252670288,-1.09958744049072,2.34203743934631,1.73978745937347,-0.20762500166893,0.93582499027252,1.35492503643036,-1.31216251850128,-0.28338751196861,1.97188746929169,1.02753746509552,-1.1446875333786,2.90771245956421,-0.38967499136925,-0.92111247777939,10.8202877044678,8.35243701934814,-4.11014986038208,-7.22919988632202,-7.13143730163574,-7.32572507858276,5.03552484512329,10.0445127487183,7.05251264572144,-4.32891225814819,-7.57253742218018,-7.47725009918213,-5.86574983596802,9.03787517547607,11.6253499984741,2.92005014419556,31.9360523223877,25.7760009765625,5.7330002784729,7.37805032730103,-8.88495063781738,-35.3280029296875,-10.4700002670288,28.3039512634277,24.6630020141602,5.01300001144409,6.47595024108887,-29.7870006561279,-21.9150009155273,-2.41095018386841,-11.5020008087158,39.1600532531738,42.3040504455566,15.1500005722046,-6.33195018768311,-31.9470024108887,-24.9529514312744,-23.8950004577637,45.0499534606934,44.5309524536133,15.6510009765625,-11.5710000991821,-30.7470016479492,-30.105001449585,-24.0430507659912,-6.39495038986206,3.80400013923645,-1.68795013427734,6.80595016479492,0.62700003385544,-8.08305072784424,3.23205018043518,2.02500009536743,4.41900014877319,0.52905005216599,5.84400033950806,1.56795012950897,-1.22505009174347,3.45900011062622,1.24905002117157,SHAKE
-0.47616249322891,-0.60678750276566,-1.65989995002747,0.3106124997139,1.94768750667572,-1.24946248531342,0.28132501244545,0.70166248083115,1.44801247119904,-1.13093745708466,-0.12553749978542,1.14386248588562,-3.73683738708496,-3.85288739204407,1.16091251373291,-1.31216251850128,-0.28338751196861,1.97188746929169,1.02753746509552,-1.1446875333786,2.90771245956421,-0.38967499136925,-0.92111247777939,0.00976249948144,2.9027624130249,0.59496247768402,-2.48132491111755,0.91753751039505,3.51614999771118,-1.56749999523163,10.0445127487183,7.05251264572144,-4.32891225814819,-7.57253742218018,-7.47725009918213,-5.86574983596802,9.03787517547607,11.6253499984741,6.92546224594116,-3.53361248970032,-6.74300003051758,-7.0263876914978,-7.82182502746582,-2.17140007019043,9.7256498336792,-10.4700002670288,28.3039512634277,24.6630020141602,5.01300001144409,6.47595024108887,-29.7870006561279,-21.9150009155273,-2.41095018386841,38.8729515075684,22.7140502929688,6.53295040130615,7.18905019760132,-15.9150009155273,-44.4829521179199,11.7769508361816,-23.8950004577637,45.0499534606934,44.5309524536133,15.6510009765625,-11.5710000991821,-30.7470016479492,-30.105001449585,-24.0430507659912,41.7250518798828,41.5950012207031,13.9410009384155,-8.86305046081543,-35.404052734375,-27.7110004425049,-5.40105009078979,2.02500009536743,4.41900014877319,0.52905005216599,5.84400033950806,1.56795012950897,-1.22505009174347,3.45900011062622,1.24905002117157,6.05895042419434,-11.3599500656128,2.0350501537323,2.10600018501282,0.32505002617836,7.90500020980835,2.21700000762939,SHAKE
0.57695001363754,1.10233747959137,-0.97336250543594,-1.26541244983673,0.83847498893738,-0.26111251115799,1.61424994468689,1.76206254959106,-0.23182499408722,0.35832500457764,0.44137498736382,-2.86824989318848,1.10481250286102,1.89282500743866,-2.37104988098145,-0.83324998617172,-0.65477502346039,-0.22838750481606,-1.45502495765686,-2.0952250957489,3.30110001564026,-1.45749998092651,-0.59372502565384,-0.08304999768734,-0.15028749406338,-3.58572506904602,-0.3408625125885,2.00488758087158,-1.98288750648499,0.09776250272989,8.91934967041016,3.65254998207092,-4.20791244506836,-7.04715013504028,-7.55548763275146,-2.8359375,9.83798789978027,7.62313747406006,1.55980002880096,-6.98362493515015,-7.31596231460571,-8.85293769836426,3.84683752059937,10.3853750228882,7.97981262207031,18.9210014343262,32.4180030822754,19.1869506835938,9.76995086669922,5.52705049514771,-38.6629524230957,-6.53205013275146,24.4180507659912,37.150951385498,10.3230009078979,11.3410501480103,-7.32405042648315,-37.2340507507324,4.04505014419556,23.6809520721436,2.71005010604858,44.3509521484375,36.235050201416,9.74205017089844,-19.6350002288818,-25.8150005340576,-24.6130504608154,12.7440004348755,54.0220527648926,30.4020023345947,1.48395001888275,-37.9320030212402,-30.1410007476807,-19.666051864624,23.0350513458252,-4.2610502243042,0.49500003457069,-10.4269504547119,6.80205011367798,8.51399993896484,4.06305027008057,-0.58605003356934,-9.71595001220703,-1.20900011062622,-6.796950340271,4.38300037384033,4.51995038986206,8.25,-11.6550006866455,-0.4570500254631,SHAKE
-0.63002496957779,0.36437499523163,0.11646249890327,0.9092875123024,0.30579999089241,-0.08153750002384,0.78347498178482,-1.36798751354218,-0.64955002069473,-0.06682500243187,1.7742999792099,1.77787494659424,-0.56773751974106,0.83476251363754,-1.17493748664856,-0.55715000629425,0.35557499527931,-0.25533750653267,-1.56378746032715,-0.64872497320175,-0.60224997997284,-2.68537497520447,-0.58396250009537,0.4116750061512,1.21563744544983,-1.32068753242493,-1.63954997062683,2.31275010108948,-2.8978123664856,-0.98958748579025,5.15886259078979,-3.11946249008179,-6.87981224060059,-6.89809989929199,-7.22067499160767,6.43321228027344,10.1263246536255,7.46789979934692,-1.38214993476868,-7.24872493743896,-6.76252508163452,-6.84681224822998,1.83713746070862,9.83193778991699,9.02192497253418,29.5279521942139,23.0659503936768,7.69395017623901,4.63200044631958,0.01800000108778,-23.2560005187988,10.5120000839233,26.4340515136719,33.8230514526367,9.11205005645752,5.20905017852783,4.55505037307739,-33.8029518127441,0.39600002765656,16.7520008087158,42.8760032653809,41.4450035095215,13.4980506896973,-8.57100009918213,-23.8660507202148,-23.8350009918213,-12.4639501571655,35.9470520019531,49.911003112793,20.3749504089355,-1.28100001811981,-13.3170003890991,-24.0169506072998,-20.121000289917,11.0659503936768,7.38105058670044,-3.57705020904541,1.67805004119873,4.74705028533936,0.92100006341934,-1.75200009346008,-7.24500036239624,3.25305008888245,0.54105001688004,3.48600006103516,4.64205026626587,3.75405025482178,-3.08100008964539,-4.2810001373291,-4.63500022888184,SHAKE
-1.36798751354218,-0.64955002069473,-0.06682500243187,1.7742999792099,1.77787494659424,-0.56773751974106,0.83476251363754,-1.17493748664856,-0.3075875043869,-0.51521247625351,-0.47740000486374,0.85676246881485,0.25685000419617,1.11814999580383,0.70042496919632,-0.58396250009537,0.4116750061512,1.21563744544983,-1.32068753242493,-1.63954997062683,2.31275010108948,-2.8978123664856,-0.98958748579025,-1.18868744373322,1.82036244869232,1.363450050354,-0.72572499513626,2.79771256446838,-0.67320001125336,-2.75247502326965,7.46789979934692,-1.38214993476868,-7.24872493743896,-6.76252508163452,-6.84681224822998,1.83713746070862,9.83193778991699,9.02192497253418,3.49497509002686,-5.94398736953735,-7.35267496109009,-7.70082473754883,-5.0436372756958,6.78136253356934,10.0017499923706,26.4340515136719,33.8230514526367,9.11205005645752,5.20905017852783,4.55505037307739,-33.8029518127441,0.39600002765656,16.7520008087158,43.7520027160645,19.4689502716064,9.81600093841553,3.99000024795532,-23.2920017242432,-20.2339515686035,8.0580005645752,35.9470520019531,49.911003112793,20.3749504089355,-1.28100001811981,-13.3170003890991,-24.0169506072998,-20.121000289917,11.0659503936768,48.1270523071289,32.2219505310059,18.5809516906738,-13.0270509719849,-25.4839515686035,-23.5189514160156,-14.3800506591797,3.25305008888245,0.54105001688004,3.48600006103516,4.64205026626587,3.75405025482178,-3.08100008964539,-4.2810001373291,-4.63500022888184,11.671950340271,-2.62800002098084,1.28295004367828,3.69600009918213,0.3199500143528,-4.82205009460449,-8.62095069885254,SHAKE
-1.36179995536804,-1.6110874414444,-0.40645000338554,0.94104999303818,1.33815002441406,0.9288125038147,1.09862494468689,-0.93554997444153,-0.45663750171661,0.68942499160767,1.85487496852875,-0.31968748569489,-2.35138750076294,-1.34227502346039,-0.0937749966979,-0.70853751897812,0.93953746557236,-0.42762500047684,-1.19487500190735,0.948062479496,-2.18198752403259,-2.36527490615845,-1.57478749752045,0.20776249468327,-0.05376249924302,-2.11474990844727,-0.41786250472069,2.65485000610352,-1.59678745269775,-1.97064995765686,6.9328875541687,-6.23232507705688,-7.85234975814819,-7.21819972991943,-3.00093746185303,7.7624249458313,9.53988742828369,6.76183748245239,-2.16273736953735,-6.67452478408813,-6.4351372718811,-7.37948751449585,0.55673748254776,6.83993768692017,9.71959972381592,25.0120506286621,22.0120506286621,4.15095043182373,3.33405017852783,-26.6080513000488,-15.3709506988525,10.4190006256104,26.6640014648438,33.4230003356934,6.58605051040649,5.7049503326416,-4.74300003051758,-36.5610008239746,-21.457950592041,21.4900512695313,39.5239524841309,32.9970016479492,6.35400009155273,-4.26600027084351,-26.0059509277344,-23.2000503540039,-6.93600034713745,41.2390518188477,45.378002166748,18.7830009460449,-1.35705006122589,-26.1360015869141,-24.4120502471924,-23.2890014648438,2.26905012130737,3.94500017166138,-2.28600001335144,6.62700033187866,7.68705034255981,-4.92900037765503,-3.55005025863647,-8.53500080108643,2.62800002098084,-0.96195006370544,1.07400000095367,3.35595011711121,-2.9280002117157,-3.93105030059814,1.23000001907349,-9.2920503616333,SHAKE
-0.45663750171661,0.68942499160767,1.85487496852875,-0.31968748569489,-2.35138750076294,-1.34227502346039,-0.0937749966979,-2.05823755264282,-1.38269996643066,1.18291246891022,2.669837474823,-1.21893751621246,-1.71366250514984,0.63318747282028,-2.14128756523132,0.20776249468327,-0.05376249924302,-2.11474990844727,-0.41786250472069,2.65485000610352,-1.59678745269775,-1.97064995765686,-1.60778748989105,-0.01828750036657,0.48138749599457,-1.94122493267059,2.17951250076294,0.0,-4.7158374786377,-1.0616375207901,-2.16273736953735,-6.67452478408813,-6.4351372718811,-7.37948751449585,0.55673748254776,6.83993768692017,9.71959972381592,4.08374977111816,-0.57585000991821,-6.13098764419556,-6.70023727416992,-7.29767513275146,4.26951265335083,9.53260040283203,7.55218744277954,33.4230003356934,6.58605051040649,5.7049503326416,-4.74300003051758,-36.5610008239746,-21.457950592041,21.4900512695313,40.5580520629883,38.6640014648438,9.11205005645752,9.54300022125244,-12.6150007247925,-26.6629505157471,6.58095026016235,24.7680015563965,45.378002166748,18.7830009460449,-1.35705006122589,-26.1360015869141,-24.4120502471924,-23.2890014648438,2.26905012130737,48.0430526733398,50.8660507202148,23.9520015716553,-8.71500015258789,-29.6820011138916,-22.8550510406494,-14.6430006027222,21.3880500793457,-0.96195006370544,1.07400000095367,3.35595011711121,-2.9280002117157,-3.93105030059814,1.23000001907349,-9.2920503616333,10.6230001449585,4.25594997406006,8.43000030517578,1.10295009613037,-4.91295003890991,-3.37995004653931,-5.15205001831055,-2.7480001449585,SHAKE
-0.39421248435974,-0.33439999818802,0.21656249463558,2.27397489547729,-0.54821246862411,-1.21893751621246,0.17132499814034,-2.48586249351501,0.26785001158714,-0.89512497186661,0.23251250386238,0.54766249656677,-0.02653750032187,1.1475750207901,-0.03024999983609,-1.105637550354,0.96882498264313,1.16792500019073,-0.30662500858307,2.69142508506775,1.32316243648529,-2.3040874004364,-0.948062479496,-2.04146242141724,1.24368751049042,0.47767499089241,1.50026249885559,1.51002502441406,-2.4788498878479,-1.08735001087189,6.45878744125366,-3.48589992523193,-6.87857484817505,-6.89204978942871,-5.82546234130859,3.12358736991882,7.72818756103516,7.02693748474121,1.48403751850128,-4.88234996795654,-6.44737482070923,-5.50412511825562,-0.17751249670982,6.00187492370605,5.74406242370605,28.0360507965088,24.351001739502,7.61295032501221,5.52300024032593,-11.5999507904053,-18.996000289917,4.32600021362305,14.4049510955811,30.8059520721436,11.5870504379272,-0.25394999980927,-7.94895029067993,-22.9110012054443,-3.30405020713806,7.9980001449585,39.1240501403809,44.4570007324219,16.7040004730225,-4.61805009841919,-21.8980503082275,-20.5759506225586,-9.94500064849854,22.7239513397217,40.0560035705566,23.8699512481689,3.36600017547607,-14.0010004043579,-14.8920011520386,-9.57405090332031,20.4109516143799,8.13794994354248,-5.39595031738281,7.27305030822754,2.5639500617981,-3.46905016899109,-2.32395005226135,-6.87600040435791,-0.00405000010505,12.0210008621216,1.20600008964539,5.8560004234314,-2.02995014190674,-4.02705001831055,-3.34395027160645,-1.96800005435944,SHAKE
-1.01241254806519,0.90433746576309,-0.72407501935959,1.03152501583099,1.12310004234314,-0.28558748960495,-0.47121250629425,-1.11636245250702,-0.56526249647141,-2.1010000705719,2.45602488517761,3.0570375919342,-1.11512494087219,1.18910002708435,0.10298749804497,-2.01093745231628,-2.27232503890991,1.5222624540329,0.78429996967316,0.08923749625683,1.88636243343353,-3.81782507896423,-1.98288750648499,-2.13922500610352,3.05181241035461,-0.30057498812675,-0.37867498397827,-0.49967500567436,-2.90028738975525,-1.07387495040894,6.26573753356934,4.66771268844604,-2.33750009536743,-4.9531626701355,-5.21950006484985,-1.5274875164032,7.51561260223389,8.20462512969971,2.10223746299744,-5.98675012588501,-5.98303747177124,-6.12603759765625,3.61583757400513,10.1703252792358,7.97376251220703,-1.13205003738403,18.8899517059326,19.3620014190674,4.39305019378662,-0.21105000376701,-24.3979511260986,-8.72504997253418,17.9059505462646,38.7430534362793,12.6580505371094,5.31900024414063,5.36505031585693,-28.992000579834,6.8779501914978,24.2080516815186,0.76800000667572,31.4700012207031,29.9850006103516,11.2050008773804,-11.7769508361816,-20.859001159668,-15.2899503707886,11.9110507965088,47.1760520935059,27.832950592041,0.46395000815392,-15.4360504150391,-22.7599506378174,-18.3420009613037,27.4260005950928,0.96900004148483,6.66300010681152,5.51100015640259,5.32395029067993,-2.20905017852783,-10.3840503692627,-5.83695030212402,0.19305001199245,8.13794994354248,5.44905042648315,5.62800025939941,-4.18695020675659,-3.76095008850098,1.91700005531311,-7.55595016479492,SHAKE
-0.84383749961853,-1.69289994239807,0.14079999923706,2.37050008773804,-0.00948750041425,0.39985001087189,1.45667493343353,-1.12736248970032,-1.10769999027252,-2.66172504425049,1.32343745231628,0.79323750734329,0.95576250553131,0.17627499997616,-0.60568749904633,-0.25905001163483,1.9852249622345,0.49362498521805,-1.44278752803802,2.45808744430542,0.46915000677109,-2.18680000305176,0.2065249979496,-0.35667499899864,2.35056257247925,-0.79530000686646,0.09281250089407,2.44708752632141,-1.97298753261566,-2.00598740577698,4.61766242980957,-4.18715000152588,-6.00751256942749,-6.14184999465942,-5.43702507019043,5.93711233139038,9.97369956970215,7.48508739471436,4.02022504806519,-6.43142509460449,-5.95746231079102,-6.1492748260498,-0.86047500371933,8.2901496887207,8.07262516021729,34.2640533447266,22.2900009155273,5.0460000038147,6.54000043869019,-15.9100503921509,-22.2430515289307,7.36395025253296,29.4300022125244,44.8420524597168,8.22105026245117,7.57200050354004,-1.47705006599426,-27.0199508666992,-7.15905046463013,20.203950881958,42.5959510803223,36.4789505004883,14.6620502471924,-7.86495018005371,-24.5389518737793,-19.992000579834,-10.4550008773804,28.5750007629395,44.1169509887695,19.242000579834,0.11895000934601,-16.9660511016846,-18.7540512084961,-15.2179508209229,15.1030511856079,8.07299995422363,-1.67295002937317,8.59995079040527,0.15300001204014,-2.40105009078979,-0.61500000953674,-6.39000034332275,-1.62300002574921,5.25300025939941,3.67005014419556,6.42105007171631,-2.00400018692017,-5.04900026321411,-5.44695043563843,-0.51195001602173,SHAKE
-2.50786256790161,3.24884986877441,2.70764994621277,0.60266250371933,-1.57079994678497,-2.98058748245239,-1.5830374956131,-1.96542501449585,2.01987504959106,2.41078758239746,1.20614993572235,-2.97935009002686,-1.60256254673004,1.05833745002747,-2.61291241645813,1.55649995803833,-1.27173745632172,-0.64625000953674,0.13557499647141,-0.96263748407364,4.36754989624023,-1.12763750553131,0.74153751134872,0.04028749838471,2.43361258506775,0.25286251306534,1.32550001144409,2.79771256446838,-3.08481240272522,-0.58396250009537,-0.73589998483658,-0.23732499778271,-2.4730749130249,-5.71560001373291,-6.89699983596802,0.83407497406006,9.8306999206543,8.54424953460693,2.19752502441406,-7.04481267929077,-7.04233741760254,-8.38378715515137,-3.26603746414185,11.3689126968384,7.73547506332397,-2.70795011520386,4.08405017852783,11.8270502090454,4.62705039978027,-5.24295043945313,-40.1929512023926,3.70095014572144,17.3310012817383,49.7670021057129,12.0450010299683,8.1870002746582,-9.50295066833496,-40.4560508728027,11.3700008392334,29.4850521087646,13.278000831604,24.2250003814697,21.79905128479,5.88705015182495,-21.0840015411377,-27.5050506591797,-25.1520004272461,24.142951965332,58.5829544067383,26.109001159668,10.7110500335693,-39.1489524841309,-28.2499504089355,-21.7450504302979,34.4509506225586,0.93795001506805,6.44205045700073,-7.79100036621094,3.03495025634766,1.27800011634827,-0.5380499958992,2.94195008277893,5.90595006942749,14.28600025177,-13.9180507659912,-9.36795043945313,-4.92705011367798,2.08200001716614,-6.20100021362305,2.00595021247864,SHAKE
-2.37709999084473,-1.79795002937317,-1.03812503814697,3.09003758430481,1.57630002498627,-1.62580001354218,0.79928749799728,-0.59702497720718,-0.19387499988079,-0.13158750534058,0.97404998540878,1.83039999008179,-1.19570004940033,0.05169999971986,-0.31611248850822,-1.19968748092651,-1.21316254138947,2.88199996948242,-1.20463752746582,-1.72383749485016,2.37503743171692,-0.30414998531342,0.21862499415874,0.31404998898506,3.16304993629456,1.03729999065399,-1.24368751049042,1.97669994831085,-2.80623745918274,-1.69812500476837,8.02257537841797,2.69843745231628,-5.7204122543335,-5.47126245498657,-6.77971267700195,-4.8761625289917,7.24308729171753,8.75930023193359,1.07112503051758,-7.33796262741089,-6.89328765869141,-6.66118764877319,0.3979249894619,8.96816253662109,9.04640007019043,24.0859508514404,45.2970008850098,7.01700019836426,7.34505033493042,3.96405029296875,-20.1220512390137,-18.5920505523682,20.7580509185791,52.9680023193359,8.28105068206787,4.85700035095215,5.43195009231567,-31.2100505828857,-3.60300016403198,16.6420516967773,12.4380006790161,53.052001953125,33.025951385498,8.45100021362305,-11.3290500640869,-30.3349514007568,-25.7740516662598,22.5300006866455,57.2779541015625,25.4359512329102,10.642050743103,-12.6340503692627,-25.4080505371094,-19.9540500640869,10.3020000457764,-3.01605010032654,11.0299501419067,3.66495013237,3.36600017547607,-5.52105045318604,0.80595004558563,-2.30505013465881,-2.98995018005371,7.56105041503906,-1.23705005645752,1.57995009422302,-2.07795000076294,-7.0290002822876,-1.96995007991791,-4.27095031738281,SHAKE
-1.36675000190735,0.08222500234842,0.05651250109076,3.75705003738403,0.55989998579025,-1.93242502212524,0.01869999989867,-0.26482498645782,0.34608748555183,0.53184998035431,0.86281251907349,-0.77549999952316,-1.56227493286133,1.24409997463226,0.33756250143051,-2.17222499847412,1.80441248416901,3.19838738441467,-0.50572502613068,0.81372499465942,2.29556250572205,-3.46348738670349,-1.19487500190735,-0.68777501583099,2.28456258773804,0.80148750543594,0.02323750033975,2.53013753890991,-2.48008751869202,-0.40438750386238,8.49667453765869,-2.18239998817444,-7.09733724594116,-6.31290006637573,-7.30991268157959,0.92812502384186,10.4110870361328,9.21126270294189,1.46685004234314,-4.92992496490479,-6.79071235656738,-6.36308765411377,-0.70537501573563,8.70801258087158,8.22662448883057,28.8330020904541,44.5810508728027,7.66605043411255,8.93895053863525,0.19995000958443,-37.7650527954102,2.52300000190735,22.6030502319336,56.8920021057129,29.8219509124756,4.42095041275024,0.75300002098083,-31.1929512023926,-2.86395025253296,14.9749507904053,37.3429527282715,52.1569519042969,20.9400005340576,-3.25605010986328,-28.54905128479,-25.6159515380859,-22.5559501647949,16.4170513153076,53.2699508666992,45.2299537658691,12.796950340271,-20.9400005340576,-21.7849502563477,-18.1410007476807,9.91395092010498,10.6830005645752,-0.14595000445843,4.94400024414063,1.63500010967255,-9.46905040740967,-8.13495063781738,-0.61305004358292,-4.2180004119873,9.16005039215088,-4.26405000686646,0.52395004034042,-5.76300048828125,-1.22100007534027,-1.54395008087158,-9.44505023956299,SHAKE
1.53848743438721,0.88481247425079,-0.67278748750687,-2.09123754501343,-1.02588748931885,2.23602509498596,0.58918750286102,0.3106124997139,2.36802506446838,-0.63002496957779,-3.08687496185303,-2.22199988365173,1.89516246318817,2.08092498779297,4.08457517623901,-3.16786241531372,-1.76783752441406,0.28338751196861,1.38668751716614,2.08065009117126,1.19611251354218,-2.0952250957489,-1.36592495441437,-1.08858752250671,1.45502495765686,-0.45319998264313,1.9071249961853,-0.29205000400543,-0.95053750276566,-0.96153748035431,8.28767490386963,4.92923736572266,-3.53113746643066,-7.84740018844604,-6.19451236724854,1.33856248855591,8.21562480926514,7.25285005569458,1.72342503070831,-5.66664981842041,-6.06732511520386,-4.76987504959106,1.23722493648529,5.09409999847412,5.47167491912842,6.80100011825562,17.1949501037598,34.3189506530762,4.15305042266846,-5.49705028533936,-24.0769519805908,0.19095000624657,19.3230018615723,39.3439521789551,7.25100040435791,2.46300005912781,-10.1089506149292,-17.2920017242432,-1.68105006217957,7.04505014419556,-6.59805011749268,43.5559501647949,38.6260528564453,8.00100040435791,-18.3160514831543,-22.3909511566162,-16.5559501647949,22.3450508117676,45.748950958252,20.3029518127441,-2.24805021286011,-12.8470506668091,-12.5050506591797,-6.70395040512085,9.22500038146973,-0.90195006132126,-5.81805038452148,1.71105003356934,0.3870000243187,2.86995005607605,-9.69195079803467,-7.38105058670044,1.21305000782013,0.12900000810623,-13.9489507675171,-2.21700000762939,4.54905033111572,0.06195000186563,-2.80995011329651,-5.08005046844482,SHAKE
-2.22323751449585,-1.05393743515015,1.41143751144409,-0.15111249685287,0.57213747501373,0.54518747329712,-0.37345001101494,-0.84507501125336,2.69293737411499,-1.14812505245209,-1.49874997138977,1.29896247386932,0.94709998369217,-2.03500008583069,-2.06071257591248,-1.6773624420166,-3.20086240768433,0.95782500505447,1.63226246833801,0.55948752164841,-0.76848751306534,-2.48985004425049,-1.25839996337891,-0.93087500333786,2.94552493095398,1.00787496566772,1.49531245231628,0.14176249504089,-1.54550004005432,-1.1923999786377,5.43138742446899,5.91263723373413,-2.94222497940063,-5.92570018768311,-5.40526247024536,-0.82747501134872,7.07698726654053,8.04209995269775,1.51579999923706,-7.17309999465942,-7.06557512283325,-4.32767486572266,3.37521243095398,7.21998739242554,7.17832517623901,0.95400005578995,22.4500503540039,23.7979507446289,4.46895027160645,-2.20800018310547,-23.437952041626,-7.35795021057129,14.1280508041382,49.5100517272949,10.9699506759644,2.50305008888245,-10.2000007629395,-20.3590507507324,2.74500012397766,18.7080001831055,1.34295010566711,34.639949798584,33.7729530334473,11.403000831604,-11.8060503005981,-21.7470016479492,-15.5860509872437,21.0910511016846,47.2200012207031,21.3210010528564,-4.45095014572144,-22.3840503692627,-22.1299514770508,-10.2520503997803,37.4869499206543,-1.45800006389618,16.8940505981445,0.39405003190041,-1.65900003910065,-4.30395030975342,-9.10500049591064,-2.94195008277893,6.64395046234131,6.76800012588501,-12.2539501190186,3.46395015716553,1.85700011253357,-10.9489507675171,-4.16295003890991,15.9910507202148,SHAKE
-1.6990875005722,1.6275874376297,-0.67278748750687,0.43889999389648,0.85181248188019,-0.19511249661446,-0.08153750002384,-1.82242500782013,0.9092875123024,-0.8927875161171,1.15610003471375,1.2306250333786,-0.43092501163483,-0.26358750462532,-0.95012497901917,-0.93706250190735,-0.39214998483658,2.37008738517761,-0.348149985075,1.58455002307892,-0.0867625027895,-1.6773624420166,-0.58520001173019,-0.47162500023842,2.27122497558594,-0.50091248750687,2.35427498817444,-0.89677500724792,-2.37737488746643,-0.74524998664856,7.5046124458313,-0.60995000600815,-6.74423742294312,-6.42908763885498,-4.99345016479492,3.47902488708496,8.02133750915527,7.24074983596802,-0.99852502346039,-7.69106245040894,-6.783287525177,-5.07539987564087,5.40086269378662,8.72506237030029,8.51620006561279,10.57200050354,42.117000579834,7.92900037765503,3.78900027275085,-10.3860006332397,-22.1520004272461,4.63200044631958,15.0709505081177,49.3600540161133,6.64800024032593,3.3510000705719,-12.187050819397,-22.4080505371094,-4.31400012969971,26.719051361084,3.65295028686523,47.5330505371094,19.8499507904053,-3.31305027008057,-24.0330009460449,-21.631950378418,-12.8070001602173,34.5610504150391,49.995002746582,19.0630512237549,-6.14805030822754,-30.3450012207031,-26.8990516662598,-23.3869514465332,43.2430534362793,-2.27700018882751,5.29305028915405,-4.58205032348633,2.67405009269714,-2.54700016975403,-4.45500040054321,-3.37995004653931,5.56095027923584,5.76000022888184,-2.94900012016296,3.35400009155273,-7.40700054168701,-6.74895048141479,-2.22105002403259,13.9249505996704,SHAKE
-2.01176238059998,2.11392498016357,0.49994999170303,1.54219996929169,1.59829998016357,0.67223751544952,-0.01306249946356,-1.89447498321533,-1.01859998703003,0.14327499270439,1.87440001964569,1.70334994792938,-1.20188748836517,-0.98931246995926,-2.88901257514954,0.12828749418259,0.79406249523163,0.72930002212524,-0.73177498579025,1.00787496566772,0.29933750629425,-2.09769988059998,0.20033749938011,0.60114997625351,1.21068751811981,-0.69753748178482,0.23333749175072,-0.52896249294281,-2.60218739509583,-0.50572502613068,6.09111261367798,-2.7248375415802,-6.40584993362427,-6.10774993896484,-3.81699991226196,-0.00646249996498,7.78194999694824,5.31767511367798,-2.66860008239746,-7.22686243057251,-6.19932508468628,-6.12479972839355,5.38491249084473,8.43672466278076,6.82660007476807,20.5200004577637,36.5809516906738,7.52895021438599,4.13595008850098,-14.6910009384155,-23.859001159668,-3.3400502204895,24.5449504852295,37.2900009155273,4.71600008010864,5.85300016403198,1.11000001430511,-18.2089500427246,9.82800006866455,22.9990501403809,43.0849533081055,42.9480018615723,14.6500511169434,-7.86000061035156,-24.7830009460449,-23.9809513092041,-17.2049999237061,40.3290023803711,43.1680526733398,15.4399509429932,-7.72800016403198,-20.0880012512207,-23.4349517822266,-9.6340503692627,41.2600517272949,11.0250005722046,6.25800037384033,-2.91600012779236,2.97300004959106,-6.4830002784729,-10.2709503173828,-1.60395002365112,0.6240000128746,5.81295013427734,2.55405020713806,2.69805002212524,-2.85105013847351,-8.59995079040527,-3.52395009994507,15.7990503311157,SHAKE
-1.89447498321533,-1.01859998703003,0.14327499270439,1.87440001964569,1.70334994792938,-1.20188748836517,-0.98931246995926,-2.88901257514954,1.87934994697571,0.16403749585152,0.67718750238419,0.7957124710083,-0.75583750009537,-0.62768751382828,0.19456249475479,0.20033749938011,0.60114997625351,1.21068751811981,-0.69753748178482,0.23333749175072,-0.52896249294281,-2.60218739509583,-0.50572502613068,0.42391249537468,2.19670009613037,-0.34567499160767,0.62919998168945,-0.92001247406006,-1.4392124414444,-0.58643752336502,5.31767511367798,-2.66860008239746,-7.22686243057251,-6.19932508468628,-6.12479972839355,5.38491249084473,8.43672466278076,6.82660007476807,-2.38878750801086,-6.85904979705811,-5.91098737716675,-5.47002506256104,5.91882514953613,9.04392528533936,6.4172625541687,24.5449504852295,37.2900009155273,4.71600008010864,5.85300016403198,1.11000001430511,-18.2089500427246,9.82800006866455,22.9990501403809,37.9150505065918,6.44400024414063,4.34700012207031,-0.8400000333786,-20.2080001831055,12.7920007705688,30.7560005187988,40.3290023803711,43.1680526733398,15.4399509429932,-7.72800016403198,-20.0880012512207,-23.4349517822266,-9.6340503692627,41.2600517272949,44.9470520019531,16.9870510101318,-7.94595050811768,-21.4860019683838,-22.4410514831543,-7.43895053863525,47.2080039978027,0.6240000128746,5.81295013427734,2.55405020713806,2.69805002212524,-2.85105013847351,-8.59995079040527,-3.52395009994507,15.7990503311157,5.61600017547607,-4.72800016403198,-0.24405001103878,-3.02400016784668,-6.46200037002563,-1.37400007247925,15.3469505310059,SHAKE
0.04193750023842,1.4884375333786,-1.00265002250671,0.46942499279976,1.32219994068146,-1.57808744907379,-1.76261246204376,-0.98807501792908,1.54824995994568,0.01017499994487,-0.02048750035465,1.30391252040863,-1.68932497501373,-2.19147491455078,-1.37046253681183,-1.17892503738403,1.76055002212524,2.17346239089966,1.0225875377655,3.19714999198914,-0.51067501306534,-1.91193747520447,-1.96941244602203,1.17768752574921,3.40972495079041,1.42945003509521,4.19773769378662,-0.35914999246597,-1.42326247692108,-0.81606251001358,7.10146236419678,-4.25191259384155,-7.68377494812012,-6.51942491531372,-3.63866257667542,5.26157474517822,8.35243701934814,7.70742511749268,-3.13403749465942,-7.10338735580444,-7.33920001983643,-4.68806266784668,4.50408744812012,7.73176240921021,7.11479997634888,32.8489532470703,35.824951171875,5.6569504737854,2.49600005149841,-13.7190008163452,-15.5839509963989,8.76900005340576,24.2940006256104,40.4580001831055,15.5550003051758,3.0130500793457,-12.868950843811,-18.4980010986328,6.10905027389526,19.3540515899658,46.2550506591797,42.529052734375,11.1450004577637,-10.1749505996704,-25.2070503234863,-21.3709506988525,-9.55305004119873,41.8540534973145,43.1520004272461,26.6809520721436,0.93795001506805,-26.0140514373779,-19.5970516204834,-7.47900056838989,40.1130027770996,16.431001663208,-8.82000064849854,-0.27000001072884,1.65405011177063,-8.44200038909912,-10.9699506759644,-0.98400002717972,15.7060508728027,-1.97505009174347,-6.60105037689209,2.02995014190674,-9.30105018615723,-13.4080505371094,0.25304999947548,18.2680511474609,SHAKE
-1.37046253681183,2.43278741836548,-0.83902502059937,0.27156248688698,1.05338752269745,0.6710000038147,-2.12781238555908,-1.3252249956131,-1.14565002918243,-0.1095874980092,1.60448753833771,2.36431241035461,-1.56832504272461,-0.56897497177124,-0.03382499888539,-0.81606251001358,1.21563744544983,3.66753745079041,1.61383748054504,3.30343747138977,2.50332498550415,-1.62483751773834,-1.47344994544983,-2.35427498817444,4.23692512512207,1.78131246566772,2.86494994163513,0.69272500276566,-2.28456258773804,-1.28892505168915,7.11479997634888,-2.76017498970032,-7.41125011444092,-6.35208749771118,-4.06010007858276,-1.36510002613068,7.3798999786377,7.43861246109009,6.46731233596802,-7.55424976348877,-5.90122509002686,-4.31296253204346,3.81865000724792,8.25233745574951,7.79171228408813,19.3540515899658,39.6870002746582,4.45695018768311,1.66095006465912,-9.8569507598877,-19.1830501556396,-0.0259500015527,11.9080505371094,36.2320518493652,6.61695051193237,0.63795000314713,-9.56505012512207,-19.2499504089355,3.50205016136169,17.0680503845215,40.1130027770996,42.6109504699707,13.6210508346558,-7.00995016098022,-20.5159511566162,-21.1819515228271,-10.3810501098633,29.5380020141602,46.8079528808594,18.5650501251221,-4.72095012664795,-23.22705078125,-20.0779514312744,-9.29700088500977,35.8780517578125,18.2680511474609,0.94305002689362,-3.16695022583008,0.7870500087738,-6.91395044326782,-13.3530006408691,-1.7980500459671,6.65595054626465,13.4700002670288,3.49695014953613,1.90995013713837,-10.0560007095337,-11.1640501022339,-0.13095000386238,8.0710506439209,SHAKE
-1.3252249956131,-1.14565002918243,-0.1095874980092,1.60448753833771,2.36431241035461,-1.56832504272461,-0.56897497177124,-0.03382499888539,2.22378754615784,-1.14922499656677,-1.82613754272461,1.28191244602203,0.00398749997839,-2.0179500579834,-4.73742485046387,-1.47344994544983,-2.35427498817444,4.23692512512207,1.78131246566772,2.86494994163513,0.69272500276566,-2.28456258773804,-1.28892505168915,-0.11481250077486,2.27974987030029,1.47702503204346,3.93634986877441,-0.66219997406006,-1.88870000839233,-1.86436247825623,7.43861246109009,6.46731233596802,-7.55424976348877,-5.90122509002686,-4.31296253204346,3.81865000724792,8.25233745574951,7.79171228408813,-0.684475004673,-7.54806232452393,-7.67635011672974,-4.39848756790161,4.23403739929199,6.92188739776611,7.46061229705811,11.9080505371094,36.2320518493652,6.61695051193237,0.63795000314713,-9.56505012512207,-19.2499504089355,3.50205016136169,17.0680503845215,44.8129539489746,8.68095016479492,0.88305002450943,-13.0459508895874,-16.8010501861572,3.54495024681091,20.7790508270264,29.5380020141602,46.8079528808594,18.5650501251221,-4.72095012664795,-23.22705078125,-20.0779514312744,-9.29700088500977,35.8780517578125,43.911003112793,15.2730007171631,-7.60395050048828,-21.5650501251221,-18.7129516601563,-6.01200008392334,39.1009521484375,6.65595054626465,13.4700002670288,3.49695014953613,1.90995013713837,-10.0560007095337,-11.1640501022339,-0.13095000386238,8.0710506439209,0.34395000338554,-6.54300022125244,2.71905016899109,-3.66000008583069,-15.1960506439209,-5.19795036315918,17.4630012512207,SHAKE
-0.96731251478195,-2.76801252365112,1.39672493934631,2.40226244926453,2.8078875541687,-0.26592499017715,-1.38503754138947,-0.99659997224808,-0.1560624986887,0.74676251411438,2.18968749046326,0.5048999786377,-1.1944625377655,-1.0564124584198,-0.54092502593994,-2.87952494621277,-1.22416245937347,5.2167501449585,3.73353743553162,1.32192504405975,1.8130749464035,-2.08917498588562,-0.78072500228882,-0.59248751401901,3.45619988441467,-0.76725000143051,-0.0622874982655,1.63583743572235,-1.09463751316071,-1.18263745307922,9.28345012664795,4.95371246337891,-6.89699983596802,-6.78947496414185,-6.40818738937378,-0.81894999742508,8.45872497558594,8.47701263427734,3.00740003585815,-6.92009973526001,-6.24827480316162,-6.61100006103516,-1.7742999792099,5.24314975738525,9.68659973144531,4.82805013656616,40.8790512084961,16.0099506378174,1.98405003547668,5.29305028915405,-31.3170013427734,-2.89200019836426,17.0770511627197,48.7110023498535,12.7650003433228,6.11895036697388,3.77505016326904,-31.5330009460449,-24.2880020141602,18.6190509796143,-16.0320014953613,57.7210540771484,34.5250511169434,20.7120018005371,-24.9220504760742,-25.537052154541,-21.5580005645752,11.5159502029419,56.6989517211914,28.9300518035889,2.4340500831604,-21.2320518493652,-26.506950378418,-25.1250019073486,7.84800052642822,-1.36005008220673,22.4340019226074,6.69600009918213,1.27995002269745,-9.37995052337646,-11.4970502853394,-2.28405022621155,1.8600001335144,13.723051071167,-2.27700018882751,0.79005002975464,-6.21300029754639,-4.88595008850098,-2.55900001525879,-1.13895010948181,SHAKE
-0.99659997224808,-0.1560624986887,0.74676251411438,2.18968749046326,0.5048999786377,-1.1944625377655,-1.0564124584198,-0.54092502593994,1.58496248722076,-0.41497498750687,-0.49568748474121,0.68571251630783,0.27651250362396,-0.20487499237061,-0.39421248435974,-0.78072500228882,-0.59248751401901,3.45619988441467,-0.76725000143051,-0.0622874982655,1.63583743572235,-1.09463751316071,-1.18263745307922,-0.50572502613068,2.53632497787476,-0.70372498035431,-0.78801250457764,2.48256254196167,-1.68712496757507,-1.32426249980927,8.47701263427734,3.00740003585815,-6.92009973526001,-6.24827480316162,-6.61100006103516,-1.7742999792099,5.24314975738525,9.68659973144531,3.55973744392395,-6.87857484817505,-6.84557485580444,-6.47171258926392,-2.93864989280701,8.13010025024414,9.20892524719238,17.0770511627197,48.7110023498535,12.7650003433228,6.11895036697388,3.77505016326904,-31.5330009460449,-24.2880020141602,18.6190509796143,57.6490516662598,13.7659502029419,4.27305030822754,1.32795011997223,-26.8180503845215,-10.2570009231567,15.4159507751465,11.5159502029419,56.6989517211914,28.9300518035889,2.4340500831604,-21.2320518493652,-26.506950378418,-25.1250019073486,7.84800052642822,53.2099533081055,30.5050506591797,4.48200035095215,-17.7150001525879,-27.318000793457,-23.5429515838623,-3.54300022125244,1.8600001335144,13.723051071167,-2.27700018882751,0.79005002975464,-6.21300029754639,-4.88595008850098,-2.55900001525879,-1.13895010948181,14.7960004806519,-13.7160005569458,5.86995029449463,2.74305009841919,-3.16500020027161,-2.41800022125244,-4.963050365448,SHAKE
