gyro_x_0,gyro_y_0,gyro_z_0,acc_x_0,acc_y_0,acc_z_0,gyro_x_1,gyro_y_1,gyro_z_1,acc_x_1,acc_y_1,acc_z_1,gyro_x_2,gyro_y_2,gyro_z_2,acc_x_2,acc_y_2,acc_z_2,gyro_x_3,gyro_y_3,gyro_z_3,acc_x_3,acc_y_3,acc_z_3,gyro_x_4,gyro_y_4,gyro_z_4,acc_x_4,acc_y_4,acc_z_4,gyro_x_5,gyro_y_5,gyro_z_5,acc_x_5,acc_y_5,acc_z_5,gyro_x_6,gyro_y_6,gyro_z_6,acc_x_6,acc_y_6,acc_z_6,gyro_x_7,gyro_y_7,gyro_z_7,acc_x_7,acc_y_7,acc_z_7,gyro_x_8,gyro_y_8,gyro_z_8,acc_x_8,acc_y_8,acc_z_8,gyro_x_9,gyro_y_9,gyro_z_9,acc_x_9,acc_y_9,acc_z_9,gyro_x_10,gyro_y_10,gyro_z_10,acc_x_10,acc_y_10,acc_z_10,gyro_x_11,gyro_y_11,gyro_z_11,acc_x_11,acc_y_11,acc_z_11,gyro_x_12,gyro_y_12,gyro_z_12,acc_x_12,acc_y_12,acc_z_12,gyro_x_13,gyro_y_13,gyro_z_13,acc_x_13,acc_y_13,acc_z_13,gyro_x_14,gyro_y_14,gyro_z_14,acc_x_14,acc_y_14,acc_z_14,motion_type
-0.14519999921322,-0.00013749999925,-0.00013749999925,-0.00013749999925,-0.18314999341965,-0.37716248631477,-0.73851251602173,-1.44375002384186,-2.49782490730286,-3.46280002593994,-4.33537483215332,-5.16394996643066,-6.14707517623901,-6.88723754882813,-7.14807510375977,0.0,-0.00013749999925,0.00013749999925,0.0,-0.38458749651909,-1.22333753108978,-2.45437502861023,-3.69435000419617,-4.38803768157959,-4.46998739242554,-3.65914988517761,-2.07542490959167,-0.00013749999925,2.01904988288879,3.64911246299744,0.0,0.00013749999925,0.2374625056982,0.33989998698235,0.3617624938488,0.16898749768734,-0.1560624986887,-0.36822500824928,-0.14849999547005,0.27623748779297,0.71555000543594,0.7871875166893,0.31831249594688,-0.75157499313354,-1.8191249370575,-0.16695000231266,-0.01800000108778,1.37895011901855,8.65500068664551,10.9270505905151,25.6380004882813,26.7390003204346,34.7890510559082,37.6360511779785,29.4040508270264,15.9289503097534,13.4650506973267,3.88800024986267,-5.10900020599365,-6.01095008850098,3.85605025291443,3.1230001449585,3.01995015144348,4.53600025177002,5.14395046234131,4.74900007247925,0.13995000720024,-11.2080001831055,-29.6770515441895,-38.2230033874512,-34.6120529174805,-30.8430023193359,-29.566951751709,-22.1089515686035,-16.114049911499,7.47900056838989,5.95605039596558,5.31495046615601,10.3470001220703,12.8830509185791,12.1720504760742,7.38600015640259,11.6280002593994,15.0880508422852,14.1139507293701,18.0019512176514,16.0480499267578,10.885950088501,12.4230003356934,11.731050491333,SWING_RIGHT
0.0,0.0,0.0,0.0,0.0,-0.31336250901222,-0.9953625202179,-1.85212504863739,-2.86206245422363,-3.96495008468628,-4.93116235733032,-5.77279996871948,-6.2123875617981,-6.18007516860962,-5.62952518463135,0.0,-0.00013749999925,-0.29425001144409,-0.72008746862411,-1.63666248321533,-2.72359991073608,-3.68472504615784,-4.19567489624023,-4.13627481460571,-3.25283741950989,-1.76536250114441,0.0,1.63941252231598,2.7664999961853,3.24128746986389,0.21353749930859,0.15427500009537,0.0,-0.15565000474453,-0.64074999094009,-1.16063749790192,-1.41047501564026,-1.2471250295639,-0.91093748807907,-0.50325000286102,-0.4145624935627,-0.74277502298355,-1.32605004310608,-1.79849994182587,-1.88278746604919,-0.591000020504,2.65995001792908,7.23795032501221,11.4060001373291,24.3780002593994,27.3499507904053,34.6789512634277,34.6930503845215,26.1409511566162,15.1440010070801,10.2619504928589,-4.57500028610229,-11.1829509735107,-8.53305053710938,-7.2199501991272,2.74500012397766,3.21405005455017,3.82995009422302,4.76805019378662,2.80200004577637,-1.66200006008148,-13.0849504470825,-25.6189517974854,-35.3809509277344,-35.1360015869141,-32.6100006103516,-27.6760520935059,-21.2760009765625,-14.3370008468628,-7.34805011749268,9.17205047607422,11.3479509353638,11.1709508895874,8.449049949646,10.6200008392334,14.086950302124,15.5569505691528,17.1280517578125,15.5449504852295,17.3290500640869,12.7609510421753,9.30105018615723,7.08900022506714,4.33305025100708,3.90405011177063,SWING_RIGHT
0.0,0.0,0.0,0.0,0.00013749999925,0.00013749999925,-0.15977500379086,-0.40122500061989,-1.6163125038147,-2.73116254806519,-3.84546256065369,-4.88551235198975,-5.57851266860962,-5.8049750328064,-5.57067489624023,-0.43738749623299,-0.29796248674393,-0.26097500324249,-0.45127499103546,-0.87559998035431,-1.82819998264313,-3.03984999656677,-3.58118748664856,-4.59071254730225,-4.45183753967285,-3.25379991531372,-1.65233743190765,0.19387499988079,1.84401249885559,2.85683751106262,0.61173748970032,0.59386247396469,0.50214999914169,0.30579999089241,0.0,-0.51397502422333,-0.94765001535416,-1.01639997959137,-0.51204997301102,0.0,0.34622499346733,0.28600001335144,-0.2043250054121,-1.02946245670319,-1.75711250305176,-1.19205009937286,-0.70095002651215,3.12900018692017,2.70495009422302,11.4079504013062,21.6270008087158,35.6580009460449,39.9319534301758,39.0840034484863,24.9940509796143,16.5180015563965,6.62700033187866,-2.88900017738342,-5.49705028533936,-4.57005023956299,2.91000008583069,2.92005014419556,2.88405013084412,3.8970000743866,3.85605025291443,3.44205021858215,-1.47000002861023,-7.29300022125244,-35.287052154541,-42.6229515075684,-34.7890510559082,-29.8210506439209,-22.5300006866455,-15.0289506912231,-8.26800060272217,8.62305068969727,9.27705001831055,9.83505058288574,8.57595062255859,10.2829504013062,13.828950881958,16.7089500427246,16.3900508880615,14.0080509185791,19.4029502868652,16.0459499359131,8.50605010986328,11.0970001220703,12.3109502792358,9.44700050354004,SWING_RIGHT
0.0,0.00013749999925,0.19332499802113,0.27953749895096,0.34058749675751,0.28201249241829,-0.00013749999925,-0.74181246757507,-1.65096247196198,-2.75948739051819,-4.05872488021851,-5.20629978179932,-5.96832513809204,-6.21637487411499,-5.87812519073486,-0.46406251192093,-0.43518748879433,-0.37936249375343,-0.64941251277924,-1.22993743419647,-2.05026245117188,-3.20471239089966,-4.11138725280762,-4.42818737030029,-3.92493748664856,-2.92654991149902,-1.2170125246048,0.50283747911453,1.76907503604889,2.39744997024536,0.59894996881485,0.48578751087189,0.34856250882149,0.00013749999925,-0.31446251273155,-0.73122501373291,-0.95768749713898,-0.72297501564026,-0.22041249275208,0.18163749575615,0.33811250329018,0.0,-0.71912497282028,-1.56447494029999,-1.91427493095398,-0.11700000613928,-0.58095002174377,3.37800025939941,8.32905006408691,17.1400508880615,26.4250507354736,38.1310501098633,46.10205078125,38.4900016784668,30.1939506530762,10.5150003433228,-3.63600015640259,-2.66895008087158,-7.72605037689209,-4.82895040512085,3.37500023841858,4.01595020294189,4.66800022125244,7.85895013809204,7.74900054931641,6.01605033874512,-2.4019501209259,-20.2180519104004,-32.8909530639648,-35.5270500183105,-34.4230499267578,-24.3529510498047,-20.5860004425049,-12.8340005874634,-7.21200037002563,9.18600082397461,9.95205020904541,11.2999505996704,12.41100025177,9.61500072479248,9.97395038604736,14.2069511413574,14.1109504699707,24.4950008392334,16.9409999847412,12.72705078125,15.7180509567261,13.1820001602173,9.16005039215088,7.18005037307739,SWING_RIGHT
0.0,0.14519999921322,0.18452499806881,0.21766249835491,0.26207500696182,0.2073500007391,0.0,-0.49733749032021,-1.28493750095367,-2.31041240692139,-3.42113757133484,-4.55620002746582,-5.44252490997314,-5.72261238098145,-5.47690010070801,-0.38376250863075,-0.32780000567436,-0.26578751206398,-0.36726251244545,-0.64322501420975,-1.4001624584198,-2.42577505111694,-3.51037502288818,-4.18536233901978,-4.12527513504028,-3.29174995422363,-1.91221249103546,0.0,1.59004998207092,2.50799989700317,0.27417498826981,0.14588749408722,0.00013749999925,0.0,-0.21944999694824,-0.5823125243187,-0.89952498674393,-1.00168752670288,-0.70523750782013,-0.3284874856472,-0.00013749999925,-0.14478750526905,-0.45897498726845,-1.06424999237061,-1.5549875497818,-1.48605012893677,0.23205001652241,0.93795001506805,5.15505027770996,9.50295066833496,23.707950592041,32.0500526428223,40.900951385498,32.0069999694824,17.2189502716064,12.1819505691528,3.34200024604797,-13.3189506530762,-8.34794998168945,-4.81905031204224,2.05995011329651,1.91700005531311,3.34605026245117,4.41405010223389,5.74005031585693,4.23195028305054,0.90405005216599,-12.7999505996704,-28.0660514831543,-34.5790519714355,-32.3640022277832,-36.5130004882813,-25.1140518188477,-17.1940517425537,-9.77400016784668,7.51995038986206,9.17400074005127,12.4210510253906,13.5649509429932,14.4420003890991,15.433051109314,17.2669506072998,10.1850004196167,14.4220504760742,15.6199502944946,14.4220504760742,9.09000015258789,7.5319504737854,5.82900047302246,6.34605026245117,SWING_RIGHT
-0.32436248660088,-0.42762500047684,-0.45388749241829,-0.39957499504089,-0.18535000085831,0.0,-0.00013749999925,-0.6931374669075,-1.55003750324249,-2.57537508010864,-3.60923743247986,-4.65574979782104,-5.60986232757568,-6.22187519073486,-6.36735010147095,0.2381500005722,0.1567499935627,0.0,-0.33082500100136,-0.96813750267029,-1.94315004348755,-3.39707493782043,-4.59868764877319,-5.26858758926392,-5.14951229095459,-4.03480005264282,-2.15847492218018,0.0,1.98866248130798,3.36077499389648,0.21876250207424,0.2593249976635,0.31583750247955,0.32931250333786,0.22055000066757,-0.00013749999925,-0.70936250686646,-1.04926252365112,-0.94902497529984,-0.54271250963211,-0.19208750128746,0.0,-0.26798748970032,-1.0700249671936,-1.91303753852844,-1.33995008468628,-0.87600004673004,2.32200002670288,7.69005060195923,14.1019506454468,25.9420509338379,36.3430519104004,38.6989517211914,36.8770523071289,23.9689502716064,12.7009506225586,5.8609504699707,-7.74000024795532,-9.11205005645752,-5.17800045013428,0.85095006227493,1.57200002670288,1.40700006484985,3.73095011711121,5.34795045852661,4.33004999160767,-0.60795003175735,-12.7759504318237,-28.6380004882813,-37.9309501647949,-32.6770515441895,-32.4690017700195,-24.7930507659912,-17.8759517669678,-10.0729503631592,9.51600074768066,8.97795009613037,10.0219507217407,11.1850509643555,9.2959508895874,11.0179500579834,12.0070505142212,11.2600507736206,10.090950012207,15.997950553894,19.5919513702393,10.771050453186,8.50395011901855,10.9530000686646,7.213050365448,SWING_RIGHT
-0.00013749999925,-0.00013749999925,0.0,0.0,0.0,0.0,0.15193749964237,0.0,-0.74621248245239,-1.52707493305206,-2.48627495765686,-3.79871249198914,-5.05092477798462,-5.82161235809326,-6.18076229095459,0.0,0.0,0.0,0.0,0.0,-0.2041874974966,-1.26293754577637,-3.24582505226135,-4.80067491531372,-5.38436269760132,-5.30749988555908,-4.08540010452271,-1.34392499923706,1.28754997253418,2.8356626033783,0.34430000185966,0.29878750443459,0.22948749363422,0.20253749191761,0.16843749582767,0.0,-0.40796250104904,-0.94063746929169,-0.6014249920845,0.00013749999925,0.53693747520447,1.02643752098084,1.32990002632141,0.44549998641014,-0.87711250782013,-0.26295000314713,-0.80895006656647,-1.24695003032684,-1.04595005512238,-0.01095000095665,8.33700084686279,35.7370529174805,45.9150009155273,44.5000534057617,29.859001159668,19.7449512481689,7.62600040435791,-12.7920007705688,-2.65695023536682,0.39495003223419,2.51805019378662,3.00795006752014,2.59905004501343,2.53695011138916,3.6499502658844,5.82900047302246,8.99895000457764,-3.04305005073547,-26.3490009307861,-33.6060028076172,-34.8059997558594,-36.2740516662598,-25.291051864624,-15.7210512161255,-4.65705013275146,9.14505004882813,8.91105079650879,9.33195018768311,9.69105052947998,10.0500001907349,12.2749509811401,9.49995040893555,-0.4120500087738,4.23195028305054,16.6489505767822,16.7980499267578,8.37705039978027,13.278000831604,12.1770009994507,9.44505023956299,SWING_RIGHT
0.00013749999925,0.00013749999925,0.00013749999925,0.1522125005722,0.00013749999925,0.00013749999925,0.23663750290871,0.30043751001358,-0.00013749999925,-0.71871250867844,-1.57245004177094,-2.81902503967285,-4.33042478561401,-5.24205017089844,-5.5521125793457,0.0,0.0,0.00013749999925,0.00013749999925,0.00013749999925,-0.00013749999925,-0.68131250143051,-1.9658374786377,-3.83858752250671,-4.82748746871948,-5.17247486114502,-4.71418762207031,-3.00877499580383,-0.45870000123978,1.22443747520447,0.26922500133514,0.27156248688698,0.2773374915123,0.30621248483658,0.33866250514984,0.2261874973774,-0.00013749999925,-0.86171251535416,-1.50933754444122,-1.37898755073547,-1.02918744087219,-0.53845000267029,0.00013749999925,0.27224999666214,-0.51122498512268,-1.90500009059906,-1.29900002479553,-1.79505014419556,-1.53900003433228,0.75195002555847,5.54700040817261,15.0139503479004,35.2339515686035,51.2490005493164,40.8390007019043,29.812952041626,10.0699501037598,-15.7729511260986,-10.5130500793457,3.4980001449585,2.51805019378662,2.34795022010803,2.43900012969971,2.28795003890991,2.08905005455017,3.41805005073547,6.13800048828125,7.59105014801025,-4.21695041656494,-20.6050510406494,-33.271053314209,-47.8480529785156,-35.3179512023926,-16.4940013885498,-3.89100027084351,10.090950012207,9.80400085449219,7.27305030822754,7.94595050811768,10.0000505447388,11.3770503997803,12.2530508041382,12.76305103302,17.7480010986328,17.7270011901855,17.146951675415,14.7190504074097,4.92705011367798,11.4769506454468,6.36300039291382,SWING_RIGHT
0.0,0.00013749999925,0.23237499594688,0.43037500977516,0.58313751220703,0.36451250314713,-0.19194999337196,-1.04376244544983,-2.22585010528564,-3.689537525177,-4.83917474746704,-5.49216270446777,-5.5890998840332,-5.10922479629517,-4.01596260070801,0.15716250240803,0.00013749999925,-0.00013749999925,-0.75459998846054,-1.96185004711151,-3.42732501029968,-4.38075017929077,-4.85430002212524,-4.55399990081787,-3.16951251029968,-1.2529000043869,0.36519998311996,1.47798752784729,2.10430002212524,2.10209989547729,0.59427499771118,0.50407499074936,0.31913748383522,-0.00013749999925,-0.82279998064041,-1.29992496967316,-1.25125002861023,-0.96002501249313,-0.48688748478889,0.00013749999925,0.00013749999925,-0.47836250066757,-1.21274995803833,-1.71627497673035,-1.84731245040894,-1.81905007362366,0.77805006504059,5.57400035858154,18.1390514373779,35.4019508361816,38.7300033569336,37.9249534606934,31.3699512481689,20.1640510559082,-7.51995038986206,-7.47705030441284,-5.46105003356934,0.19395001232624,-3.01800012588501,-0.61695003509521,2.59395003318787,2.86005020141602,5.22105026245117,8.32605075836182,11.0149507522583,0.0679500028491,-14.7589502334595,-25.6980018615723,-38.484001159668,-36.0289535522461,-25.5070514678955,-13.6930503845215,-3.58395028114319,1.90500009059906,2.59905004501343,8.74095058441162,8.28105068206787,10.371000289917,17.8729515075684,20.6310005187988,14.1280508041382,13.8480005264282,13.8019504547119,12.913950920105,12.118950843811,9.40200042724609,8.90100002288818,6.1210503578186,4.96695041656494,9.95205020904541,SWING_RIGHT
-0.00013749999925,-0.00013749999925,0.0,0.0,0.24227499961853,0.60678750276566,0.73039996623993,0.428312510252,-0.27692499756813,-1.3199999332428,-2.75935006141663,-4.17133760452271,-5.00321245193481,-5.14937496185303,-4.83147478103638,0.0,0.18150000274181,0.15427500009537,0.0,-0.48427498340607,-1.27696251869202,-2.55419993400574,-3.56180000305176,-4.29398727416992,-4.36576271057129,-3.86608743667603,-2.27920007705688,-0.54491251707077,0.88316249847412,1.86738753318787,0.69382500648499,0.69712501764297,0.60183751583099,0.42913749814034,0.0,-0.53198748826981,-1.26610004901886,-1.5193749666214,-1.33210003376007,-0.83861249685287,-0.30992498993874,0.22646249830723,0.00013749999925,-0.59455001354218,-1.31106245517731,-4.08195018768311,-2.84100008010864,0.06195000186563,2.84895014762878,9.04305076599121,16.2090015411377,32.8999519348145,34.3219528198242,39.2850036621094,25.3309516906738,10.6519508361816,-18.6480007171631,-11.8680009841919,-4.125,-4.11300039291382,1.71795010566711,1.45695006847382,1.20105004310608,2.86695003509521,7.13400030136108,11.403000831604,8.26905059814453,-4.92000007629395,-26.4360008239746,-35.4400520324707,-45.7480506896973,-34.9140014648438,-18.1609516143799,-5.71095037460327,0.18795001506805,8.60205078125,9.02595043182373,9.32295036315918,11.5969505310059,12.1290006637573,13.3429508209229,23.5230007171631,23.6040019989014,19.47705078125,12.2719507217407,13.0620002746582,3.41805005073547,2.94195008277893,5.5969500541687,4.07895040512085,SWING_RIGHT
-0.22756250202656,-0.17792500555515,0.0,0.00013749999925,0.23553749918938,0.48798748850822,0.7207750082016,0.58038747310638,0.0,-0.80299997329712,-2.03417491912842,-3.55217504501343,-4.86337518692017,-5.69057512283325,-5.935462474823,0.0,-0.16830000281334,-0.22632500529289,-0.28929999470711,-0.41346248984337,-0.9179499745369,-2.02991247177124,-3.47228741645813,-4.39505004882813,-4.71432495117188,-4.38721227645874,-3.13582491874695,-1.22622501850128,0.50325000286102,1.59307503700256,0.8095999956131,0.63676249980927,0.48688748478889,0.32766249775887,0.14313749969006,-0.25519999861717,-0.91258752346039,-1.34956252574921,-1.13341248035431,-0.70908749103546,-0.27994999289513,0.23196250200272,0.21340000629425,-0.55274999141693,-1.45860004425049,-0.23895001411438,-0.79200005531311,-1.05000007152557,-0.59295004606247,4.60605001449585,17.1880512237549,36.5029525756836,41.7540016174316,36.9439506530762,24.2779502868652,18.7999515533447,-5.27205038070679,-5.05800008773804,-6.74595022201538,-4.29704999923706,1.44000005722046,1.90005004405975,2.75505018234253,3.38205027580261,5.17500019073486,10.4790000915527,12.9469509124756,0.8440500497818,-18.7519512176514,-29.041051864624,-36.8910026550293,-28.6530017852783,-22.9780502319336,-13.8390007019043,-5.08800029754639,8.82900047302246,9.18600082397461,10.1890506744385,10.8190507888794,13.5990009307861,15.246000289917,11.6860504150391,8.89395046234131,13.407000541687,20.7390003204346,8.99895000457764,2.26200008392334,7.03095054626465,10.5870008468628,6.27705049514771,SWING_RIGHT
0.0,-0.00013749999925,-0.00013749999925,-0.00013749999925,0.0,0.24612499773502,0.25121250748634,-0.15097500383854,-0.9013124704361,-1.98192501068115,-3.33987498283386,-4.78651237487793,-5.86231231689453,-6.23053741455078,-5.91249990463257,0.0,-0.00013749999925,0.0,-0.00013749999925,-0.43903750181198,-1.30982494354248,-2.84638738632202,-4.05652475357056,-4.57036256790161,-4.61931228637695,-3.84821248054504,-1.93806254863739,0.00013749999925,1.39906251430511,2.24551248550415,0.57406252622604,0.56086248159409,0.5654000043869,0.49252501130104,0.25354999303818,-0.2261874973774,-0.82059997320175,-0.91891247034073,-0.5908374786377,-0.2441999912262,0.0,0.2426874935627,-0.26977500319481,-1.24244999885559,-2.01946258544922,-0.62205004692078,-0.70605003833771,-0.18105000257492,1.53705012798309,9.43305015563965,22.1539516448975,39.0739517211914,36.5869522094727,34.1950531005859,27.6010513305664,13.5990009307861,-10.006950378418,-10.6230001449585,-2.35005021095276,1.47705006599426,3.15705013275146,2.87205004692078,3.05595016479492,4.47405004501343,6.47100019454956,11.2060508728027,7.48305034637451,-8.08800029754639,-24.3210010528564,-32.3610000610352,-31.4370021820068,-34.0159530639648,-22.8420009613037,-7.55700016021729,1.64400005340576,9.30105018615723,9.2989501953125,9.25800037384033,8.3430004119873,8.95395088195801,11.6640005111694,12.5209503173828,18.6940517425537,23.9130020141602,16.0770015716553,12.7660503387451,11.9629507064819,10.9050006866455,11.4250507354736,8.12295055389404,SWING_RIGHT
0.0,0.0,0.0,0.0,0.0,0.23787499964237,0.0,-0.50160002708435,-1.32714998722076,-2.44749999046326,-3.9311249256134,-5.11596250534058,-5.66197490692139,-5.61962509155273,-5.05422496795654,-0.35144999623299,-0.45636248588562,-0.51136249303818,-0.51919996738434,-0.89705002307892,-2.00433754920959,-3.47985005378723,-4.3623251914978,-4.72738742828369,-4.49459981918335,-3.24169993400574,-1.04252505302429,0.57585000991821,1.52075004577637,2.04379987716675,0.21092499792576,0.0,0.0,0.0,-0.32229998707771,-1.01887500286102,-1.56406247615814,-1.43467497825623,-1.2531750202179,-1.07923746109009,-0.55618751049042,-0.26166251301765,-0.87986248731613,-1.58028745651245,-1.88622498512268,-1.18905007839203,-0.92805004119873,0.27705001831055,2.88195013999939,16.9680004119873,43.2000007629395,45.2920532226563,34.7119522094727,31.0920009613037,23.9400005340576,2.47800016403198,-13.2900009155273,0.26100000739098,3.69405007362366,-0.33705002069473,1.69395005702972,1.74405002593994,1.8229501247406,2.25195002555847,7.11705017089844,10.6129503250122,-3.03405022621155,-20.8399505615234,-29.9380512237549,-32.9599533081055,-36.6619529724121,-24.5539512634277,-12.6559505462646,-2.71800017356873,1.24395000934601,9.37005043029785,8.47695064544678,10.2250509262085,13.2829504013062,19.2439517974854,14.1730508804321,11.5639505386353,17.8290004730225,22.3470001220703,10.3639507293701,3.39000010490417,7.90500020980835,10.5480003356934,10.2750005722046,9.1690502166748,SWING_RIGHT
-0.00013749999925,0.0,0.0,0.174899995327,0.30414998531342,0.23993749916553,-0.22261250019073,-0.95452499389648,-1.89502501487732,-2.95350003242493,-4.03837490081787,-4.909987449646,-5.52474975585938,-5.70006227493286,-5.34201240539551,-0.00013749999925,-0.00013749999925,0.0,-0.16513749957085,-0.79447501897812,-2.36389994621277,-3.8032500743866,-4.60143756866455,-4.70332479476929,-4.12967491149902,-2.35853743553162,-0.25657498836517,1.38820004463196,2.46207499504089,3.03393745422363,0.34003749489784,0.32628750801086,0.28435000777245,0.00013749999925,-0.2426874935627,-0.88563752174377,-1.02588748931885,-0.62287497520447,-0.00013749999925,0.3797749876976,0.84438747167587,0.54092502593994,-0.48276248574257,-1.44911253452301,-1.99608743190765,-0.82995003461838,-0.83295005559921,-0.67200005054474,3.10695004463196,17.1280517578125,39.2299537658691,40.5420036315918,29.695951461792,22.3860015869141,11.8609504699707,-1.96695005893707,-8.71905040740967,-7.93395042419434,-7.82400035858154,-1.47405004501343,2.69205021858215,3.40800023078918,4.98600006103516,6.15195035934448,4.78500032424927,3.68400025367737,-8.14800071716309,-24.3790512084961,-32.3730010986328,-28.0729522705078,-28.4640007019043,-19.5160503387451,-13.5660009384155,-6.6540002822876,-1.69995009899139,9.42300033569336,8.69295024871826,9.01095008850098,7.02600049972534,12.1890001296997,11.8489503860474,10.0339508056641,17.4750003814697,18.6769504547119,13.0819501876831,8.26905059814453,7.88805055618286,8.09205055236816,7.90005016326904,8.4820499420166,SWING_RIGHT
0.17627499997616,0.28696250915527,0.35199999809265,0.37193748354912,0.36959999799728,0.31707498431206,0.39338749647141,0.67430001497269,0.73136252164841,0.23485000431538,-0.41387498378754,-1.34736251831055,-2.68221259117126,-4.27418756484985,-5.55774974822998,-0.33412501215935,-0.37950000166893,-0.39902499318123,-0.26042500138283,-0.00013749999925,0.0,0.0,-0.91657501459122,-2.70476245880127,-4.06518745422363,-4.79008769989014,-5.09423732757568,-4.51577520370483,-2.82782506942749,-0.85689997673035,0.61269998550415,0.49555000662804,0.41635000705719,0.41373750567436,0.42019999027252,0.40603750944138,0.25437501072884,-0.2773374915123,-1.01530003547668,-1.05655002593994,-0.87133747339249,-0.64707499742508,-0.22728750109673,0.27183750271797,-0.18631249666214,-0.2080500125885,-0.76500004529953,-0.96405005455017,-2.53995013237,-2.68605017662048,-1.09095001220703,7.31205034255981,23.7390003204346,45.4500007629395,34.396053314209,31.8940505981445,27.0859508514404,22.6980018615723,-0.52605003118515,-15.5479507446289,3.54000020027161,3.48195028305054,2.94105005264282,3.24105024337769,3.1470000743866,4.56704998016357,7.87605047225952,13.1290502548218,7.09305047988892,-7.93995046615601,-17.6839504241943,-21.8460006713867,-28.8679504394531,-39.3120002746582,-28.6450519561768,9.08805084228516,8.74305057525635,8.74995040893555,8.32695007324219,9.21495056152344,10.1560506820679,10.3780508041382,10.8570003509521,14.0250005722046,20.7700500488281,16.6540508270264,14.3770503997803,10.57200050354,5.91795015335083,11.9010009765625,SWING_RIGHT
0.17751249670982,0.168850004673,0.14685000479221,0.21711249649525,0.34044998884201,0.46681249141693,0.35804998874664,0.0,-0.68612498044968,-1.63020002841949,-2.7913875579834,-3.82167506217957,-4.61009979248047,-5.0213623046875,-4.97585010528564,0.0,0.0,-0.00013749999925,-0.22563749551773,-0.61366248130798,-1.41844999790192,-2.74628758430481,-3.64251255989075,-4.24641227722168,-4.16047477722168,-3.35555005073547,-1.84937500953674,-0.28847500681877,0.98738747835159,1.83466243743896,0.60073751211166,0.56333750486374,0.49004998803139,0.43779999017715,0.2374625056982,-0.19373749196529,-0.80148750543594,-1.02684998512268,-0.96139997243881,-0.57254999876022,-0.00013749999925,0.16362500190735,-0.00013749999925,-0.84438747167587,-1.64683747291565,-1.24905002117157,-1.18005001544952,1.60905003547668,1.63695013523102,13.8510007858276,21.9670505523682,34.7220001220703,30.6130523681641,32.428050994873,20.1400508880615,8.87100028991699,-5.63100004196167,-9.47100067138672,-7.52505016326904,-4.94595003128052,2.95095014572144,2.05800008773804,2.09895014762878,4.23705005645752,6.86100053787231,9.34800052642822,5.20395040512085,-3.25395011901855,-18.4309501647949,-31.5760517120361,-34.1430015563965,-24.4939517974854,-18.0150012969971,-9.88905048370361,-3.38100004196167,10.0939502716064,9.19095039367676,9.94995021820068,8.93205070495605,12.5500507354736,11.3290500640869,11.6689500808716,15.3780002593994,21.3870010375977,19.1029510498047,19.1920509338379,5.8840503692627,11.6520004272461,9.30300045013428,5.77905035018921,SWING_RIGHT
0.0,0.0,0.0,0.00013749999925,0.28256249427795,0.53858751058578,0.49211248755455,0.0,-0.6679750084877,-1.67928743362427,-3.02706241607666,-4.42145013809204,-5.6553750038147,-6.43692493438721,-6.5740122795105,-0.15743750333786,-0.00013749999925,0.0,0.0,-0.24433749914169,-1.0645250082016,-2.73267507553101,-4.12857484817505,-4.80782508850098,-4.75172519683838,-4.00537490844727,-2.00887489318848,0.29425001144409,1.96597504615784,2.87361240386963,0.4822124838829,0.44151249527931,0.40741249918938,0.35612499713898,0.22563749551773,-0.00013749999925,-0.58286249637604,-0.51741248369217,0.0,0.64611250162125,1.17246246337891,1.5193749666214,0.89333748817444,-0.44673749804497,-1.59046244621277,-0.37305000424385,-0.53595000505447,-0.60300004482269,0.55995005369186,8.14995002746582,23.3940010070801,42.6199531555176,45.2850036621094,33.6870002746582,22.1179504394531,11.1690006256104,-16.2569999694824,-11.6310005187988,-8.20695018768311,-1.1869500875473,3.81795024871826,4.01595020294189,3.20205020904541,5.11500024795532,8.76900005340576,12.5880002975464,9.44700050354004,-7.34805011749268,-27.7879505157471,-35.7370529174805,-40.381950378418,-31.4830513000488,-22.7599506378174,-9.83100032806396,-2.06400012969971,8.92995071411133,9.22200012207031,8.33400058746338,9.21495056152344,6.93795013427734,9.50895023345947,8.57805061340332,12.5599508285522,21.961950302124,23.9110507965088,8.22105026245117,6.96705055236816,8.90805053710938,5.39100027084351,6.59805011749268,SWING_RIGHT
-0.24255000054836,-0.26331248879433,-0.25231251120567,-0.19566249847412,0.0,0.00013749999925,0.38334998488426,0.43642500042915,0.0,-0.71170002222061,-1.72920000553131,-3.12317490577698,-4.4580249786377,-5.2791748046875,-5.61522483825684,0.00013749999925,0.0,0.0,-0.16747500002384,-0.28049999475479,-0.5292375087738,-1.37733745574951,-2.77571249008179,-3.82456254959106,-4.31378746032715,-4.37071228027344,-3.65007495880127,-1.77031254768372,0.0,1.25468754768372,0.73768746852875,0.69726252555847,0.64556246995926,0.55893748998642,0.44852501153946,0.24777500331402,-0.23512500524521,-0.76367497444153,-0.75171250104904,-0.47891250252724,-0.21394999325275,0.17325000464916,0.35461249947548,-0.28682500123978,-1.21549999713898,-0.55695003271103,-0.23205001652241,0.13905000686646,-0.22005000710487,1.77600014209747,6.99300050735474,28.687952041626,37.9590034484863,37.876953125,29.9809513092041,24.1030502319336,6.76605033874512,-11.3580007553101,-4.09395027160645,-6.43305015563965,2.28795003890991,2.0789999961853,2.30205011367798,2.89605021476746,3.89895009994507,6.67200040817261,12.1429510116577,7.55505037307739,-11.0400009155273,-23.7730503082275,-33.0919532775879,-35.484001159668,-26.1529521942139,-17.9980506896973,-7.40295028686523,9.94695091247559,9.42600059509277,9.79395008087158,9.02595043182373,9.55005073547363,10.6939506530762,13.042950630188,13.5169506072998,19.2210006713867,21.3990001678467,15.6169509887695,5.37405014038086,15.8880004882813,13.2970504760742,6.90000009536743,SWING_RIGHT
0.00013749999925,0.23526249825954,0.30250000953674,0.36217498779297,0.598537504673,0.77439999580383,0.51644998788834,0.0,-0.81317502260208,-2.19367504119873,-3.80765008926392,-4.85979986190796,-5.30433750152588,-5.14978742599487,-4.3993124961853,-0.46090000867844,-0.56636250019073,-0.59042501449585,-0.69849997758865,-1.11017501354218,-2.06415009498596,-3.20003747940063,-3.96632504463196,-4.60336256027222,-4.24737501144409,-3.1556248664856,-1.60159993171692,-0.3272500038147,0.77714997529984,1.18937504291534,-0.44440001249313,-0.58698749542236,-0.6708624958992,-0.78677499294281,-1.01131248474121,-1.12942504882813,-0.84411251544952,-0.51039999723434,-0.00013749999925,0.174212500453,0.20790000259876,-0.17710000276566,-0.62521249055862,-1.06878745555878,-1.22265005111694,-1.66605007648468,-1.125,-0.29399999976158,3.51900005340576,16.1350498199463,34.1539497375488,37.4269523620605,39.4980010986328,36.6130523681641,20.8060512542725,0.02805000171065,-8.3100004196167,-2.70195007324219,-0.71505004167557,-2.21399998664856,2.54205012321472,2.35005021095276,3.44400024414063,7.10505056381226,12.5419502258301,10.6770000457764,-3.331050157547,-12.738000869751,-24.3640518188477,-31.0830020904541,-33.9820518493652,-23.5380020141602,-12.6180009841919,-3.40695023536682,1.38705003261566,8.74095058441162,8.5420503616333,9.17895030975342,11.6830501556396,14.2759504318237,18.351001739502,18.5929508209229,13.2130508422852,13.7590503692627,19.4380512237549,6.62700033187866,8.89905071258545,10.2400503158569,7.39305019378662,8.58495044708252,SWING_RIGHT
-0.00013749999925,0.0,0.0,0.0,0.00013749999925,0.45457500219345,0.98285001516342,1.02698755264282,0.48757499456406,-0.34883749485016,-1.70871245861053,-3.51133751869202,-4.8507251739502,-5.38436269760132,-5.36703729629517,0.0,0.0,-0.00013749999925,-0.1885125041008,-0.30662500858307,-0.73039996623993,-2.06634998321533,-2.97288751602173,-3.44162487983704,-4.06422519683838,-3.93992495536804,-2.62487506866455,-1.57052505016327,-0.66907501220703,0.44371250271797,0.64542502164841,0.57351249456406,0.5292375087738,0.48152500391006,0.38733750581741,0.15289999544621,0.0,0.2374625056982,0.5321249961853,0.76848751306534,0.93211251497269,0.76463747024536,0.00013749999925,-0.51672500371933,-0.97308748960495,0.42600002884865,-0.11400000751019,-0.22005000710487,-0.55995005369186,2.83200001716614,15.1390504837036,38.8900527954102,30.1249523162842,33.892951965332,31.4800510406494,18.1480503082275,3.37095022201538,-2.37000012397766,-7.35495042800903,-6.1840500831604,2.31195020675659,2.37600016593933,2.44605016708374,2.93700003623962,5.92905044555664,17.0719509124756,16.2870006561279,1.41600000858307,-15.5080509185791,-26.3610019683838,-28.7130012512207,-28.162052154541,-21.2500514984131,-15.2539510726929,-8.11005020141602,10.6660509109497,8.74305057525635,8.66400051116943,8.86305046081543,9.16005039215088,9.90900039672852,6.96900033950806,26.3460006713867,23.6119518280029,7.91700029373169,18.0520515441895,3.13305020332336,1.81200003623962,10.3230009078979,7.34505033493042,SWING_RIGHT
-0.21656249463558,-0.17737500369549,-0.15633749961853,-0.00013749999925,-0.00013749999925,0.0,0.24529999494553,0.78979998826981,0.89182502031326,0.57763749361038,-0.00013749999925,-1.09958744049072,-2.62006258964539,-3.95615005493164,-4.79050016403198,-0.00013749999925,-0.00013749999925,-0.16816249489784,-0.16802500188351,-0.14272500574589,-0.24488750100136,-0.48523750901222,-1.30088746547699,-2.40267491340637,-3.00066256523132,-3.49511241912842,-3.6955873966217,-3.20553755760193,-2.04104995727539,-0.94655001163483,1.00705003738403,0.9590625166893,0.92124998569489,0.8758749961853,0.8291249871254,0.71266251802444,0.47079998254776,0.14739999175072,0.2389750033617,0.37729999423027,0.44591251015663,0.39875000715256,0.29507499933243,-0.31913748383522,-0.98683750629425,-1.23495006561279,-0.33000001311302,-0.82500004768372,-1.04295003414154,-0.54495000839233,0.05205000191927,7.4650502204895,26.9590511322021,29.8369522094727,26.7319507598877,23.5860004425049,22.4560508728027,13.8460502624512,-4.921950340271,-9.39705085754395,1.80600011348724,1.75605010986328,2.30400013923645,2.37600016593933,2.88195013999939,5.01705026626587,12.1759510040283,17.3449516296387,3.43500018119812,-9.88905048370361,-16.0950012207031,-20.1150016784668,-24.8149509429932,-27.4960517883301,-21.2299518585205,8.86305046081543,9.37800025939941,8.79104995727539,8.68095016479492,9.54000091552734,10.3740005493164,12.4380006790161,14.1490507125854,21.0400505065918,22.2469501495361,17.9850006103516,11.4079504013062,8.20200061798096,8.43405055999756,8.82194995880127,SWING_RIGHT
-0.00013749999925,0.0,0.00013749999925,0.00013749999925,0.15633749961853,0.29589998722076,0.46502500772476,0.22824999690056,-0.42391249537468,-1.33375000953674,-2.52972507476807,-4.07550001144409,-5.43977499008179,-6.2627124786377,-6.39429998397827,0.0,0.0,0.0,0.0,-0.24433749914169,-0.65216249227524,-1.74666249752045,-3.09127497673035,-3.99327492713928,-4.56335020065308,-4.47314977645874,-3.37493753433228,-1.4580500125885,0.27843749523163,1.68423748016357,1.3996125459671,1.25111246109009,1.06411254405975,0.85978752374649,0.62988752126694,0.28668749332428,-0.38005000352859,-0.95974999666214,-0.99398750066757,-0.79474997520447,-0.59317499399185,-0.28517499566078,-0.31363749504089,-0.97762501239777,-1.7467999458313,-1.43805003166199,-1.51200008392334,-0.01605000160635,0.96900004148483,4.65705013275146,11.5980005264282,32.5549507141113,37.1179504394531,42.7570533752441,35.0980529785156,25.3429508209229,4.3289999961853,-3.6870002746582,-4.79505014419556,-4.28295040130615,2.52195000648499,2.64900016784668,2.37195014953613,2.33595013618469,3.8490002155304,7.86405038833618,9.01995086669922,1.40400004386902,-16.1830501556396,-30.9319515228271,-32.4000015258789,-35.8189506530762,-25.8300018310547,-16.605001449585,-8.09805011749268,8.31494998931885,8.29995059967041,9.01800060272217,10.7020502090454,12.6390008926392,10.0219507217407,11.6590509414673,17.8870506286621,22.7400016784668,14.6209506988525,13.1800508499146,9.83295059204102,6.11400032043457,11.9130001068115,9.83505058288574,SWING_RIGHT
-0.00013749999925,0.0,0.0,0.0,0.0,0.2428250014782,0.22783750295639,-0.00013749999925,-0.74992501735687,-1.73621249198914,-3.1217999458313,-4.45266246795654,-5.34049987792969,-5.69373750686646,-5.4733247756958,-0.00013749999925,-0.1515250056982,-0.00013749999925,-0.00013749999925,-0.42583748698235,-1.04334998130798,-2.31976246833801,-3.38992500305176,-4.13118743896484,-4.21794986724854,-3.69613742828369,-2.23231244087219,-0.68612498044968,0.62741249799728,1.39479994773865,0.4145624935627,0.3980624973774,0.37496250867844,0.31762498617172,0.00013749999925,-0.33921250700951,-0.8955374956131,-1.07263743877411,-0.94916248321533,-0.6601374745369,-0.40163749456406,-0.29218751192093,-0.71637499332428,-1.42876243591309,-2.08216238021851,-0.24795001745224,-0.07800000160933,-0.09000000357628,0.51195001602173,8.00100040435791,19.4410514831543,38.1450004577637,37.4100036621094,36.631950378418,23.6070003509521,8.4660005569458,-3.33495020866394,-5.91600036621094,-2.39400005340576,-2.42204999923706,2.98395013809204,2.99595022201538,2.78295016288757,3.59505009651184,6.41295051574707,12.693000793457,8.85000038146973,-2.59800004959106,-19.8030014038086,-29.9790019989014,-34.7130012512207,-24.2760009765625,-15.4390506744385,-7.86105060577393,-2.5530002117157,9.32505035400391,8.27595043182373,7.94100046157837,8.98995018005371,12.9070510864258,19.2280502319336,19.8330001831055,16.4500503540039,18.4570503234863,20.3460006713867,8.24505043029785,5.26695013046265,12.4350004196167,9.1360502243042,6.76800012588501,SWING_RIGHT
0.00013749999925,0.20033749938011,0.35956248641014,0.62273746728897,0.74071252346039,0.49843749403954,0.0,-0.99646252393723,-2.39910006523132,-4.20818758010864,-5.87895011901855,-6.85148763656616,-7.00314998626709,-6.46717500686646,-5.19048738479614,-0.29851248860359,-0.36698749661446,-0.66962498426437,-1.44663751125336,-2.8003249168396,-3.88148736953735,-4.54368734359741,-4.84426259994507,-4.26923751831055,-2.82383751869202,-1.00828754901886,0.60967499017715,1.92211246490479,2.6140124797821,2.82947492599487,0.97088748216629,0.87697499990463,0.65202498435974,0.1913999915123,-0.46653750538826,-0.82431250810623,-0.85772502422333,-0.58011251688004,-0.16128750145435,0.15496249496937,-0.17943750321865,-0.94022500514984,-1.7879124879837,-2.34767508506775,-2.37022495269775,-0.04005000367761,0.61305004358292,9.15795040130615,20.6530513763428,33.8290519714355,32.4540023803711,36.4620018005371,33.75,24.5170516967773,-4.64400005340576,-13.1800508499146,-5.39805030822754,-0.38205000758171,-3.47295022010803,-1.98195004463196,3.06600022315979,3.78900027275085,5.89395046234131,12.8440504074097,12.7459506988525,2.2590000629425,-12.6060009002686,-30.6540012359619,-40.6000518798828,-40.4280014038086,-24.7210502624512,-11.7130508422852,-2.65800023078918,-1.42200005054474,-0.60105001926422,8.28105068206787,9.70800018310547,11.3410501480103,12.3780002593994,12.4690504074097,18.2149505615234,17.0149517059326,16.2439498901367,16.8889503479004,1.55100011825562,4.92705011367798,10.7380504608154,8.53500080108643,10.326000213623,9.66495037078857,SWING_RIGHT
0.0,-0.00013749999925,0.0,0.0,0.32367500662804,0.43463748693466,0.16513749957085,-0.40782499313354,-1.38283753395081,-2.7531623840332,-4.48456239700317,-5.92556238174438,-6.62516260147095,-6.56094980239868,-5.89050006866455,-0.00013749999925,-0.00013749999925,-0.00013749999925,-0.51603752374649,-1.58124995231628,-2.79441237449646,-3.88052487373352,-4.70854997634888,-4.90380001068115,-4.17147493362427,-2.84322500228882,-1.08597505092621,0.345124989748,1.31284999847412,1.88979995250702,0.27678748965263,0.26001250743866,0.27073749899864,0.00013749999925,-0.34540000557899,-0.84837502241135,-1.08487498760223,-1.05957496166229,-0.7207750082016,-0.31707498431206,-0.00013749999925,-0.47025001049042,-1.16269993782043,-1.94754993915558,-2.29776239395142,-0.61905002593994,-0.27495002746582,2.39205002784729,13.6759510040283,25.8960018157959,31.9609508514404,35.2720527648926,40.4749526977539,34.3270530700684,24.5790004730225,-10.900050163269,-10.3309507369995,-3.88500022888184,-0.01095000095665,-1.3660501241684,2.44305014610291,2.9389500617981,4.7039999961853,9.21705055236816,12.6000003814697,12.1380004882813,0.90405005216599,-14.5570507049561,-28.6530017852783,-38.0170516967773,-36.8890533447266,-22.9399509429932,-6.30900049209595,2.28299999237061,2.82195019721985,9.80595016479492,9.07800006866455,10.0150508880615,12.3820505142212,11.1109504699707,15.3030004501343,16.2540016174316,16.8139514923096,19.0120506286621,8.80305004119873,9.40605068206787,9.66300010681152,6.39000034332275,5.25000047683716,7.77795028686523,SWING_RIGHT
0.17957499623299,0.17132499814034,0.23416249454021,0.28159999847412,0.34430000185966,0.43848749995232,0.42143750190735,0.0,-0.82059997320175,-1.78158748149872,-3.13706254959106,-4.66413736343384,-5.72357511520386,-6.13910007476807,-6.03047513961792,-0.00013749999925,0.00013749999925,0.33989998698235,0.54023748636246,0.0,-0.82156246900558,-2.44749999046326,-3.97361254692078,-5.03263759613037,-5.00678730010986,-4.44097518920898,-2.39071249961853,-0.25506249070168,1.40139997005463,2.35716247558594,0.46309998631477,0.51177501678467,0.58079999685287,0.65670001506805,0.41236248612404,0.0,-0.58134996891022,-0.81262499094009,-0.68571251630783,-0.3755125105381,-0.00013749999925,0.14148749411106,-0.35488748550415,-1.32962501049042,-2.06676244735718,-2.49195003509521,-3.95205020904541,-5.72895050048828,0.32505002617836,12.4260005950928,21.4980010986328,40.1350517272949,41.6770515441895,34.7290534973145,28.8940505981445,8.19105052947998,-13.9750509262085,-6.17700052261353,-1.91505014896393,-0.5500500202179,2.49405002593994,4.09095001220703,5.11305046081543,2.53200006484985,5.28795003890991,7.17900037765503,3.65700006484985,-8.56905078887939,-24.2710514068604,-32.625,-42.4249534606934,-31.6000518798828,-18.5370006561279,-6.51300048828125,-0.07695000618696,8.75804996490479,10.326000213623,9.59805011749268,8.11605072021484,16.0650005340576,15.5910005569458,10.9990501403809,14.7550506591797,20.6710510253906,14.7769508361816,6.10005044937134,10.0480508804321,6.36300039291382,7.89105033874512,8.77200031280518,SWING_RIGHT
1.28425002098084,1.07428753376007,0.89773750305176,0.94036251306534,0.96896249055862,0.93774998188019,0.66261249780655,0.36877501010895,0.0,-0.47134998440742,-1.02712500095367,-1.40635001659393,-1.85033750534058,-2.38081240653992,-2.69114995002747,0.18548749387264,0.45553749799728,0.57681250572205,0.53322499990463,-0.18864999711514,-1.76522493362427,-3.29381251335144,-4.18536233901978,-4.06752490997314,-2.91348743438721,-1.05847501754761,0.76986247301102,1.9013500213623,2.02069997787476,1.4860999584198,0.56760001182556,0.73108750581741,0.84672498703003,0.84631252288818,0.92248749732971,1.18937504291534,1.7294750213623,2.43924999237061,3.08178758621216,3.40669989585876,3.25902509689331,2.63779997825623,1.71338748931885,0.72971248626709,-0.00013749999925,2.50905013084412,3.34200024604797,3.88305020332336,5.35305023193359,14.3869504928589,24.2320518493652,30.553050994873,41.0670013427734,40.558952331543,22.0030517578125,2.14695000648499,-0.60000002384186,-1.77105009555817,-6.26505041122437,-2.35005021095276,9.13304996490479,8.94405078887939,8.94600009918213,9.16695022583008,9.50400066375732,10.371000289917,9.26205062866211,6.28605031967163,3.67905020713806,-2.58795022964478,-3.63495016098022,-0.8770500421524,1.80405008792877,3.13995003700256,5.95605039596558,3.10500025749207,2.0029501914978,1.26105010509491,-0.58395004272461,-3.53895020484924,-8.83695030212402,-10.8870000839233,-3.91200017929077,16.6230010986328,37.8120002746582,30.3319511413574,24.0160503387451,19.7449512481689,16.0339508056641,5.71200037002563,SWING_RIGHT
0.73149996995926,0.65092498064041,0.50311249494553,0.46708750724792,0.32656249403954,0.34319999814034,0.21656249463558,0.0,-0.5157625079155,-0.97322499752045,-1.47028744220734,-1.81885004043579,-1.90657496452332,-1.72204995155334,-1.35148751735687,0.86460000276566,0.84631252288818,0.83462500572205,0.70358747243881,0.39077499508858,-0.40287500619888,-1.283562541008,-1.7960250377655,-1.52982497215271,-0.92826247215271,-0.00013749999925,0.86844998598099,1.34007501602173,1.1004124879837,0.68227499723434,0.28613749146461,0.15991249680519,0.00013749999925,0.0,0.22742499411106,0.70235002040863,1.4745500087738,2.17153739929199,2.53948760032654,2.43471240997314,1.95373749732971,1.03056252002716,0.0,-0.63373750448227,-0.95411247014999,0.87405002117157,1.20195007324219,2.40105009078979,5.48505020141602,11.6479501724243,22.5229511260986,29.1619510650635,26.1330013275146,16.6690502166748,10.1179504394531,4.04100036621094,-6.16500043869019,-8.50605010986328,-9.07800006866455,-6.01605033874512,9.69600009918213,9.55695056915283,9.3390007019043,8.79104995727539,9.03705024719238,8.65395069122314,8.47005081176758,8.85494995117188,12.5569505691528,14.331000328064,12.8179502487183,11.9299507141113,11.3050508499146,9.7630500793457,9.15000057220459,1.3330500125885,2.04900002479553,1.55100011825562,-0.25095000863075,-1.14705002307892,-6.65100049972534,-2.63100004196167,9.2359504699707,23.9659519195557,22.0600509643555,17.3290500640869,23.7240009307861,7.55295038223267,5.44905042648315,-2.51100015640259,SWING_RIGHT
0.62163752317429,0.60073751211166,0.49169999361038,0.39077499508858,0.30263748764992,0.26482498645782,0.20226250588894,0.0,-0.37262499332428,-0.76931250095367,-1.27586245536804,-1.73758745193481,-2.02166247367859,-2.25046253204346,-2.36816239356995,0.95260000228882,0.87917500734329,0.80148750543594,0.61778748035431,0.22261250019073,-0.56155002117157,-1.64326250553131,-2.65925002098084,-3.00795006752014,-2.74188756942749,-1.93929994106293,-0.82431250810623,0.26152500510216,0.89113748073578,1.06466245651245,0.4159374833107,0.35997501015663,0.28476250171661,0.23622499406338,0.33316248655319,0.65834999084473,1.21398746967316,1.95208752155304,2.60837507247925,2.90193748474121,2.8078875541687,2.41216254234314,1.7910749912262,1.08308744430542,0.48317500948906,1.39605009555817,1.31400001049042,1.39305007457733,3.81600022315979,8.86605072021484,16.8959999084473,21.8860511779785,28.2019519805908,29.7919521331787,23.2960510253906,21.025951385498,14.5860004425049,7.00995016098022,-1.03395009040833,-5.86995029449463,10.2510004043579,9.39405059814453,9.02295017242432,9.00104999542236,9.43200016021729,8.37405014038086,8.58000087738037,7.31595039367676,9.22395038604736,10.5049505233765,11.7709503173828,7.78005027770996,4.98795032501221,5.61105012893677,4.98105001449585,0.72000002861023,2.83200001716614,2.27895021438599,2.06295013427734,-1.25700008869171,-6.07395029067993,-9.37604999542236,-2.5860002040863,7.33800029754639,12.2269506454468,21.0690002441406,18.0670509338379,23.4180011749268,25.3909511566162,16.1269512176514,SWING_RIGHT
0.14959999918938,0.22343750298023,0.29809999465942,0.4629625082016,0.58300000429153,0.56374996900558,0.41951251029968,0.15565000474453,-0.27486249804497,-0.84961247444153,-1.35478746891022,-1.84965002536774,-2.13578748703003,-2.06401252746582,-1.82214999198914,0.24983750283718,0.0,-0.28709998726845,-0.85030001401901,-1.65687501430511,-2.39126253128052,-2.71686244010925,-2.55695009231567,-1.89406251907349,-0.66398751735687,0.50104999542236,1.33319997787476,1.56846249103546,1.35891246795654,0.83572500944138,0.0,0.14327499270439,0.31171250343323,0.6738874912262,1.29676246643066,2.07033753395081,2.7748875617981,3.18092489242554,3.29738759994507,3.1322500705719,2.51239991188049,1.76412498950958,1.15637505054474,0.58850002288818,0.0,1.82205009460449,2.94000005722046,6.75405025482178,13.5490503311157,18.28005027771,23.5759506225586,25.8889503479004,22.1640014648438,28.0030517578125,19.94700050354,-1.17705011367798,-5.09895038604736,-0.98295003175735,2.0590500831604,0.74205005168915,9.19005012512207,9.30795001983643,9.27195072174072,9.24105072021484,9.92295074462891,10.3590002059937,11.896050453186,10.0360507965088,9.45105075836182,8.15595054626465,1.50195002555847,3.40605020523071,7.08300018310547,10.3969507217407,9.86805057525635,-0.72000002861023,-0.55800002813339,-4.17495012283325,-7.77195024490356,-10.1830501556396,-8.41305065155029,-3.33000016212463,0.90900003910065,14.8170003890991,24.9330005645752,27.8040008544922,21.5209503173828,8.23995018005371,-3.17895007133484,1.23705005645752,SWING_RIGHT
-0.00013749999925,-0.00013749999925,0.0,0.00013749999925,0.65518748760223,1.18167495727539,1.15816247463226,0.99013751745224,0.68722498416901,-0.00013749999925,-0.94173747301102,-1.31216251850128,-1.62607502937317,-1.74666249752045,-1.66553747653961,0.71101248264313,0.41923749446869,0.0,-0.42501249909401,-1.44003748893738,-2.42164993286133,-2.55268740653992,-2.36912488937378,-1.91111254692078,-0.62493747472763,0.63937497138977,1.14950001239777,1.4276624917984,1.39094996452332,1.05902504920959,-0.16706250607967,-0.00013749999925,0.0,0.22783750295639,0.81674998998642,1.68121254444122,2.4429624080658,3.04686260223389,3.62120008468628,3.63660001754761,3.1605749130249,2.58788752555847,2.00667500495911,1.34351253509521,0.70468747615814,0.78000003099442,1.14195001125336,2.34600019454956,8.23095035552979,16.9030513763428,23.7270011901855,24.4000511169434,29.3700008392334,33.2800521850586,21.820951461792,12.5820007324219,3.77295017242432,-0.94005006551743,-0.81300002336502,-0.88305002450943,11.1709508895874,10.1700000762939,9.4680004119873,10.3230009078979,11.7810001373291,15.5160007476807,17.1079502105713,14.8860006332397,6.71205043792725,2.80695009231567,1.74405002593994,2.80200004577637,4.95705032348633,6.63600015640259,7.98900032043457,1.8550500869751,-0.29205000400543,-3.16305017471313,-6.54795026779175,-20.3250007629395,-11.2429504394531,-1.66605007648468,-2.43705010414124,12.1429510116577,20.824951171875,21.3870010375977,22.2210006713867,17.8200016021729,7.59600019454956,3.63600015640259,SWING_RIGHT
0.00013749999925,0.15895000100136,0.37207499146461,0.81867498159409,1.27489995956421,1.59334993362427,1.61988747119904,1.38434994220734,0.7068874835968,0.00013749999925,-0.38087499141693,-0.76725000143051,-1.05104994773865,-0.99027496576309,-1.13602495193481,0.92991250753403,0.70454996824265,0.20281249284744,-0.65683752298355,-1.50617504119873,-1.94768750667572,-1.77705001831055,-1.10220003128052,0.22797499597073,1.3336124420166,1.89131247997284,2.10980010032654,2.11681246757507,1.61644995212555,1.28397500514984,-0.21615000069141,-0.00013749999925,0.15729999542236,0.71362501382828,1.56791245937347,2.45685005187988,3.10461258888245,3.44671249389648,3.42471241950989,2.92421245574951,2.308762550354,1.86257493495941,1.44581246376038,1.0456874370575,0.69519996643066,1.18500006198883,4.93200016021729,10.2949504852295,14.5189504623413,23.6940002441406,24.9720020294189,31.4940013885498,27.8479518890381,27.9409503936768,18.7950000762939,8.36100006103516,-2.31000018119812,-1.67100012302399,0.00900000054389,0.23400001227856,10.1629505157471,9.56205081939697,9.94200038909912,9.21900081634521,7.3759503364563,8.36205005645752,7.55805015563965,4.25804996490479,5.25705003738403,6.67200040817261,0.99705004692078,-0.55305004119873,2.06700015068054,5.94105005264282,8.86005020141602,-0.86895006895065,-4.84605026245117,-10.4749507904053,-19.5799503326416,-19.3579502105713,-15.0100507736206,-4.03695011138916,13.3900508880615,20.8489513397217,10.8480005264282,14.1660003662109,23.5810508728027,14.2240505218506,3.48495006561279,1.71600008010864,SWING_RIGHT
0.63318747282028,0.68681252002716,0.70454996824265,0.62136250734329,0.57021248340607,0.55907499790192,0.68832498788834,0.87972497940063,1.27888751029968,1.42779994010925,1.29414999485016,0.89113748073578,0.42899999022484,-0.2895750105381,-0.91960000991821,0.89457499980927,0.91643750667572,0.98229998350143,1.12172496318817,1.21247494220734,1.128737449646,0.62837499380112,-0.17861250042915,-1.51112496852875,-2.17167496681213,-1.94562494754791,-1.19693744182587,-0.28049999475479,1.12158751487732,1.92568743228912,0.41511249542236,0.31858751177788,0.21367499232292,0.15056249499321,0.00013749999925,0.0,0.25519999861717,0.68585002422333,1.43770003318787,2.36582493782043,2.97618746757507,3.10584998130798,2.97577500343323,2.47472500801086,1.77058744430542,1.41495001316071,1.182000041008,0.70095002651215,1.32105004787445,1.69695007801056,4.54200029373169,8.67705059051514,15.3420009613037,23.3149509429932,32.8920021057129,31.6810512542725,26.1000003814697,20.3700008392334,16.7430000305176,3.66105008125305,9.58995056152344,9.79605007171631,10.4640007019043,9.56895065307617,8.41200065612793,8.87400054931641,10.2730503082275,10.3969507217407,9.35100078582764,10.81605052948,13.6390504837036,14.7360010147095,9.6739501953125,5.50995016098022,3.16395020484924,-0.25605002045631,0.10200000554323,0.40905001759529,0.49005001783371,-0.25800001621246,-0.95295006036758,-11.0449504852295,-10.6710004806519,-28.0939521789551,-8.3100004196167,4.71795034408569,12.5959501266479,14.5230007171631,19.3620014190674,25.9410018920898,SWING_RIGHT
0.47808748483658,0.49169999361038,0.5460125207901,0.52593749761581,0.65587496757507,0.9813374876976,1.472212433815,1.44883751869202,1.12351250648499,0.66522496938705,0.0,-0.97157502174377,-1.58331251144409,-1.82847499847412,-1.81087493896484,0.79186248779297,0.71417498588562,0.68914997577667,0.60623747110367,0.30277499556541,-0.59991252422333,-2.18212509155273,-2.60548758506775,-2.22158741950989,-1.58028745651245,-0.42267498373985,1.41886246204376,2.17923760414124,1.97395002841949,1.57877504825592,0.44123750925064,0.3634124994278,0.20899999141693,0.172562494874,0.2050125002861,0.58753746747971,1.55704998970032,2.62996244430542,3.31815004348755,3.62271237373352,3.62450003623962,2.95514988899231,2.08065009117126,1.42917501926422,0.95424997806549,1.06005001068115,1.24995005130768,0.72795003652573,4.37205028533936,6.72300052642822,22.0969505310059,29.7250518798828,37.1950531005859,36.4000511169434,26.461051940918,21.5790004730225,9.79500007629395,-2.82900023460388,-1.2679500579834,-1.02195000648499,9.925950050354,9.81495094299316,8.9970006942749,9.37995052337646,11.3760004043579,11.4940509796143,7.72800016403198,9.56595039367676,12.913950920105,8.4190502166748,4.07400035858154,-1.21695005893707,0.14699999988079,4.07400035858154,8.39100074768066,0.42495003342628,1.02600002288818,-0.05205000191927,0.32700002193451,-7.93695020675659,-19.7929515838623,-24.2539520263672,3.29595017433167,13.7740507125854,20.4990005493164,17.9040012359619,30.340051651001,26.9710521697998,14.6280002593994,1.77795004844666,SWING_RIGHT
0.0,0.0,0.00013749999925,0.26001250743866,0.53198748826981,1.16050004959106,1.57354998588562,1.64023745059967,1.33443748950958,0.78361248970032,-0.00013749999925,-0.95933747291565,-1.59321248531342,-1.80949997901917,-1.73868751525879,1.13849997520447,0.97184997797012,0.73191249370575,0.42652499675751,-0.17544999718666,-1.31862497329712,-2.24235010147095,-2.43196249008179,-2.08752489089966,-1.25097501277924,0.00013749999925,1.33443748950958,1.91345000267029,1.83369994163513,1.35932505130768,0.00013749999925,0.16871249675751,0.20776249468327,0.23416249454021,0.49169999361038,1.01887500286102,1.84648752212524,2.50469994544983,3.04562497138977,3.26149988174438,3.23331236839294,2.77887487411499,2.2508749961853,1.76219999790192,1.22141253948212,-0.36600002646446,1.66605007648468,1.08195006847382,3.83100008964539,8.35095024108887,17.7870006561279,23.6170501708984,28.336051940918,30.0619506835938,22.7599506378174,21.984001159668,2.2260000705719,-2.26200008392334,-2.11094999313354,-0.17205001413822,10.3519506454468,10.1389503479004,10.3039503097534,10.6410007476807,12.4660501480103,13.1599502563477,15.3010511398315,16.6969509124756,12.2100009918213,5.65200042724609,0.85605001449585,-4.76505041122437,-1.91100013256073,4.6560001373291,9.44400024414063,0.80400002002716,0.94500005245209,-0.06405000388622,-4.87200021743774,-10.4010000228882,-24.9769515991211,-13.1710510253906,-5.87805032730103,11.0700006484985,15.69105052948,19.1340007781982,29.9400005340576,22.1100006103516,5.64705038070679,-0.15105000138283,SWING_RIGHT
0.31597501039505,0.30524998903275,0.32642498612404,0.31308749318123,0.39833748340607,0.80795001983643,1.44966244697571,1.92665004730225,2.00433754920959,1.6105375289917,0.92991250753403,-0.00013749999925,-1.08570003509521,-1.47317504882813,-1.45997500419617,1.10687494277954,1.17933750152588,1.2196249961853,1.23475003242493,1.00416254997253,0.27073749899864,-0.72737497091293,-1.34282493591309,-1.24932503700256,-0.63249999284744,0.22659999132156,1.37252497673035,2.0905499458313,1.84800004959106,1.21165001392365,0.29493749141693,0.34608748555183,0.254787504673,0.21821250021458,0.31693750619888,0.62809997797012,1.22801244258881,1.89378750324249,2.53261256217957,2.76539993286133,2.84638738632202,2.46468758583069,1.96817493438721,1.33264994621277,0.83476251363754,0.36405003070831,1.68495011329651,2.35800004005432,1.732950091362,6.96000051498413,13.3690509796143,21.6559505462646,29.3250007629395,33.5440521240234,16.7089500427246,18.9220504760742,5.52600049972534,3.09795022010803,2.26005005836487,0.16005000472069,10.3090505599976,10.5120000839233,10.3639507293701,10.5030002593994,11.1390008926392,13.4329509735107,14.086950302124,13.981050491333,10.2510004043579,5.98695039749146,4.2940502166748,1.77300012111664,5.95605039596558,9.42705059051514,9.94905090332031,1.33500003814697,1.61100006103516,2.13300013542175,0.99300003051758,-4.58505010604858,-17.5240516662598,-25.4269504547119,-13.396050453186,10.2109508514404,20.3700008392334,12.8179502487183,24.6679515838623,19.5370502471924,7.6230001449585,5.18805027008057,SWING_RIGHT
0.21779999136925,0.2056999951601,0.2095499932766,0.16266250610352,0.0,0.0,0.29631251096725,0.8094624876976,1.80592501163483,2.34987497329712,2.43952488899231,2.12368750572205,1.40909993648529,0.14038750529289,-0.73933750391006,1.36317503452301,1.41212499141693,1.39603745937347,1.39191246032715,1.38393747806549,1.31560003757477,0.81028747558594,-0.15070000290871,-1.72809994220734,-2.39236259460449,-2.31082487106323,-1.79684996604919,-0.62328749895096,1.18497502803802,2.04668760299683,0.00013749999925,0.0,0.0,0.0,0.0,0.0,0.15125000476837,0.53748750686646,1.19941246509552,2.07198739051819,2.77543759346008,3.22066259384155,3.41563749313354,3.17762494087219,2.62748742103577,0.55800002813339,-2.08200001716614,-0.81300002336502,1.30695009231567,0.05205000191927,1.67295002937317,4.75005006790161,12.1320009231567,21.996000289917,30.5080509185791,32.5260009765625,31.1040019989014,28.9630508422852,9.10800075531006,2.95695018768311,8.85300064086914,9.26505088806152,10.0840501785278,10.300950050354,9.41595077514648,10.570050239563,12.9060001373291,15.4420509338379,16.0639514923096,14.1559505462646,15.9040508270264,13.2199506759644,2.67105007171631,-5.58405017852783,-3.37905025482178,1.91505014896393,1.12200009822845,1.72305011749268,3.01800012588501,2.02005004882813,-0.63705003261566,-8.92800045013428,-21.8520011901855,-29.026050567627,-11.1790504455566,0.93105006217957,6.31500053405762,20.5350017547607,28.8960018157959,26.0419521331787,SWING_RIGHT
0.00013749999925,0.00013749999925,0.1900250017643,0.26014998555183,0.38307499885559,0.37578749656677,0.49238750338554,0.76381248235703,1.45172500610352,1.81211245059967,1.79753744602203,1.44966244697571,0.8817874789238,-0.25822499394417,-1.28521251678467,1.17754995822906,1.16902494430542,1.07497501373291,0.92152500152588,0.84081250429153,0.81180000305176,0.56870001554489,0.0,-1.46739995479584,-2.29185009002686,-2.12533760070801,-1.57162499427795,-0.70826250314713,1.03056252002716,2.05713748931885,0.57612502574921,0.57557499408722,0.56058752536774,0.58630001544952,0.43986248970032,0.36794999241829,0.38348749279976,0.57406252622604,1.25248754024506,2.11846256256104,2.74793744087219,3.22602486610413,3.39212489128113,2.98099994659424,2.37269997596741,1.70205008983612,1.5130500793457,1.47000002861023,0.45900002121925,-0.19605000317097,1.51005005836487,4.41000032424927,15.7570505142212,23.3029518127441,30.5340023040771,34.9440002441406,25.9540519714355,25.9990520477295,8.43195056915283,-0.37995001673698,9.41805076599121,9.70500087738037,9.43695068359375,9.25005054473877,9.46305084228516,9.98295021057129,11.203950881958,15.6979503631592,16.5700511932373,16.8949508666992,12.1830005645752,6.00795030593872,3.39900016784668,-1.93995010852814,-2.32995009422302,2.0179500579834,1.41705012321472,1.22700011730194,0.99795007705688,0.28695002198219,1.45305001735687,-2.98800015449524,-9.92700004577637,-36.1030502319336,-10.19700050354,11.7840003967285,21.8830509185791,19.0650005340576,25.4290504455566,24.2650508880615,SWING_RIGHT
0.48344999551773,0.38706248998642,0.40328750014305,0.57351249456406,0.97693747282028,1.45241248607636,1.86339998245239,2.08202505111694,1.94809997081757,1.4774374961853,0.82307499647141,0.17627499997616,-0.37812501192093,-0.71568751335144,-0.94091248512268,0.65119999647141,0.75583750009537,0.69231247901917,0.30552500486374,-0.58396250009537,-1.67639994621277,-2.51226258277893,-2.60521245002747,-1.94686245918274,-0.67952501773834,0.86336249113083,1.99911248683929,2.45616245269775,2.22186255455017,1.62057495117188,0.19951249659061,0.00013749999925,0.00013749999925,0.24337500333786,0.60664999485016,1.20009994506836,2.12258744239807,2.79441237449646,3.21749997138977,3.30605006217957,3.08990001678467,2.46578741073608,1.87577497959137,1.39425003528595,0.942562520504,1.42905008792877,2.66895008087158,4.30695009231567,9.07395076751709,13.2229509353638,16.9249515533447,24.9000015258789,34.6639518737793,41.9140510559082,35.4930000305176,20.7490501403809,4.70700025558472,-1.69905006885529,-0.31095001101494,-0.15495000779629,9.75600051879883,9.38205051422119,10.2250509262085,9.56400012969971,8.50095081329346,4.76295042037964,4.59794998168945,8.99400043487549,8.29995059967041,5.27595043182373,0.08505000174046,0.07800000160933,1.27005004882813,6.00795030593872,9.78900051116943,0.7219500541687,2.14005017280579,-3.08400011062622,-8.54699993133545,-18.867000579834,-21.6150016784668,-19.8600006103516,-11.1720008850098,0.66705000400543,18.9040508270264,25.5460510253906,25.2450008392334,16.3999500274658,5.62095022201538,1.66095006465912,SWING_RIGHT
0.56443750858307,0.65504997968674,0.7375500202179,0.95631247758865,1.25207495689392,1.50796246528625,1.47922503948212,1.37252497673035,1.18071246147156,0.84507501125336,0.31116250157356,-0.00013749999925,-0.6239749789238,-1.13753747940063,-1.48115003108978,0.96098750829697,0.73369997739792,0.39971250295639,-0.16912500560284,-0.89512497186661,-1.58743751049042,-1.6828625202179,-1.45117497444153,-1.03647494316101,-0.27939999103546,0.68323749303818,1.21907496452332,1.62002503871918,1.85006248950958,1.62263751029968,0.21779999136925,0.19057500362396,0.32463750243187,0.52208751440048,0.87683749198914,1.20491254329681,1.5303750038147,1.75532495975494,1.94507503509521,1.97848749160767,2.06057500839233,2.04270005226135,1.79327499866486,1.48513746261597,1.01626253128052,0.24195000529289,3.01395010948181,6.21495008468628,7.49595022201538,11.4250507354736,10.113000869751,18.9940509796143,20.5740013122559,27.4360504150391,24.5290508270264,21.0840015411377,7.19205045700073,3.00705003738403,1.63005006313324,-1.41705012321472,8.98695087432861,9.66000080108643,10.4980506896973,11.331000328064,11.9890508651733,12.1620006561279,12.7360506057739,13.4860506057739,14.1420001983643,7.43505048751831,3.21900010108948,0.31500002741814,3.04200005531311,6.47805023193359,7.37295055389404,-1.52700006961823,-1.87905013561249,-3.79695010185242,-10.8600006103516,-15.2299509048462,-13.3339509963989,-4.42005014419556,-6.75405025482178,-8.98095035552979,4.53194999694824,16.9050006866455,24.0930004119873,25.9249515533447,8.75295066833496,1.39995002746582,SWING_RIGHT
0.53253751993179,0.4976125061512,0.43862500786781,0.38225001096725,0.68543750047684,1.79987502098084,2.90551257133484,3.37892508506775,-0.18424999713898,-3.31237506866455,-5.15350008010864,-6.68566226959229,-7.61351251602173,-4.56142520904541,-2.20398759841919,1.59417498111725,1.41391253471375,1.29442501068115,1.11636245250702,1.03166246414185,1.22072494029999,1.6550874710083,1.58386254310608,-2.93507504463196,-5.24727487564087,-5.6420373916626,-6.01205015182495,-5.88403749465942,-1.41075003147125,0.73713749647141,0.27183750271797,0.24681249260902,0.23759999871254,0.33096250891685,0.55907499790192,1.06040000915527,1.44375002384186,2.04366254806519,5.07471227645874,6.714674949646,6.7890625,6.61773729324341,6.1562876701355,3.06955003738403,1.1085250377655,1.29000008106232,2.44395017623901,1.47495007514954,4.71405029296875,9.86895084381104,18.1600513458252,23.0730018615723,30.8359508514404,41.6629524230957,31.4700012207031,15.2389507293701,4.36905002593994,1.11495006084442,-1.03095006942749,1.09395003318787,9.73605060577393,8.70000076293945,8.67600059509277,9.75600051879883,12.9349508285522,15.3010511398315,13.7899503707886,12.3370504379272,8.75505065917969,3.28395009040833,1.34400010108948,2.33805012702942,3.32895016670227,5.65200042724609,8.01195049285889,1.48095011711121,1.29000008106232,1.2679500579834,-2.45205020904541,-16.3669509887695,-27.0480003356934,-21.7570514678955,-10.4940004348755,1.81605005264282,17.1280517578125,18.7849502563477,21.8449516296387,19.0530014038086,11.6760005950928,6.31800031661987,SWING_RIGHT
0.30030000209808,0.47643750905991,0.74744999408722,1.18607497215271,1.89474999904633,2.89657497406006,3.75526237487793,4.63003730773926,9.61097526550293,10.9140625,9.98937511444092,8.63403701782227,7.12249994277954,1.53931248188019,-0.6484500169754,0.8846749663353,0.99618750810623,1.17906248569489,1.46519994735718,1.98000001907349,2.70173740386963,3.62450003623962,4.97502517700195,11.6583499908447,13.7465620040894,13.6171751022339,13.0299119949341,11.4417877197266,4.3223123550415,1.54783749580383,0.23911249637604,0.25121250748634,0.23031249642372,0.26344999670982,0.22976249456406,0.43161249160767,0.56141251325607,0.43917500972748,-2.81118750572205,-3.49813747406006,-3.42567491531372,-3.38085007667542,-3.14311242103577,0.0,0.6183375120163,0.80400002002716,-0.04695000126958,2.22405004501343,3.74700021743774,9.37095069885254,15.8880004882813,29.8399505615234,40.8580513000488,44.4900016784668,29.4370517730713,9.66495037078857,7.92495059967041,0.16005000472069,-2.53200006484985,-3.33705019950867,9.73605060577393,10.85205078125,11.0149507522583,12.562050819397,12.7600507736206,12.6810007095337,14.1349506378174,13.7659502029419,7.91895055770874,0.20205001533031,-0.65400004386902,3.3120002746582,6.63105010986328,8.44305038452148,7.87095022201538,0.36105000972748,-1.56105005741119,-4.58700037002563,-8.38695049285889,-21.7810516357422,-23.2290019989014,-22.4940013885498,-12.1290006637573,15.0619506835938,18.0400505065918,35.0680503845215,26.1300010681152,7.12695026397705,-1.50105011463165,0.58799999952316,SWING_RIGHT
0.66852498054504,0.73479998111725,0.89168751239777,1.34529995918274,2.2207624912262,3.03063750267029,3.72473740577698,4.30883741378784,7.76572513580322,7.79899978637695,6.87211227416992,5.80373764038086,4.71748733520508,0.45113748311996,-0.79447501897812,0.8817874789238,1.08556246757507,1.21797502040863,1.5940375328064,2.40514993667603,3.38923740386963,4.54946231842041,6.16178750991821,12.5932121276855,13.5800495147705,13.2889623641968,12.4854125976563,11.0478496551514,4.30952501296997,2.35317492485046,0.0,-0.2938374876976,-0.37950000166893,-0.53556251525879,-0.68612498044968,-0.95617496967316,-1.35698747634888,-2.31123757362366,-8.21851253509521,-8.81429958343506,-8.20641231536865,-7.37137508392334,-6.1536750793457,0.00013749999925,0.9706124663353,-3.1600501537323,-1.98705005645752,-0.43305000662804,1.75500011444092,6.60105037689209,13.1520004272461,22.8240013122559,31.3309516906738,41.2369537353516,34.5040512084961,18.4260005950928,9.43095016479492,-1.54395008087158,-0.49695003032684,0.43995001912117,12.0850505828857,10.4190006256104,7.62000036239624,7.59795045852661,6.30105018615723,7.92405033111572,10.8070507049561,15.8509511947632,13.1050510406494,2.28795003890991,0.15195000171661,2.2110002040863,4.33004999160767,6.4150505065918,9.26205062866211,-3.132000207901,-2.80800008773804,-6.64200019836426,-18.5650501251221,-26.6869506835938,-25.0920009613037,-21.6970500946045,-12.6919507980347,-4.60200023651123,18.3559513092041,29.1040515899658,22.4290504455566,14.788950920105,6.17205047607422,0.84195005893707,SWING_RIGHT
0.97707498073578,0.96882498264313,0.87793749570847,0.73149996995926,0.54106247425079,1.00072503089905,2.05328750610352,2.97632503509521,2.40226244926453,-3.49126243591309,-4.65850019454956,-6.2137622833252,-7.64073753356934,-7.59385013580322,-2.09068751335144,0.80478751659393,0.82706248760223,0.79186248779297,0.62507498264313,0.55371248722076,0.89457499980927,1.89447498321533,3.08426237106323,2.49919986724854,-5.16917514801025,-5.47690010070801,-6.27769994735718,-7.13377475738525,-6.30987501144409,1.31216251850128,0.0,-0.00013749999925,-0.16857500374317,-0.00013749999925,-0.20762500166893,-0.00013749999925,0.0,0.19965000450611,1.72493743896484,7.39694976806641,8.04154968261719,8.39286231994629,8.55772495269775,7.23373746871948,1.67694997787476,-0.37005001306534,0.13395000994205,0.67005002498627,0.25095000863075,-0.06195000186563,6.92205047607422,18.4669513702393,30.025951385498,42.1080017089844,37.078052520752,24.6130504608154,17.7130508422852,7.83900022506714,1.31400001049042,-0.22905001044273,10.2340507507324,10.1050500869751,9.5710506439209,9.43005084991455,11.8860006332397,10.4620504379272,10.4950504302979,9.94005012512207,13.9720506668091,12.1429510116577,4.96905040740967,1.62900006771088,1.96005010604858,5.18505001068115,8.65904998779297,-1.00095009803772,-0.97395002841949,0.18105000257492,0.70095002651215,-2.32005000114441,-25.6620006561279,-32.6940002441406,-18.2179508209229,3.27900004386902,11.8630504608154,16.1149501800537,19.4550018310547,25.2660007476807,15.3900003433228,3.36600017547607,SWING_RIGHT
0.59468752145767,0.57062500715256,0.52689999341965,0.5879499912262,0.72462499141693,0.95480000972748,1.34227502346039,1.58152496814728,1.65316247940063,1.4412750005722,0.93073749542236,0.31088748574257,-0.17861250042915,-0.63043749332428,-0.92400002479553,1.25798749923706,1.15170001983643,1.128737449646,0.79392498731613,0.26661249995232,-0.63978749513626,-2.20302510261536,-3.511887550354,-3.55272507667542,-2.583899974823,-1.15541243553162,0.78044998645782,2.47059988975525,2.89052510261536,2.23079991340637,-0.51136249303818,-0.52662497758865,-0.61489999294281,-0.52263748645782,-0.33219999074936,0.00013749999925,1.08019995689392,2.52257490158081,3.77740001678467,4.59689998626709,4.68765020370483,4.13723754882813,3.09581255912781,2.0653874874115,1.3613874912262,0.58200001716614,0.49305000901222,1.48905003070831,1.732950091362,4.84800004959106,10.16100025177,16.6690502166748,29.2960510253906,58.969051361084,58.339054107666,35.7490501403809,24.9580516815186,13.5850505828857,2.72700023651123,-0.7990500330925,9.73605060577393,9.63600063323975,10.1340007781982,11.203950881958,10.4929504394531,10.1479501724243,6.80100011825562,6.46605014801025,11.2849502563477,10.4950504302979,8.05305004119873,2.14394998550415,-0.1219500079751,0.80100005865097,3.62895011901855,-1.55805003643036,-0.03795000165701,-1.61595010757446,-4.51995038986206,-8.0110502243042,-17.1910514831543,-24.9409503936768,-25.7260513305664,-22.8769512176514,14.5279502868652,21.3540000915527,23.6040019989014,24.1620006561279,15.7080011367798,6.02100038528442,SWING_RIGHT
0.32367500662804,0.37592500448227,0.47533750534058,0.56746250391006,0.85896247625351,1.55801248550415,2.45767498016357,2.98127508163452,3.08192491531372,2.6252875328064,1.45254993438721,0.0,-1.08542501926422,-1.64078748226166,-1.56956243515015,0.00013749999925,0.00013749999925,0.00013749999925,0.0,-0.21147499978542,-0.5127375125885,-0.69121247529984,-0.60334998369217,-0.32532501220703,0.17077499628067,0.73906248807907,1.15005004405975,1.5555374622345,1.87055003643036,1.76371252536774,0.0,0.00013749999925,0.00013749999925,0.00013749999925,0.00013749999925,0.00013749999925,0.37372499704361,0.87848746776581,1.73882496356964,2.77282500267029,3.45221257209778,3.69462490081787,3.54488754272461,2.91651248931885,2.03940010070801,2.02005004882813,1.71600008010864,1.97505009174347,1.40805006027222,1.4389500617981,6.639000415802,12.5100002288818,31.3720512390137,44.6560516357422,45.9150009155273,26.3130016326904,13.1520004272461,8.77200031280518,1.17105007171631,-3.28695011138916,10.3039503097534,10.6920003890991,10.6800003051758,11.0770502090454,12.2020502090454,12.72705078125,12.6619510650635,9.01800060272217,9.04395008087158,3.52095007896423,-0.49800002574921,-2.54100012779236,-1.03905010223389,1.74900007247925,5.44305038452148,-0.76800000667572,-1.19505000114441,-1.55595004558563,-4.45095014572144,-10.4220008850098,-27.1920013427734,-29.3629512786865,-25.1809520721436,-13.9510507583618,7.96695041656494,17.9590511322021,21.1000518798828,30.0520515441895,17.5039501190186,2.81205010414124,SWING_RIGHT
0.43367499113083,0.46653750538826,0.44013750553131,0.51039999723434,0.86047500371933,1.34131252765656,1.87316250801086,2.34066247940063,2.54746246337891,1.96955001354218,0.9118999838829,-0.28022500872612,-1.35946249961853,-2.13386249542236,-2.29487490653992,0.66921252012253,0.63621246814728,0.50448751449585,0.26014998555183,-0.00013749999925,-0.3783999979496,-0.50022500753403,-0.56691247224808,-0.44563749432564,0.00013749999925,0.54683750867844,0.80024999380112,1.22058749198914,1.45983743667603,1.14881253242493,0.40823748707771,0.44440001249313,0.29177498817444,0.00013749999925,0.0,0.00013749999925,0.52029997110367,1.08776247501373,1.80015003681183,2.61607503890991,3.03696250915527,3.08934998512268,2.91788744926453,2.49947500228882,1.80881249904633,2.33895015716553,2.01104998588562,1.36395001411438,-0.26700001955032,4.73805046081543,13.314001083374,21.6229515075684,25.0180511474609,39.3160514831543,40.4220008850098,23.052001953125,12.3690004348755,7.60905027389526,3.51900005340576,-1.67100012302399,9.67905044555664,9.74805068969727,10.6459503173828,12.8029508590698,13.3129510879517,12.0090007781982,11.2519502639771,11.3140506744385,12.1620006561279,7.37100028991699,-0.20100000500679,-4.39905023574829,0.05895000323653,3.88995027542114,6.2839503288269,-0.33495002985001,0.54795002937317,-1.1010000705719,-7.13205051422119,-14.7990007400513,-18.855001449585,-22.4130020141602,-24.9769515991211,-15.9550504684448,11.0269508361816,20.988000869751,24.4639511108398,26.1280517578125,12.1050004959106,2.99700021743774,SWING_RIGHT
0.48565000295639,0.65216249227524,0.78223747014999,1.13891243934631,1.63638746738434,2.17057490348816,2.68908739089966,3.10144996643066,2.71218752861023,1.60599994659424,0.33219999074936,-0.92633748054504,-2.03376245498657,-2.59325003623962,-2.63793754577637,0.65092498064041,0.4673624932766,0.3588750064373,0.00013749999925,-0.24076250195503,-0.38609999418259,-0.44068750739098,-0.46351251006126,0.0,0.70179998874664,1.04334998130798,1.4250500202179,1.66113746166229,1.26458752155304,0.72586250305176,0.14877499639988,0.0,0.00013749999925,0.23031249642372,0.28902500867844,0.62755000591278,1.12447500228882,1.64766252040863,2.3792998790741,3.00767493247986,3.19673752784729,3.15809988975525,2.74367499351501,1.92431247234344,1.24918746948242,2.28600001335144,1.932000041008,5.32005023956299,4.02405023574829,5.36295032501221,16.7170505523682,18.0529499053955,40.3410034179688,53.6080513000488,29.5620021820068,20.7199516296387,10.3480501174927,1.95105004310608,-0.59805005788803,-1.13700008392334,9.12795066833496,9.15495014190674,9.41295051574707,10.8229503631592,12.7890005111694,11.2690505981445,10.2540006637573,12.0640506744385,10.3180503845215,6.8230504989624,-1.35105001926422,1.64805006980896,5.32095003128052,8.89095020294189,9.52995014190674,-1.63005006313324,-1.82400012016296,-3.25395011901855,-14.5669507980347,-18.0289516448975,-23.1310520172119,-26.8279514312744,-28.3890018463135,2.59500002861023,19.6710014343262,22.3909511566162,28.2520503997803,16.371000289917,4.0339503288269,3.42795014381409,SWING_RIGHT
0.00013749999925,0.19538749754429,0.50599998235703,0.76312500238419,1.17136251926422,1.92610001564026,2.64137506484985,3.03957509994507,3.1081874370575,2.56561255455017,1.40126252174377,0.0,-1.4166624546051,-2.51611256599426,-3.12812495231628,0.95067501068115,0.9150624871254,0.72998750209808,0.49224999547005,0.21367499232292,-0.16183750331402,-0.29493749141693,-0.00013749999925,0.38871249556541,1.00677502155304,1.52006244659424,1.72755002975464,1.70994997024536,1.32852494716644,0.8428750038147,-0.31088748574257,-0.24502499401569,-0.14726249873638,-0.2549250125885,-0.19236250221729,0.00013749999925,0.62534999847412,1.25276243686676,2.14623737335205,2.85958743095398,3.18381237983704,3.27469992637634,3.13156247138977,2.66516256332397,2.06717491149902,1.24005007743835,0.96900004148483,-0.34905001521111,0.14805001020432,5.57595014572144,9.1200008392334,21.9340515136719,29.5930519104004,54.0220527648926,37.47705078125,29.5330505371094,23.3920516967773,13.5229501724243,5.82000017166138,-1.58700013160706,8.40495014190674,9.11595058441162,10.243950843811,10.4550008773804,11.4079504013062,12.1110010147095,10.6840505599976,11.2500009536743,7.70595026016235,5.85795021057129,4.84500026702881,2.31600022315979,4.46205043792725,4.88100004196167,6.00105047225952,-0.18705001473427,-3.27300024032593,-6.81405019760132,-6.28200006484985,-15.2850008010864,-25.3069515228271,-29.5290012359619,-26.0620517730713,-12.903000831604,11.532000541687,13.9240503311157,19.8330001831055,22.3039512634277,16.7140502929688,9.12105083465576,SWING_RIGHT
0.63263750076294,0.61943751573563,0.64157497882843,0.73149996995926,1.07937502861023,1.7598625421524,2.34918737411499,2.6449499130249,2.79509997367859,2.15091252326965,0.63841247558594,-0.90530002117157,-2.18102502822876,-3.19151258468628,-3.51326251029968,0.40479999780655,0.31845000386238,0.22110000252724,0.00013749999925,-0.14368750154972,-0.53927499055862,-0.58066248893738,-0.46062499284744,-0.32147499918938,0.25189998745918,0.94792497158051,1.07469999790192,1.13093745708466,0.97789996862411,0.48565000295639,-0.34553748369217,-0.41236248612404,-0.4808374941349,-0.49665001034737,-0.37193748354912,-0.00013749999925,0.66027498245239,1.40139997005463,2.22736239433289,3.25132489204407,3.97842502593994,4.02531242370605,3.81493759155273,3.22795009613037,2.17799997329712,1.26105010509491,1.29000008106232,1.57995009422302,3.93795013427734,4.2180004119873,12.7660503387451,26.5020008087158,28.7929515838623,57.0580520629883,57.2520027160645,18.6850509643555,15.748950958252,6.0400505065918,-0.32700002193451,-0.22395001351833,9.23100090026855,8.95095062255859,8.8840503692627,10.1149501800537,11.2999505996704,14.2810506820679,16.3729515075684,15.4129505157471,13.123950958252,-3.46005010604858,-15.4480504989624,-6.35205030441284,0.58995002508163,6.31500053405762,8.36895084381104,1.24395000934601,0.31005001068115,-0.05205000191927,-3.33000016212463,-16.9489517211914,-21.5890502929688,-24.7849502563477,-19.2829513549805,-18.8740501403809,18.7780513763428,27.8380508422852,20.1259517669678,20.2810516357422,6.68400049209595,4.45305013656616,SWING_RIGHT
0.0,0.0,0.0,0.25657498836517,0.85098749399185,1.90671253204346,2.76086258888245,3.18271255493164,3.00616240501404,2.13276243209839,0.7042750120163,-0.82101249694824,-1.94507503509521,-2.58321237564087,-2.85931253433228,0.40493750572205,0.40548750758171,0.32436248660088,0.15881249308586,-0.15661250054836,-0.55742502212524,-0.79048746824265,-0.55893748998642,0.0,0.67430001497269,1.23076248168945,1.78750002384186,1.70348751544952,1.10123753547668,0.65009999275208,0.00013749999925,0.0,0.0,0.0,0.22605000436306,0.75707501173019,1.18910002708435,1.8631249666214,2.69981241226196,3.26782488822937,3.45028758049011,3.54653739929199,3.15232491493225,2.39236259460449,1.68657493591309,2.25,-0.36300000548363,0.00705000013113,2.34600019454956,10.1730003356934,16.2160511016846,15.0550508499146,40.7650527954102,49.128002166748,40.6570510864258,25.0990505218506,9.88800048828125,2.81100010871887,-1.5700501203537,-1.52400004863739,10.3090505599976,9.8899507522583,8.85000038146973,9.34095001220703,8.33100032806396,9.21195030212402,11.860050201416,15.3679504394531,13.5310506820679,1.69905006885529,-6.8449501991272,0.16200000047684,7.18200016021729,8.65904998779297,6.78405046463013,1.58700013160706,-0.49995002150536,-2.64300012588501,-9.34200000762939,-20.3230514526367,-30.6280517578125,-24.9220504760742,-17.6909999847412,0.18600000441074,11.3190002441406,23.3170509338379,31.5180015563965,11.695050239563,7.11705017089844,8.07495021820068,SWING_RIGHT
0.00013749999925,0.0,-0.00013749999925,0.13997499644756,0.66838747262955,1.56956243515015,2.46881246566772,2.86371254920959,2.39662504196167,1.4360499382019,0.0,-1.60105001926422,-2.80445003509521,-3.2135124206543,-3.1458625793457,0.5906999707222,0.598812520504,0.54243749380112,0.35117501020432,0.0,-0.27994999289513,-0.36134999990463,-0.00013749999925,0.46406251192093,0.9118999838829,1.11485004425049,1.17865002155304,1.0228625535965,0.5263500213623,0.0,-0.00013749999925,-0.15551249682903,-0.2208250015974,-0.21271249651909,-0.19085000455379,0.00013749999925,0.61242496967316,1.34241247177124,2.16727495193481,2.85133743286133,3.28515005111694,3.43062496185303,3.14036250114441,2.42440009117126,1.7606874704361,0.03299999982119,-0.87105005979538,0.56505000591278,0.66300004720688,1.39095008373261,10.8480005264282,14.1450004577637,35.8570518493652,40.6020011901855,34.8649520874023,28.4320507049561,10.9300508499146,0.48105001449585,-2.85105013847351,-1.07895004749298,10.042950630188,9.63105010986328,9.72195053100586,9.58605003356934,9.58995056152344,8.92200088500977,12.4279508590698,18.2890510559082,20.4079513549805,14.7400503158569,4.97700023651123,0.00600000005215,1.01595008373261,5.99895048141479,9.14505004882813,0.34905001521111,0.7870500087738,-3.19095015525818,-7.01505041122437,-18.3040504455566,-28.4920520782471,-29.0329513549805,-15.1410007476807,6.74595022201538,11.121000289917,15.646050453186,27.8140506744385,23.9010009765625,9.67905044555664,1.7370001077652,SWING_RIGHT
0.58520001173019,0.57268750667572,0.48124998807907,0.55948752164841,1.02657496929169,1.58028745651245,1.96666252613068,2.22420001029968,2.0934374332428,1.29786252975464,0.0,-1.2476749420166,-2.59833741188049,-3.49401259422302,-3.7725875377655,0.30841249227524,0.25025001168251,0.23319999873638,0.00013749999925,-0.00013749999925,-0.00013749999925,0.0,0.23100000619888,0.60995000600815,1.02533745765686,1.05737495422363,0.97762501239777,0.94421249628067,0.73177498579025,0.44261249899864,-0.45086249709129,-0.47052499651909,-0.47492501139641,-0.47327500581741,-0.37647500634193,0.0,0.54037499427795,1.21866250038147,2.08340001106262,2.94112491607666,3.41316246986389,3.85715007781982,3.81493759155273,3.2878999710083,2.56905007362366,0.64905005693436,-0.61005002260208,0.33300000429153,-2.58495020866394,2.98995018005371,13.7500505447388,19.627950668335,33.4459533691406,40.0510520935059,34.6950035095215,26.8920021057129,13.2949504852295,3.52395009994507,-0.04500000178814,-1.03605008125305,10.0930500030518,10.1629505157471,10.5169506072998,11.8360509872437,14.1829509735107,15.6810007095337,14.4319505691528,14.9419507980347,13.1310005187988,6.59295034408569,-0.47895002365112,-7.99200057983398,-4.06800031661987,2.70000004768372,7.09095048904419,-3.36900019645691,-1.91505014896393,-3.21495008468628,-10.7070007324219,-18.3420009613037,-24.6850509643555,-19.5040512084961,-17.7130508422852,-5.55900049209595,9.02100086212158,14.1640510559082,32.779052734375,28.9750518798828,10.8760509490967,3.63600015640259,SWING_RIGHT
0.4853749871254,0.58341246843338,0.60004997253418,0.86900001764297,1.57341253757477,2.14788746833801,2.56203746795654,2.62308740615845,2.16837501525879,0.84493750333786,-0.48606249690056,-1.75216245651245,-2.59599995613098,-3.06927490234375,-2.95927500724792,0.43230000138283,0.3827999830246,0.36657500267029,0.24571250379086,0.0,-0.00013749999925,0.0,0.0,0.26771250367165,0.61435002088547,0.71816247701645,0.70193749666214,0.69767498970032,0.63524997234344,0.49403750896454,-0.17820000648499,-0.00013749999925,-0.00013749999925,0.0,0.42088750004768,0.73466247320175,1.32632493972778,1.91207504272461,2.70888757705688,3.16827487945557,3.38992500305176,3.19976258277893,2.82617497444153,2.09178757667542,1.3668874502182,1.80495011806488,2.10405015945435,2.581050157547,5.20005035400391,10.6039505004883,14.2339506149292,26.859001159668,37.7820014953613,45.2470512390137,29.4090023040771,10.9200000762939,7.27605056762695,3.7300500869751,-1.27800011634827,-1.28295004367828,10.4809503555298,10.0360507965088,11.0149507522583,12.7650003433228,14.4240007400513,13.653000831604,10.4640007019043,16.3300514221191,8.17500019073486,4.51200008392334,0.52095001935959,0.66195005178452,3.882000207901,4.39200019836426,5.62305021286011,-1.71195006370544,-1.25895011425018,-3.35205006599426,-15.8140506744385,-24.3930015563965,-21.7090511322021,-17.6290512084961,-13.7959508895874,3.49995017051697,16.9600505828857,18.8419513702393,25.4190006256104,18.0090007781982,13.3090505599976,7.24695014953613,SWING_RIGHT
-0.16994999349117,-0.00013749999925,-0.00013749999925,0.17586250603199,0.69300001859665,1.45131254196167,2.18569993972778,2.89684987068176,3.01688742637634,2.20206260681152,0.98559999465942,-0.47066250443459,-1.87343752384186,-2.76705002784729,-2.9438750743866,0.52882498502731,0.4658499956131,0.38953748345375,0.18342499434948,0.0,-0.20446249842644,-0.27665001153946,-0.22728750109673,0.16609999537468,0.604312479496,0.79351252317429,0.96277499198914,0.95644998550415,0.60073751211166,0.15125000476837,0.0,0.0,0.0,-0.00013749999925,0.0,0.2435124963522,0.55426251888275,1.05833745002747,2.06841254234314,2.96738743782043,3.51752495765686,3.78262495994568,3.67248749732971,2.9690375328064,2.12561249732971,-0.11895000934601,0.01905000023544,-0.10695000737906,-1.74705004692078,2.4300000667572,9.04305076599121,9.37305068969727,27.4309520721436,43.8390007019043,39.2640037536621,21.670051574707,8.35800075531006,5.40105009078979,-0.04200000315905,-1.62300002574921,9.78405094146729,9.64500045776367,9.92295074462891,10.7470502853394,14.0250005722046,12.8989505767822,11.9530506134033,17.1109504699707,15.1399507522583,10.3039503097534,-1.81005012989044,-0.96495002508163,3.43500018119812,5.88195037841797,7.25595045089722,0.01395000051707,0.5020500421524,-1.68105006217957,-8.41604995727539,-15.9340505599976,-22.1250019073486,-26.5279521942139,-28.4269504547119,-9.7300500869751,10.1149501800537,19.627950668335,27.5959510803223,15.9120006561279,10.2250509262085,4.78305006027222,SWING_RIGHT
0.00013749999925,0.00013749999925,0.18218749761581,0.42157500982285,0.50957500934601,0.71527498960495,1.26582503318787,1.78227496147156,1.85487496852875,1.62098753452301,1.01433753967285,-0.19937500357628,-1.61755001544952,-2.70847487449646,-3.09196257591248,0.0,0.0,0.0,-0.20845000445843,-0.23567499220371,-0.33838748931885,-0.57543748617172,-0.80437499284744,-0.74703747034073,-0.70221251249313,-0.83132499456406,-0.82871252298355,-0.6374499797821,-0.31872498989105,-0.00013749999925,0.0,0.0,0.0,0.0,0.20267499983311,0.45182499289513,1.00993752479553,1.55320000648499,2.25720000267029,3.0329749584198,3.60456252098084,3.90376257896423,4.09035015106201,3.86333751678467,3.23193740844727,0.24195000529289,1.36905002593994,0.57705003023148,2.31495022773743,5.25795030593872,10.8889503479004,17.8129501342773,20.0710506439209,37.3630523681641,41.0950508117676,36.1009521484375,39.211051940918,20.4300003051758,4.70205020904541,6.22500038146973,10.5030002593994,10.2630004882813,10.4860506057739,9.2290506362915,9.86595058441162,14.2930507659912,17.1389999389648,17.1510009765625,15.5140504837036,10.3399505615234,5.53695011138916,-0.12705001235008,-7.41300058364868,-6.4980001449585,1.32795011997223,1.04295003414154,1.48800003528595,-3.8950502872467,-4.50104999542236,-1.59900009632111,-9.23700046539307,-19.3840503692627,-21.5080509185791,-13.756950378418,-4.30200004577637,0.46800002455711,7.92900037765503,22.9129505157471,28.6950016021729,13.8960008621216,SWING_RIGHT
0.21958750486374,0.17572499811649,0.18273749947548,0.45155000686646,1.03303754329681,1.72809994220734,2.32966256141663,2.87856245040894,2.79936242103577,1.86188745498657,0.56223750114441,-0.78567498922348,-2.22543740272522,-3.14792490005493,-3.40023756027222,0.38664999604225,0.39146250486374,0.33811250329018,0.00013749999925,-0.31569999456406,-0.62163752317429,-0.77756249904633,-0.90282499790192,-0.54807502031326,0.0,0.29823750257492,0.49500000476837,0.99137496948242,0.95191252231598,0.60417497158051,0.0,0.00013749999925,0.0,0.00013749999925,0.37812501192093,0.91657501459122,1.57712495326996,2.23492503166199,3.12798738479614,3.70562505722046,3.86938738822937,4.00262498855591,3.83528757095337,3.21791243553162,2.45918750762939,1.29495000839233,1.42395007610321,0.34395000338554,3.28695011138916,11.2579507827759,18.0240001678467,22.2790508270264,32.0929527282715,50.7630043029785,43.7550010681152,38.8330535888672,22.9750518798828,6.90195035934448,4.44300031661987,1.81695008277893,10.8330001831055,10.6680002212524,11.2110004425049,9.28605079650879,10.1070003509521,10.1149501800537,9.28395080566406,10.8949508666992,10.9380006790161,8.0580005645752,0.2119500041008,-8.99595069885254,-4.58505010604858,5.06505012512207,7.54995012283325,0.64095002412796,1.16295003890991,-2.39400005340576,-10.8790502548218,-19.5900001525879,-18.3280506134033,-20.9640007019043,-24.4189510345459,-13.627950668335,8.52495002746582,3.42495012283325,33.7080001831055,32.9470520019531,8.22600078582764,3.25095009803772,SWING_RIGHT
0.26523751020432,0.21738749742508,0.16706250607967,0.16912500560284,0.49128749966621,1.18016254901886,1.94988751411438,2.58115005493164,2.72744989395142,2.0963249206543,0.84026247262955,-0.63208746910095,-2.08903741836548,-3.02114987373352,-3.30962491035461,0.64308750629425,0.64074999094009,0.62012499570847,0.57859998941422,0.29809999465942,-0.15248750150204,-0.50407499074936,-0.64074999094009,-0.40947499871254,0.0,0.59303748607635,0.87078750133514,1.04651248455048,0.90062499046326,0.48963749408722,-0.00013749999925,-0.00013749999925,-0.18039999902248,-0.00013749999925,0.0,0.46158748865128,0.98766249418259,1.58977496623993,2.30477499961853,2.82988739013672,3.09938740730286,3.15631246566772,2.94029998779297,2.38493752479553,1.80482494831085,0.74400001764297,1.29000008106232,1.32405006885529,4.13895034790039,7.33800029754639,12.7590007781982,15.8500509262085,29.0809516906738,41.1019515991211,37.336051940918,35.2800025939941,15.7879505157471,0.27495002746582,-5.03400039672852,-2.13300013542175,9.77700042724609,9.63300037384033,10.4449501037598,12.8800506591797,12.598051071167,9.98295021057129,7.39005041122437,8.07194995880127,14.9460010528564,16.3110008239746,8.88900089263916,1.87395012378693,-2.45400023460388,1.07595002651215,6.89700031280518,0.47295001149178,0.74100005626678,-0.2080500125885,-5.17095041275024,-14.6070003509521,-25.9510517120361,-24.5080509185791,-21.211051940918,-6.52395009994507,8.92995071411133,15.0310506820679,21.8419513702393,30.4999523162842,16.3879508972168,3.66195011138916,SWING_RIGHT
0.23209999501705,0.20968750119209,0.19813749194145,0.32780000567436,0.82225000858307,1.60943746566772,2.31137490272522,2.77337503433228,2.8197124004364,2.15091252326965,0.91107499599457,-0.43834999203682,-1.76646244525909,-2.84143757820129,-3.3156750202179,0.44852501153946,0.38389998674393,0.30951249599457,0.14135000109673,-0.25588750839233,-0.70303750038147,-0.83957499265671,-0.81468749046326,-0.54106247425079,0.00013749999925,0.66467499732971,0.79612499475479,0.84452497959137,0.87546247243881,0.6014249920845,-0.21958750486374,-0.24914999306202,-0.28215000033379,-0.27390000224113,-0.00013749999925,0.23498749732971,0.85057497024536,1.45818746089935,2.11337494850159,2.76333737373352,3.16992497444153,3.26810002326965,3.28487491607666,2.98058748245239,2.37380003929138,0.23700001835823,-0.11700000613928,-1.01895010471344,2.800950050354,4.25699996948242,13.3930501937866,18.0979499816895,24.4450511932373,40.0489501953125,42.4669532775879,30.9630012512207,21.1290016174316,8.64300060272217,-2.16105008125305,0.47100001573563,10.7920503616333,10.7659502029419,8.90295028686523,9.66195011138916,10.7080507278442,10.5960006713867,12.0919504165649,17.5750503540039,19.7850017547607,11.998950958252,3.79605007171631,-1.6470000743866,-2.96700024604797,-0.84105002880096,4.50705003738403,0.49200001358986,0.31800001859665,-1.24995005130768,-6.80700016021729,-16.1299514770508,-23.0140514373779,-20.4450016021729,-18.8140506744385,-14.4850511550903,6.64305019378662,15.5430011749268,18.4570503234863,30.3420009613037,25.3330516815186,8.77695083618164,SWING_RIGHT
0.1727000027895,0.19855000078678,0.19401249289513,0.21546250581741,0.40438750386238,0.77302497625351,1.23461246490479,1.70032501220703,2.11942505836487,2.13551259040833,1.71751248836517,1.10811245441437,0.40892499685287,-0.44948750734329,-1.22567498683929,0.87628751993179,0.6212249994278,0.38981249928474,0.00013749999925,-0.36561250686646,-1.15211248397827,-2.07432508468628,-2.79578757286072,-2.99062490463257,-2.40872502326965,-1.12447500228882,0.21752500534058,1.32041251659393,1.98316252231598,1.97821247577667,-0.00013749999925,-0.00013749999925,-0.00013749999925,0.0,0.00013749999925,0.57007497549057,1.28177499771118,2.09220004081726,3.06432509422302,3.80159997940063,4.00468730926514,3.79224991798401,3.39666247367859,2.70352506637573,2.08532500267029,-0.52605003118515,-1.34700012207031,-0.74595004320145,1.55100011825562,5.14995002746582,10.0530004501343,13.9060506820679,19.1089515686035,38.0329513549805,46.2409515380859,41.1840019226074,31.0579509735107,21.4189510345459,10.6540508270264,5.65305042266846,9.51405048370361,9.27705001831055,8.03595066070557,9.27705001831055,10.7730007171631,12.3490505218506,10.5600004196167,12.3679504394531,16.0330505371094,12.4300508499146,8.62995052337646,4.86900043487549,1.93800008296967,1.9690500497818,2.48895001411438,-0.24195000529289,-1.03905010223389,-1.45800006389618,-3.09795022010803,-8.04495048522949,-12.939001083374,-17.310001373291,-22.0150508880615,-27.2160015106201,-11.15505027771,6.91200017929077,14.3580007553101,23.0269508361816,24.1380004882813,16.957950592041,SWING_RIGHT
-0.2041874974966,-0.18754999339581,-0.00013749999925,0.00013749999925,0.52676248550415,1.18250000476837,1.86010003089905,2.37558746337891,2.58115005493164,2.18033742904663,1.39163744449615,0.53845000267029,-0.30676248669624,-0.98807501792908,-1.45447504520416,1.13616251945496,0.84823751449585,0.54807502031326,0.25877499580383,-0.37166249752045,-1.466712474823,-2.78946256637573,-3.52838754653931,-3.23839998245239,-2.12506246566772,-0.55274999141693,1.14881253242493,2.2728750705719,2.33117508888245,1.78846251964569,0.0,0.0,0.0,0.0,0.00013749999925,0.67856252193451,1.72204995155334,2.90317487716675,3.96495008468628,4.48222494125366,4.36094999313354,3.75113749504089,2.92943739891052,2.1232750415802,1.5633749961853,-0.05400000140071,-0.74400001764297,-1.53195011615753,0.85905003547668,7.22595024108887,12.2059507369995,19.5199508666992,29.6269512176514,50.6130027770996,43.276050567627,33.9100532531738,27.3859519958496,9.08595085144043,1.51005005836487,0.36600002646446,8.56305027008057,9.35595035552979,10.6270503997803,12.4950008392334,10.300950050354,8.25,6.72195053100586,11.1829509735107,15.5569505691528,12.5380506515503,9.63105010986328,2.22495007514954,-0.92400002479553,-0.01905000023544,3.76695013046265,0.0,-0.93600004911423,-1.52295005321503,-3.78495025634766,-13.1110506057739,-18.8500499725342,-26.3659515380859,-24.6820507049561,-12.0190505981445,9.05400085449219,14.1520509719849,17.7169513702393,27.306001663208,19.359001159668,10.3309507369995,SWING_RIGHT
0.20143750309944,0.15826250612736,0.18823750317097,0.28407499194145,0.48496249318123,0.96167498826981,1.75821244716644,2.32911252975464,2.55172491073608,2.21443748474121,1.43907499313354,0.32683750987053,-0.80134999752045,-1.71654999256134,-2.32485008239746,1.05256247520447,1.09628748893738,1.01708745956421,0.81317502260208,0.41896250844002,-0.31652501225471,-1.24148750305176,-1.60490000247955,-1.24231255054474,-0.29906249046326,0.80987501144409,1.86504995822906,2.34891247749329,2.00268745422363,1.10989999771118,-0.00013749999925,-0.15661250054836,-0.20748749375343,-0.19717499613762,0.0,0.4961000084877,1.41019999980927,2.22090005874634,3.09072494506836,3.72776246070862,3.73807501792908,3.23028755187988,2.74532508850098,2.07061243057251,1.38283753395081,0.09795000404119,-0.5950500369072,-0.7540500164032,1.3050000667572,3.94800019264221,17.0040016174316,16.7980499267578,27.541051864624,52.6330528259277,46.0710029602051,25.1920509338379,12.1339502334595,12.0760507583618,2.38005018234253,-0.97395002841949,8.70405006408691,8.99895000457764,10.0380001068115,10.371000289917,10.1410503387451,8.3569507598877,10.1119508743286,13.4689502716064,16.3159503936768,10.2649507522583,4.09500026702881,2.06295013427734,4.33500003814697,5.21400022506714,5.99595022201538,0.52395004034042,-0.45495003461838,-2.50695013999939,-4.14195013046265,-9.31395053863525,-19.0870513916016,-27.8650512695313,-23.3970012664795,-8.94195079803467,19.5130500793457,19.8430500030518,22.0360507965088,18.7420501708984,13.0219507217407,4.4719500541687,SWING_RIGHT
-0.65972501039505,-0.7265499830246,-0.74140000343323,-0.65216249227524,-0.68089997768402,-0.86583751440048,-0.95191252231598,-1.04431247711182,-1.1813999414444,-1.17686247825623,-1.33210003376007,-1.84442496299744,-2.59091258049011,-3.57018756866455,-4.5515251159668,-0.45512500405312,-0.00013749999925,0.00013749999925,0.0,0.0,0.33921250700951,0.51370000839233,0.40479999780655,-0.25850000977516,-1.40346252918243,-2.61538743972778,-3.43199992179871,-3.28831243515015,-2.49755001068115,-1.25358748435974,-0.29699999094009,-0.45265001058578,-0.63208746910095,-0.85263746976852,-0.88714998960495,-0.66921252012253,-0.47286251187325,-0.21064999699593,0.00013749999925,0.29576250910759,0.6208124756813,0.92083752155304,0.80079996585846,0.48688748478889,0.22055000066757,-0.7180500626564,0.38505002856255,-1.20795011520386,-0.86595004796982,-1.28505003452301,-1.46895003318787,3.15795016288757,15.7180509567261,34.4680519104004,35.884952545166,30.223051071167,13.0729503631592,-1.06995010375977,6.88800048828125,-2.44095015525818,3.27195024490356,3.38700008392334,3.76005029678345,3.31995010375977,1.91400003433228,1.64100003242493,1.75395011901855,1.9690500497818,5.05995035171509,-1.07295000553131,-13.2190504074097,-23.1360015869141,-19.5780010223389,-20.5770015716553,-18.3619499206543,7.30395030975342,8.93895053863525,8.58000087738037,9.90705013275146,10.6849508285522,7.62495040893555,8.72895050048828,15.6360006332397,14.0230503082275,4.74900007247925,2.82900023460388,8.17304992675781,8.86305046081543,5.23995018005371,8.2669506072998,SWING_RIGHT
-0.00013749999925,-0.00013749999925,-0.00013749999925,-0.00013749999925,0.0,0.0,0.0,-0.28696250915527,-0.90021246671677,-1.72246253490448,-2.71040010452271,-3.87722492218018,-4.60597515106201,-4.74650001525879,-4.53722476959229,0.22274999320507,0.2208250015974,0.30016249418259,0.39421248435974,0.34732499718666,0.00013749999925,-0.74621248245239,-2.40735006332397,-3.67056250572205,-4.22812509536743,-4.16844987869263,-3.02445006370544,-0.81468749046326,1.03509998321533,2.13881254196167,0.81193751096725,0.73122501373291,0.73301249742508,0.74098747968674,0.68970000743866,0.56512498855591,0.0,-0.71953749656677,-0.56031250953674,-0.27774998545647,-0.19359999895096,0.26840001344681,0.74401247501373,0.31721249222755,-0.35626250505447,0.22005000710487,-0.22695000469685,-1.90995013713837,-1.75395011901855,1.71195006370544,8.8080005645752,33.9630012512207,46.0180511474609,38.2890014648438,24.7159519195557,9.09794998168945,-6.29100036621094,-10.0120506286621,-6.046950340271,-2.51595020294189,1.23195004463196,0.88005006313324,0.68400001525879,1.89705014228821,0.89205002784729,0.99495005607605,3.31500005722046,-7.68105030059814,-29.6530513763428,-33.985050201416,-32.2780532836914,-30.0559520721436,-24.5059509277344,-13.4899501800537,-4.96395015716553,8.45100021362305,8.46105003356934,10.2750005722046,7.72095060348511,9.04995059967041,16.242000579834,15.6529502868652,6.84195041656494,10.006950378418,15.2100009918213,-0.25800001621246,7.26300048828125,10.4689502716064,9.27495002746582,6.40605020523071,SWING_RIGHT
-0.00013749999925,-0.00013749999925,-0.00013749999925,0.0,0.0,0.0,0.0,0.0,-0.19978749752045,-0.7011125087738,-1.53353750705719,-2.50318741798401,-3.57334995269775,-4.51440000534058,-4.93900012969971,0.18727499246597,0.21793749928474,0.2035000026226,0.14891250431538,0.19855000078678,0.16252499818802,0.0,-0.62576252222061,-1.92499995231628,-3.20498752593994,-3.88616251945496,-3.75594997406006,-2.87374997138977,-1.19253754615784,0.57213747501373,0.97528749704361,0.96126252412796,0.88453751802444,0.75817501544952,0.71541249752045,0.6349750161171,0.47121250629425,0.0,-0.63800001144409,-0.95342499017715,-0.76779997348785,-0.72998750209808,-0.7178875207901,-0.52964997291565,-0.76917499303818,-0.49500003457069,-0.22395001351833,-0.25995001196861,-1.02404999732971,-0.79695004224777,0.85005003213882,3.57195019721985,25.2499504089355,33.9289512634277,29.4900016784668,15.6580505371094,-1.125,5.34105014801025,-3.7300500869751,-1.95105004310608,1.54995012283325,1.14300000667572,1.54500007629395,1.45905005931854,1.52205002307892,2.13705015182495,1.37295007705688,4.00395011901855,-0.18900001049042,-15.2250003814697,-25.219051361084,-20.5240516662598,-21.5080509185791,-16.2979507446289,-10.1659507751465,9.22695064544678,10.4599504470825,9.28395080566406,8.90595054626465,9.09794998168945,8.61105060577393,8.53005027770996,20.9730014801025,6.82500028610229,0.95895004272461,10.407000541687,12.868950843811,6.70995044708252,6.52605009078979,8.97795009613037,SWING_RIGHT
-0.14203749597073,-0.14685000479221,-0.00013749999925,-0.00013749999925,-0.00013749999925,0.0,0.0,-0.00013749999925,-0.4144249856472,-1.1863499879837,-1.94521248340607,-2.65512490272522,-3.48040008544922,-3.97732496261597,-3.89826250076294,0.0,0.00013749999925,0.00013749999925,0.15867500007153,0.171187505126,0.19304999709129,-0.18328750133514,-1.38682496547699,-2.66461253166199,-3.47503757476807,-3.20347499847412,-2.37338757514954,-0.85387498140335,0.93101251125336,2.23959994316101,0.56113749742508,0.59207499027252,0.59399998188019,0.55797499418259,0.4976125061512,0.45787498354912,0.15922500193119,-0.6571124792099,-0.97638750076294,-0.61847501993179,-0.41222500801086,-0.46227499842644,-0.27087500691414,-0.57557499408722,-1.6189249753952,0.16695000231266,-0.55500000715256,0.24600000679493,-0.12105000764132,-0.43995001912117,0.35595002770424,18.1390514373779,34.0489501953125,32.506950378418,11.8990507125854,-18.5839500427246,5.78400039672852,-2.01104998588562,-2.04404997825623,-0.7540500164032,0.99705004692078,0.82005006074905,0.53505003452301,0.75105005502701,0.9709500670433,1.09995007514954,2.06295013427734,4.13895034790039,-15.0220508575439,-30.2500514984131,-15.1819505691528,-15.4789505004883,-14.1240005493164,-8.92905044555664,-4.37895011901855,8.83695030212402,8.66700077056885,10.6470003128052,9.2629508972168,9.50700092315674,10.5750007629395,17.9320507049561,4.90995025634766,0.84900003671646,7.13895034790039,13.3020009994507,14.0970010757446,8.97300052642822,4.15995025634766,6.90705013275146,SWING_RIGHT
0.0,0.0,0.0,0.0,0.0,0.0,0.0,0.00013749999925,-0.24392500519753,-1.13066244125366,-1.82888746261597,-2.72414994239807,-3.73848748207092,-4.19911241531372,-4.0390625,0.00013749999925,0.00013749999925,0.00013749999925,0.00013749999925,0.0,0.00013749999925,0.0,-1.00993752479553,-2.824387550354,-3.9261748790741,-3.65488743782043,-3.04768753051758,-1.5859249830246,0.65450000762939,2.30903744697571,0.18796250224113,0.17751249670982,0.16719999909401,0.14904999732971,0.14451250433922,0.18095000088215,0.16060000658035,-0.79763752222061,-1.73909997940063,-1.16902494430542,-0.64171248674393,-0.59785002470016,0.0,0.31569999456406,-0.948337495327,0.66795003414154,0.4120500087738,0.43500003218651,0.7540500164032,0.17895001173019,0.01905000023544,5.08500003814697,39.5989532470703,41.3130035400391,11.5980005264282,-8.68605041503906,-8.59995079040527,-0.06599999964237,1.43400001525879,-1.08900010585785,1.01895010471344,0.85395002365112,0.76500004529953,1.00394999980927,0.77505004405975,1.14300000667572,2.71905016899109,10.7160005569458,-14.7829504013062,-33.8770523071289,-21.8650512695313,-18.9340515136719,-12.1630506515503,-4.62600040435791,-0.28005000948906,9.59595012664795,8.81505012512207,10.2160501480103,9.18405055999756,9.8899507522583,10.278000831604,12.868950843811,10.6939506530762,-14.988000869751,5.25000047683716,22.7779502868652,8.31195068359375,5.44395017623901,3.51195025444031,5.24700021743774,SWING_RIGHT
0.00013749999925,0.00013749999925,0.00013749999925,0.00013749999925,0.0,-0.00013749999925,-0.91423749923706,-1.95676243305206,-2.77186250686646,-3.47930002212524,-4.09887504577637,-4.01706266403198,-3.58916258811951,-3.18463754653931,-2.60851240158081,0.0,0.0,0.0,0.0,-0.44054999947548,-1.78694999217987,-2.99694991111755,-3.54200005531311,-2.90372490882874,-1.57011246681213,0.28366249799728,2.12368750572205,3.28817486763,3.05057501792908,2.26613759994507,0.00013749999925,0.00013749999925,0.00013749999925,0.00013749999925,-0.15468749403954,-1.05820000171661,-1.19473743438721,-0.74126249551773,-0.38417500257492,-0.17971250414848,0.0,-0.76711249351501,-1.9872875213623,-2.92256259918213,-3.04672503471375,0.42600002884865,0.11505000293255,0.27705001831055,2.41605019569397,24.3499507904053,33.0580520629883,22.3650016784668,7.73805046081543,-27.5770511627197,-2.88900017738342,3.49095010757446,0.99105006456375,0.92895007133484,4.40295028686523,0.60300004482269,0.95700001716614,1.37295007705688,1.5289500951767,0.56595003604889,5.55405044555664,-2.16900014877319,-21.7090511322021,-30.7399520874023,-17.8279514312744,-14.7250509262085,-7.93200016021729,-3.19695019721985,-2.12205004692078,-1.45395004749298,0.00795000046492,9.1690502166748,9.41595077514648,9.60300064086914,8.97495079040527,13.7950506210327,1.74195003509521,-1.74795007705688,8.88705062866211,19.5649509429932,9.22695064544678,10.0290002822876,7.90305042266846,8.29500007629395,9.20805072784424,7.69905042648315,SWING_RIGHT
0.0,0.0,0.0,0.00013749999925,0.00013749999925,0.0,-0.31391251087189,-1.10027503967285,-2.36444997787476,-3.17061257362366,-3.89881253242493,-4.20736265182495,-3.97113752365112,-3.07065010070801,-2.48393750190735,0.00013749999925,0.0,0.0,0.0,0.0,-0.85304999351501,-1.80124998092651,-2.52546238899231,-2.78025007247925,-1.74803745746613,-0.21175000071526,1.28026247024536,2.5616250038147,3.21145009994507,2.3339250087738,0.77219998836517,0.94201248884201,1.10866248607636,1.29868745803833,1.472487449646,0.71417498588562,0.0,-0.40796250104904,-0.36300000548363,-0.59771251678467,-0.61723750829697,-1.03125,-1.8183000087738,-2.87251257896423,-3.3544499874115,2.60700011253357,2.56905007362366,2.36295008659363,0.62895005941391,5.72205018997192,30.6780014038086,24.7639503479004,21.832950592041,-13.7449502944946,-21.8830509185791,1.44105005264282,5.5900502204895,2.21399998664856,5.08305025100708,1.35495007038116,1.23900008201599,1.61700010299683,1.9410001039505,0.69600003957748,1.47105002403259,3.33900022506714,-6.3139500617981,-26.4589519500732,-33.8989524841309,-18.7000503540039,-12.78600025177,-3.6780002117157,2.19900012016296,1.85205006599426,2.5530002117157,9.7630500793457,9.63600063323975,9.2959508895874,9.62895011901855,16.8310508728027,8.21895027160645,12.9450006484985,0.88695001602173,12.4210510253906,15.9160509109497,9.96405029296875,7.29495048522949,6.88995027542114,8.68305015563965,7.0339503288269,SWING_RIGHT
0.0,0.00013749999925,0.0,0.0,0.0,-0.00013749999925,-0.67457497119904,-1.64697504043579,-2.44241237640381,-3.3576123714447,-4.0422248840332,-4.13421249389648,-3.66162490844727,-3.09141254425049,-2.31550002098084,0.0,0.00013749999925,0.24296249449253,0.26358750462532,-0.42996248602867,-1.59981250762939,-2.73391246795654,-3.42223739624023,-2.6784999370575,-1.24368751049042,0.36217498779297,2.02812504768372,3.04686260223389,2.486412525177,1.73112499713898,0.15001249313354,0.18603749573231,0.30813750624657,0.43037500977516,0.0,-0.45746248960495,-0.41181248426437,0.0,0.36629998683929,0.63841247558594,0.37083750963211,-0.61613750457764,-1.94136250019073,-2.89877510070801,-2.85972499847412,0.30900001525879,-0.56894999742508,-2.29305005073547,5.71005010604858,23.7199516296387,30.0499515533447,26.109001159668,2.41605019569397,-33.0480003356934,1.57500004768372,4.19895029067993,2.82000017166138,4.69500017166138,1.22100007534027,0.36795002222061,1.71795010566711,1.84995007514954,0.47805002331734,-0.75000005960464,9.39600086212158,-2.51400017738342,-21.703950881958,-30.8479518890381,-20.8930511474609,-16.3099498748779,-6.18195009231567,0.12600000202656,1.50000011920929,1.65300011634827,0.68400001525879,9.74400043487549,9.70305061340332,9.05700016021729,14.7910509109497,10.9320001602173,1.2679500579834,-1.24500000476837,6.66300010681152,18.351001739502,7.64895057678223,8.86800003051758,6.51195049285889,6.7819504737854,6.44205045700073,8.71005058288574,SWING_RIGHT
0.00013749999925,0.00013749999925,0.00013749999925,0.00013749999925,0.0,-0.25162500143051,-1.08157503604889,-2.24908757209778,-3.1157500743866,-4.00509977340698,-4.67431259155273,-4.58974981307983,-3.93772506713867,-3.36820006370544,-2.51789999008179,0.00013749999925,0.00013749999925,0.00013749999925,0.0,-0.53308749198914,-1.57272493839264,-2.63628745079041,-3.12826251983643,-2.12478756904602,-0.71802496910095,0.96222501993179,2.70379996299744,3.77025008201599,3.19962501525879,2.30656242370605,0.88453751802444,0.92771250009537,0.93417501449585,0.88426250219345,0.50104999542236,-0.21532499790192,-0.43312498927116,-0.00013749999925,0.00013749999925,0.0,-0.17201249301434,-0.88604998588562,-2.00309991836548,-2.7219500541687,-2.52711248397827,1.49400007724762,1.60095012187958,1.89405012130737,6.41895008087158,21.060001373291,33.984001159668,25.1880016326904,2.11094999313354,-30.4260005950928,0.37800002098083,1.71900010108948,0.41400003433228,2.1739501953125,2.05395007133484,0.54105001688004,1.08600008487701,1.27305006980896,1.74900007247925,1.22205007076263,4.22895002365112,-3.81705021858215,-27.8580017089844,-34.7749519348145,-19.8150005340576,-19.9879512786865,-9.99405002593994,-1.71705007553101,1.34205007553101,2.50605010986328,1.78005003929138,10.2660007476807,10.1320505142212,7.58400058746338,10.9909505844116,14.7820510864258,6.35595035552979,-2.54700016975403,7.28700017929077,22.2850513458252,8.81295013427734,5.20695018768311,4.62705039978027,6.36795043945313,6.70605039596558,7.82100057601929,SWING_RIGHT
0.21518750488758,0.19923749566078,0.16390000283718,0.00013749999925,0.00013749999925,0.00013749999925,0.00013749999925,0.0,-0.39324998855591,-1.31064999103546,-2.2980375289917,-3.32089996337891,-4.10575008392334,-4.37016248703003,-4.0346622467041,0.0,0.0,0.0,0.00013749999925,0.19249999523163,0.24378749728203,-0.29947498440742,-1.68190002441406,-2.87113738059998,-3.48094987869263,-2.87237501144409,-1.47908747196198,0.44728749990463,2.21416258811951,3.18037509918213,0.31968748569489,0.14891250431538,0.0,0.0,0.0,0.17765000462532,0.0,-0.42418751120567,0.0,0.6238374710083,0.90227496623993,1.11319994926453,0.94627499580383,-0.18631249666214,-1.65068745613098,1.46295011043549,0.47895002365112,-0.43995001912117,-0.48795002698898,-1.09800004959106,3.30405020713806,28.2160511016846,36.5170516967773,28.5160522460938,1.82400012016296,-25.5889511108398,-3.96705007553101,5.12805032730103,-0.29595002532005,3.11505007743835,1.85400009155273,1.66500008106232,0.88005006313324,0.91800004243851,1.10699999332428,0.96105003356934,9.31005001068115,1.06695008277893,-23.9140510559082,-32.8909530639648,-23.6200504302979,-17.1499500274658,-7.95900058746338,0.16605000197887,2.15400004386902,9.56895065307617,8.99895000457764,11.6380500793457,10.6249504089355,9.18795013427734,10.6150503158569,11.7259502410889,-2.93805003166199,1.74195003509521,7.34700012207031,12.0640506744385,11.5279502868652,10.1749505996704,3.75105023384094,5.92005014419556,SWING_RIGHT
0.0,0.0,0.0,0.00013749999925,0.00013749999925,0.00013749999925,0.00013749999925,0.16018749773502,0.22412499785423,-0.00013749999925,-0.74332499504089,-1.48953747749329,-2.44406247138977,-3.30522489547729,-3.67688751220703,0.00013749999925,0.00013749999925,0.00013749999925,0.00013749999925,0.00013749999925,0.19373749196529,0.00013749999925,-0.60720002651215,-1.90891253948212,-3.02926254272461,-3.00410008430481,-2.25775003433228,-1.33966255187988,0.00013749999925,1.4502124786377,0.70248746871948,0.72957497835159,0.73878747224808,0.77123749256134,0.80877500772476,0.8761500120163,0.88824999332428,0.48922500014305,0.0,0.00013749999925,0.49513748288155,0.43752500414848,0.27926251292229,0.0,-1.07745003700256,0.47400003671646,1.42905008792877,0.53100001811981,0.57405000925064,0.57405000925064,1.02404999732971,8.8609504699707,27.3379516601563,32.8519515991211,14.6740503311157,-12.6240005493164,-7.06695032119751,2.60700011253357,-0.16005000472069,0.13095000386238,1.78995013237,1.86900007724762,1.90500009059906,1.86405003070831,2.03895020484924,2.00805020332336,2.98200011253357,10.407000541687,3.15000009536743,-19.0110015869141,-20.9569511413574,-15.4189510345459,-10.5610504150391,-4.32000017166138,-0.06195000186563,8.59200000762939,10.6390504837036,8.85795021057129,10.3590002059937,9.12600040435791,9.90405082702637,13.5600004196167,16.8550510406494,-8.97795009613037,0.19800001382828,18.6580505371094,15.0190505981445,9.37995052337646,4.84995031356812,4.91700029373169,SWING_RIGHT
0.0,0.0,0.0,0.0,0.0,0.0,0.0,0.0,-0.21188749372959,-0.53845000267029,-1.16283750534058,-2.13111257553101,-3.02087497711182,-3.5650999546051,-3.90678739547729,0.0,0.0,-0.00013749999925,-0.00013749999925,0.0,0.0,0.00013749999925,0.0,-1.52611243724823,-2.64976239204407,-2.93328738212585,-2.67643737792969,-1.95071244239807,-0.00013749999925,1.38545000553131,0.53308749198914,0.54257500171661,0.58643752336502,0.62713748216629,0.63566249608994,0.5684249997139,0.50792497396469,0.28874999284744,-0.60403752326965,-0.93500000238419,-0.75844997167587,-0.66206252574921,-0.80038750171661,-0.62177497148514,-1.11374998092651,1.90605008602142,1.67295002937317,1.73805010318756,1.26600003242493,0.21000000834465,0.33300000429153,-1.08600008487701,19.7550010681152,32.6310005187988,21.4860019683838,1.61595010757446,-13.8600006103516,-4.14600038528442,3.18600010871887,0.73500001430511,1.47795009613037,1.41600000858307,1.25805008411407,1.55505001544952,1.48095011711121,0.85095006227493,0.966000020504,4.19805002212524,0.92295002937317,-9.52905082702637,-20.15505027771,-22.2930011749268,-15.271050453186,-6.38100051879883,-1.4389500617981,9.94995021820068,10.5820503234863,9.86400032043457,9.31995010375977,8.91300010681152,9.48795032501221,10.8019504547119,23.0710506439209,-1.49895012378693,-0.07905000448227,8.85599994659424,16.1340007781982,7.87395048141479,6.38205051422119,8.31704998016357,SWING_RIGHT
0.00013749999925,0.00013749999925,0.00013749999925,0.00013749999925,0.0,-0.20899999141693,-0.26001250743866,-0.34443750977516,-0.70166248083115,-1.20518743991852,-1.89474999904633,-2.88887500762939,-3.90499997138977,-4.44592475891113,-4.44441270828247,0.0,0.00013749999925,0.00013749999925,0.19882500171661,0.38266250491142,0.44041249155998,0.0,-0.91850000619888,-2.28662490844727,-3.3411123752594,-3.6953125,-2.85711240768433,-1.33581244945526,0.37496250867844,1.713250041008,0.2729375064373,0.24860000610352,0.18906250596046,0.23251250386238,0.42762500047684,0.59757500886917,0.42363750934601,0.0,-0.45787498354912,-0.61778748035431,-0.6374499797821,-0.37207499146461,-0.00013749999925,-0.30965000391006,-1.07208752632141,0.31305000185966,0.11700000613928,-0.82995003461838,-2.59905004501343,-1.09095001220703,0.73695003986359,20.6100006103516,27.6610507965088,32.5309524536133,20.3320503234863,0.10695000737906,-15.5209503173828,-4.49100017547607,6.01905012130737,1.27800011634827,1.72695004940033,1.71105003356934,1.57905006408691,0.39900001883507,-1.14195001125336,-1.68795013427734,7.14105033874512,3.66195011138916,-5.77500009536743,-18.2089500427246,-23.9860515594482,-23.3800506591797,-17.2180500030518,-6.79305028915405,2.27295017242432,9.79200077056885,9.25605010986328,7.33095026016235,7.45695018768311,10.9990501403809,13.2160511016846,11.1090002059937,17.1060009002686,-0.60795003175735,4.52205038070679,8.14500045776367,8.86005020141602,8.29500007629395,7.2199501991272,7.35705041885376,SWING_RIGHT
0.0,0.0,0.0,0.0,0.0,0.0,0.0,-0.32807499170303,-1.12035000324249,-2.01396250724792,-2.8089873790741,-3.75650000572205,-4.32520008087158,-4.30608749389648,-3.96261239051819,0.0,0.0,0.0,0.0,0.00013749999925,0.0,-0.89897501468658,-2.30573749542236,-3.39061236381531,-3.48548746109009,-2.52821254730225,-1.0506374835968,0.88123750686646,2.58541250228882,3.1380250453949,0.21202500164509,0.24433749914169,0.29205000400543,0.34292501211166,0.42707499861717,0.4945875108242,-0.16651250422001,-0.83091247081757,-0.64831250905991,-0.19291250407696,-0.00013749999925,0.0,-0.14575000107288,-1.12804996967316,-2.30326247215271,1.0150500535965,0.89505004882813,0.52905005216599,0.58605003356934,0.72300004959106,7.33800029754639,32.4229507446289,33.9340515136719,20.7889518737793,-6.68400049209595,-20.0320510864258,7.58700037002563,-0.25304999947548,-1.1869500875473,1.52505004405975,1.33995008468628,1.31805002689362,1.12395000457764,1.11900007724762,1.09500002861023,0.37500002980232,9.1069507598877,-8.90895080566406,-29.5390510559082,-26.613000869751,-16.980001449585,-14.9530506134033,-7.34595012664795,-3.3229501247406,-0.61305004358292,9.62895011901855,9.59295082092285,9.45195007324219,9.67695045471191,8.91795063018799,11.731050491333,10.5030002593994,-2.80605006217957,1.29495000839233,19.8310508728027,12.69105052948,12.1930503845215,4.64400005340576,5.90100049972534,6.2790002822876,SWING_RIGHT
0.0,0.0,0.0,0.0,0.0,0.0,-0.69148749113083,-1.6574250459671,-2.41353750228882,-3.26328754425049,-3.9030749797821,-3.82607507705688,-3.32777500152588,-2.84185004234314,-2.14403748512268,0.00013749999925,0.00013749999925,0.16761249303818,0.16018749773502,-0.54078751802444,-1.70087504386902,-2.76732492446899,-3.16401243209839,-2.41834998130798,-1.05833745002747,0.51754999160767,2.08876252174377,2.94085001945496,2.47664999961853,1.83878743648529,0.24598750472069,0.26152500510216,0.36437499523163,0.46048748493195,0.0,-0.58093750476837,-0.57708752155304,-0.26262500882149,-0.19085000455379,-0.00013749999925,-0.36134999990463,-1.31174993515015,-2.51253747940063,-3.24816250801086,-3.03352499008179,0.13605000078678,-0.21705001592636,-0.87600004673004,4.61805009841919,27.2130012512207,30.1729507446289,22.3219509124756,-0.65100002288818,-25.687952041626,1.14405000209808,4.55595016479492,-0.07800000160933,-0.06900000572205,1.88205003738403,-2.89200019836426,0.96105003356934,1.20300006866455,0.68595004081726,-0.22800001502037,10.1100006103516,-3.27600026130676,-23.9500503540039,-29.3539505004883,-18.586950302124,-14.6029510498047,-5.8090500831604,-0.4650000333786,1.03095006942749,1.43805003166199,1.07595002651215,9.87105083465576,9.82500076293945,10.8480005264282,13.0909509658813,17.1450004577637,-0.06405000388622,3.97905015945435,13.7449502944946,14.9800510406494,10.3590002059937,6.62895011901855,7.10100030899048,7.45500040054321,6.84000015258789,7.73295021057129,SWING_RIGHT
0.0,0.0,0.0,0.0,0.0,0.0,0.0,0.00013749999925,-0.28421249985695,-1.09051251411438,-1.92486250400543,-2.87512493133545,-3.83666253089905,-4.25713729858398,-4.13380002975464,0.20831249654293,0.24846249818802,0.29713749885559,0.27114999294281,0.23567499220371,0.00013749999925,-0.22261250019073,-1.16256248950958,-2.56272506713867,-3.24018740653992,-2.78643751144409,-1.89571249485016,-0.40631249547005,1.54316246509552,2.71631240844727,0.47602498531342,0.52910000085831,0.59936249256134,0.66041249036789,0.75253748893738,0.8095999956131,0.65532499551773,0.0,-0.59661251306534,-0.28531250357628,-0.16719999909401,-0.3964124917984,-0.46626248955727,-0.90406250953674,-2.136887550354,0.46695002913475,-0.3199500143528,0.36795002222061,0.51405000686646,2.1979501247406,4.96500015258789,14.9470510482788,30.1750507354736,30.6780014038086,5.49900007247925,-11.1180009841919,-8.50605010986328,-1.46700012683868,0.15795001387596,-1.84995007514954,1.04700005054474,1.15305006504059,0.5380499958992,0.61200004816055,0.41100001335144,3.10200023651123,4.60995006561279,6.00405025482178,-17.1859512329102,-29.3809509277344,-18.7140007019043,-14.3440504074097,-11.3850002288818,-6.30000019073486,-2.14800000190735,9.38205051422119,8.83695030212402,11.0340003967285,9.56400012969971,9.2029504776001,10.3830003738403,13.7620506286621,6.34605026245117,-9.23505020141602,11.2669506072998,13.9530010223389,11.9509506225586,10.1680507659912,5.72895050048828,2.91300010681152,SWING_RIGHT
