gyro_x_0,gyro_y_0,gyro_z_0,acc_x_0,acc_y_0,acc_z_0,gyro_x_1,gyro_y_1,gyro_z_1,acc_x_1,acc_y_1,acc_z_1,gyro_x_2,gyro_y_2,gyro_z_2,acc_x_2,acc_y_2,acc_z_2,gyro_x_3,gyro_y_3,gyro_z_3,acc_x_3,acc_y_3,acc_z_3,gyro_x_4,gyro_y_4,gyro_z_4,acc_x_4,acc_y_4,acc_z_4,gyro_x_5,gyro_y_5,gyro_z_5,acc_x_5,acc_y_5,acc_z_5,gyro_x_6,gyro_y_6,gyro_z_6,acc_x_6,acc_y_6,acc_z_6,gyro_x_7,gyro_y_7,gyro_z_7,acc_x_7,acc_y_7,acc_z_7,gyro_x_8,gyro_y_8,gyro_z_8,acc_x_8,acc_y_8,acc_z_8,gyro_x_9,gyro_y_9,gyro_z_9,acc_x_9,acc_y_9,acc_z_9,gyro_x_10,gyro_y_10,gyro_z_10,acc_x_10,acc_y_10,acc_z_10,gyro_x_11,gyro_y_11,gyro_z_11,acc_x_11,acc_y_11,acc_z_11,gyro_x_12,gyro_y_12,gyro_z_12,acc_x_12,acc_y_12,acc_z_12,gyro_x_13,gyro_y_13,gyro_z_13,acc_x_13,acc_y_13,acc_z_13,gyro_x_14,gyro_y_14,gyro_z_14,acc_x_14,acc_y_14,acc_z_14,motion_type
31.7645626068115,28.056324005127,16.9734115600586,36.2407379150391,26.9406490325928,3.75306248664856,-14.4669246673584,-20.875524520874,-7.12167501449585,12.5291376113892,27.3722629547119,14.3936376571655,-7.7045373916626,-30.1928005218506,-23.9386119842529,-1.89461243152618,-1.9765625,-3.74838757514954,-0.34608748555183,-2.1872124671936,-2.79042506217957,-0.31611248850822,-1.35148751735687,0.34553748369217,1.50438749790192,-12.1934995651245,-14.2293252944946,3.30563759803772,8.36439990997314,5.27683734893799,-15.9255247116089,-16.0529880523682,1.89296245574951,-7.24968767166138,-11.183837890625,-2.7366623878479,-10.6072998046875,-15.7403125762939,-4.27418756484985,22.9292240142822,19.2545375823975,-1.17191255092621,2.02180004119873,-11.7704124450684,-12.0434875488281,19.7479515075684,-10.9170007705688,-25.1389503479004,-28.7929515838623,-9.88500022888184,8.56305027008057,26.1430511474609,-11.9230508804321,-35.3010025024414,-25.3920021057129,-11.1109504699707,-2.40705013275146,21.0130500793457,2.48505020141602,-26.8050022125244,-30.0240020751953,6.80505037307739,55.4629516601563,46.6180534362793,2.16900014877319,-30.2659511566162,-48.6169509887695,-16.7849998474121,47.9089508056641,53.896053314209,17.5879516601563,-14.2699508666992,-45.1180534362793,-38.0620536804199,15.4129505157471,9.21405029296875,10.4929504394531,12.3220510482788,3.07500004768372,7.84905052185059,3.13800024986267,-10.0560007095337,-4.63095045089722,27.2239513397217,16.2649517059326,11.0749502182007,6.63705015182495,-19.2289505004883,-7.00200033187866,8.87805080413818,SHAKE
-20.875524520874,-7.12167501449585,12.5291376113892,27.3722629547119,14.3936376571655,-7.7045373916626,-30.1928005218506,-23.9386119842529,1.43288743495941,21.0890617370605,21.6749496459961,2.11818742752075,-25.2395000457764,-27.8746871948242,-5.29746246337891,-1.35148751735687,0.34553748369217,1.50438749790192,-12.1934995651245,-14.2293252944946,3.30563759803772,8.36439990997314,5.27683734893799,-3.50253748893738,-14.7342252731323,-14.1530122756958,-4.54822492599487,6.33682489395142,10.6896619796753,4.17161226272583,-15.7403125762939,-4.27418756484985,22.9292240142822,19.2545375823975,-1.17191255092621,2.02180004119873,-11.7704124450684,-12.0434875488281,11.4614496231079,20.0938377380371,9.2175874710083,-0.43078750371933,-10.6394748687744,-13.0864248275757,0.20996250212193,-11.9230508804321,-35.3010025024414,-25.3920021057129,-11.1109504699707,-2.40705013275146,21.0130500793457,2.48505020141602,-26.8050022125244,-34.8619499206543,-15.8029508590698,-8.60295009613037,7.01805019378662,17.9710502624512,-13.747950553894,-38.3449516296387,-16.7849998474121,47.9089508056641,53.896053314209,17.5879516601563,-14.2699508666992,-45.1180534362793,-38.0620536804199,15.4129505157471,66.1879501342773,34.3510513305664,-0.96495002508163,-32.4379501342773,-49.6630516052246,-20.6089515686035,49.6950035095215,-4.63095045089722,27.2239513397217,16.2649517059326,11.0749502182007,6.63705015182495,-19.2289505004883,-7.00200033187866,8.87805080413818,37.0369529724121,15.4930505752563,12.0660009384155,-8.74605083465576,-25.7290515899658,-3.58005023002625,38.8950004577637,SHAKE
-27.8746871948242,-5.29746246337891,11.4082374572754,22.8441123962402,11.2897129058838,-5.6999249458313,-27.3656616210938,-22.9788627624512,-1.98027503490448,14.8988122940063,20.947437286377,5.4216251373291,-15.463662147522,-25.4687118530273,-11.6070623397827,10.6896619796753,4.17161226272583,-11.6336002349854,-18.9123001098633,-10.4898748397827,1.90767502784729,10.1512126922607,8.64806270599365,-0.94792497158051,-15.6463994979858,-18.5994873046875,-6.74795007705688,6.02098751068115,14.1875247955322,9.44776248931885,-13.0864248275757,0.20996250212193,20.1683616638184,16.9360122680664,-1.05902504920959,0.37908750772476,-13.7458753585815,-13.5522747039795,4.74072504043579,20.3109493255615,15.1288499832153,-0.96277499198914,-2.62831258773804,-16.1309490203857,-12.5052127838135,-13.747950553894,-38.3449516296387,-32.275951385498,-12.5809507369995,-7.22100019454956,12.7710008621216,6.91500043869019,-22.8229503631592,-43.0030517578125,-24.5490016937256,-11.2549505233765,-3.10200023651123,16.1749515533447,-0.68505001068115,-24.0300006866455,-20.6089515686035,49.6950035095215,62.8080024719238,16.6129512786865,-13.0870504379272,-45.0270004272461,-47.4340515136719,-0.2250000089407,67.2049560546875,50.4829521179199,6.65205049514771,-22.4010009765625,-48.0250511169434,-34.678050994873,16.9770011901855,-3.58005023002625,38.8950004577637,27.4489517211914,15.1009502410889,6.91395044326782,-19.3050003051758,-20.9100017547607,0.37800002098083,51.0400543212891,24.2779502868652,10.9669504165649,0.27795001864433,-29.6640014648438,-11.2459506988525,14.0089502334595,SHAKE
-2.52147507667542,9.63957500457764,20.7384376525879,12.4173498153687,-0.10546249896288,-22.9378871917725,-25.2709865570068,-3.78207492828369,2.18033742904663,17.0339126586914,19.484712600708,4.58521270751953,-5.95278739929199,-22.2017116546631,-23.17067527771,3.86278748512268,-12.9101495742798,-19.7961502075195,-10.4871253967285,-0.33825001120567,10.621600151062,15.9216747283936,7.00961256027222,-9.39908790588379,-18.4013500213623,-13.2830495834351,-4.48896265029907,4.61614990234375,6.78768730163574,12.7029371261597,-0.63305002450943,17.9646492004395,16.4597129821777,-0.42157500982285,-0.51810002326965,-13.7993621826172,-16.2353115081787,-1.97064995765686,8.52334976196289,17.909236907959,9.19118785858154,-0.88508749008179,-0.06104999780655,-12.2832870483398,-16.8906383514404,-33.5640029907227,-32.8050003051758,-12.0450010299683,-7.26900053024292,0.32700002193451,15.5929508209229,-2.66400003433228,-19.9030513763428,-48.435001373291,-19.6369514465332,-9.22395038604736,-7.03005027770996,-1.38705003261566,12.3190507888794,6.463050365448,43.2720031738281,63.6079521179199,20.1190509796143,-4.29195022583008,-23.7490520477295,-39.901050567627,-30.211051940918,5.57205009460449,71.2030563354492,39.5119514465332,9.41595077514648,-7.30305051803589,-16.4899501800537,-37.7509536743164,-40.8070526123047,37.0170021057129,35.6980514526367,10.5930004119873,5.23995018005371,-4.16595029830933,-28.8010520935059,-4.38705015182495,2.0500500202179,55.9909515380859,18.9300003051758,8.00895023345947,4.12200021743774,2.24895000457764,-24.8689517974854,-15.4609508514404,SHAKE
0.46653750538826,13.1990375518799,16.3735008239746,4.4598126411438,-1.85776245594025,-18.4124870300293,-22.6756744384766,-7.51836252212524,1.09889996051788,14.8900127410889,17.2180252075195,5.76166248321533,1.31436252593994,-16.4124126434326,-21.0480880737305,-6.80735015869141,-18.3691749572754,-14.4196252822876,-4.67926263809204,0.65243750810623,6.48271226882935,15.4995498657227,12.9167499542236,-6.67397499084473,-18.3261375427246,-12.8005628585815,-4.6660623550415,-0.32312500476837,7.47546243667603,13.8496875762939,6.42950010299683,19.3883247375488,14.688024520874,0.78787499666214,-1.04252505302429,-12.8210496902466,-18.2125625610352,-5.62141227722168,4.52883768081665,18.1267623901367,15.341287612915,0.91355001926422,-1.16324996948242,-12.3766498565674,-20.0516242980957,-38.7540016174316,-18.4420509338379,-6.72795009613037,-7.96095037460327,-3.66705012321472,11.4919509887695,11.5860004425049,-28.8679504394531,-38.5770034790039,-17.3159999847412,-7.36005020141602,-6.30405044555664,0.39900001883507,2.82495021820068,9.21195030212402,60.6019515991211,46.2990036010742,10.7880001068115,-3.88305020332336,-15.2329511642456,-37.2810020446777,-42.0499534606934,-6.11505031585693,57.4530029296875,44.1439514160156,12.3259506225586,-2.57505011558533,-9.74805068969727,-12.2029504776001,-20.3790016174316,47.2320022583008,29.5759506225586,7.90395021438599,3.33900022506714,2.19405007362366,-20.1270008087158,-19.8150005340576,8.99295043945313,58.2900009155273,26.3449516296387,6.59805011749268,2.16495013237,-0.12600000202656,-5.59605026245117,-7.58400058746338,SHAKE
14.8900127410889,17.2180252075195,5.76166248321533,1.31436252593994,-16.4124126434326,-21.0480880737305,-9.07898712158203,-3.62463736534119,7.11686229705811,21.4611377716064,19.9804000854492,7.06969976425171,2.46908760070801,-12.6321249008179,-19.1384868621826,-18.3261375427246,-12.8005628585815,-4.6660623550415,-0.32312500476837,7.47546243667603,13.8496875762939,18.0952739715576,9.53438758850098,-16.117338180542,-19.342399597168,-6.27742481231689,-3.29133749008179,0.15853749215603,8.2575626373291,20.4513378143311,18.1267623901367,15.341287612915,0.91355001926422,-1.16324996948242,-12.3766498565674,-20.0516242980957,-9.71932506561279,-0.21876250207424,4.18838739395142,18.0573253631592,15.5795745849609,2.01698756217957,0.45622500777245,-10.6543245315552,-23.7626132965088,-17.3159999847412,-7.36005020141602,-6.30405044555664,0.39900001883507,2.82495021820068,9.21195030212402,13.2220506668091,-16.9330501556396,-33.9210014343262,-20.4949512481689,-9.79605007171631,-8.12700080871582,-2.67105007171631,17.2860012054443,11.3509502410889,44.1439514160156,12.3259506225586,-2.57505011558533,-9.74805068969727,-12.2029504776001,-20.3790016174316,-27.670051574707,-12.4140005111694,43.8490524291992,45.4630508422852,22.2130508422852,4.5130500793457,-11.5560007095337,-28.9489517211914,-32.8240509033203,26.3449516296387,6.59805011749268,2.16495013237,-0.12600000202656,-5.59605026245117,-7.58400058746338,-12.82200050354,8.18400001525879,40.9810523986816,17.8090515136719,10.0260000228882,2.44995021820068,-1.84995007514954,-15.7320003509521,-12.2280006408691,SHAKE
5.13342475891113,17.6270866394043,16.5193881988525,4.64337491989136,-0.05981250107288,-15.2543878555298,-28.4547996520996,-13.2331371307373,5.7947998046875,14.3655872344971,11.9706125259399,2.77172493934631,-5.70556259155273,-22.5216751098633,-19.359037399292,-11.4533376693726,-17.5569629669189,-7.97156238555908,-3.54364991188049,-2.64288759231567,-1.60434997081757,14.1197376251221,11.0820875167847,-14.9391002655029,-17.5862503051758,-8.0144624710083,-3.23248744010925,-0.70771247148514,10.3199253082275,15.0229749679565,4.80438756942749,20.2886753082275,17.8906745910645,2.8949248790741,0.2774749994278,-7.79281234741211,-16.3898620605469,-7.92990016937256,10.9806127548218,20.4769115447998,12.23557472229,0.73315000534058,-4.66757488250732,-18.7204875946045,-14.4369497299194,-33.5160026550293,-12.5550003051758,-7.17795038223267,-6.5029501914978,-1.44195008277893,22.7080516815186,-2.05305004119873,-29.8519515991211,-24.0250511169434,-12.9550504684448,-8.69400024414063,-7.31505012512207,3.38295006752014,20.2720508575439,-27.5170516967773,44.3380508422852,31.5889511108398,17.4630012512207,4.5130500793457,-11.6590509414673,-33.7720527648926,-36.2560501098633,18.8910007476807,48.2389526367188,32.8199996948242,8.94705009460449,-9.22800064086914,-34.5750007629395,-50.0539512634277,-19.9650001525879,34.8360023498535,12.3390007019043,14.0970010757446,6.51405048370361,3.882000207901,-29.6089515686035,-15.7410011291504,30.6520519256592,37.4410514831543,22.7770519256592,12.7800006866455,7.22295045852661,-4.40295028686523,-34.5180015563965,6.52605009078979,SHAKE
-13.2331371307373,5.7947998046875,14.3655872344971,11.9706125259399,2.77172493934631,-5.70556259155273,-22.5216751098633,-19.359037399292,-1.38462495803833,11.9443502426147,16.4887256622314,8.29262542724609,-0.7958499789238,-18.553150177002,-20.1559867858887,11.0820875167847,-14.9391002655029,-17.5862503051758,-8.0144624710083,-3.23248744010925,-0.70771247148514,10.3199253082275,15.0229749679565,-0.87064999341965,-16.2010746002197,-13.9194002151489,-5.01338768005371,1.45488750934601,7.33301258087158,15.8736877441406,-7.92990016937256,10.9806127548218,20.4769115447998,12.23557472229,0.73315000534058,-4.66757488250732,-18.7204875946045,-14.4369497299194,2.37558746337891,18.6147499084473,18.5690994262695,2.29239988327026,-1.22567498683929,-17.9987506866455,-20.0182132720947,-29.8519515991211,-24.0250511169434,-12.9550504684448,-8.69400024414063,-7.31505012512207,3.38295006752014,20.2720508575439,-27.5170516967773,-36.9910507202148,-25.359001159668,-14.413950920105,-8.97705078125,-2.20395016670227,23.6449508666992,-10.1740503311157,18.8910007476807,48.2389526367188,32.8199996948242,8.94705009460449,-9.22800064086914,-34.5750007629395,-50.0539512634277,-19.9650001525879,49.2120018005371,53.7289543151855,18.0960006713867,-7.4850001335144,-25.3350009918213,-48.1879539489746,-37.3549499511719,30.6520519256592,37.4410514831543,22.7770519256592,12.7800006866455,7.22295045852661,-4.40295028686523,-34.5180015563965,6.52605009078979,52.8130531311035,17.1289501190186,11.4889507293701,5.46300029754639,1.44405007362366,-31.9410018920898,-4.83705043792725,SHAKE
-11.0778245925903,-24.5510368347168,-13.9152746200562,0.64762496948242,12.5914249420166,17.4624996185303,7.26522493362427,-2.33378744125366,-18.7604999542236,-22.177375793457,-2.37558746337891,10.8024120330811,17.2020740509033,7.80669975280762,-1.02464997768402,2.60383749008179,14.493462562561,13.8153123855591,-5.18718767166138,-17.4310131072998,-13.831262588501,-4.67513751983643,0.66398751735687,4.59497499465942,15.3627376556396,1.1119624376297,-19.5445251464844,-20.0711498260498,-6.75234985351563,0.53294998407364,-5.40581226348877,-19.4200878143311,-13.4267377853394,3.15287494659424,18.6128253936768,17.3861865997314,1.24244999885559,-0.80629998445511,-12.4900875091553,-16.3583755493164,2.70187497138977,15.7880249023438,14.5553369522095,-0.00728749996051,-0.43711251020432,10.9609508514404,10.2850503921509,-22.3770008087158,-32.2780532836914,-32.2780532836914,-16.5240001678467,-10.1479501724243,-5.80395030975342,21.7480506896973,-12.9670505523682,-26.1970520019531,-20.1499500274658,-8.47395038604736,-7.48695039749146,4.48395013809204,-34.3399505615234,-42.9090003967285,-10.4400005340576,41.5020027160645,55.9579544067383,19.3500003814697,-5.30505037307739,-25.7659511566162,-49.620002746582,-34.1749534606934,42.9370536804199,53.8600540161133,17.0230503082275,-6.72495031356812,-25.312952041626,-13.9570503234863,-23.0560512542725,11.5729503631592,35.0869522094727,31.3530006408691,14.0560503005981,11.9730005264282,5.46105003356934,-47.4160537719727,-12.5490007400513,50.2399520874023,36.7800025939941,13.0980005264282,5.16600036621094,-5.13600015640259,SHAKE
-3.5454375743866,10.7399873733521,19.7136497497559,13.0765247344971,2.23451256752014,-15.7608003616333,-16.0635757446289,0.81853747367859,7.97114992141724,19.382963180542,18.9814624786377,4.75928735733032,-13.8800745010376,-26.7231254577637,-16.6211376190186,7.31307506561279,-19.3615131378174,-22.5308876037598,-7.71430015563965,1.50837504863739,18.5895881652832,26.9687004089355,9.01876258850098,-17.7430000305176,-18.4491996765137,-7.50859975814819,-2.50277495384216,3.55410003662109,11.8735370635986,15.1511249542236,0.80107498168945,14.6761999130249,14.89963722229,-0.42583748698235,-0.85098749399185,-15.5494623184204,-19.3606872558594,-3.6342625617981,10.1433753967285,17.8785743713379,6.98307514190674,-0.89223748445511,-4.68297481536865,-18.9213752746582,-13.2042627334595,-26.4940509796143,-26.7790508270264,-14.7229509353638,-8.24595069885254,-3.73395013809204,22.981050491333,-4.5130500793457,-27.4450511932373,-41.7169532775879,-26.9779510498047,-10.2990007400513,-4.95300006866455,11.8009510040283,16.723051071167,-24.5800514221191,32.5300521850586,52.0350036621094,24.6870002746582,0.81495004892349,-20.7750015258789,-41.0130004882813,-35.7750015258789,14.812050819397,60.5620536804199,36.9660034179688,4.24500036239624,-16.5550498962402,-35.0470504760742,-47.1970520019531,-18.3319511413574,37.3429527282715,39.1680030822754,7.16595029830933,2.11005020141602,-2.56605005264282,-32.2770004272461,-1.25895011425018,25.8490505218506,35.1420021057129,8.11395072937012,10.6990509033203,8.31599998474121,-11.3590507507324,-30.5119514465332,12.118950843811,SHAKE
-0.88577497005463,13.657600402832,18.7123756408691,9.23738765716553,-4.06037521362305,-22.1806755065918,-22.9228992462158,-6.64592504501343,3.23427486419678,14.1658000946045,17.2118377685547,7.83763742446899,-3.92933750152588,-20.5853996276855,-20.6105632781982,-3.26466250419617,-18.6914749145508,-14.6243619918823,-6.50883769989014,2.06800007820129,5.04116249084473,18.2782878875732,16.1952991485596,-15.4182872772217,-19.8192501068115,-8.49076271057129,-4.0728874206543,2.26737499237061,3.38030004501343,13.1885871887207,3.14820003509521,18.9575366973877,17.3049240112305,0.14217500388622,-0.37881249189377,-11.192774772644,-15.3278121948242,-3.27854990959167,6.62021255493164,15.9182376861572,10.2064876556396,-0.14519999921322,-0.89938747882843,-12.4587373733521,-17.1077499389648,-38.5770034790039,-29.9329509735107,-13.1869506835938,-10.4119501113892,-5.16600036621094,25.6950016021729,-0.96105003356934,-42.5809516906738,-37.935001373291,-22.4850006103516,-9.56400012969971,-6.55995035171509,2.10900020599365,7.2049503326416,10.993950843811,54.3250541687012,54.1879539489746,14.8380002975464,-7.03005027770996,-25.3039512634277,-45.3979530334473,-50.2050018310547,-1.80405008792877,52.162052154541,42.1579513549805,7.70400047302246,-8.90295028686523,-17.0839500427246,-14.4210004806519,-17.3929500579834,42.4039535522461,20.451000213623,15.5490007400513,6.45705032348633,7.18305015563965,-40.8630027770996,-15.8730010986328,38.3250007629395,54.178050994873,22.8150005340576,9.76200008392334,5.26200008392334,1.63305008411407,-7.30905055999756,-6.63300037384033,SHAKE
14.1658000946045,17.2118377685547,7.83763742446899,-3.92933750152588,-20.5853996276855,-20.6105632781982,-12.2053251266479,-6.43499994277954,5.24026250839233,16.012149810791,16.3882122039795,7.91174983978271,-2.22172498703003,-15.3564128875732,-12.444299697876,-19.8192501068115,-8.49076271057129,-4.0728874206543,2.26737499237061,3.38030004501343,13.1885871887207,24.4673004150391,10.5729246139526,-20.6387500762939,-25.5701866149902,-8.58866214752197,-4.30237483978271,5.11280012130737,17.7742118835449,17.2185745239258,15.9182376861572,10.2064876556396,-0.14519999921322,-0.89938747882843,-12.4587373733521,-17.1077499389648,-6.73722505569458,-1.08955001831055,6.24305009841919,20.1907749176025,13.8293371200562,-0.1205874979496,-1.12475001811981,-23.3732128143311,-23.1785125732422,-22.4850006103516,-9.56400012969971,-6.55995035171509,2.10900020599365,7.2049503326416,10.993950843811,15.5329504013062,-21.3229503631592,-46.1359519958496,-28.1110515594482,-12.8419504165649,-4.93395042419434,3.58605027198792,23.1300010681152,-9.3550500869751,42.1579513549805,7.70400047302246,-8.90295028686523,-17.0839500427246,-14.4210004806519,-17.3929500579834,-24.6640510559082,-13.0360507965088,51.3649520874023,39.7630500793457,12.7069501876831,-5.17095041275024,-24.3379516601563,-39.7309532165527,-26.2159519195557,22.8150005340576,9.76200008392334,5.26200008392334,1.63305008411407,-7.30905055999756,-6.63300037384033,-12.0750007629395,0.43095001578331,46.3480529785156,16.5570011138916,2.62995004653931,0.38100001215935,-3.22305011749268,-23.7769508361816,0.17505000531673,SHAKE
0.66371250152588,13.0039253234863,18.3273754119873,7.19922494888306,-2.67781257629395,-19.9724254608154,-21.1503868103027,-4.20034980773926,3.48328757286072,14.9803495407104,21.1938381195068,10.4462871551514,-6.04628753662109,-22.1087627410889,-20.1928367614746,-7.18506240844727,-20.7879371643066,-18.5117626190186,-6.52148723602295,4.40646266937256,11.0149869918823,22.1230621337891,15.3705749511719,-16.2563495635986,-19.2192001342773,-9.94785022735596,-6.86950016021729,5.89820003509521,7.65723752975464,17.5125503540039,3.75911259651184,19.0522747039795,15.750075340271,-0.48289999365807,-0.20377500355244,-14.2491245269775,-21.026912689209,-6.16797494888306,5.84443759918213,19.9086246490479,14.7353248596191,-0.17201249301434,-0.4160749912262,-16.1324615478516,-21.3618621826172,-25.9620018005371,-20.0800514221191,-9.01005077362061,-9.71700000762939,-5.11905002593994,24.6360015869141,5.65605020523071,-35.3719520568848,-35.2099533081055,-30.3310508728027,-14.542950630188,-9.29805088043213,-3.93105030059814,27.0810012817383,-1.88505005836487,52.1290512084961,51.7050018310547,16.3300514221191,-1.00905001163483,-20.0179500579834,-44.0040016174316,-49.0380020141602,-0.34995001554489,56.8830032348633,54.9430541992188,14.1769504547119,-6.11700010299683,-24.5110511779785,-44.8519515991211,-37.7410507202148,32.5960502624512,22.6309509277344,6.39705038070679,3.8580002784729,3.67905020713806,-22.431001663208,-7.42095041275024,25.7899513244629,30.6160507202148,12.7030506134033,6.2440505027771,7.09395027160645,5.37000036239624,-27.0390014648438,-3.6870002746582,SHAKE
0.81042498350143,12.8298501968384,18.0828990936279,5.41956233978271,-6.63066244125366,-27.0208129882813,-26.136137008667,-4.70896244049072,3.30563759803772,15.4819498062134,17.4252376556396,3.57678747177124,-12.7720994949341,-23.0766258239746,-14.4325494766235,-15.250262260437,-22.8010749816895,-15.2048873901367,-7.67208766937256,2.35523748397827,10.0912628173828,19.4939250946045,7.32998752593994,-17.8866882324219,-19.3206748962402,-11.7386503219604,-3.35719990730286,7.45648765563965,11.0206251144409,18.6205253601074,7.77727508544922,21.6059246063232,14.017162322998,-0.23938749730587,1.06782495975494,-13.7589378356934,-14.0945749282837,1.23199999332428,14.7233619689941,20.2919750213623,6.26257514953613,-0.39985001087189,-3.07051253318787,-18.9168376922607,-16.8419628143311,-26.3980503082275,-18.3919506072998,-6.52695035934448,-5.02800035476685,1.29705011844635,19.5780010223389,-12.6769504547119,-28.1659507751465,-30.4840507507324,-24.3960018157959,-14.0740509033203,-11.2830009460449,-0.46005001664162,21.7020015716553,-19.0170001983643,56.7889518737793,49.5210037231445,11.3029508590698,-6.33000040054321,-28.5439510345459,-43.2520523071289,-30.6400508880615,24.2839508056641,63.6559524536133,45.1570510864258,8.76195049285889,-12.2599506378174,-38.6419525146484,-53.8549537658691,-42.0330009460449,22.9560012817383,27.8449516296387,8.86395072937012,5.85795021057129,2.40495014190674,-29.4630012512207,0.50505000352859,16.5400505065918,31.6549510955811,9.48705005645752,9.56100082397461,9.46305084228516,-0.8320500254631,-32.9860534667969,0.99600005149841,SHAKE
3.30563759803772,15.4819498062134,17.4252376556396,3.57678747177124,-12.7720994949341,-23.0766258239746,-14.4325494766235,-2.16177487373352,5.85296249389648,16.5540370941162,16.8709754943848,5.11527490615845,-11.1292495727539,-24.097562789917,-15.4160871505737,-17.8866882324219,-19.3206748962402,-11.7386503219604,-3.35719990730286,7.45648765563965,11.0206251144409,18.6205253601074,7.13927507400513,-20.6098747253418,-17.7810878753662,-7.13831233978271,-2.07515001296997,8.06588745117188,13.3487749099731,14.7025995254517,14.7233619689941,20.2919750213623,6.26257514953613,-0.39985001087189,-3.07051253318787,-18.9168376922607,-16.8419628143311,0.01251249946654,12.3550624847412,16.1573505401611,3.87076258659363,-0.78292500972748,-2.50635004043579,-20.6490631103516,-17.2738494873047,-30.4840507507324,-24.3960018157959,-14.0740509033203,-11.2830009460449,-0.46005001664162,21.7020015716553,-19.0170001983643,-37.5109519958496,-32.3830528259277,-23.076000213623,-12.1720504760742,-8.86905002593994,7.80405044555664,22.0710010528564,-23.2819519042969,63.6559524536133,45.1570510864258,8.76195049285889,-12.2599506378174,-38.6419525146484,-53.8549537658691,-42.0330009460449,28.3150520324707,55.8529510498047,36.0990028381348,6.08895015716553,-10.2610502243042,-36.0240020751953,-53.7660026550293,-17.6320514678955,31.6549510955811,9.48705005645752,9.56100082397461,9.46305084228516,-0.8320500254631,-32.9860534667969,0.99600005149841,36.6580505371094,46.4110527038574,14.4829511642456,6.36405038833618,3.6739501953125,4.35900020599365,-27.4549522399902,19.3729515075684,SHAKE
0.89045000076294,6.54183769226074,20.7861499786377,12.0383996963501,-9.3596248626709,-21.1991996765137,-18.0749244689941,-5.93601226806641,2.09481239318848,14.9587621688843,20.9125118255615,9.61826229095459,-6.66063737869263,-26.4367122650146,-27.1185741424561,-12.8627128601074,-13.153525352478,-15.9214000701904,-8.96087455749512,5.06508731842041,5.10372495651245,11.176962852478,11.7086753845215,-11.9230375289917,-15.8647499084473,-11.3172121047974,-8.13546276092529,5.75588750839233,2.77846240997314,12.4756498336792,7.15481233596802,22.7970867156982,15.6781625747681,-0.35653749108315,0.26248750090599,-12.2534503936768,-20.6960868835449,-7.22837495803833,9.08696269989014,21.2249126434326,12.7351121902466,-0.4809750020504,0.57969999313354,-11.773024559021,-16.597900390625,-38.5290031433105,-36.3400535583496,-24.9250507354736,-14.0380506515503,-2.81505012512207,19.1610012054443,-6.05700016021729,-38.2630500793457,-26.1370506286621,-21.0070514678955,-13.2109508514404,-6.59100008010864,4.09905004501343,15.364951133728,-6.98895025253296,39.2170524597168,49.8390007019043,21.0889511108398,-8.4190502166748,-26.8650016784668,-49.8070526123047,-46.0470008850098,15.6019506454468,55.0080032348633,49.2979507446289,18.1030502319336,-8.65095043182373,-22.8490505218506,-42.984001159668,-36.3880500793457,14.0040006637573,20.9370002746582,9.39795017242432,6.22695016860962,9.52500057220459,-17.1780014038086,-11.8969507217407,31.3270511627197,23.2480506896973,9.95595073699951,5.14200019836426,11.0460004806519,5.44605016708374,-13.0470008850098,-3.94800019264221,SHAKE
2.09481239318848,14.9587621688843,20.9125118255615,9.61826229095459,-6.66063737869263,-26.4367122650146,-27.1185741424561,-8.52431201934814,0.33302500844002,11.5059995651245,20.1753749847412,6.47308731079102,-12.1875877380371,-25.1619491577148,-23.0797882080078,-11.9230375289917,-15.8647499084473,-11.3172121047974,-8.13546276092529,5.75588750839233,2.77846240997314,12.4756498336792,11.5476627349854,-10.5686626434326,-13.2826375961304,-16.4895496368408,-7.38828754425049,5.74667501449585,-0.22742499411106,10.2368745803833,9.08696269989014,21.2249126434326,12.7351121902466,-0.4809750020504,0.57969999313354,-11.773024559021,-16.597900390625,-2.82205009460449,12.5416498184204,24.5348129272461,12.6614122390747,-0.59537500143051,-0.14121249318123,-10.9290494918823,-15.1054744720459,-26.1370506286621,-21.0070514678955,-13.2109508514404,-6.59100008010864,4.09905004501343,15.364951133728,-6.98895025253296,-24.9709510803223,-33.400951385498,-29.3490009307861,-18.0090007781982,-4.60395002365112,3.76800012588501,12.5940008163452,-3.61200022697449,55.0080032348633,49.2979507446289,18.1030502319336,-8.65095043182373,-22.8490505218506,-42.984001159668,-36.3880500793457,16.326000213623,55.9849510192871,53.0629539489746,13.6549510955811,-13.0870504379272,-29.2360515594482,-36.987003326416,-23.5909519195557,23.2480506896973,9.95595073699951,5.14200019836426,11.0460004806519,5.44605016708374,-13.0470008850098,-3.94800019264221,12.3780002593994,18.5729999542236,9.00795078277588,9.59895038604736,14.4300003051758,12.6000003814697,-24.3780002593994,-9.86595058441162,SHAKE
-2.71163749694824,10.574987411499,19.811824798584,8.42819976806641,-13.0974245071411,-29.7598114013672,-24.0861492156982,-6.09537506103516,8.93021202087402,18.6847381591797,14.8748874664307,-1.66622495651245,-22.7133502960205,-26.9432621002197,-13.4268751144409,-11.4060373306274,-22.8069877624512,-20.5231132507324,-9.8632869720459,11.3352251052856,4.1397123336792,12.8286123275757,9.31246280670166,-14.7591123580933,-16.5793380737305,-15.9841003417969,2.00364995002747,8.65246200561523,9.38891220092773,15.9347372055054,13.1493997573853,22.7394752502441,8.09049987792969,-2.77736258506775,-1.13863754272461,-16.4493999481201,-16.5805740356445,0.77673751115799,24.375862121582,23.4764747619629,0.57254999876022,-0.55825001001358,-9.67367458343506,-21.2755126953125,-10.4141120910645,-24.6070518493652,-26.0680503845215,-10.8469505310059,-2.26800012588501,5.14095020294189,15.327000617981,-13.0050010681152,-26.7889518737793,-30.4170017242432,-17.881950378418,-6.51000022888184,-3.46095013618469,7.70595026016235,5.09505033493042,-23.7180004119873,55.3909530639648,47.5759506225586,11.5759506225586,-10.8949508666992,-35.0970001220703,-40.8690032958984,-16.3889999389648,47.6860504150391,60.0439529418945,26.0209503173828,-1.17405009269714,-15.1920003890991,-38.0140533447266,-41.8800010681152,-8.67300033569336,18.4609508514404,0.68700003623962,7.11795043945313,6.35205030441284,5.5900502204895,-16.4839515686035,-0.61395001411438,25.0519504547119,3.65700006484985,3.09705018997192,9.75495052337646,6.21000051498413,-3.20295023918152,-17.2650012969971,9.56595039367676,SHAKE
8.93021202087402,18.6847381591797,14.8748874664307,-1.66622495651245,-22.7133502960205,-26.9432621002197,-13.4268751144409,-1.92142498493195,14.398175239563,21.1719741821289,9.75768756866455,-2.78478741645813,-21.4680118560791,-25.3636627197266,-8.6378870010376,-14.7591123580933,-16.5793380737305,-15.9841003417969,2.00364995002747,8.65246200561523,9.38891220092773,15.9347372055054,-4.1490626335144,-18.9536876678467,-15.0948877334595,-9.86081218719482,3.36586236953735,7.38663768768311,19.3650875091553,16.0235614776611,24.375862121582,23.4764747619629,0.57254999876022,-0.55825001001358,-9.67367458343506,-21.2755126953125,-10.4141120910645,3.73037505149841,20.5627117156982,17.1235618591309,-1.01296246051788,0.06462500244379,-9.13398742675781,-18.5989379882813,-7.97582483291626,-30.4170017242432,-17.881950378418,-6.51000022888184,-3.46095013618469,7.70595026016235,5.09505033493042,-23.7180004119873,-24.7530002593994,-25.0240516662598,-12.8350505828857,-6.66300010681152,-5.26200008392334,9.76095008850098,4.79295015335083,-38.4169502258301,60.0439529418945,26.0209503173828,-1.17405009269714,-15.1920003890991,-38.0140533447266,-41.8800010681152,-8.67300033569336,51.0100517272949,60.495002746582,20.4000015258789,-3.81300020217896,-15.3430509567261,-41.9779510498047,-51.7729530334473,-4.90305042266846,3.65700006484985,3.09705018997192,9.75495052337646,6.21000051498413,-3.20295023918152,-17.2650012969971,9.56595039367676,29.7750015258789,16.2480010986328,11.1970500946045,5.6980504989624,6.30900049209595,-11.2770004272461,-22.5769519805908,29.4640522003174,SHAKE
1.03303754329681,10.68443775177,19.1592502593994,12.8305377960205,-4.00606250762939,-23.6318492889404,-25.8027000427246,-9.41833782196045,1.86903750896454,15.9645748138428,23.1343746185303,10.2341251373291,-10.5290622711182,-26.3824005126953,-16.1101875305176,-13.3094501495361,-16.5068740844727,-11.8241748809814,-9.54043769836426,2.62157487869263,3.69682502746582,14.541862487793,13.8645372390747,-14.2115869522095,-18.0178623199463,-12.1450996398926,-6.12974977493286,7.51300001144409,15.4748001098633,19.2532997131348,5.67971229553223,20.1929740905762,16.0855751037598,0.16390000283718,-0.13832500576973,-9.51582527160645,-17.2715129852295,-6.68236255645752,6.03569984436035,18.2136631011963,11.3612127304077,-2.24963760375977,-0.11261250078678,-16.0149002075195,-15.4725999832153,-30.8359508514404,-30.8530521392822,-14.9190006256104,-9.29100036621094,-3.1279501914978,17.9160003662109,-4.49595022201538,-27.6010513305664,-27.1309509277344,-29.6700019836426,-20.1589508056641,-9.16394996643066,9.34605026245117,4.26705026626587,-7.61700057983398,53.3719520568848,53.7259521484375,18.6370506286621,-2.99895024299622,-18.6670513153076,-42.5430030822754,-42.0379524230957,1.2679500579834,53.7810020446777,48.4930534362793,17.5660514831543,-11.2210502624512,-36.1390533447266,-40.0140037536621,-17.6680507659912,20.1400508880615,13.5030002593994,9.60900020599365,6.98895025253296,9.94905090332031,-22.0690517425537,-12.256950378418,29.5860023498535,27.9400520324707,15.5370006561279,6.97395038604736,13.9650011062622,-7.79700040817261,-21.2400016784668,-1.65900003910065,SHAKE
1.86903750896454,15.9645748138428,23.1343746185303,10.2341251373291,-10.5290622711182,-26.3824005126953,-16.1101875305176,-3.46596240997314,3.81232500076294,16.037036895752,13.7876749038696,-0.78113746643066,-20.1463623046875,-25.4710502624512,-11.9095621109009,-14.2115869522095,-18.0178623199463,-12.1450996398926,-6.12974977493286,7.51300001144409,15.4748001098633,19.2532997131348,12.5789127349854,-22.3331623077393,-30.4159622192383,-11.3576374053955,-0.26551249623299,4.96333742141724,1.61287498474121,8.67693710327148,6.03569984436035,18.2136631011963,11.3612127304077,-2.24963760375977,-0.11261250078678,-16.0149002075195,-15.4725999832153,2.15668749809265,12.2853498458862,11.4009494781494,-3.01413750648499,-1.56832504272461,-6.17113733291626,-16.014762878418,-5.57782506942749,-27.1309509277344,-29.6700019836426,-20.1589508056641,-9.16394996643066,9.34605026245117,4.26705026626587,-7.61700057983398,-19.9560012817383,-31.5019512176514,-28.6810512542725,-6.92895030975342,0.13800001144409,21.5230503082275,1.93395006656647,-34.1080513000488,53.7810020446777,48.4930534362793,17.5660514831543,-11.2210502624512,-36.1390533447266,-40.0140037536621,-17.6680507659912,25.4340019226074,56.0040016174316,32.0970001220703,-4.04505014419556,-23.2630519866943,-48.7939529418945,-34.4410514831543,18.6940517425537,27.9400520324707,15.5370006561279,6.97395038604736,13.9650011062622,-7.79700040817261,-21.2400016784668,-1.65900003910065,25.2030010223389,39.5920524597168,21.9169502258301,5.05800008773804,4.78305006027222,-12.1660509109497,-9.03299999237061,11.3860502243042,SHAKE
-3.46596240997314,3.81232500076294,16.037036895752,13.7876749038696,-0.78113746643066,-20.1463623046875,-25.4710502624512,-11.9095621109009,-2.73611259460449,11.0420751571655,19.5951251983643,6.14900016784668,-15.8441247940063,-23.5592498779297,-12.5911502838135,12.5789127349854,-22.3331623077393,-30.4159622192383,-11.3576374053955,-0.26551249623299,4.96333742141724,1.61287498474121,8.67693710327148,5.93381261825562,-11.5292377471924,-18.1711750030518,-7.08729982376099,3.64677500724792,1.38806247711182,4.03947496414185,2.15668749809265,12.2853498458862,11.4009494781494,-3.01413750648499,-1.56832504272461,-6.17113733291626,-16.014762878418,-5.57782506942749,13.8413000106812,25.918062210083,13.8542251586914,-1.07772505283356,-5.13191270828247,-20.1386623382568,-16.7876491546631,-19.9560012817383,-31.5019512176514,-28.6810512542725,-6.92895030975342,0.13800001144409,21.5230503082275,1.93395006656647,-34.1080513000488,-39.457950592041,-36.9079513549805,-14.94105052948,-4.8139500617981,13.2220506668091,21.2209510803223,-30.4080009460449,25.4340019226074,56.0040016174316,32.0970001220703,-4.04505014419556,-23.2630519866943,-48.7939529418945,-34.4410514831543,18.6940517425537,62.3080520629883,44.2780532836914,5.54295015335083,-16.135950088501,-48.8320541381836,-48.72900390625,3.12900018692017,25.2030010223389,39.5920524597168,21.9169502258301,5.05800008773804,4.78305006027222,-12.1660509109497,-9.03299999237061,11.3860502243042,20.7289505004883,3.61695027351379,8.11395072937012,15.5250005722046,-7.96695041656494,-4.19295024871826,3.18105006217957,SHAKE
-11.9095621109009,-2.73611259460449,11.0420751571655,19.5951251983643,6.14900016784668,-15.8441247940063,-23.5592498779297,-12.5911502838135,-2.50167489051819,15.3715372085571,20.0752754211426,5.71560001373291,-9.05891227722168,-24.2229614257813,-17.9755115509033,8.67693710327148,5.93381261825562,-11.5292377471924,-18.1711750030518,-7.08729982376099,3.64677500724792,1.38806247711182,4.03947496414185,1.67254996299744,-6.8451623916626,-8.44139957427979,-7.00452518463135,2.18790006637573,5.89476251602173,8.96596240997314,-5.57782506942749,13.8413000106812,25.918062210083,13.8542251586914,-1.07772505283356,-5.13191270828247,-20.1386623382568,-16.7876491546631,3.92149996757507,23.6511001586914,19.3067874908447,0.71280002593994,-2.8021125793457,-19.8917121887207,-18.9341621398926,-34.1080513000488,-39.457950592041,-36.9079513549805,-14.94105052948,-4.8139500617981,13.2220506668091,21.2209510803223,-30.4080009460449,-34.6420516967773,-24.2479515075684,-16.2550506591797,-10.2010507583618,10.5060005187988,23.4940509796143,-28.7140522003174,18.6940517425537,62.3080520629883,44.2780532836914,5.54295015335083,-16.135950088501,-48.8320541381836,-48.72900390625,3.12900018692017,65.2180557250977,51.870002746582,15.399001121521,-13.1800508499146,-43.2499504089355,-58.0720520019531,-30.0000019073486,11.3860502243042,20.7289505004883,3.61695027351379,8.11395072937012,15.5250005722046,-7.96695041656494,-4.19295024871826,3.18105006217957,29.9830513000488,9.71700000762939,11.4289503097534,9.45600032806396,-3.4740002155304,-6.94695043563843,6.03105020523071,SHAKE
-2.34850001335144,8.41898727416992,17.4073619842529,14.0296745300293,1.99567496776581,-18.2558746337891,-22.9543876647949,-6.6261248588562,2.9779748916626,13.3024377822876,17.913911819458,8.63321208953857,-7.7584376335144,-21.3028755187988,-14.0434246063232,1.15761244297028,-10.9397745132446,-8.37787532806396,-7.27416229248047,-1.58949995040894,3.57321238517761,8.70650005340576,6.84007501602173,-8.85445022583008,-9.75699996948242,-5.46383762359619,-4.11317491531372,2.30216240882874,6.62090015411377,8.95193767547607,1.78186249732971,20.3308868408203,20.8649368286133,4.20488739013672,-0.90364998579025,-11.7638120651245,-22.0360240936279,-9.72729969024658,8.48306274414063,19.3477630615234,13.2893753051758,0.32065001130104,-4.35764980316162,-20.0784378051758,-17.4873867034912,-44.8230018615723,-41.7169532775879,-22.3390502929688,-10.9339504241943,-10.8949508666992,32.3290519714355,1.77300012111664,-52.1880035400391,-52.1059532165527,-36.9150009155273,-17.1799507141113,-10.9980001449585,4.89900016784668,26.566951751709,-25.1650505065918,45.8989524841309,63.4159545898438,24.7060508728027,-0.65895003080368,-19.6420516967773,-60.0630035400391,-61.255054473877,3.10305023193359,62.6170539855957,46.5910530090332,6.65700054168701,-13.7050504684448,-40.9410018920898,-62.7979545593262,-40.6390533447266,32.8170013427734,12.3510007858276,7.7310004234314,8.04705047607422,9.13905048370361,-28.7730007171631,-5.15100002288818,26.5660514831543,42.0349502563477,13.113000869751,9.58500003814697,7.69995021820068,-1.52505004405975,-28.3080005645752,7.10805034637451,SHAKE
-0.47162500023842,9.61963748931885,17.9883003234863,14.1251001358032,0.47244998812675,-17.7887878417969,-16.8080005645752,-2.9470374584198,3.97787499427795,16.4587497711182,19.8584365844727,10.8440752029419,-15.134349822998,-29.309362411499,-10.5300245285034,-0.82774996757507,-12.999662399292,-9.32277488708496,-4.61092519760132,0.78911250829697,6.50292491912842,11.1126127243042,9.58828735351563,-12.2696752548218,-16.6196250915527,-7.89208745956421,-7.09527492523193,5.73402500152588,11.9537000656128,4.50106239318848,1.07167494297028,16.3560371398926,17.5674133300781,3.1933000087738,-1.57822501659393,-13.0934371948242,-19.2366619110107,-6.34576225280762,8.13573741912842,16.671875,8.01363754272461,-3.39432501792908,-4.8940372467041,-17.9294490814209,-14.6668500900269,-50.8710021972656,-51.2800521850586,-28.1899509429932,-18.3319511413574,-6.18900012969971,16.0620002746582,-0.12495000660419,-42.7950019836426,-42.0810012817383,-29.0280017852783,-12.6919507980347,-10.2270002365112,16.8160514831543,5.65605020523071,-30.328950881958,41.5189514160156,65.5170059204102,22.6699504852295,-6.45705032348633,-32.5030517578125,-50.3910026550293,-51.0930023193359,9.92805004119873,64.6570510864258,42.961051940918,6.65205049514771,-18.4440002441406,-51.634952545166,-55.1170539855957,-12.7990503311157,49.1430015563965,25.476001739502,12.5830507278442,7.60905027389526,4.87604999542236,-40.1350517272949,-11.026050567627,40.9050025939941,41.3620529174805,11.3170509338379,7.74795055389404,6.90000009536743,-28.5379505157471,-16.5769500732422,14.4829511642456,SHAKE
23.8849868774414,13.7849245071411,2.75536251068115,-17.5115871429443,-17.528636932373,-6.83223724365234,-19.7764873504639,-13.7707624435425,5.37363767623901,3.29298758506775,-3.67606258392334,-1.68753743171692,-1.08570003509521,0.42597499489784,1.85556244850159,-10.6312246322632,-7.66645002365112,-1.08418750762939,20.2735500335693,27.0366249084473,19.4544620513916,25.8614120483398,18.0394496917725,12.0795125961304,11.1076622009277,3.79733753204346,0.7206375002861,-1.0839124917984,-3.0830249786377,-4.71404981613159,13.0717124938965,-1.20229995250702,-0.89759999513626,-12.2259502410889,-18.7625617980957,-3.62518739700317,9.74118709564209,5.43647480010986,-22.3262882232666,-19.7828121185303,3.15919995307922,2.93246245384216,2.52670001983643,1.14881253242493,0.71843749284744,-13.5679502487183,-4.55295038223267,4.34100008010864,5.02800035476685,3.52395009994507,5.62905025482178,1.89300012588501,-9.48900032043457,-11.9470500946045,-5.22600030899048,-2.17305016517639,-0.67095005512238,0.4200000166893,1.07205009460449,1.96500015258789,16.0980014801025,-2.12505006790161,-10.6960506439209,-4.88895034790039,-0.79095005989075,-5.57295036315918,-2.4190502166748,16.1440505981445,24.3700504302979,17.7049503326416,11.6940002441406,7.45395040512085,5.34405040740967,5.5339503288269,6.04605007171631,11.368950843811,0.33495002985001,-11.1529502868652,-4.06995010375977,2.95305013656616,-3.91200017929077,-1.03800010681152,7.31700038909912,14.2890005111694,11.1079502105713,9.53700065612793,4.2199501991272,3.27405023574829,2.04795002937317,2.52900004386902,SHAKE
0.10395000129938,-0.76917499303818,-2.43773746490479,-2.29033756256104,-1.72837495803833,7.73107481002808,17.7027130126953,11.5209875106812,-11.5755748748779,-24.2746620178223,-10.8715753555298,-0.36093750596046,10.651162147522,21.4164505004883,11.4644746780396,-0.43037500977516,-2.72126245498657,-3.29119992256165,-1.86876249313354,-1.46630001068115,0.48427498340607,16.6713256835938,14.2817125320435,3.41219997406006,2.2152624130249,0.57846248149872,1.26884996891022,-6.7801251411438,-17.2528133392334,-12.3894376754761,0.68145000934601,0.9872499704361,1.84194993972778,2.48476243019104,3.04177498817444,3.93140006065369,14.6134996414185,8.65480041503906,-11.820050239563,-19.9450626373291,-13.9488248825073,-0.22522500157356,20.0435123443604,20.3286876678467,1.05820000171661,4.65495014190674,6.79305028915405,4.01295042037964,6.37905025482178,0.81105005741119,-17.1270008087158,-32.5990524291992,-15.5370006561279,-19.3110008239746,-5.66700029373169,-20.9260501861572,-15.5700006484985,-12.5020503997803,-12.8209505081177,-18.8280010223389,0.7219500541687,-9.10395050048828,-4.70895004272461,-10.651050567627,7.68705034255981,63.4930534362793,31.3620014190674,-40.0090522766113,-78.6550521850586,-61.642951965332,-14.521050453186,59.685001373291,60.2500534057617,1.38495004177094,-67.7820053100586,17.3929500579834,21.3040504455566,29.0059509277344,13.2829504013062,11.4310503005981,-5.11005020141602,12.0970506668091,0.34695002436638,17.7660007476807,-17.1109504699707,9.33105087280273,13.9459505081177,1.2720000743866,-11.5380001068115,37.875,SHAKE
21.4164505004883,11.4644746780396,-23.0382633209229,-25.6707000732422,-1.38586246967316,1.40978753566742,20.7971496582031,23.9772491455078,-3.42746257781982,-24.6872997283936,-17.1216373443604,-0.38609999418259,5.253737449646,22.2113380432129,17.4006252288818,-17.2528133392334,-12.3894376754761,2.15091252326965,5.23998737335205,4.00826263427734,-1.91111254692078,-9.53947448730469,-11.1263628005981,1.16283750534058,5.74158763885498,3.2184624671936,4.00729990005493,-1.34887504577637,-12.2504253387451,-12.1035747528076,20.3286876678467,1.05820000171661,-14.0350370407104,-18.3103256225586,-6.01232481002808,4.61436223983765,19.8379497528076,14.8670501708984,-5.63268756866455,-20.77294921875,-18.3860874176025,-3.09746241569519,16.0063743591309,22.0576114654541,5.87798738479614,-12.8209505081177,-18.8280010223389,6.98700046539307,-11.0680503845215,-14.4499502182007,-4.35495042800903,-19.3980007171631,-15.5580005645752,-11.0560503005981,1.21005010604858,-18.9310512542725,-8.59095001220703,-18.4420509338379,-24.1519508361816,-24.0300006866455,1.38495004177094,-67.7820053100586,-78.6379547119141,-30.6210021972656,17.1019515991211,61.4550018310547,40.6489524841309,-13.6159505844116,-78.6550521850586,-73.7170562744141,-14.0419502258301,29.613000869751,73.7100067138672,25.3210506439209,-52.7550010681152,-11.5380001068115,37.875,14.3389511108398,-0.15195000171661,10.9789505004883,9.04095077514648,-15.2740507125854,7.69995021820068,41.0839538574219,4.04295015335083,0.93195003271103,13.16100025177,-0.03000000119209,-13.5480003356934,31.642951965332,SHAKE
20.8323497772217,4.46242475509644,-25.0233497619629,-25.98268699646,-2.64385008811951,-0.48001250624657,17.7182502746582,23.3107872009277,2.23079991340637,-24.7922115325928,-21.6517124176025,-0.16362500190735,1.30776250362396,17.2317752838135,18.5095615386963,-15.5291128158569,-7.43352508544922,5.19626235961914,7.659987449646,6.17718744277954,0.39063748717308,-7.76545000076294,-10.4706249237061,-2.78932499885559,4.06023740768433,5.02768754959106,5.10125017166138,-0.79213750362396,-11.0684747695923,-11.8757371902466,21.4053115844727,-0.0086624994874,-12.4815626144409,-18.4658374786377,-8.62028789520264,4.15071249008179,21.1087245941162,16.1855373382568,-4.50023746490479,-18.7730121612549,-19.0639629364014,-5.17632484436035,12.4382495880127,22.4867496490479,9.14333724975586,-17.1490516662598,-19.5510005950928,13.2810010910034,-11.9230508804321,-21.6109504699707,-6.55305051803589,-24.7219505310059,-21.3420009613037,-9.60900020599365,11.0520009994507,-16.9669513702393,-15.1300506591797,-7.46805047988892,-22.9609508514404,-14.4420003890991,10.326000213623,-71.6710510253906,-78.6499557495117,-35.8230018615723,11.521050453186,55.7740516662598,48.5770530700684,-5.33400011062622,-78.6550521850586,-77.4190521240234,-15.9319505691528,23.6350517272949,65.3209533691406,24.9019508361816,-28.992000579834,-6.99000024795532,34.6680030822754,20.3910007476807,-2.81295013427734,4.58205032348633,20.6520004272461,-4.44705009460449,-9.97200012207031,44.8900527954102,7.72395038604736,-4.12095022201538,8.9209508895874,21.1000518798828,-3.38295006752014,-4.67895030975342,SHAKE
-24.0125865936279,-13.4888877868652,-25.3551368713379,-26.8424739837646,-5.40636253356934,-0.2579500079155,11.8831624984741,12.4129495620728,-3.0465874671936,-23.1534881591797,-21.0702247619629,-1.40552496910095,6.46621227264404,21.7039623260498,16.8220252990723,-0.16445000469685,0.19236250221729,-10.7512626647949,-8.59539985656738,2.66007494926453,2.44131255149841,9.36443710327148,6.86771249771118,-2.87649989128113,-14.2324876785278,-13.6379375457764,-1.10508751869202,5.48652505874634,7.54393768310547,1.7216374874115,14.4519376754761,-0.2895750105381,-7.65366268157959,-11.6928625106812,-6.00916242599487,2.91857504844666,21.3999500274658,16.9569129943848,-5.2065749168396,-13.5502128601074,-11.450587272644,-3.11547493934631,8.47879981994629,15.055700302124,4.54918766021729,-10.0570507049561,19.2900009155273,24.0780010223389,2.53995013237,-9.24795055389404,-13.9590005874634,-33.8110504150391,-16.2820510864258,29.0550022125244,16.0020008087158,-1.78200006484985,-11.0100002288818,-27.5790004730225,-34.2640533447266,-7.95900058746338,3.01200008392334,-62.6230545043945,-48.8010025024414,-16.0759506225586,4.59195041656494,33.514949798584,43.9590034484863,-13.0720510482788,-77.9490051269531,-49.876953125,-13.3930501937866,12.6420001983643,61.8760528564453,23.7210006713867,-43.9369506835938,2.51205015182495,34.873950958252,39.9660034179688,7.48905038833618,-6.44595050811768,-12.4549503326416,5.63595008850098,-12.9540004730225,58.2420043945313,29.5500011444092,-3.30405020713806,1.91100013256073,4.16295003890991,-5.05500030517578,3.56895017623901,SHAKE
20.1115741729736,3.63893747329712,-23.8049621582031,-24.5995750427246,-0.91025000810623,-1.78681254386902,14.7083749771118,18.9780254364014,-10.3448123931885,-26.4928131103516,-14.258749961853,-1.32962501049042,0.03684999793768,0.60939997434616,-0.18892499804497,-4.86351251602173,-4.05171251296997,-4.06106233596802,-2.72140002250671,2.72868752479553,1.46574997901917,-4.09103727340698,-6.03831243515015,-0.71596246957779,-6.69116258621216,-5.94921255111694,1.91592502593994,1.76866245269775,-2.12341237068176,-4.53117513656616,21.8707504272461,-1.93888747692108,-17.7988243103027,-19.1173114776611,-6.04821252822876,4.73385000228882,25.6012630462646,20.1185874938965,-6.07805013656616,-17.7460250854492,-13.928750038147,-2.38631248474121,16.8250503540039,22.3286247253418,3.32557487487793,-17.8740005493164,2.54700016975403,21.8050518035889,-3.94695019721985,-11.7859506607056,-24.0679512023926,-27.1530017852783,-11.4319505691528,25.8220520019531,8.32605075836182,-8.0310001373291,-14.8300504684448,-24.2860507965088,-18.4830017089844,3.86700010299683,-5.51595020294189,-77.920051574707,-70.2730560302734,-25.2649517059326,8.17995071411133,56.5620040893555,31.8480014801025,-26.4600009918213,-78.4680023193359,-45.3360023498535,-4.10100030899048,26.3490009307861,47.3629531860352,4.36199998855591,-67.3889999389648,-9.8230504989624,33.8560523986816,26.1679515838623,-4.05404996871948,1.54500007629395,-2.10900020599365,-7.02795028686523,-2.91600012779236,51.4069519042969,14.5690507888794,-6.43905019760132,-8.31405067443848,8.04705047607422,-6.3070502281189,21.1069507598877,SHAKE
0.60939997434616,-0.18892499804497,-24.9639492034912,-27.4052619934082,-2.14857506752014,-2.7916624546051,-27.6893367767334,-25.3582992553711,-17.5168132781982,-24.590087890625,-8.68903732299805,-0.78911250829697,7.28736257553101,10.6533622741699,4.14645004272461,-2.12341237068176,-4.53117513656616,-6.35126256942749,-5.55197477340698,0.41511249542236,0.72159999608994,6.59408760070801,5.85502481460571,1.4609375,-5.75932502746582,-5.34558725357056,1.61810004711151,0.6738874912262,-3.01977491378784,-4.85347509384155,22.3286247253418,3.32557487487793,-14.7104377746582,-17.6339626312256,-6.17746257781982,2.92545008659363,10.6848497390747,6.875,-7.99741268157959,-21.2631378173828,-15.4060497283936,-1.60434997081757,19.8889617919922,23.7432250976563,1.55484998226166,-18.4830017089844,3.86700010299683,18.025951385498,-1.82505011558533,-6.71400022506714,-21.9240016937256,-24.4030513763428,-8.08800029754639,17.590051651001,3.19605016708374,-5.66205024719238,-12.2940006256104,-33.6769523620605,-14.8969507217407,3.23700022697449,4.36199998855591,-67.3889999389648,-66.6610565185547,-23.776050567627,8.40495014190674,48.5599517822266,29.9170513153076,-31.045051574707,-78.5209503173828,-37.3770027160645,-5.35995006561279,27.8599510192871,50.2770042419434,0.37695002555847,-72.0810012817383,-6.3070502281189,21.1069507598877,27.3679504394531,1.01595008373261,-6.0799503326416,-16.2160511016846,-1.12200009822845,5.93505048751831,39.1319999694824,7.17300033569336,1.11600005626678,-8.37705039978027,-5.10000038146973,-9.76095008850098,33.985050201416,SHAKE
10.6533622741699,4.14645004272461,-20.3759880065918,-22.1531753540039,-0.61627501249313,-0.62975001335144,14.7618627548218,17.4194622039795,-16.4027881622314,-25.5561618804932,-7.82485008239746,-0.90186250209808,6.53317499160767,6.6559624671936,-1.36001253128052,-3.01977491378784,-4.85347509384155,-6.49412488937378,-5.13507509231567,1.25963747501373,0.95356249809265,-0.51810002326965,-2.0596125125885,0.09707500040531,-6.13098764419556,-6.63107490539551,1.08336246013641,1.57093751430511,-0.97212499380112,-2.19532489776611,23.7432250976563,1.55484998226166,-18.5451755523682,-21.1125755310059,-6.08794975280762,5.91799974441528,25.1487503051758,18.3419494628906,-8.72918701171875,-21.7149620056152,-14.9776000976563,-1.59802496433258,23.4584617614746,26.576000213623,-0.24241249263287,-14.8969507217407,3.23700022697449,19.5300006866455,-2.3449501991272,-11.122950553894,-27.0090007781982,-26.8270511627197,-9.10605049133301,21.3570003509521,4.0009503364563,-7.75305032730103,-17.1540012359619,-25.8550510406494,-19.5049514770508,-7.93995046615601,0.37695002555847,-72.0810012817383,-66.1480560302734,-22.6330509185791,11.2459506988525,55.8750038146973,28.6459522247314,-36.2659530639648,-78.5760040283203,-40.2409515380859,-0.24495001137257,33.469051361084,42.5149536132813,3.88305020332336,-70.0309524536133,-9.76095008850098,33.985050201416,34.7419509887695,1.66200006008148,-2.51400017738342,-9.83805084228516,-7.01205015182495,3.82695007324219,44.9160003662109,8.625,-6.46095037460327,-8.27400016784668,0.59400004148483,-4.96095037460327,27.8130016326904,SHAKE
-8.78281211853027,-8.30060005187988,-24.3424491882324,-16.3534240722656,-0.24227499961853,-11.2648248672485,-31.3472499847412,-19.6756992340088,-20.5759124755859,-2.98732495307922,-2.23547506332397,11.7790746688843,13.4542369842529,-11.0967998504639,-27.9708003997803,-1.88388752937317,2.08917498588562,-3.13637495040894,-6.85904979705811,-1.23860001564026,2.53137493133545,13.5833501815796,10.0023002624512,-2.08271241188049,-1.36812496185303,2.24248743057251,-0.19428749382496,-2.60809993743896,2.30614995956421,-1.82819998264313,19.4039993286133,-6.34507513046265,-23.1275005340576,-18.4897632598877,-2.08340001106262,16.1906242370605,13.0754251480103,-3.30769991874695,-13.8154497146606,-10.0517997741699,1.19996249675751,26.461462020874,25.3341007232666,-4.65574979782104,-18.1376247406006,-11.1370506286621,8.7480001449585,16.1599502563477,-8.97705078125,-13.9830007553101,-24.856050491333,-18.0330009460449,-8.66595077514648,25.0770015716553,-12.0139503479004,-20.9190006256104,-28.2589511871338,-11.6209506988525,-2.5530002117157,8.54594993591309,-15.1219511032104,-78.6550521850586,-51.3760528564453,-11.3980503082275,21.4290008544922,51.0580520629883,16.135950088501,-46.4680519104004,-78.4870529174805,9.60795021057129,53.1300010681152,36.4680023193359,-17.0700016021729,-78.6550521850586,-54.7770042419434,-5.66595029830933,38.9839515686035,16.1209506988525,-2.23095011711121,-10.6860008239746,-12.6520509719849,-11.6680507659912,23.2050018310547,48.435001373291,-7.02405023574829,-10.0480508804321,1.44900012016296,0.2080500125885,42.6750030517578,14.7960004806519,SHAKE
-19.2781867980957,-16.8152866363525,-27.5272254943848,-12.4496622085571,-0.60623747110367,0.38967499136925,15.456787109375,15.7401752471924,-20.7876625061035,-24.2395992279053,-3.13568758964539,-0.11288750171661,14.1708869934082,14.546537399292,-14.9692125320435,2.35042500495911,4.43685007095337,1.55347502231598,-2.08780002593994,1.67021250724792,0.96799999475479,-9.54593753814697,-11.7917251586914,2.08697509765625,1.5329874753952,0.44577500224113,2.15806245803833,-3.75691246986389,-5.54317474365234,2.33433747291565,7.24473762512207,-6.74739980697632,-19.075511932373,-14.5176620483398,-2.63835000991821,15.3136501312256,25.1024131774902,8.0518627166748,-13.6921119689941,-23.6505489349365,-13.1674127578735,-0.4100250005722,25.0852241516113,24.7080631256104,-11.2241249084473,-18.0469512939453,-4.98705005645752,-2.58705019950867,-8.57895088195801,-4.01205015182495,-20.3370018005371,-25.1479511260986,-8.97495079040527,16.9980010986328,-3.18600010871887,-5.52105045318604,-18.7699508666992,-17.6760005950928,-14.4090003967285,4.79100036621094,-24.5680503845215,-78.6360015869141,-53.2800025939941,-15.2449502944946,21.2329502105713,53.9779510498047,20.3350505828857,-46.0489540100098,-77.0410537719727,-39.1920013427734,8.6419506072998,54.9169540405273,25.8910503387451,-36.1099510192871,-78.2700042724609,-1.182000041008,22.0870513916016,9.67605018615723,-4.55400037765503,0.03405000269413,-1.11495006084442,3.63600015640259,-0.19305001199245,25.4350509643555,2.54400014877319,-2.64300012588501,-9.86205005645752,-0.99105006456375,-5.42100048065186,17.8450508117676,SHAKE
-2.47266244888306,-4.22399997711182,-21.6684875488281,-19.2517871856689,0.02227500081062,0.11852499842644,16.2204627990723,16.8812866210938,-8.48760032653809,-21.2433376312256,-12.0181875228882,1.122687458992,9.73802471160889,28.6105880737305,22.738374710083,-3.83074998855591,0.91671252250671,2.98718738555908,4.02393770217896,4.62893724441528,-1.40497493743896,-6.34259986877441,-6.28485012054443,3.67757487297058,3.29821252822876,-0.9842249751091,0.83324998617172,-4.71061229705811,-7.81563758850098,-5.61563730239868,22.5633373260498,-2.84927487373352,-23.0531120300293,-21.9301490783691,-4.3133749961853,4.86818742752075,27.9289989471436,22.9299125671387,-7.01277494430542,-24.9528121948242,-19.1709365844727,-2.53687500953674,11.0888252258301,17.1285133361816,3.91407489776611,-11.9869508743286,-1.82505011558533,12.1339502334595,-3.56400012969971,-8.51504993438721,-15.8340005874634,-13.7380504608154,-11.5129508972168,4.79595041275024,2.84895014762878,-1.78500008583069,-3.45900011062622,-24.7939510345459,-19.9819507598877,-8.2900505065918,-6.64395046234131,-70.4550018310547,-57.5910034179688,-24.810001373291,9.10500049591064,48.8980522155762,30.7200012207031,-18.3649501800537,-76.0759506225586,-48.7219505310059,-20.0509510040283,17.0850009918213,58.2049522399902,16.5319499969482,-44.0730018615723,-7.46700048446655,19.4839515686035,23.9209518432617,3.31695008277893,-4.875,-3.97005009651184,4.19099998474121,-7.17705011367798,17.601001739502,17.260950088501,1.3050000667572,9.70500087738037,-3.4980001449585,-7.03605031967163,-0.01305000018328,SHAKE
16.8812866210938,-8.48760032653809,-21.2433376312256,-12.0181875228882,1.122687458992,9.73802471160889,28.6105880737305,22.738374710083,-16.4624614715576,-18.5525989532471,1.40882503986359,0.99852502346039,-18.767650604248,-19.5933380126953,1.52363753318787,-6.28485012054443,3.67757487297058,3.29821252822876,-0.9842249751091,0.83324998617172,-4.71061229705811,-7.81563758850098,-5.61563730239868,0.59798747301102,-0.24474999308586,-3.12743759155273,-2.48655009269714,9.01436233520508,11.5810747146606,-0.97762501239777,22.9299125671387,-7.01277494430542,-24.9528121948242,-19.1709365844727,-2.53687500953674,11.0888252258301,17.1285133361816,3.91407489776611,-17.5384006500244,-26.8857879638672,-11.727237701416,1.0954624414444,14.2396373748779,14.7580127716064,-3.11231255531311,-11.5129508972168,4.79595041275024,2.84895014762878,-1.78500008583069,-3.45900011062622,-24.7939510345459,-19.9819507598877,-8.2900505065918,11.0970001220703,-1.8229501247406,-3.24795007705688,-22.9519519805908,-21.1459503173828,-9.81795024871826,4.61595010757446,-18.3649501800537,-76.0759506225586,-48.7219505310059,-20.0509510040283,17.0850009918213,58.2049522399902,16.5319499969482,-44.0730018615723,-77.9530563354492,-38.4550514221191,-3.29295015335083,47.0629539489746,33.8740501403809,-15.1320009231567,-77.9320526123047,-7.17705011367798,17.601001739502,17.260950088501,1.3050000667572,9.70500087738037,-3.4980001449585,-7.03605031967163,-0.01305000018328,31.9140014648438,14.5759506225586,-2.35304999351501,-22.1389503479004,-9.2029504776001,-6.92805051803589,27.5760021209717,SHAKE
19.1841373443604,10.5527124404907,-24.0030994415283,-24.9339752197266,-1.92018747329712,-3.73023748397827,-7.04536247253418,-3.95271253585815,-20.7076377868652,-25.4388751983643,-5.42630004882813,-0.86776250600815,0.9589250087738,17.4978370666504,17.0025615692139,-8.60736274719238,-9.19723701477051,-1.71998751163483,-1.79808747768402,0.64294999837875,0.62342500686646,-1.2253999710083,-1.88814997673035,3.4568874835968,0.44440001249313,-2.41683745384216,0.86528748273849,1.56983745098114,-6.38852500915527,-8.78542518615723,27.1308116912842,3.86773753166199,-16.5446872711182,-20.1383876800537,-6.87403726577759,4.59896230697632,20.3565998077393,14.929612159729,-9.88817501068115,-23.800012588501,-15.2543878555298,-0.85965001583099,17.3575878143311,26.2167129516602,8.68133735656738,-18.3529510498047,-9.55695056915283,13.3530006408691,-5.12805032730103,-7.76505041122437,-29.730001449585,-19.9219512939453,-13.8940505981445,8.89095020294189,2.86500024795532,-10.7059507369995,-12.3750009536743,-15.8460006713867,-22.7700004577637,-10.9459505081177,-1.53495001792908,-75.7980041503906,-71.1660003662109,-31.957052230835,14.8930511474609,65.6200561523438,23.3050518035889,-40.6129531860352,-78.588005065918,-47.6350517272949,-12.1260004043579,19.1830501556396,52.2250518798828,19.2330017089844,-28.687952041626,-0.66495001316071,19.195951461792,19.9360504150391,-3.14100003242493,-5.06895017623901,-5.59605026245117,-1.16505002975464,0.47700002789497,24.8389511108398,7.18695020675659,-6.1279501914978,0.89595001935959,5.71200037002563,-0.591000020504,-11.7660007476807,SHAKE
30.9689865112305,14.051812171936,-13.7409248352051,-15.5274620056152,2.3452000617981,16.1937866210938,30.9222373962402,18.0076866149902,-19.4631252288818,-22.9330749511719,-1.26362502574921,0.3257375061512,15.1426000595093,21.5547752380371,6.74148750305176,-2.93658757209778,0.7429124712944,0.59771251678467,1.14276254177094,0.28764998912811,-6.41781234741211,-3.00066256523132,2.79001259803772,4.80892515182495,4.9282751083374,1.025475025177,0.45856249332428,-2.36115002632141,-7.5549373626709,-5.57424974441528,7.97499990463257,-7.745924949646,-25.4145374298096,-25.6023616790771,-5.60133743286133,6.80350017547607,6.03996229171753,-4.38941240310669,-16.2243118286133,-24.4751377105713,-12.3315496444702,-1.18525004386902,16.0260372161865,18.6863880157471,1.51552498340607,-18.6240005493164,9.0130500793457,14.3350505828857,0.54495000839233,-1.30305004119873,-24.2670021057129,-25.0620002746582,-16.0590000152588,10.6440000534058,0.41805002093315,-7.16400051116943,-6.93900012969971,-18.0949516296387,-21.2730007171631,-15.0670509338379,-4.6080002784729,-71.3260498046875,-62.6320533752441,-23.1270008087158,27.8050518035889,66.6139526367188,10.7719507217407,-54.7360534667969,-78.6550521850586,-43.0459518432617,-9.37395000457764,25.7160015106201,61.1320533752441,16.0530014038086,-33.8040008544922,-18.9120006561279,16.7320499420166,18.9420013427734,3.70500016212463,11.7070503234863,14.1499509811401,-7.18395042419434,3.36705017089844,11.8530006408691,0.00495000043884,-1.59195005893707,9.23805046081543,22.5109519958496,4.28505039215088,-5.67795038223267,SHAKE
6.74148750305176,-15.8496246337891,-22.1566123962402,-5.42506265640259,1.24657499790192,9.51541233062744,23.4052505493164,15.9524745941162,-12.3956251144409,-20.7916507720947,-6.79621267318726,2.28071260452271,17.0757122039795,28.0620994567871,16.7140865325928,-5.57424974441528,5.93340015411377,5.55541229248047,2.02193737030029,1.93764996528625,-4.89720010757446,-7.07588768005371,-3.02926254272461,5.31024980545044,5.47813749313354,1.18442499637604,-0.53157502412796,-5.21455001831055,-6.48711252212524,-4.34692478179932,1.51552498340607,-10.3536128997803,-22.0057754516602,-14.8451871871948,-2.21567487716675,11.8281621932983,18.3467617034912,4.53777503967285,-10.4747495651245,-23.3151874542236,-16.3851871490479,-2.03334999084473,13.9242124557495,14.6823873519897,-1.06040000915527,-15.0670509338379,5.49000024795532,7.53300046920776,-5.19795036315918,-7.26705026626587,-14.7270002365112,-23.5549507141113,-14.8930511474609,10.675950050354,6.54195022583008,-3.0090000629425,-11.5180501937866,-26.6590518951416,-20.6980514526367,-8.78295040130615,-33.8040008544922,-78.5280075073242,-52.420051574707,-18.1399517059326,20.0350513458252,57.8910026550293,23.7649517059326,-32.5489501953125,-78.4849548339844,-53.0880012512207,-13.6690502166748,28.7839508056641,60.8989524841309,11.6550006866455,-33.2290496826172,-5.67795038223267,10.9960508346558,9.5080509185791,0.57000005245209,7.92495059967041,16.6309509277344,8.8279504776001,-8.80305004119873,8.70105075836182,7.69500017166138,6.49095010757446,12.6840009689331,11.1630001068115,-13.5259504318237,-7.19400024414063,SHAKE
15.9524745941162,-12.3956251144409,-20.7916507720947,-6.79621267318726,2.28071260452271,17.0757122039795,28.0620994567871,16.7140865325928,-13.4299001693726,-14.9168252944946,3.80187487602234,1.53546249866486,-7.86073732376099,-16.1064758300781,-9.20370006561279,-3.02926254272461,5.31024980545044,5.47813749313354,1.18442499637604,-0.53157502412796,-5.21455001831055,-6.48711252212524,-4.34692478179932,3.44134998321533,3.63893747329712,0.49445000290871,1.50713753700256,0.84823751449585,0.856625020504,-0.47258749604225,4.53777503967285,-10.4747495651245,-23.3151874542236,-16.3851871490479,-2.03334999084473,13.9242124557495,14.6823873519897,-1.06040000915527,-15.6628999710083,-27.7630367279053,-15.719687461853,-2.33859992027283,8.05241203308105,10.9799251556396,2.35936260223389,-14.8930511474609,10.675950050354,6.54195022583008,-3.0090000629425,-11.5180501937866,-26.6590518951416,-20.6980514526367,-8.78295040130615,4.93695020675659,10.7520008087158,-4.07400035858154,-5.00100040435791,-18.9760513305664,-18.2410507202148,-8.30400085449219,-32.5489501953125,-78.4849548339844,-53.0880012512207,-13.6690502166748,28.7839508056641,60.8989524841309,11.6550006866455,-33.2290496826172,-78.6550521850586,-45.3670539855957,-14.9569511413574,13.0080003738403,50.5530014038086,27.1609516143799,-19.957950592041,-8.80305004119873,8.70105075836182,7.69500017166138,6.49095010757446,12.6840009689331,11.1630001068115,-13.5259504318237,-7.19400024414063,27.787052154541,20.0100002288818,-3.19905018806458,-8.93505001068115,-8.69505023956299,2.50995016098022,-0.65295004844666,SHAKE
-27.5430374145508,-14.1770753860474,-25.2714004516602,-13.5525503158569,-0.66549998521805,-2.33585000038147,11.2498378753662,13.4897127151489,-10.3589754104614,-24.2182865142822,-13.742712020874,0.44398748874664,12.0003128051758,24.8638496398926,13.6954126358032,15.0078496932983,9.50606250762939,6.22737503051758,0.48276248574257,2.70709991455078,-1.09243750572205,-9.86617469787598,-10.2519998550415,5.46287488937378,5.28082513809204,-0.62865000963211,0.45608749985695,-0.90282499790192,-9.04268741607666,-8.92430019378662,14.9551877975464,-4.82240009307861,-23.9600620269775,-21.5335998535156,-2.95184993743896,7.65613746643066,26.3768997192383,19.9325504302979,-5.46026229858398,-22.8929252624512,-18.5905494689941,-2.04751253128052,14.2401876449585,16.9566383361816,1.45103752613068,-9.03404998779297,-2.38800001144409,10.9390506744385,-6.85695028305054,-14.2120504379272,-12.0430507659912,-21.7210502624512,-8.26605033874512,0.43395000696182,7.86600017547607,-2.95095014572144,-10.1070003509521,-24.3720016479492,-20.5500011444092,-13.6260004043579,-16.7680511474609,-76.2630004882813,-58.5630035400391,-23.2390518188477,12.07200050354,52.9770011901855,33.3420028686523,-23.4760513305664,-78.3270034790039,-53.7040519714355,-17.3430004119873,31.7299518585205,61.0240516662598,17.4270000457764,-45.328052520752,0.14595000445843,15.0550508499146,16.2070503234863,-3.02400016784668,-4.11794996261597,0.72600001096725,3.07305026054382,-1.24005007743835,14.1469507217407,13.8120002746582,-2.31705021858215,3.73095011711121,7.9200005531311,-3.16800022125244,0.03600000217557,SHAKE
13.4897127151489,-10.3589754104614,-24.2182865142822,-13.742712020874,0.44398748874664,12.0003128051758,24.8638496398926,13.6954126358032,-20.0235748291016,-21.6771507263184,-1.39741253852844,-0.56017500162125,1.63020002841949,17.1474876403809,15.633337020874,-10.2519998550415,5.46287488937378,5.28082513809204,-0.62865000963211,0.45608749985695,-0.90282499790192,-9.04268741607666,-8.92430019378662,6.24277496337891,5.76441240310669,0.92537498474121,-0.44247499108315,-2.18762493133545,-13.164662361145,-13.7766752243042,19.9325504302979,-5.46026229858398,-22.8929252624512,-18.5905494689941,-2.04751253128052,14.2401876449585,16.9566383361816,1.45103752613068,-14.4563369750977,-25.1495742797852,-13.4124374389648,-0.44440001249313,19.9762744903564,25.3625621795654,6.10802507400513,-8.26605033874512,0.43395000696182,7.86600017547607,-2.95095014572144,-10.1070003509521,-24.3720016479492,-20.5500011444092,-13.6260004043579,1.80900013446808,-0.48195001482964,-9.61905002593994,-16.3150501251221,-20.226001739502,-18.5550003051758,-7.74300050735474,-23.4760513305664,-78.3270034790039,-53.7040519714355,-17.3430004119873,31.7299518585205,61.0240516662598,17.4270000457764,-45.328052520752,-78.6550521850586,-49.5340538024902,-11.9779500961304,23.6380519866943,63.6420021057129,19.9590015411377,-25.9770011901855,-1.24005007743835,14.1469507217407,13.8120002746582,-2.31705021858215,3.73095011711121,7.9200005531311,-3.16800022125244,0.03600000217557,25.9050006866455,8.60805034637451,-6.01500034332275,1.36305010318756,20.4420013427734,0.70905005931854,-5.56695032119751,SHAKE
2.11695003509521,-22.2905368804932,-20.8169498443604,-0.0369874984026,-1.39108753204346,7.92426252365112,16.289213180542,7.64128732681274,-22.0009632110596,-23.9531879425049,-0.81331247091293,1.34021246433258,-15.2032375335693,-19.6333503723145,-3.95573759078979,-2.49356245994568,2.12946248054504,2.88612508773804,2.35949993133545,-0.88756251335144,-3.12991237640381,-9.57989978790283,-8.07482528686523,1.31848752498627,0.99110001325607,-1.52157497406006,-2.97082495689392,3.78331255912781,8.30912494659424,2.70379996299744,-0.83324998617172,-22.315149307251,-23.4627246856689,-4.89706230163574,1.06012499332428,21.65625,25.4929122924805,4.49349975585938,-13.8733377456665,-22.3745498657227,-9.61400032043457,0.98821246623993,17.3005256652832,19.2710380554199,1.558149933815,-2.29995012283325,13.6309509277344,0.55395001173019,-7.86795043945313,-15.1489505767822,-34.9699516296387,-15.3259506225586,-0.52005004882813,18.7830009460449,3.84705018997192,-5.83695030212402,-16.1520004272461,-24.621000289917,-14.778000831604,-6.41700029373169,-63.844051361084,-73.422004699707,-36.6370506286621,-7.21200037002563,22.359001159668,57.3360023498535,11.1880502700806,-47.2440032958984,-78.6019515991211,-37.6570510864258,-3.40800023078918,31.5630016326904,43.9260025024414,10.7209501266479,-43.0200004577637,12.6169509887695,21.5959510803223,4.90305042266846,-6.18795013427734,-1.43595004081726,18.400951385498,-6.42000007629395,-1.29705011844635,27.142951965332,9.99900054931641,-4.83705043792725,-10.7770509719849,-2.0179500579834,-3.72300028800964,0.96300005912781,SHAKE
18.4751873016357,31.0081748962402,29.200325012207,3.35555005073547,0.25698751211166,16.4069118499756,17.6529369354248,1.10811245441437,-17.1067867279053,-16.0290622711182,2.42976260185242,1.28466248512268,-2.24496245384216,-21.4528865814209,-32.276611328125,-9.96586227416992,-3.43144989013672,-2.28291249275208,-1.05146253108978,-1.18208754062653,-3.15617489814758,-5.48872518539429,-2.79083752632141,1.58166253566742,1.90836250782013,0.61723750829697,-0.32298749685287,-0.19483749568462,-1.57299995422363,3.61281251907349,2.28483748435974,-10.3812503814697,-10.7925128936768,-3.51559996604919,0.74800002574921,21.861400604248,23.4799118041992,0.54931247234344,-17.6235122680664,-23.7650871276855,-9.57549953460693,-1.66636252403259,0.93032497167587,13.7949628829956,17.1616497039795,-2.32395005226135,9.61200046539307,-0.95805007219315,-2.76705002784729,-16.3630504608154,-20.6290512084961,-8.3929500579834,-8.25795078277588,1.50495004653931,10.6920003890991,-2.2110002040863,-3.78495025634766,-3.16395020484924,-6.03795051574707,0.32700002193451,-65.4940567016602,-59.0539512634277,-28.7170505523682,-1.36800003051758,36.3979530334473,40.2160530090332,0.47100001573563,-29.2200012207031,-66.8290557861328,-43.6969528198242,-20.8300514221191,-3.75105023384094,12.4770002365112,24.3799514770508,17.0700016021729,12.2359504699707,23.0280017852783,6.11700010299683,-6.55695009231567,0.52905005216599,9.78600025177002,-3.55995011329651,-6.10395050048828,14.8800010681152,14.5740003585815,0.6730500459671,-6.80805015563965,0.18405000865459,11.403000831604,8.56695079803467,SHAKE
-13.1638374328613,3.88767504692078,3.88135004043579,1.80111253261566,0.80616247653961,16.6831493377686,28.8829746246338,16.7675743103027,5.36552476882935,4.72463750839233,5.08488750457764,4.5222373008728,28.5749740600586,30.4955749511719,11.7195377349854,8.94286251068115,3.07340002059937,2.8726499080658,1.54797494411469,-1.5222624540329,-3.63275003433228,-3.43337488174438,-2.82576251029968,-0.07383749634027,2.0402250289917,0.57475000619888,-3.4788875579834,-3.0185375213623,-2.68881249427795,-5.33898735046387,-17.577449798584,-6.01507472991943,-2.90056252479553,-1.52872502803802,0.51644998788834,12.2824621200562,11.079475402832,-2.4094123840332,-16.3917865753174,-23.4166622161865,-9.90398788452148,-0.50709998607635,7.73877477645874,7.78744983673096,-5.1001501083374,1.89300012588501,6.02700042724609,0.40305000543594,-1.09995007514954,-3.08505010604858,-27.2680511474609,-12.5599508285522,-2.47395014762878,14.8240509033203,8.66400051116943,1.71795010566711,-15.6760511398315,-22.1470508575439,-7.99995040893555,1.98900008201599,-41.7379531860352,-37.8030014038086,-24.5560512542725,-12.0780010223389,14.484001159668,44.0239524841309,8.56305027008057,-40.1599502563477,-68.6010055541992,-37.2670516967773,-0.30000001192093,44.4070510864258,28.3270511627197,-16.2550506591797,-63.646053314209,8.91195011138916,11.66100025177,4.64595031738281,0.24000000953674,15.0120010375977,8.10494995117188,-12.3570003509521,-6.25200033187866,22.3789501190186,13.9320011138916,1.40100002288818,-6.47700023651123,-8.43705081939697,-10.5679502487183,10.653000831604,SHAKE
11.7195377349854,23.9501628875732,19.1333999633789,2.77131247520447,0.93032497167587,16.3946743011475,25.1204242706299,10.526312828064,-11.4107122421265,-14.223687171936,-0.4129124879837,1.30281245708466,8.68051242828369,26.4149875640869,18.5406379699707,-5.33898735046387,-2.52367496490479,0.34443750977516,-0.26455000042915,-1.83686244487762,-0.33274999260902,-5.33279991149902,-6.82632493972778,3.29037499427795,1.74157500267029,-1.2890625,1.00842499732971,-0.6516125202179,-5.22609996795654,-5.79864978790283,-5.1001501083374,-15.6040496826172,-12.9516744613647,-2.94744992256165,1.84483754634857,18.8706378936768,19.1809749603271,0.9952250123024,-10.0170125961304,-24.4436492919922,-18.1069622039795,-3.26397490501404,12.4932498931885,19.4884243011475,5.04336261749268,1.98900008201599,11.3080501556396,-1.11600005626678,-6.02400016784668,-16.17405128479,-24.1590003967285,-18.0589504241943,-15.6640510559082,9.80100059509277,19.1320514678955,-3.07305026054382,-12.2029504776001,-31.3219509124756,-11.6689500808716,-8.31105041503906,-63.646053314209,-57.7710037231445,-30.5340023040771,-5.72700023651123,27.3139514923096,45.400951385498,16.242000579834,-21.7690505981445,-78.6550521850586,-58.7020530700684,-21.5239505767822,27.6709518432617,55.2829513549805,11.1040506362915,-52.7290534973145,10.653000831604,19.5630016326904,5.22795009613037,-3.72105026245117,9.17505073547363,11.568000793457,-4.67895030975342,-6.91305017471313,16.6450500488281,20.6790008544922,-0.69600003957748,1.37505006790161,11.731050491333,2.67000007629395,5.65005016326904,SHAKE
26.4149875640869,18.5406379699707,-22.6125621795654,-26.950138092041,-5.07375001907349,-2.77034997940063,12.8145875930786,-0.31886249780655,-23.5454998016357,-24.2316246032715,-2.41848754882813,1.73992502689362,8.99580001831055,27.5419368743896,22.1897506713867,-5.22609996795654,-5.79864978790283,0.55728751420975,1.43824994564056,0.260837495327,1.60049998760223,-13.9495124816895,-4.3663125038147,5.28013753890991,6.74932479858398,5.1753625869751,0.00096249999478,-7.6929874420166,-11.522087097168,-8.10658740997314,19.4884243011475,5.04336261749268,-12.8217372894287,-20.617712020874,-9.42081260681152,0.19882500171661,20.2504501342773,0.39324998855591,-10.1738996505737,-15.257550239563,-8.37512493133545,-1.10921251773834,11.0483999252319,15.880012512207,4.01060009002686,-11.6689500808716,-8.31105041503906,12.0100507736206,0.53700000047684,-5.77500009536743,-9.421950340271,-18.5880012512207,-13.0560007095337,10.9530000686646,3.76605010032654,-4.53900003433228,-6.70905017852783,-9.06795024871826,-14.5999507904053,-10.0950002670288,11.1040506362915,-52.7290534973145,-65.1450042724609,-36.7060508728027,-10.3159503936768,33.1000518798828,0.09705000370741,-55.5790519714355,-71.8290023803711,-40.7899513244629,-13.2850503921509,13.3390502929688,35.0140533447266,25.2400512695313,-8.12895011901855,2.67000007629395,5.65005016326904,1.69605004787445,-10.3669500350952,-7.3759503364563,11.4430503845215,7.34295034408569,-4.14495038986206,0.90105003118515,6.71595048904419,3.44205021858215,4.68705034255981,10.2480001449585,5.64705038070679,-8.33100032806396,SHAKE
26.4400119781494,-2.56272506713867,-24.714937210083,-18.190149307251,-0.52085000276566,5.99279975891113,23.3483257293701,19.1772632598877,-17.0502758026123,-20.9358882904053,-0.74552500247955,2.36719989776611,9.94839954376221,26.0580368041992,17.6301116943359,-13.0842247009277,0.39269998669624,12.0063619613647,7.80065011978149,3.69751238822937,-4.96801233291626,-13.2048120498657,-8.46408748626709,5.83426237106323,9.80512523651123,4.17188739776611,-0.45471251010895,-9.13742542266846,-11.9899997711182,-6.24648761749268,16.4174995422363,-3.24417495727539,-20.2998123168945,-19.096549987793,-1.87728750705719,10.4896001815796,16.293062210083,4.39944982528687,-12.8034496307373,-21.582275390625,-11.8302249908447,-1.21220004558563,11.0361623764038,15.0310878753662,2.68221259117126,-4.51995038986206,-9.15405082702637,4.6429500579834,-7.13295030593872,-9.86100006103516,-20.7289505004883,-16.1479511260986,-13.5349502563477,2.46300005912781,3.43800020217896,-4.59195041656494,-6.45000028610229,-8.70405006408691,-15.3409509658813,-15.7360506057739,-18.2100009918213,-63.2290534973145,-57.703052520752,-26.9590511322021,22.9360504150391,58.9470024108887,11.2890005111694,-44.8780517578125,-73.9440002441406,-44.1790504455566,-16.0660514831543,15.7680006027222,51.4030532836914,23.4630012512207,-27.6649513244629,-0.38205000758171,-4.6210503578186,-5.2819504737854,-6.20895051956177,12.6790504455566,27.9019508361816,0.79995006322861,-10.2499504089355,-0.26205000281334,9.84105014801025,2.40705013275146,3.58800005912781,16.5300006866455,13.6230010986328,-6.26700019836426,SHAKE
26.6666126251221,19.4640865325928,-15.9413375854492,-18.2670116424561,2.67354989051819,14.0562124252319,30.5182628631592,22.5324001312256,-7.71333742141724,-20.2314758300781,-7.11644983291626,3.4288375377655,10.9898252487183,31.3373489379883,24.8236999511719,-10.4765377044678,1.58922493457794,10.8942623138428,12.2087621688843,2.09357500076294,-11.1673374176025,-9.17097473144531,0.4687374830246,9.51211261749268,13.3687124252319,4.73508739471436,0.06682500243187,-10.3967876434326,-10.168399810791,-3.50184988975525,11.0907497406006,-0.37372499704361,-22.125675201416,-21.419750213623,-4.43685007095337,2.91692495346069,4.36466264724731,-2.30064988136292,-7.78084993362427,-20.9797496795654,-18.1064128875732,-2.90372490882874,6.37656259536743,9.75576210021973,1.70101249217987,-9.88500022888184,-5.06805038452148,13.4610004425049,0.28800001740456,-2.67105007171631,-4.57500028610229,-14.4829511642456,-11.4340505599976,-1.90905010700226,8.14605045318604,0.79095005989075,-6.22500038146973,-17.0389499664307,-8.89995002746582,-16.7989501953125,-6.85005044937134,-48.1110038757324,-47.0460014343262,-23.7520503997803,9.39705085754395,44.5819511413574,18.6540012359619,-19.3900508880615,-67.6000518798828,-61.2150039672852,-26.2210521697998,18.8140506744385,58.2940521240234,18.9310512542725,-29.7900009155273,-6.33600044250488,-9.99300003051758,-4.92300033569336,4.67295026779175,15.4410009384155,23.0500507354736,6.65595054626465,-12.2209501266479,-2.31000018119812,13.8840007781982,9.74805068969727,7.1370005607605,6.05505037307739,1.81800007820129,-10.1920509338379,SHAKE
22.5324001312256,-7.71333742141724,-20.2314758300781,-7.11644983291626,3.4288375377655,10.9898252487183,31.3373489379883,24.8236999511719,-10.3789119720459,-11.905574798584,2.47720003128052,2.84762501716614,16.3531494140625,29.6278114318848,18.2879123687744,0.4687374830246,9.51211261749268,13.3687124252319,4.73508739471436,0.06682500243187,-10.3967876434326,-10.168399810791,-3.50184988975525,6.45163726806641,9.67587471008301,2.71177506446838,-0.62370002269745,-10.5067873001099,-12.4196872711182,-6.26601266860962,-2.30064988136292,-7.78084993362427,-20.9797496795654,-18.1064128875732,-2.90372490882874,6.37656259536743,9.75576210021973,1.70101249217987,-11.6631622314453,-25.9521617889404,-17.1176490783691,-1.90368747711182,10.4033870697021,9.51885032653809,-2.13853740692139,-11.4340505599976,-1.90905010700226,8.14605045318604,0.79095005989075,-6.22500038146973,-17.0389499664307,-8.89995002746582,-16.7989501953125,-8.27805042266846,10.1770505905151,-5.82705020904541,-10.7490005493164,-4.01700019836426,-12.4740009307861,-11.6569509506226,-19.3900508880615,-67.6000518798828,-61.2150039672852,-26.2210521697998,18.8140506744385,58.2940521240234,18.9310512542725,-29.7900009155273,-75.4150543212891,-54.7890014648438,-15.0120010375977,28.5040512084961,48.7350006103516,12.9919509887695,-31.5930023193359,-12.2209501266479,-2.31000018119812,13.8840007781982,9.74805068969727,7.1370005607605,6.05505037307739,1.81800007820129,-10.1920509338379,-3.35205006599426,8.14095020294189,4.90694999694824,12.0780010223389,14.3340005874634,-8.16795063018799,-10.278000831604,SHAKE
24.8236999511719,-10.3789119720459,-11.905574798584,2.47720003128052,2.84762501716614,16.3531494140625,29.6278114318848,18.2879123687744,-12.3725252151489,-11.8650121688843,5.3931622505188,1.46547496318817,19.0800495147705,21.0399742126465,2.98471260070801,-3.50184988975525,6.45163726806641,9.67587471008301,2.71177506446838,-0.62370002269745,-10.5067873001099,-12.4196872711182,-6.26601266860962,6.96726226806641,10.5908002853394,2.43471240997314,-3.41879987716675,-9.34546279907227,-11.3326120376587,-5.52034997940063,1.70101249217987,-11.6631622314453,-25.9521617889404,-17.1176490783691,-1.90368747711182,10.4033870697021,9.51885032653809,-2.13853740692139,-18.2847499847412,-27.6504249572754,-11.9814748764038,2.05301237106323,22.7981872558594,22.0752124786377,0.89223748445511,-16.7989501953125,-8.27805042266846,10.1770505905151,-5.82705020904541,-10.7490005493164,-4.01700019836426,-12.4740009307861,-11.6569509506226,-0.27795001864433,8.56800079345703,-4.15605020523071,-12.2490005493164,-3.11400008201599,-7.87500047683716,-9.58800029754639,-29.7900009155273,-75.4150543212891,-54.7890014648438,-15.0120010375977,28.5040512084961,48.7350006103516,12.9919509887695,-31.5930023193359,-78.6550521850586,-47.7739524841309,-15.0150003433228,35.3950500488281,35.8980026245117,2.69805002212524,-44.7340507507324,-10.1920509338379,-3.35205006599426,8.14095020294189,4.90694999694824,12.0780010223389,14.3340005874634,-8.16795063018799,-10.278000831604,12.9090003967285,14.6740503311157,-2.54700016975403,7.38600015640259,13.1179504394531,-5.65395021438599,-6.00795030593872,SHAKE
2.98471260070801,-17.4470996856689,-16.4419746398926,2.61181259155273,1.86628746986389,3.3874499797821,10.5725126266479,7.73382472991943,-2.39208745956421,0.83916246891022,3.94886255264282,1.15128743648529,-1.65384995937347,-13.6633749008179,-14.0678997039795,-5.52034997940063,9.52228736877441,12.1814002990723,2.57922506332397,-3.49208736419678,-2.62404990196228,-7.99755001068115,-8.45088768005371,2.75687503814697,3.76268744468689,3.20099997520447,0.36396250128746,-3.54474997520447,3.33410000801086,7.29794979095459,0.89223748445511,-20.6086368560791,-23.3169746398926,-4.46971225738525,0.37771248817444,25.2441749572754,28.8620738983154,4.77042484283447,-14.8747501373291,-24.4496994018555,-11.011137008667,-1.70087504386902,5.17948770523071,24.0622253417969,22.2353992462158,-9.58800029754639,8.14395046234131,3.99600028991699,-6.61995029449463,-11.0320501327515,-8.43105030059814,-5.36295032501221,-7.15005016326904,-4.06500005722046,12.2250003814697,-2.007000207901,-11.32200050354,-9.80100059509277,-1.71795010566711,-6.48900032043457,-44.7340507507324,-68.22705078125,-33.4560012817383,-6.01395034790039,24.7369518280029,34.6519508361816,11.4679508209229,-25.0570507049561,-68.8330535888672,-44.7370529174805,-17.6059513092041,5.28900003433228,22.5289516448975,24.0880508422852,6.69495010375977,-6.00795030593872,8.11200046539307,9.88395023345947,-4.79595041275024,-2.98605012893677,2.54400014877319,-3.35400009155273,-5.02905035018921,9.6709508895874,11.2279500961304,-0.03000000119209,-5.27295017242432,-2.382000207901,-0.06405000388622,-7.15305042266846,SHAKE
20.9270877838135,11.5986747741699,33.4903259277344,34.7073364257813,9.10332489013672,8.73523712158203,31.569450378418,27.0646743774414,-17.3219757080078,-19.5876998901367,-0.32972499728203,1.64188754558563,18.7891006469727,23.7568378448486,6.57552480697632,-8.91549968719482,-8.33387470245361,-1.1863499879837,1.82187497615814,-1.07057499885559,-12.9211502075195,-14.3207626342773,-3.82662487030029,13.4198627471924,16.3446254730225,5.41172504425049,0.91341251134872,-11.1160497665405,-12.8171997070313,-2.90152502059937,20.3556365966797,2.10278749465942,-0.70592498779297,-2.27246260643005,-3.2658998966217,2.38700008392334,-3.53182506561279,-9.87772464752197,-15.9631996154785,-25.4451999664307,-13.6848249435425,-0.23086249828339,12.4535121917725,11.1981372833252,-2.38947486877441,-7.23105049133301,1.18395006656647,5.64105033874512,11.0010004043579,4.61100006103516,-8.34495067596436,-17.3569507598877,-17.3119506835938,-4.54095029830933,-1.00604999065399,-10.8450002670288,-3.30600023269653,-5.80395030975342,-17.3070011138916,-11.9779500961304,4.00305032730103,-30.5490016937256,-68.5170059204102,-34.126953125,3.8449501991272,57.7330513000488,21.9589519500732,-45.0720024108887,-74.7870025634766,-45.2970008850098,-7.12305021286011,32.3790016174316,48.5700035095215,3.85695028305054,-43.6900520324707,-15.4900503158569,-3.54795026779175,26.8939514160156,16.8150005340576,4.45695018768311,-0.97605001926422,8.7319507598877,-2.98305010795593,-12.9610509872437,-0.68595004081726,4.66605043411255,23.9359512329102,34.560001373291,4.26600027084351,-14.7400503158569,SHAKE
27.0646743774414,-17.3219757080078,-19.5876998901367,-0.32972499728203,1.64188754558563,18.7891006469727,23.7568378448486,6.57552480697632,-18.1926250457764,-19.8189754486084,-0.26730000972748,1.94576251506805,-1.17700004577637,13.5867872238159,14.8790121078491,-3.82662487030029,13.4198627471924,16.3446254730225,5.41172504425049,0.91341251134872,-11.1160497665405,-12.8171997070313,-2.90152502059937,9.77982521057129,13.9064750671387,7.65146255493164,1.15802502632141,-5.21716260910034,-14.5699119567871,-17.3313255310059,-9.87772464752197,-15.9631996154785,-25.4451999664307,-13.6848249435425,-0.23086249828339,12.4535121917725,11.1981372833252,-2.38947486877441,-11.7035875320435,-17.6427631378174,-9.1165246963501,-1.21261250972748,8.21204948425293,28.1157245635986,25.981725692749,-17.3119506835938,-4.54095029830933,-1.00604999065399,-10.8450002670288,-3.30600023269653,-5.80395030975342,-17.3070011138916,-11.9779500961304,0.48000001907349,9.11400032043457,-6.66300010681152,-12.8659505844116,-4.93200016021729,8.76195049285889,-0.48195001482964,-45.0720024108887,-74.7870025634766,-45.2970008850098,-7.12305021286011,32.3790016174316,48.5700035095215,3.85695028305054,-43.6900520324707,-78.6550521850586,-45.691951751709,-15.1080007553101,8.79104995727539,18.1120510101318,23.5129508972168,14.413950920105,-2.98305010795593,-12.9610509872437,-0.68595004081726,4.66605043411255,23.9359512329102,34.560001373291,4.26600027084351,-14.7400503158569,9.63495063781738,10.3129501342773,-2.5570502281189,-5.03595018386841,5.62800025939941,15.6250505447388,5.70000028610229,SHAKE
-19.8189754486084,-0.26730000972748,1.94576251506805,-1.17700004577637,13.5867872238159,14.8790121078491,-0.80849999189377,15.2450370788574,34.2062873840332,22.485237121582,5.74557495117188,4.60597515106201,18.5729503631592,32.0531730651855,17.1975364685059,13.9064750671387,7.65146255493164,1.15802502632141,-5.21716260910034,-14.5699119567871,-17.3313255310059,-7.09486246109009,-11.5835494995117,-9.45367527008057,2.06579995155334,-2.77942490577698,-12.762749671936,-4.87451267242432,-8.47096252441406,-12.7771873474121,-17.6427631378174,-9.1165246963501,-1.21261250972748,8.21204948425293,28.1157245635986,25.981725692749,6.44819974899292,-3.86925005912781,-10.9242372512817,-8.90862464904785,-4.222487449646,0.14630000293255,16.9881248474121,14.4475374221802,-1.40744996070862,9.11400032043457,-6.66300010681152,-12.8659505844116,-4.93200016021729,8.76195049285889,-0.48195001482964,-13.6230010986328,-12.6199502944946,-7.51095056533813,10.6399507522583,-4.76895046234131,-24.7699508666992,-20.6170501708984,-8.06205081939697,-13.9150505065918,-45.691951751709,-15.1080007553101,8.79104995727539,18.1120510101318,23.5129508972168,14.413950920105,-6.64905023574829,-45.7279510498047,-76.444953918457,-41.0940017700195,-12.3199510574341,36.987003326416,46.6900520324707,6.50100040435791,-40.5340538024902,10.3129501342773,-2.5570502281189,-5.03595018386841,5.62800025939941,15.6250505447388,5.70000028610229,-18.7930507659912,-15.9160509109497,10.7920503616333,10.2240009307861,6.86400032043457,5.889000415802,2.39505004882813,-0.0949500054121,-2.581050157547,SHAKE
-16.4150257110596,-14.8763999938965,3.45619988441467,0.33522498607635,-2.07459998130798,13.37380027771,17.3313255310059,1.71173751354218,-16.2643241882324,-13.8884620666504,2.36788749694824,-0.03066249936819,-2.57193756103516,12.298412322998,15.4075622558594,6.47803735733032,8.33098793029785,4.10891246795654,1.724249958992,-4.7711124420166,-13.7061376571655,-12.1673746109009,-0.72710001468658,6.99847507476807,7.02955007553101,4.22468757629395,0.74896252155304,-5.56228733062744,-14.1436624526978,-13.9477252960205,-18.6705741882324,-25.2829494476318,-9.00858783721924,-1.1640750169754,7.87352514266968,25.1377506256104,17.486011505127,-2.88255000114441,-22.4930744171143,-23.8697242736816,-5.65826225280762,-0.83022499084473,9.67752456665039,24.5090999603271,16.4223117828369,-1.10699999332428,2.67600011825562,-4.92900037765503,-11.650050163269,-16.4759998321533,-13.2090005874634,-14.1649503707886,-8.89095020294189,0.08205000311136,2.74305009841919,-5.01600027084351,-12.3300008773804,-13.6159505844116,1.43100011348724,-13.3549509048462,-67.0009536743164,-45.3259506225586,-22.6860008239746,6.18300008773804,41.6790008544922,33.7420501708984,-5.15205001831055,-53.9100036621094,-68.8830032348633,-40.6939506530762,-18.2050514221191,7.35105037689209,28.878002166748,31.7280006408691,-0.39300000667572,11.1990003585815,7.30200052261353,-6.98295021057129,0.25394999980927,19.5750007629395,7.95600032806396,-8.08695030212402,-0.76305001974106,15.6919507980347,5.26200008392334,-6.80595016479492,1.39395010471344,18.7410011291504,21.1669502258301,-5.28495025634766,SHAKE
0.80877500772476,-6.92573738098145,-7.52894973754883,1.93875002861023,5.86396265029907,7.47298765182495,32.268913269043,33.5290985107422,-11.418137550354,-14.9478998184204,3.55189990997314,0.30263748764992,-2.6776750087738,1.6160374879837,12.9626750946045,-12.2458877563477,8.66593742370605,13.8759498596191,5.04239988327026,0.95424997806549,-12.5174503326416,-11.9374752044678,-4.66358757019043,6.38096237182617,8.58151245117188,0.62672501802444,3.96068739891052,0.12897500395775,-6.19588756561279,-16.3442115783691,8.48567485809326,-4.22688770294189,-20.1738624572754,-15.5831499099731,-2.03885006904602,2.59888744354248,10.6914501190186,5.70198726654053,-16.9067249298096,-31.3520622253418,-18.197437286377,-2.50029993057251,3.07477498054504,14.4523496627808,20.0046005249023,-5.91795015335083,-6.73305034637451,-5.13795042037964,7.29105043411255,2.33100008964539,-20.4490509033203,-23.5410003662109,-13.9060506820679,-10.0759506225586,2.932950258255,-8.98695087432861,-11.9970006942749,-5.1739501953125,4.72905015945435,-0.08400000631809,-12.3150005340576,-36.469051361084,-60.3360023498535,-35.5969505310059,-1.1380500793457,58.6909523010254,20.5240516662598,-32.9389533996582,-68.2699508666992,-50.9659538269043,-24.5470504760742,-2.68005013465881,4.13505029678345,22.9360504150391,26.812952041626,-10.6860008239746,-12.0030002593994,9.33300018310547,14.8609504699707,11.8579502105713,-6.38400030136108,-13.9159507751465,0.78300005197525,15.8430004119873,7.48005056381226,-7.40205049514771,-1.27995002269745,8.78700065612793,19.6540508270264,15.6439504623413,SHAKE
-14.9478998184204,3.55189990997314,0.30263748764992,-2.6776750087738,1.6160374879837,12.9626750946045,10.97181224823,3.11781239509583,-12.7150373458862,-10.0128870010376,6.11737489700317,3.04892492294312,0.776462495327,16.5848369598389,17.0644378662109,8.58151245117188,0.62672501802444,3.96068739891052,0.12897500395775,-6.19588756561279,-16.3442115783691,-13.5045623779297,-1.2639000415802,11.6854372024536,12.6717252731323,2.90606260299683,-0.68062502145767,-4.06862497329712,-8.56377506256104,-9.02989959716797,-31.3520622253418,-18.197437286377,-2.50029993057251,3.07477498054504,14.4523496627808,20.0046005249023,8.12597465515137,-2.48861241340637,-19.8536243438721,-22.2261867523193,-5.99142503738403,-1.58661246299744,1.13726246356964,21.9967002868652,22.0467491149902,2.932950258255,-8.98695087432861,-11.9970006942749,-5.1739501953125,4.72905015945435,-0.08400000631809,-9.60195064544678,-3.43200016021729,-2.16300010681152,7.03500032424927,1.61295008659363,0.10905000567436,-18.2170505523682,-8.53605079650879,-4.94100046157837,-50.9659538269043,-24.5470504760742,-2.68005013465881,4.13505029678345,22.9360504150391,26.812952041626,-1.17599999904633,-25.8930015563965,-56.9509544372559,-45.3120002746582,-24.7549514770508,2.08695006370544,37.4209518432617,24.187952041626,-11.4199504852295,7.48005056381226,-7.40205049514771,-1.27995002269745,8.78700065612793,19.6540508270264,15.6439504623413,-5.02905035018921,-10.7530508041382,10.5169506072998,20.3860511779785,5.7529501914978,-5.08095026016235,1.34805011749268,10.252950668335,-2.37705016136169,SHAKE
-17.8833866119385,-15.2212495803833,3.72350001335144,2.99488759040833,1.73607504367828,9.10098743438721,28.7538623809814,22.9818878173828,26.2706127166748,30.4876003265381,8.72602462768555,2.67519998550415,8.76356220245361,29.3434619903564,22.5513744354248,11.7423620223999,13.2369871139526,3.52219986915588,-0.38334998488426,-5.20231246948242,-6.92793750762939,-11.0222749710083,-9.25072479248047,-5.70872497558594,-1.1779625415802,4.0016622543335,-0.67264997959137,-7.84025001525879,-11.2386999130249,-4.36741256713867,-17.6666870117188,-18.8975868225098,-3.67097496986389,-2.09426259994507,-1.58427500724792,11.6040372848511,15.1442499160767,2.58073759078979,-3.68362498283386,-13.8990497589111,-12.1060495376587,-2.66323757171631,6.88132476806641,13.5873374938965,2.572350025177,-8.40195083618164,1.85205006599426,4.44600009918213,-0.20895001292229,-4.04805040359497,-14.8660507202148,-4.57005023956299,-0.98700004816055,-7.74300050735474,9.38505077362061,7.12395048141479,-7.54200029373169,-24.4270515441895,-7.74795055389404,-9.82695007324219,-42.7150535583496,-42.0859527587891,-25.1790008544922,-10.6650009155273,11.1400508880615,29.6470508575439,8.37405014038086,-18.0040512084961,-52.305004119873,-47.9440536499023,-24.1090507507324,25.606050491333,40.9660530090332,-2.68695020675659,-37.3889999389648,-2.74095010757446,6.70395040512085,3.13005018234253,0.29700002074242,1.1539500951767,9.32595062255859,-4.04700040817261,-10.7740507125854,3.10905003547668,7.27095031738281,-0.11595000326633,0.52200001478195,4.08405017852783,-6.82695055007935,-4.12095022201538,SHAKE
22.9818878173828,26.2706127166748,30.4876003265381,8.72602462768555,2.67519998550415,8.76356220245361,29.3434619903564,22.5513744354248,-15.9271745681763,-14.4596376419067,3.12867498397827,0.67883747816086,-0.73108750581741,-1.32412505149841,-0.93692499399185,-9.25072479248047,-5.70872497558594,-1.1779625415802,4.0016622543335,-0.67264997959137,-7.84025001525879,-11.2386999130249,-4.36741256713867,8.14068698883057,9.562575340271,3.22189998626709,0.95713746547699,-2.83194994926453,-3.66946244239807,-0.41951251029968,2.58073759078979,-3.68362498283386,-13.8990497589111,-12.1060495376587,-2.66323757171631,6.88132476806641,13.5873374938965,2.572350025177,-22.5773620605469,-27.1514377593994,-8.86077499389648,-1.67873752117157,3.63797497749329,9.36828708648682,-5.43510007858276,-0.98700004816055,-7.74300050735474,9.38505077362061,7.12395048141479,-7.54200029373169,-24.4270515441895,-7.74795055389404,-9.82695007324219,2.47005009651184,11.2459506988525,-4.66800022125244,-8.96295070648193,-2.0460000038147,6.71895027160645,10.1080503463745,-18.0040512084961,-52.305004119873,-47.9440536499023,-24.1090507507324,25.606050491333,40.9660530090332,-2.68695020675659,-37.3889999389648,-52.9660530090332,-33.7390518188477,-15.8509511947632,-2.45505023002625,-2.64195013046265,-6.96300029754639,-7.56105041503906,-10.7740507125854,3.10905003547668,7.27095031738281,-0.11595000326633,0.52200001478195,4.08405017852783,-6.82695055007935,-4.12095022201538,3.95700025558472,0.5100000500679,-1.78995013237,0.12000000476837,0.40500003099442,-1.52505004405975,-0.29399999976158,SHAKE
-0.73108750581741,-1.32412505149841,-0.93692499399185,-0.76078748703003,27.6747627258301,34.2871360778809,7.19840002059937,-12.9426002502441,-22.7548751831055,-9.00817489624023,-1.33223748207092,-3.44464993476868,-7.65792512893677,10.8549375534058,15.8083753585815,-2.83194994926453,-3.66946244239807,-0.41951251029968,3.34922504425049,-3.50583744049072,1.24685001373291,9.35989952087402,9.6914119720459,6.83512496948242,2.9438750743866,7.67167472839355,2.51308751106262,-5.6643123626709,-17.7256755828857,-14.4355745315552,3.63797497749329,9.36828708648682,-5.43510007858276,-18.393238067627,-10.4621000289917,-15.2398128509521,-15.8494873046875,-7.76902484893799,-19.1093368530273,-19.1628246307373,-5.31492519378662,0.26826250553131,18.07080078125,31.3483505249023,15.4182872772217,-2.0460000038147,6.71895027160645,10.1080503463745,2.1780002117157,-12.41100025177,-25.4260520935059,-8.46195030212402,-3.91395020484924,13.0630502700806,6.02700042724609,-10.042950630188,-17.8069515228271,-4.2679500579834,-7.68795013427734,-11.7240009307861,-2.64195013046265,-6.96300029754639,-7.56105041503906,5.31600046157837,37.1290512084961,16.3229999542236,-14.3850002288818,-61.0920028686523,-63.3340530395508,-38.449951171875,-13.4820003509521,22.4830513000488,34.3290023803711,12.7519502639771,-16.2940502166748,0.40500003099442,-1.52505004405975,-0.29399999976158,7.68795013427734,13.9870510101318,4.8070502281189,-0.90900003910065,10.8570003509521,10.8709506988525,-5.60100030899048,-10.312050819397,1.32405006885529,5.6569504737854,-1.29900002479553,-7.1650505065918,SHAKE
1.21976244449615,-2.31701254844666,-4.67224979400635,-3.0416374206543,0.51686251163483,9.51073741912842,34.4660263061523,30.2128753662109,-10.6577625274658,-16.5621490478516,-0.95796251296997,0.98463749885559,0.38953748345375,19.5095996856689,20.6833000183105,-0.04716249927878,-0.87023746967316,-0.95974999666214,-1.16875004768372,-1.64711248874664,-6.25349998474121,-4.46338748931885,2.49314999580383,12.3879251480103,12.0260248184204,3.01784992218018,1.4195499420166,-3.37562489509583,-10.6015253067017,-9.64713764190674,-1.01804995536804,1.81774997711182,1.98467493057251,-1.33856248855591,-3.65805006027222,-5.59336233139038,-7.15398740768433,-7.95987510681152,-14.6480121612549,-26.1630878448486,-18.1922130584717,-2.5422375202179,7.67414999008179,25.2038879394531,18.8306255340576,-0.8479500412941,-0.03900000080466,2.69805002212524,6.13500022888184,6.55605030059814,-2.56500005722046,-17.1750011444092,-9.24495029449463,-4.38795042037964,13.7290506362915,-3.6910502910614,-16.6309509277344,-15.1320009231567,-11.0800504684448,-10.7899503707886,-8.32500076293945,-10.0740003585815,-14.4109506607056,-16.6579513549805,-4.34505033493042,32.5470008850098,21.621000289917,-22.0489501953125,-68.1409530639648,-52.734001159668,-26.3449516296387,13.5900011062622,45.8659515380859,27.2490005493164,-8.25104999542236,-0.90900003910065,-2.12295007705688,-2.12805008888245,-0.98295003175735,5.46795034408569,12.6240005493164,-0.96405005455017,-8.89200019836426,3.4939501285553,6.2509503364563,-3.80505013465881,-0.54300004243851,10.5790500640869,1.66005003452301,-6.99705028533936,SHAKE
3.74302506446838,1.70073747634888,-1.90822494029999,-5.57810020446777,14.1136875152588,15.0932378768921,-3.86498737335205,-0.66412502527237,-9.07816219329834,-4.90902519226074,5.60353755950928,3.75553750991821,5.91181230545044,28.5910625457764,27.5763130187988,3.39088749885559,0.51301246881485,-2.67162489891052,-2.77323746681213,-10.1458501815796,-16.4181880950928,-7.70756244659424,9.07719993591309,16.343936920166,9.60946273803711,3.53608751296997,-0.58011251688004,-10.2460870742798,-10.1377372741699,-4.93968725204468,-5.1090874671936,-1.97697496414185,2.50827503204346,11.2337503433228,25.0932006835938,26.5806751251221,10.4176874160767,-8.70113754272461,-18.7867622375488,-13.3361253738403,-4.05762481689453,-2.59613752365112,2.61896252632141,12.7023878097534,8.43369960784912,-3.307950258255,-7.09395027160645,-4.63995027542114,-0.32595002651215,6.33600044250488,3.71805024147034,0.9250500202179,-9.64305019378662,-3.80595016479492,8.62305068969727,5.12895011901855,-5.31300020217896,-13.864951133728,-13.2349510192871,-11.6110506057739,-18.7870502471924,-4.65900039672852,2.07300019264221,4.73400020599365,9.29100036621094,13.3630504608154,7.64595031738281,-22.6240501403809,-56.4439544677734,-47.920051574707,-25.3780517578125,3.55305027961731,42.5149536132813,27.8839511871338,-13.6900510787964,-1.45305001735687,-2.86095023155212,-1.33500003814697,2.87895011901855,6.93795013427734,11.2639503479004,6.58605051040649,-13.3630504608154,0.5460000038147,9.78600025177002,5.37405014038086,3.02295017242432,6.55800008773804,7.18695020675659,-1.17000007629395,SHAKE
12.5243253707886,19.501350402832,12.3143625259399,3.19302487373352,1.71311247348785,12.5967874526978,31.9407005310059,21.8337631225586,-13.7992248535156,-13.1811628341675,2.45767498016357,-0.1175625026226,-3.68059992790222,7.20898723602295,17.1989116668701,-7.92591238021851,0.98092502355576,3.32447504997253,1.00512504577637,-3.36118745803833,-10.6876001358032,-8.64476203918457,-0.2923249900341,7.9400749206543,8.91811275482178,2.71053743362427,-0.1380500048399,-2.13523745536804,-2.34162497520447,-8.45817470550537,2.22351241111755,1.47675001621246,-3.16799998283386,-2.10182499885559,-0.5157625079155,8.70058727264404,8.4250373840332,-3.71140003204346,-24.1208000183105,-28.143087387085,-8.45996284484863,-0.17531250417233,8.32823753356934,24.497688293457,40.742073059082,-1.30605006217957,0.06300000101328,5.9650502204895,3.8449501991272,-3.07605004310608,-20.4900016784668,-13.0009508132935,-8.93100070953369,9.95700073242188,3.19605016708374,-9.09195041656494,-7.26405048370361,-2.41200017929077,6.57495021820068,10.2160501480103,-23.2369518280029,-48.4540519714355,-40.7640037536621,-20.4469509124756,21.4770011901855,44.0620536804199,3.03600025177002,-49.4569511413574,-57.4399528503418,-33.2959518432617,-10.1260509490967,3.75405025482178,4.6279501914978,-0.46695002913475,-2.59395003318787,1.25505006313324,12.0210008621216,11.2999505996704,3.78900027275085,3.11400008201599,0.44295001029968,-5.74905014038086,-3.59595012664795,7.16400051116943,1.28595006465912,-4.26705026626587,-2.7769501209259,1.24500000476837,0.58005005121231,0.56295001506805,SHAKE
7.1105375289917,-9.66872501373291,-9.06276226043701,6.28746223449707,4.29783725738525,13.9107370376587,31.0634498596191,20.0692253112793,-16.4645252227783,-15.8470125198364,2.26448750495911,4.36672496795654,21.634937286377,23.2366752624512,6.18419981002808,8.07386207580566,11.9328002929688,10.4711751937866,2.96807503700256,-0.84122496843338,-8.62097454071045,-4.7430624961853,4.66963768005371,7.97555017471313,7.73863744735718,2.92228746414185,-3.56757497787476,-6.95351266860962,-5.62443733215332,0.10670000314713,-22.0343742370605,-27.5136127471924,-25.2491245269775,-10.1784372329712,-3.29697489738464,7.316237449646,10.0391502380371,-2.12176251411438,-23.1992740631104,-26.0753631591797,-7.25010013580322,3.39501237869263,18.2323627471924,15.6857252120972,-2.63903737068176,-9.92100048065186,-1.66005003452301,4.18005037307739,7.80600023269653,-3.05205011367798,-31.7179508209229,-16.3900508880615,-11.6740503311157,5.85195016860962,-0.52995002269745,-18.4180507659912,-8.97000026702881,-7.3410005569458,-11.331000328064,-9.09405040740967,-13.1920509338379,-53.4690017700195,-60.1680030822754,-30.1800022125244,30.187952041626,52.4329528808594,-5.05395030975342,-60.7000541687012,-70.1790008544922,-40.3200035095215,5.57400035858154,46.1800537109375,32.3890533447266,-11.3959503173828,-57.9619522094727,-5.78295040130615,-7.38795042037964,11.7360010147095,12.8059501647949,6.67695045471191,2.3689501285553,0.34695002436638,-8.02905082702637,-2.12295007705688,5.96100044250488,10.7560501098633,10.651050567627,5.3860502243042,-5.81895017623901,-8.23500061035156,SHAKE
6.18419981002808,-12.0844621658325,-11.7915878295898,2.77282500267029,3.34908747673035,18.8405246734619,22.7354869842529,7.65503740310669,5.04253768920898,7.85262489318848,6.84337472915649,6.49811267852783,25.369161605835,28.8230247497559,3.44093751907349,0.10670000314713,9.39482498168945,8.10328769683838,1.24561250209808,-3.57018756866455,-4.76671266555786,-5.92473745346069,-4.49625015258789,3.91943740844727,5.71092510223389,1.27118754386902,-4.58191251754761,-5.97258758544922,-2.36087489128113,6.51749992370605,-2.63903737068176,-26.6793994903564,-25.7637882232666,-3.79747486114502,1.52116250991821,19.1504497528076,20.6790370941162,3.18738746643066,-15.2424249649048,-21.0817756652832,-8.03110027313232,-1.28438746929169,10.4704875946045,8.77992534637451,-8.25055027008057,-9.09405040740967,12.1410007476807,-1.00394999980927,-9.46095085144043,-10.873950958252,2.050950050354,-6.98400020599365,-13.1419506072998,0.64305001497269,14.4810009002686,-4.26405000686646,-15.4339504241943,-16.453950881958,-8.19405078887939,-3.88305020332336,-57.9619522094727,-58.8700523376465,-28.7089519500732,-0.31905001401901,23.7289505004883,31.560001373291,10.7520008087158,-30.8479518890381,-72.7009506225586,-50.2620010375977,-5.37195014953613,47.0700035095215,28.7220020294189,-23.2680015563965,-58.3720512390137,-8.23500061035156,5.37705039978027,7.55205059051514,1.22100007534027,6.27705049514771,10.6050004959106,-2.96205019950867,-15.3060007095337,-1.00499999523163,11.9130001068115,14.7580509185791,9.89895057678223,8.59305000305176,-5.93400049209595,-15.7369508743286,SHAKE
-6.14954996109009,-23.2190742492676,-18.4842624664307,0.5654000043869,4.12197494506836,7.46693754196167,26.9293746948242,28.3376502990723,-0.65903747081757,-19.4326000213623,-12.1609125137329,2.1377124786377,7.47367477416992,19.2950992584229,24.5112991333008,2.86013746261597,16.822437286377,16.0198497772217,5.51883745193481,1.82476246356964,-5.47937488555908,-11.0662746429443,-4.10808753967285,9.50413703918457,10.8578252792358,6.0080623626709,3.23647499084473,-4.39394998550415,-6.69171237945557,-4.22826242446899,-1.44484996795654,-9.96022510528564,-10.4854745864868,-4.32052516937256,-2.51102495193481,-1.43976247310638,6.68291234970093,3.01138758659363,-9.73623752593994,-21.6448383331299,-19.1834506988525,-4.14589977264404,2.93094992637634,12.9677619934082,11.899112701416,-9.04905033111572,-3.64800024032593,0.46305000782013,2.94705009460449,1.63905012607574,5.20800018310547,-23.7180004119873,-17.5920009613037,3.65595006942749,14.1169509887695,-2.02905011177063,-9.24000072479248,-1.67895007133484,6.13005018234253,-9.53700065612793,-16.3300514221191,-33.6499519348145,-44.4370536804199,-37.699951171875,-14.3899507522583,45.0870018005371,29.9800510406494,-30.0169506072998,-55.5499534606934,-48.0319519042969,-24.3120002746582,-0.32595002651215,11.8210506439209,23.8120517730713,16.957950592041,-7.39695024490356,-15.9400510787964,-5.7810001373291,7.21095037460327,14.0040006637573,13.276050567627,13.6369504928589,-4.75305032730103,-14.461950302124,-1.11300003528595,10.288950920105,10.5570001602173,10.06605052948,5.03205013275146,-0.22395001351833,SHAKE
14.2218999862671,7.64211225509644,3.10488748550415,0.78815001249313,3.36352491378784,5.98606252670288,30.5089130401611,30.2362499237061,-6.55998754501343,-12.8687620162964,-1.62937498092651,1.46987497806549,4.95797491073608,25.2949123382568,22.2026748657227,-1.7742999792099,3.65722489356995,4.48827505111694,2.76842498779297,1.67089998722076,-3.18449997901917,-3.51092505455017,-0.73851251602173,5.79521226882935,3.96522498130798,-1.41267502307892,0.08992499858141,-3.25091242790222,-6.40584993362427,-5.0965747833252,1.74308753013611,-10.1274251937866,-24.0696506500244,-17.5095252990723,-3.08206248283386,0.59743750095367,9.65098762512207,6.65665006637573,-14.9561500549316,-29.2835121154785,-18.7419376373291,-2.21265006065369,4.27322483062744,16.1798992156982,13.2218627929688,-6.85305023193359,4.98495006561279,13.3219509124756,5.64600038528442,-4.2199501991272,-1.67700004577637,-17.4820499420166,-8.2300500869751,4.80795001983643,12.2280006408691,-2.31405019760132,-10.9960508346558,4.81005001068115,2.88000011444092,-6.83595037460327,-8.58600044250488,-44.287052154541,-51.1099510192871,-29.1289520263672,3.17895007133484,37.4929504394531,20.9620513916016,-27.5449504852295,-59.7319526672363,-45.8290519714355,-17.7109508514404,8.87700080871582,24.9139518737793,29.5009517669678,5.65305042266846,-5.81595039367676,-1.82400012016296,10.8330001831055,10.9120502471924,6.06195020675659,1.21395003795624,0.21600000560284,-4.91100025177002,0.68505001068115,2.93595004081726,1.55895006656647,5.6380500793457,11.6809501647949,15.7930507659912,7.9680004119873,SHAKE
0.64074999094009,-4.27982521057129,-5.08406257629395,-0.16692499816418,2.64687490463257,-15.6716995239258,-14.398175239563,1.43274998664856,-19.7837753295898,-18.3885631561279,1.99141252040863,3.75526237487793,7.00411224365234,23.288236618042,24.7768115997314,-2.09852504730225,0.59125000238419,2.41711258888245,2.05920004844666,3.71635007858276,15.2714376449585,17.8774757385254,10.2766122817993,14.207462310791,12.6289625167847,5.49051237106323,1.31120002269745,-8.23789978027344,-6.26697492599487,-2.5561249256134,2.99364995956421,2.31756258010864,-3.54474997520447,-7.59770011901855,-9.07403755187988,-22.9824371337891,-25.5961742401123,-11.9726753234863,-18.0031490325928,-18.6735992431641,-6.21403741836548,-1.78199994564056,4.13159990310669,16.1862239837646,11.9937124252319,-0.05805000290275,3.80400013923645,6.07200050354004,6.03900051116943,8.59695053100586,-7.89000034332275,-9.46095085144043,-2.52195000648499,-1.77300012111664,8.97795009613037,4.59195041656494,-9.02700042724609,-9.59205055236816,-0.97800004482269,-1.03305006027222,-8.45205020904541,-9.12105083465576,-7.65000057220459,-3.76800012588501,10.3090505599976,17.4420013427734,-1.36305010318756,-25.3519515991211,-49.4380531311035,-42.6199531555176,-21.7369518280029,4.49895000457764,20.248950958252,10.113000869751,-7.89405059814453,-3.35700011253357,-3.17205023765564,0.57000005245209,1.43700003623962,6.57900047302246,13.9990510940552,-0.925950050354,-9.89805030822754,-5.86395025253296,5.79795026779175,5.9089503288269,5.64300012588501,6.2920503616333,4.33995008468628,-2.64300012588501,SHAKE
-6.77531242370605,-5.54509973526001,3.22946238517761,5.00829982757568,6.21390008926392,12.6825876235962,29.1378993988037,21.2447128295898,-16.5541744232178,-17.3621253967285,1.59994995594025,3.61363744735718,22.6315364837646,31.1825256347656,13.4175252914429,8.52169990539551,5.92019987106323,1.91248750686646,0.0362999998033,-5.46521234512329,-10.6226997375488,-4.05391263961792,1.77567493915558,7.94420003890991,10.6022129058838,3.59369993209839,-0.64927500486374,-11.4871625900269,-9.96462535858154,-0.0042624999769,-17.4332122802734,-12.9142751693726,-0.66632497310638,-1.62552499771118,-0.72036248445511,5.87234973907471,7.83475017547607,1.61163747310638,-15.050199508667,-15.8624124526978,-1.71311247348785,-0.61558747291565,10.1404876708984,7.12799978256226,-6.32486248016357,-1.29795002937317,2.75805020332336,5.68005037307739,0.77205002307892,-2.59395003318787,-3.88500022888184,0.43200001120567,-0.50805002450943,-3.81105017662048,5.4190502166748,2.31000018119812,-4.88400030136108,-4.91505002975464,-8.85195064544678,-8.14605045318604,-25.4929504394531,-27.3079509735107,-18.9330005645752,-9.91995048522949,6.09900045394897,15.2380504608154,0.43005001544952,-24.2860507965088,-41.7810020446777,-35.5999526977539,-11.2540502548218,24.996000289917,33.7470016479492,0.27705001831055,-34.3570518493652,-5.74500036239624,3.27195024490356,5.58300018310547,4.66605043411255,2.7850501537323,4.51005029678345,1.30995011329651,-5.2819504737854,-3.57495021820068,3.82200026512146,6.22695016860962,10.1140508651733,6.37800025939941,-2.14995002746582,-8.07495021820068,SHAKE
21.2447128295898,-16.5541744232178,-17.3621253967285,1.59994995594025,3.61363744735718,22.6315364837646,31.1825256347656,13.4175252914429,-14.0989751815796,-14.0144128799438,3.45166254043579,2.39648747444153,1.38008749485016,0.00412499997765,-0.55797499418259,1.77567493915558,7.94420003890991,10.6022129058838,3.59369993209839,-0.64927500486374,-11.4871625900269,-9.96462535858154,-0.0042624999769,8.93653774261475,10.6235246658325,4.09543752670288,1.68272495269775,-3.14008736610413,0.00467499997467,-1.32646250724792,1.61163747310638,-15.050199508667,-15.8624124526978,-1.71311247348785,-0.61558747291565,10.1404876708984,7.12799978256226,-6.32486248016357,-24.3029880523682,-26.7744121551514,-7.33933734893799,-2.00763750076294,2.49961256980896,0.00206249998882,8.55456256866455,-0.50805002450943,-3.81105017662048,5.4190502166748,2.31000018119812,-4.88400030136108,-4.91505002975464,-8.85195064544678,-8.14605045318604,-0.5869500041008,7.92900037765503,-0.93705004453659,-7.07805013656616,-3.21195006370544,1.81905007362366,7.92405033111572,-24.2860507965088,-41.7810020446777,-35.5999526977539,-11.2540502548218,24.996000289917,33.7470016479492,0.27705001831055,-34.3570518493652,-51.1579513549805,-36.550952911377,-17.4360008239746,-3.22200012207031,1.62495005130768,-1.83195006847382,-5.59995031356812,-5.2819504737854,-3.57495021820068,3.82200026512146,6.22695016860962,10.1140508651733,6.37800025939941,-2.14995002746582,-8.07495021820068,4.75395011901855,7.57800054550171,2.83095002174377,0.67800003290176,0.13695000112057,0.28995001316071,0.17205001413822,SHAKE
0.00412499997765,-0.55797499418259,-4.97914981842041,-7.26962518692017,-19.6050243377686,-21.047399520874,-2.64330005645752,-17.4480628967285,-17.9811496734619,2.34396243095398,3.80655002593994,4.81222486495972,24.6515502929688,27.3950881958008,4.68407487869263,0.00467499997467,-1.32646250724792,3.45179986953735,4.39505004882813,10.2647876739502,15.266900062561,9.44583702087402,16.3645629882813,16.2890758514404,5.35287475585938,1.62167501449585,-4.05900001525879,-5.77995014190674,-5.73925018310547,-3.80998754501343,0.00206249998882,8.55456256866455,-18.4976005554199,-20.8493995666504,-7.49058723449707,-22.7400245666504,-22.1597747802734,-18.9704627990723,-23.8057880401611,-12.6406497955322,-2.57633757591248,0.14162500202656,13.8517503738403,14.1689624786377,0.95466250181198,1.81905007362366,7.92405033111572,8.07000064849854,7.86405038833618,-1.81800007820129,-9.70305061340332,-4.07205009460449,-3.38505005836487,3.98895025253296,6.72600030899048,-2.19900012016296,-10.9980001449585,-0.60600000619888,-0.02700000070035,-9.58800029754639,-1.83195006847382,-5.59995031356812,-6.90795040130615,0.45600003004074,19.5640506744385,9.06405067443848,-17.0820007324219,-44.0020523071289,-50.1810035705566,-28.1920509338379,-3.52305006980896,25.4509506225586,27.1870517730713,2.44605016708374,-28.6519508361816,0.28995001316071,0.17205001413822,-0.44700002670288,0.4650000333786,9.09899997711182,5.42700004577637,-9.08805084228516,-10.7890501022339,5.94000005722046,8.19300079345703,2.42400002479553,2.87205004692078,7.83900022506714,4.05000019073486,-4.97595024108887,SHAKE
-22.1564750671387,-0.8068500161171,1.87398743629456,3.77533745765686,9.56202507019043,24.5258750915527,19.7852878570557,4.71350002288818,16.2738132476807,15.7698745727539,2.72965002059937,2.1096625328064,3.11616253852844,19.0546131134033,21.9540748596191,8.74527454376221,4.8142876625061,3.17528748512268,-2.61524987220764,-6.41795015335083,-9.61221218109131,-8.29179954528809,-2.03596258163452,-3.23881244659424,-1.25042498111725,2.97907495498657,0.57365000247955,-4.3503623008728,-4.69892501831055,-7.03642511367798,-18.1920757293701,-5.02191257476807,-2.43705010414124,1.208899974823,13.2610502243042,20.0102367401123,10.9733247756958,0.45223748683929,-8.20008754730225,-9.77157497406006,-4.59469985961914,-1.89571249485016,4.09502506256104,22.6180629730225,25.1350002288818,9.12105083465576,2.46795010566711,-6.97200012207031,-4.91295003890991,7.34895038604736,2.59200000762939,-4.92000007629395,-7.33605051040649,4.45305013656616,9.60705089569092,-0.66105002164841,-7.58100032806396,-1.57395005226135,8.05305004119873,-2.58900022506714,-38.1940536499023,-20.7700500488281,-3.7390501499176,5.47095012664795,14.5939502716064,15.9660005569458,-0.60600000619888,-30.1699504852295,-44.1720008850098,-32.6710510253906,-13.0699510574341,3.38295006752014,6.91095018386841,14.9839506149292,9.1069507598877,2.46495008468628,4.08599996566772,4.37100028991699,2.28194999694824,3.49005007743835,0.73095005750656,-2.31495022773743,-4.15694999694824,2.05695009231567,5.1589503288269,3.22905015945435,1.31295001506805,0.69495004415512,0.74700003862381,2.96700024604797,SHAKE
-9.81447505950928,-1.88058745861053,2.08010005950928,3.35706257820129,9.62720012664795,29.9777507781982,24.3097248077393,-2.12299990653992,-14.7567749023438,-10.393349647522,1.08377504348755,2.30422496795654,20.3601741790771,21.0575752258301,-0.59193748235703,5.35273742675781,4.46792507171631,2.63779997825623,-1.20216250419617,-9.9906120300293,-8.78020000457764,-1.90643751621246,5.39604997634888,7.1328125,2.82369995117188,2.75165009498596,-1.91991245746613,-6.42991256713867,-7.44163751602173,-0.35103750228882,-9.18637466430664,-6.50471258163452,-2.37682509422302,-0.98944997787476,6.14446258544922,12.7296123504639,5.88156223297119,-8.765212059021,-25.5034999847412,-19.7306995391846,-2.87485003471375,1.58619999885559,21.7036876678467,21.9616374969482,-1.69867503643036,1.16505002975464,6.05595016479492,1.51005005836487,-4.4650502204895,-1.45695006847382,-5.82495021820068,-4.49100017547607,-6.95100021362305,7.75800037384033,2.73405003547668,-8.79705047607422,-7.48695039749146,0.30000001192093,-2.55105018615723,-11.6190004348755,-41.5369529724121,-27.7030506134033,-11.5230007171631,6.09900045394897,26.5429515838623,19.0180511474609,-11.9269504547119,-46.8640518188477,-48.844051361084,-26.8870506286621,4.50405025482178,30.3679523468018,16.6939506530762,-10.3080005645752,-37.3939514160156,2.60805010795593,6.89295053482056,5.67105007171631,2.14095020294189,2.2350001335144,3.43200016021729,-2.20500016212463,-1.24695003032684,4.83105039596558,2.84505009651184,1.60500001907349,3.3120002746582,4.47900009155273,0.31095001101494,-6.19005012512207,SHAKE
