gyro_x_0,gyro_y_0,gyro_z_0,acc_x_0,acc_y_0,acc_z_0,gyro_x_1,gyro_y_1,gyro_z_1,acc_x_1,acc_y_1,acc_z_1,gyro_x_2,gyro_y_2,gyro_z_2,acc_x_2,acc_y_2,acc_z_2,gyro_x_3,gyro_y_3,gyro_z_3,acc_x_3,acc_y_3,acc_z_3,gyro_x_4,gyro_y_4,gyro_z_4,acc_x_4,acc_y_4,acc_z_4,gyro_x_5,gyro_y_5,gyro_z_5,acc_x_5,acc_y_5,acc_z_5,gyro_x_6,gyro_y_6,gyro_z_6,acc_x_6,acc_y_6,acc_z_6,gyro_x_7,gyro_y_7,gyro_z_7,acc_x_7,acc_y_7,acc_z_7,gyro_x_8,gyro_y_8,gyro_z_8,acc_x_8,acc_y_8,acc_z_8,gyro_x_9,gyro_y_9,gyro_z_9,acc_x_9,acc_y_9,acc_z_9,gyro_x_10,gyro_y_10,gyro_z_10,acc_x_10,acc_y_10,acc_z_10,gyro_x_11,gyro_y_11,gyro_z_11,acc_x_11,acc_y_11,acc_z_11,gyro_x_12,gyro_y_12,gyro_z_12,acc_x_12,acc_y_12,acc_z_12,gyro_x_13,gyro_y_13,gyro_z_13,acc_x_13,acc_y_13,acc_z_13,gyro_x_14,gyro_y_14,gyro_z_14,acc_x_14,acc_y_14,acc_z_14,motion_type
-0.20310671627522,-0.41812494397163,-0.36070531606674,0.56999683380127,-0.59099471569061,-0.69422793388367,-0.48806697130203,0.62283515930176,1.63623070716858,1.23246073722839,1.48993277549744,2.10230708122253,1.62798428535461,0.55930703878403,0.41789588332176,0.24029204249382,0.01030804775655,-1.01263201236725,-3.19977068901062,-2.99360966682434,-0.47256672382355,0.98124974966049,1.51207602024078,2.58449482917786,4.19865846633911,2.13216233253479,1.54781055450439,-0.3937674164772,-2.35374712944031,-2.00128841400146,0.42392799258232,1.04210543632507,1.37532258033752,0.18691925704479,0.78005194664001,-3.81428289413452,-8.92234039306641,-10.9339370727539,-14.3052787780762,-12.833366394043,-9.55242919921875,-7.30657291412354,-2.04366588592529,2.44735956192017,4.04144191741943,-2.09461712837219,-3.29940342903137,-1.17338037490845,8.94706249237061,14.3680028915405,37.5448837280273,42.5016136169434,38.0246429443359,28.5634231567383,12.9502553939819,0.57338011264801,-3.35084891319275,-21.4130706787109,-20.1137676239014,-9.57577705383301,1.21465659141541,0.65353965759277,-0.62303119897842,3.00688076019287,5.68086004257202,9.93649482727051,-1.13150596618652,-18.2365989685059,-34.9408950805664,-41.6384048461914,-33.8581428527832,-31.6112804412842,-25.9881477355957,-18.7366981506348,-11.2531461715698,9.74985504150391,8.77717208862305,9.24496936798096,9.86590671539307,7.45035219192505,12.5829572677612,13.8595275878906,19.0555419921875,12.4501552581787,5.26211595535278,3.67328190803528,4.32771873474121,-0.94965147972107,-0.93768739700317,5.16161775588989,SWING_RIGHT
-0.1612636744976,-0.04970769584179,-0.13530266284943,0.30458372831345,-0.46577104926109,-0.96330612897873,1.84147536754608,-0.41934663057327,-0.00908635277301,3.74647903442383,5.11508226394653,2.55891561508179,1.68326592445374,1.24559390544891,-0.03199312463403,-0.22120305895805,-0.13171394169331,-0.51410430669785,-0.9900307059288,-0.82716351747513,-1.73770773410797,-2.30518484115601,0.96231347322464,3.66752696037292,1.57102274894714,-1.0792144536972,-0.65215581655502,-1.64791321754456,-1.15587568283081,-0.41423079371452,0.89244782924652,0.94101017713547,1.03446984291077,0.89794546365738,-0.39529454708099,-2.1441502571106,-7.91932916641235,-13.7130632400513,-16.552661895752,-14.0823202133179,-7.98804950714111,-2.58556365966797,1.37471175193787,3.88689756393433,2.8841917514801,-0.49381875991821,0.88803631067276,1.33549416065216,4.18414926528931,12.1965160369873,24.878475189209,48.5327224731445,48.3197631835938,37.2637252807617,18.0361995697021,-7.84576654434204,-18.5620231628418,-21.4980163574219,-13.9953203201294,-0.38255253434181,1.42642140388489,1.7291134595871,2.70299220085144,3.76061987876892,6.48724126815796,8.22084140777588,2.39431810379028,-14.1520500183105,-38.4858589172363,-49.7931442260742,-47.128734588623,-38.445182800293,-26.982364654541,-14.6748819351196,-0.63379889726639,9.6828556060791,9.64576721191406,9.01884746551514,10.8445711135864,9.28684425354004,14.7388906478882,24.6200504302979,10.9977121353149,15.9975147247314,16.8290214538574,13.4096775054932,2.19212460517883,4.12672185897827,2.9063823223114,2.4972095489502,SWING_RIGHT
-0.53113168478012,-0.38788801431656,-0.30542361736298,-0.1469087600708,-0.00878092925996,0.22608983516693,0.84304559230804,-0.16462333500385,-0.93429088592529,0.03184041380882,2.7523250579834,4.31151247024536,1.37051212787628,0.69216632843018,1.05592584609985,0.01214058883488,0.18012358248234,0.2967953979969,0.22471544146538,-0.31344100832939,-0.68727952241898,-2.63443160057068,-2.78653240203857,2.23356294631958,2.51852321624756,2.60862326622009,-0.60176092386246,-0.80028629302979,0.95559418201447,-0.67597883939743,-0.33695861697197,-0.41850674152374,-0.15523156523705,-0.12591089308262,-0.06238277629018,-0.14576342701912,-1.76542496681213,-4.35915851593018,-10.8047428131104,-14.5028886795044,-13.810492515564,-11.541729927063,-7.29741048812866,-1.81337642669678,1.53567004203796,1.15962171554565,1.5699907541275,0.73369926214218,1.32233357429504,1.64656102657318,4.73569488525391,14.9171552658081,32.2507629394531,52.9462852478027,44.0473785400391,28.3038024902344,14.336895942688,-4.19910478591919,-18.3263301849365,-16.7614231109619,1.09740829467773,1.16081809997559,1.39651107788086,1.27088797092438,1.63579332828522,2.34526538848877,5.37457895278931,10.6423778533936,0.85094755887985,-21.5494613647461,-32.6294250488281,-41.5618324279785,-39.073299407959,-31.4605331420898,-20.2346057891846,9.33111095428467,10.3683996200562,10.2643117904663,10.3564357757568,10.7416801452637,11.6485595703125,12.5207433700562,10.289436340332,11.3279218673706,13.1656093597412,17.4284229278564,11.9656085968018,4.31096887588501,7.20867729187012,4.39950370788574,SWING_RIGHT
0.07459972053766,-0.00939177628607,-0.51769304275513,-0.54212695360184,0.37483114004135,0.59534698724747,0.93864315748215,-2.42353653907776,-1.90187299251556,2.19362878799438,5.70584774017334,2.47003722190857,-0.86923563480377,0.05444176122546,0.79998081922531,0.23998661339283,-0.14637427031994,0.12209309637547,0.02496838197112,-1.20963025093079,-2.6322934627533,-3.14632153511047,1.25399303436279,5.35445785522461,4.58998250961304,0.86824303865433,0.29068693518639,1.0899806022644,-0.84243470430374,-0.89038622379303,0.07200361788273,-0.1042258143425,-0.29481014609337,-0.19951798021793,-1.19214475154877,-1.28132843971252,-5.91933917999268,-11.5356216430664,-16.3275661468506,-14.7716608047485,-10.9489030838013,-7.28824758529663,-2.65275692939758,1.65692317485809,1.93577492237091,1.55443739891052,1.70039963722229,1.9456639289856,2.52951264381409,9.15523815155029,15.1827583312988,42.3903503417969,53.2035140991211,50.1837730407715,26.0605297088623,14.3991088867188,-1.12552392482758,-15.7193489074707,-17.5247344970703,-4.58913469314575,0.74566334486008,0.8916255235672,0.65473610162735,1.03280210494995,3.1588249206543,6.73968410491943,9.83240699768066,-5.50797843933105,-26.5373001098633,-42.0057029724121,-47.4469795227051,-41.4254417419434,-31.715368270874,-18.7402877807617,-7.43778991699219,8.90997409820557,8.38474941253662,7.98514842987061,10.0202436447144,12.1725883483887,11.239387512207,14.9183521270752,5.60070037841797,13.8834562301636,16.7799682617188,11.7335052490234,-3.10319185256958,-3.89401984214783,4.44975280761719,5.88185739517212,SWING_RIGHT
-0.19302773475647,-0.01397313084453,0.74164491891861,0.57702159881592,0.14973393082619,1.35401928424835,1.4355673789978,0.54709005355835,1.55498802661896,4.28494071960449,3.02537369728088,0.93864315748215,0.68544697761536,0.41728502511978,-0.2012741714716,-0.15248274803162,-0.59901207685471,-0.46096062660217,0.17401511967182,0.15843850374222,-0.96773475408554,-1.32599663734436,0.43759569525719,-0.06482616811991,0.4131618142128,-1.42037260532379,-2.16102480888367,-1.20901942253113,-0.75844323635101,-0.32046574354172,0.44622391462326,0.28282228112221,-0.55197685956955,-0.9743777513504,-0.81158691644669,-2.57151412963867,-6.52560472488403,-10.4519023895264,-13.8947896957397,-15.0062265396118,-12.0536203384399,-7.0243616104126,-0.96154993772507,3.25161623954773,3.72135782241821,3.49501657485962,3.41007137298584,6.17976379394531,5.41166734695435,5.53130865097046,18.812671661377,34.3349113464355,41.4368095397949,44.0007171630859,20.4780750274658,5.5049877166748,-12.453145980835,-22.2457733154297,-16.6334075927734,-4.90738010406494,0.61046886444092,2.10239386558533,2.28424835205078,2.46131730079651,4.26909446716309,6.99093055725098,6.27428007125854,-3.94307255744934,-21.5841579437256,-46.2912483215332,-48.1349182128906,-41.3668174743652,-28.9660148620605,-16.1321105957031,-6.08584547042847,10.2559366226196,10.9067850112915,13.2673044204712,10.5466651916504,10.2619190216064,16.4234371185303,17.0958213806152,16.2236366271973,21.8228416442871,11.3662071228027,5.27168750762939,4.09920406341553,7.50658369064331,6.37717151641846,6.60568618774414,SWING_RIGHT
0.02359397523105,0.06421531736851,-0.25319617986679,-0.4077405333519,-0.40193748474121,-0.54945713281631,-0.52960455417633,0.15584240853786,0.14698512852192,1.20100212097168,3.66737413406372,5.86802768707275,4.93304967880249,1.32133901119232,-0.54059982299805,-0.07398887723684,0.09277242422104,0.16179816424847,0.23051849007607,-0.48967042565346,-2.6539785861969,-2.0232789516449,-1.07585477828979,2.03045630455017,4.58540153503418,5.66507387161255,3.0353000164032,1.30713677406311,1.09517276287079,-0.72270864248276,0.90008342266083,0.78463327884674,0.74767702817917,1.1092985868454,1.42999339103699,1.45870327949524,0.96972000598907,-3.59437799453735,-8.45534801483154,-14.4476070404053,-14.9014663696289,-11.422308921814,-7.77539825439453,-4.15880107879639,0.12697987258434,0.72173511981964,1.18115711212158,0.45732823014259,-0.26769703626633,-0.48783671855927,-0.52013981342316,9.41964530944824,45.0475769042969,58.8601455688477,44.3249473571777,36.4405937194824,17.4918327331543,5.28006219863892,-6.3275203704834,-16.2302169799805,-0.42083767056465,-0.41126638650894,-0.23419751226902,-0.85633140802383,-1.04177510738373,-0.57038909196854,2.51994132995605,16.0752811431885,6.91436004638672,-15.7384920120239,-37.0908432006836,-44.9907493591309,-38.3351135253906,-30.9137725830078,-21.9299201965332,9.61705303192139,9.59073257446289,8.53430080413818,9.01765155792236,8.58096122741699,8.07368278503418,11.4846515655518,19.8056926727295,14.4206447601318,18.5135669708252,16.187744140625,8.92193794250488,0.97298151254654,-6.64098024368286,-2.77657151222229,SWING_RIGHT
-0.08025006204844,-0.41384902596474,-0.89366954565048,-1.50115716457367,-0.37750360369682,1.5339138507843,1.29537796974182,0.25632679462433,0.75264018774033,4.99535608291626,6.49445152282715,3.55772709846497,0.56572091579437,-0.71896719932556,-0.08880192041397,-0.04283566400409,0.53746920824051,0.71339327096939,0.61077088117599,-1.1622896194458,-3.3756947517395,-2.19462156295776,1.65898478031158,4.85661745071411,3.82054424285889,0.88779014348984,0.40552622079849,-0.52907007932663,0.54418855905533,-0.03550549596548,1.22016739845276,1.0250016450882,1.05615496635437,1.22322165966034,1.17343759536743,-1.00980687141418,-5.35491609573364,-11.4751472473145,-16.0331363677979,-14.8022031784058,-12.9002542495728,-9.60496234893799,-5.24252033233643,-0.91695809364319,1.73755502700806,1.87746846675873,1.33429777622223,0.62841504812241,0.8018946647644,2.96380996704102,13.2637147903442,29.9022064208984,48.8689155578613,52.0872611999512,34.1506652832031,22.6579360961914,8.39432048797607,-3.02901434898376,-9.83898735046387,-8.52054214477539,0.47048875689507,0.19411773979664,-0.12053844332695,-0.09062815457582,1.10219395160675,5.14726066589355,9.27248668670654,6.81386137008667,-20.8447761535645,-31.4844608306885,-33.186954498291,-34.3797760009766,-31.0202541351318,-24.7570400238037,-15.8054904937744,10.0776720046997,8.79751110076904,6.97537708282471,9.23300552368164,13.5484609603882,18.7588329315186,17.8352031707764,18.7372970581055,17.7897396087646,20.8657131195068,12.6009035110474,2.12153649330139,1.88703978061676,4.11595392227173,7.01366233825684,SWING_RIGHT
0.68636327981949,0.18424680829048,-0.2422009408474,0.28350949287415,0.34551048278809,-0.00572669319808,0.58557343482971,2.09161734580994,1.20191836357117,0.44843825697899,4.16949081420898,3.04492092132568,0.11155597865582,-0.95444881916046,1.24712097644806,-0.86045473814011,0.03718532621861,0.09429954737425,-0.4933355152607,-0.51715856790543,-1.08104693889618,-1.33454859256744,-1.09509646892548,1.66814756393433,4.80774974822998,-0.08559497445822,-0.78348797559738,-1.80948233604431,-0.67689514160156,-0.33695861697197,1.45778703689575,1.58759200572968,1.55063581466675,1.48038828372955,1.59919810295105,1.63340556621552,1.13648128509521,-3.80267691612244,-12.7173051834106,-15.7151145935059,-12.9735555648804,-11.098560333252,-9.06741714477539,-5.47769641876221,-0.97285062074661,3.16002130508423,1.99112749099731,2.21485638618469,2.48165607452393,2.7508487701416,3.8659040927887,8.72453022003174,29.3410911560059,53.6689186096191,37.1967277526855,11.5109720230103,15.3574352264404,12.404691696167,1.61665081977844,-10.8080806732178,-1.10877418518066,-1.77158606052399,-2.13529515266418,-2.02881455421448,-1.75603270530701,-0.45314079523087,1.3857433795929,7.59751081466675,1.94327104091644,-12.8970146179199,-12.9161577224731,-16.0675048828125,-25.4952259063721,-29.8693065643311,-25.421049118042,11.0826568603516,8.3261251449585,8.43021297454834,10.3648099899292,9.09661483764648,8.49840831756592,12.1139640808105,17.259729385376,14.9147624969482,8.79751110076904,17.8986129760742,6.20967388153076,3.49860572814941,6.55184745788574,10.7967147827148,SWING_RIGHT
-0.02619007602334,-0.44042086601257,-1.08639180660248,-1.07173156738281,-0.36009445786476,0.57213479280472,1.47710502147675,1.98166489601135,-0.45447036623955,0.10330954194069,1.97555637359619,1.76542496681213,0.81097608804703,0.98384588956833,0.74897509813309,0.03474193811417,-0.07124006003141,-1.22001469135284,-2.89862298965454,-2.1063539981842,-0.01931804418564,3.30804324150085,3.16296720504761,2.22898173332214,0.83128678798676,-6.33448600769043,-0.09475768357515,1.6959410905838,0.32672691345215,0.21036052703857,0.19791451096535,0.75195294618607,1.99808132648468,3.14868855476379,2.32183051109314,-2.28189635276794,-8.07356834411621,-16.4433212280273,-19.5547485351563,-16.4442367553711,-8.42938709259033,-0.23616881668568,2.51882863044739,3.03690361976624,2.57472109794617,1.73030984401703,0.94785684347153,0.06729813665152,3.4698920249939,13.1883411407471,25.4790744781494,32.5582389831543,41.4427909851074,30.0876502990723,3.28085899353027,-24.0236396789551,-19.5981140136719,-4.15244436264038,-0.89581298828125,1.59511542320251,-2.38893437385559,-2.10299205780029,-2.14725923538208,-2.86630249023438,-4.70159721374512,-1.30019998550415,-4.43958330154419,-18.5249328613281,-42.3538589477539,-39.7815742492676,-31.1446800231934,-21.1486644744873,-13.3803653717041,-4.82722043991089,1.37856495380402,9.18036270141602,7.54127979278564,6.87966442108154,8.79870796203613,11.0276222229004,12.9430770874023,12.2970142364502,5.70359182357788,-1.49401867389679,3.50817704200745,12.5087795257568,9.02841854095459,7.03878688812256,8.51635456085205,7.38933563232422,SWING_RIGHT
-0.79685026407242,-0.69819843769073,-0.71713465452194,-0.62062078714371,-0.22418093681335,-1.00759255886078,-0.53632390499115,-0.59588152170181,-2.51943945884705,-0.39796698093414,1.82437169551849,2.62190914154053,2.10902643203735,0.5119663476944,-0.11545012891293,0.0200816038996,-0.65551549196243,-1.2649120092392,-2.53547430038452,-4.01135778427124,-2.60877585411072,4.19132852554321,4.86669635772705,5.01543760299683,2.20149350166321,-2.54891300201416,1.08814799785614,0.34596860408783,0.96689486503601,0.34291437268257,-0.4148416519165,-0.03520007431507,0.67406994104385,2.81631135940552,4.29219484329224,-1.4172420501709,-9.38169765472412,-17.3748626708984,-18.5737266540527,-15.4374847412109,-6.61662101745605,-3.67256641387939,-0.84335100650787,2.50019788742065,3.83283758163452,-0.80129647254944,0.13310076296329,-0.20907287299633,-2.3195424079895,4.07168674468994,30.8856582641602,44.3967323303223,48.1546592712402,31.6501636505127,6.50040197372437,-21.1618251800537,0.24795624613762,-5.62044143676758,-8.97637462615967,-3.36042022705078,-0.55244290828705,-0.65892350673676,-1.09920287132263,-2.4870400428772,-4.32951354980469,2.46610283851624,-1.19491577148438,-15.7073850631714,-41.7221527099609,-35.7604370117188,-21.7911357879639,-20.362621307373,-18.1971168518066,-11.8681011199951,-6.13968372344971,8.34885692596436,9.44835948944092,8.90877819061279,9.6828556060791,9.15284538269043,7.46829843521118,11.54088306427,0.38554355502129,-3.64875531196594,5.20109891891479,12.5398864746094,8.73410129547119,5.02881574630737,3.77138757705688,5.53370141983032,SWING_RIGHT
0.24930204451084,-0.03901786729693,-0.04451549425721,-0.03504735976458,-0.18691925704479,-0.84968852996826,-1.37562799453735,0.22670069336891,-0.36162158846855,-2.00113558769226,-1.07722914218903,1.25567293167114,3.4187593460083,1.90714144706726,0.64849072694778,-0.08254073560238,0.09949174523354,0.21921780705452,0.04909684881568,-0.15981291234493,-0.32932302355766,-1.36295294761658,-0.59534698724747,2.96871757507324,5.07988214492798,2.65993428230286,-0.27129253745079,0.27480491995811,-0.35681116580963,0.04756972938776,0.24769856035709,0.37261682748795,0.77547061443329,1.28858232498169,1.90950858592987,2.23570108413696,1.93424785137177,-3.9416446685791,-12.9976844787598,-17.152515411377,-18.3870372772217,-13.2262172698975,-6.48376178741455,-1.19703161716461,3.76717138290405,1.77696990966797,1.13688981533051,0.47647079825401,-0.18035900592804,-0.17916259169579,1.61545443534851,8.60608577728271,35.6521606445313,50.3153762817383,38.5857620239258,29.4511604309082,4.6627140045166,-7.19850778579712,-11.6240329742432,-11.0258274078369,0.06490531563759,0.30299118161201,0.10319047421217,-0.13250255584717,-0.13968102633953,0.28025934100151,1.84636175632477,7.23260545730591,-4.80209589004517,-22.6298217773438,-39.6834678649902,-39.5590400695801,-30.4854583740234,-29.5091857910156,-19.7297191619873,9.78694343566895,8.83579635620117,9.68764114379883,9.68524837493896,9.35982513427734,8.00070190429688,8.86690330505371,15.3490600585938,8.75563716888428,0.88923269510269,4.66749954223633,10.313364982605,10.0453681945801,2.04975175857544,4.13748931884766,SWING_RIGHT
0.00557398144156,-0.06925480812788,-0.24647687375546,-1.11143660545349,-1.58820283412933,-0.2498365342617,1.67379784584045,1.52444565296173,1.55895853042603,-0.37017342448235,0.53487312793732,-0.2089097648859,1.28590989112854,1.59988534450531,1.03210282325745,-0.03397838026285,-0.0837624296546,-0.73859071731567,-0.91092598438263,-0.08681666851044,0.78241896629333,1.44732618331909,2.45132994651794,0.15202461183071,2.64710664749146,-4.58921909332275,0.17981816828251,-0.03642176836729,0.58145022392273,0.31970217823982,0.70430690050125,1.02591800689697,1.74274718761444,2.33190941810608,1.7629052400589,-1.81826317310333,-7.23540925979614,-12.6165161132813,-19.6530933380127,-19.3635520935059,-11.2796764373779,-4.37229204177856,-0.58374089002609,0.99171054363251,1.55094122886658,3.10379004478455,3.54646229743958,3.88504672050476,5.72153806686401,10.468897819519,22.0980167388916,29.5109806060791,32.2806739807129,41.2633285522461,20.6850547790527,-14.1616220474243,-11.3093767166138,-7.17816877365112,-1.95463705062866,-0.87786680459976,-0.2533400952816,-0.3155534863472,-0.25692933797836,-1.7847466468811,-2.24416851997375,-1.56699967384338,-4.24456834793091,-12.979567527771,-29.1059951782227,-46.7734031677246,-32.3004150390625,-21.8701000213623,-17.4720916748047,-9.41186904907227,-2.69521570205688,8.61685371398926,9.09182834625244,8.74008369445801,6.63320350646973,9.08704280853271,13.9468660354614,15.6816625595093,8.02104091644287,11.9536447525024,0.18454644083977,9.10140037536621,8.21605587005615,11.3087787628174,7.35224676132202,6.00867652893066,SWING_RIGHT
-0.63100522756577,-1.26842439174652,-1.33592295646667,0.23036576807499,1.82284462451935,2.28525590896606,1.44656264781952,0.80670017004013,-1.57293164730072,1.09135496616364,2.93069243431091,1.51558840274811,0.06513158977032,0.23616881668568,0.8149465918541,-1.23284244537354,-1.65066206455231,-1.56422710418701,-1.57094645500183,-1.54498541355133,-1.75878202915192,-0.3439833521843,1.7952800989151,5.65774345397949,2.53929209709167,-1.49520134925842,-0.82074964046478,-1.03004121780396,-0.15339902043343,-0.37849622964859,1.82582247257233,3.86887741088867,4.31082534790039,3.49717688560486,1.65447974205017,-1.73640966415405,-7.40094900131226,-15.315315246582,-19.2132835388184,-17.9029407501221,-11.1016139984131,-5.52015018463135,0.11903885751963,3.51916742324829,3.60835123062134,-1.02981102466583,-2.94167637825012,2.05453729629517,3.37776827812195,8.64078140258789,20.321346282959,37.6202583312988,50.1765937805176,42.3819732666016,21.3047962188721,-6.17318344116211,-11.2579317092896,-15.8916320800781,-10.2314109802246,-0.66011995077133,-1.23559379577637,-3.60089898109436,-5.89920520782471,-4.78175687789917,-2.85673117637634,0.55543392896652,1.71475648880005,-10.0124673843384,-33.8748893737793,-43.002311706543,-37.5490684509277,-30.9592361450195,-24.6864528656006,-14.8040943145752,-5.03061056137085,8.80229759216309,7.96959495544434,10.7105731964111,14.6491594314575,14.7903356552124,12.6308135986328,9.5895357131958,9.77497959136963,-3.98016142845154,6.58175802230835,6.16540670394897,1.07108724117279,2.91116786003113,6.53150844573975,7.69681310653687,SWING_RIGHT
-0.33046835660934,-0.00878092925996,0.06574243307114,-0.37017342448235,-0.3915531039238,1.16526746749878,2.06015872955322,-0.79379600286484,-5.87650346755981,-3.34660315513611,-0.32038938999176,1.29476714134216,2.62068748474121,2.66558480262756,1.74099099636078,-0.19463120400906,0.19111883640289,-0.65673714876175,-1.04012012481689,-0.82502555847168,-3.3378221988678,-5.21625375747681,-2.5125675201416,4.70665454864502,1.95929253101349,-0.59107106924057,0.4925719499588,1.066157579422,0.7118661403656,1.48947465419769,1.75068819522858,2.22837090492249,2.26318907737732,2.42933964729309,2.60404181480408,1.09280574321747,-3.29567360877991,-12.1785383224487,-17.5846881866455,-17.7300701141357,-12.7237195968628,-6.89486217498779,-3.84085488319397,-0.13904410600662,2.07749152183533,1.03519487380981,0.63439708948135,1.51495587825775,1.5616158246994,2.35124731063843,9.55484008789063,24.4848575592041,49.0352172851563,44.6455841064453,25.2074890136719,3.52731966972351,-5.16580486297607,1.04476618766785,-7.14107990264893,-6.17557621002197,-0.152841553092,-0.88504528999329,-0.308375030756,-0.46510490775108,-0.86350989341736,1.19551396369934,5.52771949768066,3.36221480369568,-19.4581336975098,-32.2262344360352,-24.3418865203857,-21.8246364593506,-24.9173603057861,-20.5707969665527,-12.5201454162598,9.10379314422607,10.8409824371338,9.54048252105713,8.18734169006348,9.36221790313721,13.7195472717285,11.1867446899414,5.67607450485229,-9.42263603210449,8.13350296020508,13.5173540115356,13.3235359191895,11.8375930786133,7.75783014297485,4.69023132324219,SWING_RIGHT
-0.20677179098129,0.10666920244694,0.16439427435398,-0.13591352105141,-0.15332266688347,-0.54334861040115,0.11888615041971,0.3143572807312,-0.80754005908966,-1.04149460792542,-0.41934663057327,0.87694758176804,2.15514540672302,2.47553491592407,1.91935849189758,0.15477342903614,-0.11858072131872,-0.08773294091225,0.04146125912666,-0.27831727266312,-1.17664456367493,-4.08313226699829,-3.04797506332397,3.65683722496033,3.9631769657135,2.74484205245972,-1.2389509677887,0.03260397166014,0.4992912709713,0.40980216860771,0.34390699863434,0.46027341485023,0.57114219665527,0.76722413301468,1.03324818611145,1.65906119346619,0.11262496560812,-7.04574155807495,-14.7221822738647,-19.0724830627441,-17.9460048675537,-11.1859111785889,-3.89857983589172,0.25625041127205,3.13066864013672,1.07706928253174,1.00528466701508,1.21346020698547,0.97896355390549,0.9119645357132,1.64416825771332,15.4495582580566,39.0990219116211,48.5554580688477,39.130126953125,22.9331111907959,-5.99252510070801,-12.2916307449341,-7.32772016525269,-7.65553712844849,0.18215362727642,0.23718854784966,0.12831512093544,0.15942180156708,0.33409786224365,0.34725838899612,2.12033987045288,3.39332151412964,-11.369197845459,-27.1115779876709,-41.5295295715332,-36.9568481445313,-28.7267322540283,-23.2734909057617,-12.4148607254028,9.19591617584229,10.712965965271,9.85753154754639,9.32034301757813,10.2679014205933,9.29880809783936,12.4692983627319,14.8501567840576,8.31296539306641,3.37417912483215,4.40428924560547,8.24716281890869,8.88125991821289,4.93429946899414,3.25334143638611,SWING_RIGHT
-0.42148461937904,-0.44103172421455,-0.50730866193771,-0.36467581987381,0.18546849489212,1.52047514915466,1.19306099414825,1.59469318389893,0.30122405290604,0.54953348636627,3.33385157585144,2.18721485137939,0.18210883438587,1.26514101028442,2.25104856491089,0.49012857675552,0.55121332406998,0.70911729335785,1.32362961769104,0.21219307184219,-2.21447396278381,-2.32931327819824,-1.22429060935974,1.76435589790344,3.00048184394836,-0.51410430669785,-1.13113641738892,0.44492587447166,1.0197331905365,1.22803211212158,-0.38307759165764,-0.20929154753685,0.0567324385047,0.12820157408714,0.80967801809311,-1.57575690746307,-6.26813268661499,-14.0303983688354,-19.3113250732422,-19.1354007720947,-15.005615234375,-8.74427890777588,-1.92088556289673,3.26230621337891,5.44883394241333,2.54506587982178,2.55822658538818,2.75563430786133,2.49960231781006,1.86311149597168,14.9949226379395,28.4294242858887,46.5143775939941,46.602912902832,30.4322166442871,12.7935256958008,-3.49082922935486,-14.7131671905518,-16.4048938751221,-8.91894721984863,-0.26889345049858,-0.13130614161491,-0.33708888292313,-0.0882353335619,-0.39690944552422,1.90737879276276,0.78634136915207,-8.23101043701172,-32.2764854431152,-41.799919128418,-41.7460823059082,-39.1929397583008,-32.4487686157227,-21.3963203430176,-10.6716899871826,8.80708312988281,9.47348403930664,10.5693969726563,13.3953199386597,14.899209022522,16.8397884368896,13.7099761962891,17.2441749572754,8.67667388916016,5.3075795173645,11.7526473999023,6.648756980896,4.89122867584229,9.61107158660889,6.23001289367676,SWING_RIGHT
-0.32588702440262,-0.67009943723679,0.23311458528042,0.50921756029129,-0.23914669454098,0.65826427936554,0.88977539539337,1.49115455150604,0.15095563232899,-3.77480697631836,-0.95322716236115,2.00915288925171,2.38910007476807,1.89797878265381,1.72633075714111,0.02863346599042,-0.55930703878403,-1.95028257369995,-1.94295239448547,-0.70896458625793,-0.87908554077148,-1.15007269382477,-2.26150918006897,-1.41548585891724,2.8905291557312,0.97758466005325,-1.0618052482605,-0.57396733760834,-0.91398018598557,0.62237697839737,0.67742961645126,0.97185796499252,0.45874628424644,0.71408045291901,1.80444276332855,0.71255332231522,-1.33416676521301,-7.2925238609314,-16.5288391113281,-19.7239532470703,-18.0764217376709,-11.5481433868408,-4.96970081329346,1.3081294298172,4.81446886062622,-0.25214368104935,-0.37537404894829,2.33449769020081,1.46709942817688,1.80209457874298,10.448558807373,16.9331092834473,38.3955307006836,58.1087989807129,45.563232421875,24.944278717041,-2.57078886032104,-11.4565353393555,-15.7899379730225,-6.07986307144165,0.4668995141983,0.46929234266281,0.04815555736423,-0.39332023262978,-0.66729843616486,1.44676041603088,3.88863587379456,7.38215684890747,-5.82143831253052,-31.4043025970459,-45.836612701416,-38.771800994873,-34.7446823120117,-26.4056949615479,-15.6451721191406,8.70060253143311,7.97079133987427,11.5540428161621,10.1542415618896,9.07148933410645,13.9815616607666,10.9235343933105,13.3163566589355,10.5789680480957,-2.6054847240448,13.7697973251343,13.2924289703369,7.50419092178345,6.75763034820557,7.57118988037109,SWING_RIGHT
-0.09185615926981,-0.31672430038452,-0.18997350335121,0.11186140775681,0.35955995321274,1.94990086555481,0.7312605381012,0.35039725899696,1.04951190948486,0.13232478499413,2.03267049789429,3.8249728679657,2.74071884155273,1.57636773586273,1.25261867046356,-0.08192989230156,-0.24808034300804,-0.3980433344841,-0.26243525743484,-1.06302690505981,-3.56696629524231,-1.20077300071716,2.85296201705933,2.62114548683167,2.34351539611816,-0.269765406847,-2.37359976768494,0.70514678955078,1.50718927383423,0.18409408628941,1.19848227500916,1.25070977210999,1.21772396564484,1.45748150348663,1.81360554695129,2.07810235023499,-0.2444152534008,-8.32890224456787,-16.4677543640137,-19.0236167907715,-16.578929901123,-8.59339904785156,-2.27945280075073,0.98712915182114,2.53898668289185,0.64396840333939,0.65952175855637,1.07108724117279,0.83419781923294,1.94446754455566,8.61565685272217,23.2776775360107,45.0224533081055,46.2236518859863,33.382568359375,14.3153610229492,-12.5680017471313,-8.81844902038574,-7.78235673904419,-5.52712106704712,-0.4495515525341,-0.68045896291733,-0.82283186912537,-0.68644100427628,0.18933209776878,3.41007137298584,5.64855718612671,2.97338128089905,-16.7913341522217,-37.2846641540527,-45.7337188720703,-36.5129776000977,-25.2116775512695,-16.4048938751221,-7.16141891479492,8.86690330505371,8.98654460906982,10.6028966903687,11.1197462081909,11.2106733322144,15.84557056427,10.3217391967773,16.2104759216309,13.5329074859619,4.17338180541992,9.47348403930664,11.4415807723999,4.02861595153809,3.81804752349854,4.81226539611816,SWING_RIGHT
0.42858570814133,0.35009184479713,-0.19241689145565,-0.58885675668716,-0.26541313529015,-0.09529217332602,0.7388961315155,1.07791638374329,-4.08297920227051,-3.69173169136047,0.39162945747375,2.06993222236633,1.26514101028442,0.79173439741135,1.55376636981964,-0.90390121936798,-0.19432578980923,0.24120831489563,-0.36658471822739,-1.26246857643127,-2.50065588951111,-3.99119973182678,-2.03641200065613,3.71150803565979,5.75273036956787,0.62420952320099,-1.33607566356659,0.08788564801216,0.97025454044342,1.43572008609772,1.72136759757996,1.81849229335785,1.97639632225037,2.48737001419067,2.76805424690247,1.80291569232941,-0.66162395477295,-8.70884895324707,-16.8281555175781,-19.8668899536133,-17.4185390472412,-8.75557899475098,-1.72449815273285,2.34198832511902,4.19629144668579,1.33908331394196,1.71236371994019,1.14406836032867,-0.14327025413513,1.1165509223938,7.36540699005127,18.3101787567139,47.6748962402344,53.3363151550293,37.7111854553223,18.2934284210205,-13.0070848464966,-11.8477621078491,-10.2026968002319,-3.21445822715759,0.59970116615295,0.09601201117039,-0.17796617746353,-0.4423730969429,-0.68404817581177,0.70378893613815,2.84297251701355,6.34127902984619,-13.8888397216797,-39.1953315734863,-47.5008201599121,-39.0673179626465,-28.7410907745361,-18.3155612945557,-9.29701328277588,8.73529815673828,9.61705303192139,8.73529815673828,8.76999378204346,10.4174528121948,9.44118118286133,12.4226379394531,14.0054903030396,-6.25573587417603,1.14406836032867,10.9019994735718,10.8768739700317,3.93290305137634,5.22263431549072,6.56141901016235,SWING_RIGHT
-0.08025006204844,-0.03077143058181,-0.05092938989401,-0.01763821393251,0.51166093349457,-0.29931515455246,-0.76081025600433,1.21566236019135,-1.23299515247345,-1.89148855209351,2.16675162315369,3.84726881980896,2.16461372375488,0.54128700494766,0.70499408245087,0.22838051617146,-0.18119256198406,0.04085041210055,-0.58740597963333,-2.22760725021362,-1.73740231990814,-0.35131353139877,-0.69888561964035,2.76072406768799,5.13058233261108,0.15843850374222,-0.64726901054382,0.08941277116537,0.56587362289429,0.29465743899345,0.28404396772385,0.42056834697723,0.57114219665527,1.74671769142151,2.76622176170349,-0.32016032934189,-5.74372053146362,-14.111946105957,-19.9835624694824,-19.2758960723877,-14.4137048721313,-6.55981254577637,-0.69155544042587,3.57231116294861,6.23415422439575,1.90020024776459,1.51734864711761,1.71834576129913,0.70618176460266,4.83978271484375,21.8730907440186,34.894832611084,46.3468818664551,45.4555549621582,19.9396896362305,0.92991071939468,-17.4900379180908,-15.1426792144775,-13.9953203201294,-9.01585674285889,1.06031954288483,0.86410808563232,1.04715895652771,0.69780689477921,0.142672047019,3.28085899353027,-0.152841553092,-10.8320093154907,-40.4994201660156,-52.9205627441406,-46.822452545166,-32.5277328491211,-25.5514583587646,-17.463716506958,-10.3043918609619,8.70179843902588,9.8635139465332,10.0657072067261,10.9103736877441,11.6353988647461,8.80229759216309,12.3185501098633,19.6561412811279,5.73709154129028,-2.34347057342529,10.8792676925659,7.87507820129395,0.46331027150154,2.04257321357727,5.12213611602783,SWING_RIGHT
0.19860170781612,-0.25319617986679,-1.04393792152405,-0.85304820537567,0.8992435336113,2.08611965179443,1.11639976501465,-0.19394400715828,-2.85884141921997,-0.48989951610565,1.92852115631104,3.30911231040955,3.41631603240967,1.11853766441345,-0.42606595158577,0.1523300409317,0.43270891904831,0.21433103084564,-0.58282464742661,-1.35867702960968,-0.01992889121175,-0.41392537951469,0.00511584570631,4.64007234573364,1.46962213516235,-1.66623866558075,1.48580956459045,0.18134528398514,-0.18852274119854,0.09216158092022,0.96116816997528,1.38326358795166,2.45468974113464,2.73109817504883,1.81604886054993,-2.87815952301025,-9.27113437652588,-16.7383594512939,-19.419750213623,-17.0550842285156,-9.65749549865723,-3.0354528427124,-0.47562095522881,2.05641722679138,2.98070549964905,1.89302182197571,0.4668995141983,-1.15902352333069,2.0808584690094,8.1382884979248,24.2683067321777,33.4770851135254,41.9775848388672,35.3327178955078,12.7002048492432,-11.3010025024414,-11.9004039764404,-3.1737802028656,-5.45174741744995,-0.63140606880188,0.30897322297096,-0.05712864175439,-0.57637113332748,-1.07048904895782,-0.39810585975647,3.23898458480835,-1.25832557678223,-13.5634164810181,-39.6559524536133,-41.4015159606934,-31.2571430206299,-23.5929317474365,-20.4272270202637,-11.006685256958,-3.91794800758362,9.82762145996094,8.58096122741699,8.54506874084473,11.0527467727661,14.8142642974854,13.8535461425781,10.2367944717407,12.1989088058472,-0.28325039148331,8.74606609344482,11.13649559021,8.93150997161865,4.53469800949097,1.41326081752777,4.57896518707275,SWING_RIGHT
-0.1747023165226,-0.04237752780318,0.07276718318462,0.0116824535653,-0.2275405973196,-0.71255332231522,-0.10323318839073,-0.77883023023605,-4.09855604171753,-0.94406443834305,2.99635863304138,3.3723349571228,3.86437249183655,2.93405199050903,0.68819576501846,-0.00129805039614,-0.28473117947578,-0.24685864150524,0.11445750296116,0.31206658482552,-1.37669706344604,-4.41298961639404,-0.65307205915451,5.48273611068726,6.35319328308105,3.89415121078491,4.0581636428833,1.8071916103363,0.3413872718811,0.34993913769722,-0.04161396995187,0.15843850374222,0.33474430441856,0.61115270853043,0.85885125398636,-1.01194489002228,-3.88055992126465,-9.04512119293213,-13.5108728408813,-13.5459957122803,-10.2939977645874,-8.20948219299316,-5.66186666488647,-2.79569530487061,-0.91879063844681,0.3975076675415,-0.44356951117516,-0.5608177781105,-0.81924265623093,-0.79292160272598,6.87846755981445,16.8134670257568,37.7638244628906,40.8146743774414,22.6411876678467,12.6367950439453,13.7446727752686,3.69242453575134,-4.49581480026245,-6.11814832687378,1.21226382255554,0.74207413196564,-0.10498509556055,-0.79172521829605,-0.76660054922104,1.39052903652191,4.83140802383423,9.56441116333008,-1.12791681289673,-6.99392127990723,-10.2792673110962,-20.403299331665,-25.698616027832,-21.6188526153564,-14.6007041931152,9.64815998077393,10.3731851577759,10.5012016296387,10.0645112991333,8.95902729034424,6.283851146698,11.960823059082,11.9907331466675,1.17876422405243,16.1339054107666,17.8483638763428,7.27089071273804,5.33629369735718,0.70618176460266,-1.73569369316101,SWING_RIGHT
0.34367793798447,0.00251974491403,-0.11942064017057,0.01382041908801,0.75813782215118,1.19092309474945,0.93314552307129,2.32221221923828,0.34153997898102,-2.23631191253662,1.0348516702652,3.38119220733643,2.71720123291016,0.47317755222321,0.08590039610863,0.03077143058181,0.21433103084564,-0.07246175408363,-0.65429377555847,-1.37944579124451,-1.39135730266571,-0.33085015416145,-1.48512244224548,-1.11953032016754,4.49194145202637,2.02892923355103,0.39575266838074,-0.20715357363224,-0.36139249801636,0.33955472707748,0.29503923654556,0.36589750647545,0.62062078714371,1.82276821136475,2.89121651649475,1.35791349411011,-1.57820022106171,-7.9006986618042,-17.1042575836182,-19.6503448486328,-18.0165576934814,-11.4846153259277,-5.35613775253296,0.12820157408714,4.05335330963135,3.68524599075317,4.01904487609863,3.55244421958923,0.79830545186996,2.54386949539185,13.1823587417603,22.8338088989258,40.4186630249023,54.8737030029297,38.4062995910645,20.0258312225342,-4.22422933578491,-11.7233352661133,-16.7351016998291,-12.1468648910522,0.33649069070816,0.55184471607208,0.20608185231686,-0.66490560770035,-2.00129699707031,-0.10019944608212,2.50438809394836,4.46171712875366,-15.7660093307495,-39.5207557678223,-48.77978515625,-41.0820732116699,-31.5335140228271,-23.484058380127,-14.8244333267212,9.74865818023682,9.02961540222168,9.96640586853027,11.3674030303955,12.9514513015747,12.2766752243042,10.8457679748535,16.0369968414307,7.52213716506958,0.76959156990051,10.374382019043,9.70199871063232,3.02721977233887,1.37617206573486,4.91754961013794,SWING_RIGHT
-0.32680329680443,-0.17714570462704,-0.07841751724482,0.1860793530941,0.33573693037033,-0.23670330643654,0.5168531537056,0.43011283874512,1.32286608219147,3.50947022438049,5.25779151916504,3.63194513320923,0.90260320901871,0.86381435394287,0.84823775291443,0.2848838865757,0.09307785332203,0.03321481868625,-0.34825929999352,-0.94238460063934,-0.11247225105762,2.34962391853333,4.02853775024414,3.61529946327209,3.3453049659729,2.08665418624878,1.6397430896759,-0.60939651727676,-0.01565296016634,-0.34948098659515,-0.49211382865906,-0.43377789855003,-0.13568444550037,-0.04161396995187,-1.10051774978638,-4.70703649520874,-11.1138315200806,-16.2533473968506,-17.8574333190918,-13.9461011886597,-8.48130893707275,-3.59865403175354,-0.20104511082172,2.29892373085022,2.87166929244995,0.81744801998138,-0.21505492925644,-0.27966114878654,1.70518529415131,8.58813953399658,22.8086853027344,39.6421928405762,40.7369079589844,32.2675132751465,18.218053817749,3.9723846912384,-3.0218358039856,-8.75862789154053,-10.0890378952026,-4.79252481460571,0.97657072544098,0.31734809279442,-0.00568295363337,0.38195431232452,2.40388941764832,4.45932388305664,3.0164520740509,-11.4218397140503,-33.109188079834,-35.7532577514648,-32.8974227905273,-28.9468727111816,-21.3783740997314,-12.0667057037354,-4.13928413391113,9.49023342132568,10.1973123550415,10.492826461792,11.2441730499268,12.0158576965332,13.0352001190186,22.4234409332275,14.5941247940063,12.1271238327026,11.4009027481079,8.93270587921143,-1.50000071525574,-3.10558462142944,4.32412958145142,5.03719091415405,SWING_RIGHT
-0.11697725206614,-0.0002290677221,0.00160347402561,-0.18600298464298,-0.35001549124718,-0.29106873273849,1.50673115253448,1.0996013879776,-4.00173664093018,-2.48706459999084,1.60232865810394,2.02747845649719,0.77585238218307,0.91298758983612,2.07237577438354,-0.01901262067258,-0.34337252378464,-0.2654894888401,0.01916533336043,-0.11766445636749,-0.48569992184639,-2.76759624481201,-5.27123022079468,2.81325697898865,3.28666377067566,1.31813204288483,1.09975409507751,0.4409553706646,0.64345121383667,-0.88488858938217,0.08055548369884,0.03290939703584,0.01427855435759,0.1169008910656,0.06681142002344,0.40743511915207,-1.4713020324707,-8.13648509979248,-15.0673112869263,-16.8645000457764,-12.9961576461792,-10.9840259552002,-9.03076553344727,-5.61544227600098,-2.61366271972656,1.48983120918274,2.48883461952209,2.39431810379028,1.90618228912354,2.3380868434906,2.33689045906067,14.3022003173828,39.7127799987793,50.8489761352539,35.8292274475098,16.1267280578613,20.3249340057373,12.4597263336182,1.14526474475861,-6.48305368423462,0.87367933988571,1.00408816337585,0.86291164159775,1.06510519981384,1.42522501945496,2.00668096542358,5.43559551239014,12.4633159637451,-18.1193504333496,-23.4852542877197,-19.8278255462646,-23.2962226867676,-29.2543506622314,-27.5063934326172,-21.2611255645752,9.56560802459717,9.57637500762939,9.29043292999268,8.84297561645508,8.88006401062012,9.91256713867188,14.719747543335,10.675877571106,0.05054837837815,11.5636148452759,18.8928298950195,11.3518495559692,5.9333028793335,5.4714879989624,7.12133932113647,SWING_RIGHT
-0.71408045291901,-0.37719818949699,-0.46088424324989,-0.70369601249695,-0.66490721702576,-0.83533364534378,-0.91413295269012,1.96578288078308,2.86991310119629,1.28957486152649,4.09344005584717,5.09186983108521,2.73949718475342,0.58954393863678,0.34825929999352,0.91069692373276,0.63978612422943,0.09949174523354,0.09429954737425,-0.34062370657921,-1.01507544517517,-2.7025408744812,-2.68543720245361,-1.18030965328217,3.83337187767029,2.59701704978943,-0.96529138088226,-1.87759172916412,-1.33912992477417,-0.67323005199432,1.56743407249451,1.22902464866638,1.16855084896088,1.2076450586319,1.26506471633911,2.05916619300842,3.17190074920654,-1.62340295314789,-11.8697547912598,-15.6619710922241,-16.5972537994385,-14.5022773742676,-9.09582138061523,-3.46060252189636,1.32981443405151,2.2028923034668,2.4481565952301,1.4312070608139,1.57358002662659,1.41086804866791,-0.08225327730179,2.38594317436218,28.4784774780273,58.2978324890137,44.2423934936523,34.1279335021973,21.2569389343262,0.18933209776878,-9.75643539428711,-14.5887403488159,2.14426827430725,1.86071872711182,1.55563378334045,0.55064833164215,0.09720841795206,0.42861434817314,1.5616158246994,7.23021268844604,8.57617568969727,-6.29282426834106,-26.2705001831055,-42.350269317627,-42.6015167236328,-33.9634246826172,-23.1167602539063,10.875678062439,10.8625173568726,9.60389232635498,9.47946643829346,9.87787055969238,9.3825569152832,10.3612213134766,22.5753841400146,26.9315185546875,14.1729879379272,18.1845550537109,11.7921295166016,2.82024049758911,2.84416890144348,6.04815816879272,SWING_RIGHT
0.12132953852415,0.09720107167959,0.16622680425644,-0.0637571811676,-0.03504735976458,-0.0271063465625,-0.03474193811417,1.59438765048981,3.18999719619751,-0.87045735120773,-1.21802937984467,3.32529973983765,4.85302877426147,2.38360238075256,0.77310353517532,-0.00862821750343,0.03810159862041,-0.1570640951395,-0.52998638153076,-0.67689514160156,-0.20501561462879,-0.06268820166588,-0.91642361879349,-2.48691201210022,1.94066178798676,4.13390874862671,0.7863894701004,-1.00438559055328,-0.17233528196812,0.8117396235466,0.58916217088699,0.83563905954361,1.48161005973816,1.98830783367157,1.89179396629334,1.77756547927856,0.66948860883713,-2.19943189620972,-9.7705020904541,-16.5517463684082,-19.3702716827393,-16.3055744171143,-8.8722505569458,-2.27762031555176,2.19905018806458,2.96022081375122,0.68225353956223,0.30897322297096,-0.07866404205561,1.91216444969177,4.20927429199219,18.1534481048584,24.7552452087402,59.0228576660156,47.1460838317871,31.5053977966309,3.94127798080444,-7.23679304122925,-15.2826595306396,-12.9628171920776,2.01984143257141,1.47068858146667,1.2553346157074,0.17138592898846,0.54227340221405,1.81405866146088,5.97637367248535,8.30339336395264,2.50319147109985,-25.2595329284668,-46.5209579467773,-50.784969329834,-45.3329238891602,-26.0671100616455,-14.0060882568359,8.14187812805176,8.31296539306641,7.94088125228882,7.4575309753418,10.2655086517334,10.6627168655396,16.1781730651855,19.8451728820801,15.625431060791,0.81625163555145,12.9191484451294,12.1450700759888,9.74985504150391,0.39631125330925,2.55703020095825,SWING_RIGHT
0.08926005661488,-0.0084755057469,0.97010177373886,1.40441417694092,0.34856471419334,0.04314108937979,0.35864371061325,-1.61080420017242,-1.1676344871521,1.64111757278442,1.95020627975464,0.02145601063967,0.15675868093967,0.91359841823578,0.3583382666111,0.01244601327926,-0.49394637346268,-1.86109888553619,-2.55196714401245,-1.93806564807892,0.04879142343998,-1.0575293302536,0.72744274139404,3.15013933181763,-2.03641200065613,-3.43311429023743,-0.23769593238831,0.5860316157341,0.57014954090118,0.13217207789421,1.07509112358093,1.84078824520111,3.67462801933289,3.31972575187683,-0.86350893974304,-6.54087591171265,-13.7497138977051,-18.9350433349609,-20.0360946655273,-16.1504192352295,-7.12637329101563,-1.07180786132813,2.66390490531921,4.41069889068604,4.18346357345581,1.67288208007813,0.61764734983444,1.63698983192444,19.0160598754883,34.5921401977539,40.6782836914063,45.175594329834,36.4872550964355,20.1825618743896,-10.0734844207764,-16.4898376464844,-10.6836538314819,-7.81944513320923,-3.73609352111816,-1.49521505832672,1.00049901008606,1.15363967418671,0.59371912479401,1.17278218269348,3.57278323173523,-3.60807752609253,-9.68465042114258,-43.3959312438965,-54.8790893554688,-45.9873580932617,-30.5440826416016,-27.1821670532227,-13.8050909042358,-5.33090972900391,-2.61864519119263,8.93031311035156,9.22104072570801,11.3889389038086,7.90977430343628,10.7991075515747,12.5769748687744,13.8978128433228,3.82761883735657,10.2188482284546,10.9235343933105,5.62941455841064,3.28803730010986,8.31775093078613,5.41406011581421,4.5526442527771,SWING_RIGHT
0.6005392074585,0.33176642656326,0.57060772180557,0.33695861697197,0.11491563916206,-0.37903073430061,0.58862769603729,2.10780477523804,-0.94498068094254,-4.76468515396118,-3.62576031684875,-0.57480728626251,1.81093311309814,1.07302951812744,-0.70552855730057,-0.2193705290556,-0.16744850575924,0.08025006204844,0.35726928710938,0.30870693922043,1.48061740398407,-0.93780326843262,-6.57363271713257,-4.46735525131226,1.48794758319855,3.29521560668945,1.01576268672943,0.07261446863413,-1.57613861560822,-0.95032560825348,1.42846632003784,1.60316860675812,1.70762348175049,1.34264230728149,1.63340556621552,1.75282621383667,1.2702568769455,-3.76510977745056,-10.7790870666504,-16.7908935546875,-18.0663414001465,-14.4469957351685,-9.2622766494751,-5.09309196472168,-0.19432578980923,3.67687106132507,3.29521584510803,4.10638284683228,3.93170666694641,3.08823680877686,4.36002206802368,20.6587333679199,31.26731300354,58.2224578857422,42.7935409545898,21.6242370605469,4.10518646240234,-2.73110795021057,-4.57477760314941,-11.0413808822632,0.62721866369247,0.62004017829895,0.67866432666779,0.90598249435425,1.07228362560272,1.28285205364227,6.14626407623291,9.54885768890381,-3.43220496177673,-28.804500579834,-40.0495681762695,-35.6683120727539,-31.9163665771484,-28.1859550476074,-18.3442764282227,9.0882396697998,9.04756164550781,9.73908710479736,7.90618515014648,8.52712249755859,7.80090093612671,16.0704956054688,14.0700960159302,2.74845600128174,2.68983173370361,11.1903343200684,10.7093772888184,8.53908634185791,2.34526538848877,6.69780969619751,SWING_RIGHT
-0.14935214817524,-0.96208441257477,-0.69575500488281,0.00954448804259,-0.21165858209133,-0.55800896883011,-0.51952558755875,0.37483114004135,-0.83197396993637,-3.00483393669128,0.41697961091995,1.83414530754089,-0.8744278550148,-0.51830387115479,1.39433526992798,-0.75966489315033,-0.18730103969574,0.19234053790569,-0.15859122574329,-0.64207684993744,-1.8827840089798,-3.5862078666687,-3.37264037132263,1.48855841159821,4.40665197372437,3.51573133468628,-0.43744298815727,-0.68330901861191,-0.64329850673676,1.21123373508453,-0.76668965816498,-0.86350893974304,-0.02389939874411,0.15141376852989,0.31122666597366,0.38452833890915,-0.76638424396515,-2.61641144752502,-10.7448797225952,-16.7548522949219,-17.1238040924072,-16.4946327209473,-11.0234260559082,-3.56108689308167,1.1267077922821,4.99053049087524,2.93270325660706,1.68723905086517,2.44576382637024,1.50777733325958,8.18016338348389,10.5478610992432,44.1191635131836,58.9211654663086,41.8184623718262,32.8286285400391,28.4701023101807,1.64416825771332,-13.2930269241333,-7.34925556182861,1.37976133823395,0.43340000510216,-0.06789634376764,0.58893346786499,0.77437722682953,1.45633172988892,2.49960231781006,8.72572708129883,-6.13729095458984,-28.4862537384033,-37.2368087768555,-44.2166709899902,-44.3315277099609,-27.8258361816406,-16.4300174713135,8.02223682403564,6.84137916564941,11.9452695846558,9.82164001464844,8.96859836578369,12.3018007278442,14.679069519043,17.6126708984375,-3.38195562362671,4.67826747894287,6.44656324386597,4.78714084625244,-0.04037888348103,9.72114086151123,6.57697200775146,SWING_RIGHT
-0.23945212364197,-0.33657684922218,-0.42698222398758,0.61061817407608,1.9908275604248,-2.42078757286072,-2.53837585449219,-2.59243583679199,-2.12697005271912,0.99728453159332,3.18419408798218,3.46060252189636,2.29166984558105,1.4615284204483,1.5684267282486,-0.02603736519814,-0.15095563232899,-0.35192438960075,-1.77558028697968,-4.92946100234985,-2.08527994155884,-1.40449059009552,-0.94696599245071,3.09485769271851,1.88049328327179,-0.56938600540161,-3.19977068901062,-0.92772430181503,1.01087582111359,0.89786911010742,-0.38735350966454,-0.41300910711288,-0.38979691267014,0.04665346071124,-4.04701566696167,-6.77544164657593,-11.1617832183838,-14.9735460281372,-16.7096500396729,-16.4610347747803,-13.7399396896362,-9.46110820770264,-2.33778882026672,2.68131399154663,3.89819812774658,0.75643104314804,1.3043874502182,2.00907373428345,11.5109720230103,25.1201515197754,25.4072895050049,46.0633316040039,47.568416595459,40.3995208740234,27.3538513183594,19.7913360595703,-5.8692946434021,-16.1333084106445,-6.49501800537109,-2.26690030097961,1.14885401725769,1.29361975193024,1.48145627975464,3.82761883735657,5.99192714691162,2.06769776344299,-9.19292545318604,-26.3303203582764,-37.0776824951172,-44.5408973693848,-46.9588470458984,-39.8713035583496,-25.6794738769531,-14.344672203064,-5.63240528106689,8.21485900878906,8.56181812286377,10.1697950363159,14.7747821807861,4.57776880264282,-1.58255302906036,15.7307147979736,17.2023010253906,18.2204475402832,17.3650131225586,14.7843542098999,7.50658369064331,6.043372631073,6.13549613952637,5.1807599067688,SWING_RIGHT
0.1781383305788,-0.60809844732285,-0.12644538283348,-0.00419957470149,-0.59801948070526,-0.41904121637344,0.53487312793732,1.52933251857758,2.01984286308289,-0.97827190160751,2.36741495132446,4.75254440307617,2.94932317733765,1.12708950042725,1.3167576789856,-0.34062370657921,-0.02115058712661,-0.13904410600662,-0.2181488275528,-0.00618482846767,-0.51502060890198,-1.29331636428833,-3.01468396186829,-1.20932483673096,5.24297857284546,2.93542647361755,-0.79387235641479,-0.80059170722961,0.30870693922043,0.60985463857651,1.40281069278717,1.0304993391037,0.64963603019714,0.45355409383774,0.56686627864838,0.4752391576767,-0.2602972984314,-4.72933197021484,-14.2585496902466,-18.8507461547852,-18.9222164154053,-14.5303764343262,-7.78975343704224,-1.93737840652466,2.7295708656311,3.48664164543152,2.97577404975891,3.07986187934875,1.98155629634857,2.32372999191284,5.21904516220093,8.46012401580811,26.4732933044434,57.2402076721191,46.762035369873,21.6625232696533,3.14805722236633,-4.54127836227417,-8.34347343444824,-9.44536781311035,1.12971138954163,1.67407858371735,1.44436752796173,0.78394854068756,0.40468612313271,0.70498538017273,0.69302123785019,3.46630263328552,-4.53051042556763,-24.5093841552734,-46.3869590759277,-45.2922439575195,-41.3369102478027,-32.0575408935547,-15.9299173355103,8.31296539306641,10.6232357025146,11.8040933609009,9.26291561126709,9.2222375869751,13.28883934021,14.4003057479858,15.9388904571533,23.276481628418,1.24576330184937,15.8467674255371,8.46012401580811,5.35902547836304,4.35523653030396,6.26949453353882,SWING_RIGHT
-0.07353074103594,0.11644276231527,0.44813281297684,-0.01733279041946,-0.45263782143593,1.37600982189178,2.44865751266479,2.09161734580994,-0.21257483959198,-0.75409096479416,2.11238622665405,1.69456660747528,0.06726955622435,0.61855918169022,0.85587334632874,0.01152974180877,0.07597412914038,-0.83571541309357,-0.30672168731689,-1.37547528743744,-1.19405364990234,-0.51227176189423,-1.60026705265045,0.97208708524704,1.72526168823242,-2.28105640411377,-0.97873002290726,0.64192414283752,0.73477292060852,0.70789563655853,1.20489621162415,1.37654435634613,2.03992438316345,0.38849884271622,-1.48382437229156,-3.31583166122437,-7.82617521286011,-16.0471858978271,-19.175106048584,-18.5770874023438,-11.5970115661621,-3.75594711303711,0.62062078714371,3.45960974693298,3.94004106521606,0.0864407196641,1.60229384899139,7.17398118972778,16.70578956604,20.1203479766846,23.1329116821289,41.604305267334,41.763427734375,29.7981185913086,9.45434093475342,-6.97836828231812,-10.9911317825317,-12.0152597427368,-7.17099046707153,-2.36261320114136,-0.82522469758987,-0.59910297393799,2.01625227928162,4.3851466178894,1.38693988323212,-1.21166551113129,-8.185546875,-31.5335140228271,-50.1089973449707,-54.0081024169922,-45.6068992614746,-28.0005111694336,-18.2306175231934,-9.21326446533203,-2.0539391040802,9.84676456451416,10.8577318191528,11.7801647186279,9.98554801940918,18.0553417205811,20.1885433197021,14.2459688186646,12.2144622802734,0.10079765319824,8.70299530029297,13.7255296707153,4.25713062286377,7.86311435699463,7.70877742767334,5.45593452453613,SWING_RIGHT
0.92642623186111,0.24472068250179,-1.23330056667328,-2.59610080718994,-2.05489015579224,1.31431424617767,2.21684098243713,-1.97334206104279,-1.72503268718719,1.62859511375427,2.11635661125183,0.86778485774994,0.67842221260071,1.15305054187775,1.18084406852722,-0.78898561000824,-0.31771692633629,-0.13537901639938,0.08208259940147,-1.43258953094482,-4.01990938186646,-2.8528094291687,2.71521615982056,4.82576990127563,0.90122878551483,-1.30095195770264,-2.31740188598633,-1.0618052482605,0.8722135424614,0.27572119235992,0.96422237157822,0.85854583978653,1.09005689620972,1.11357450485229,1.07417488098145,-2.47095346450806,-10.6865434646606,-17.2090187072754,-18.4334621429443,-16.2863330841064,-11.1859111785889,-4.29624128341675,1.86155700683594,5.05789184570313,5.34651708602905,5.36381101608276,5.18793869018555,4.64716053009033,6.39631414413452,7.7518482208252,27.4304218292236,48.1079978942871,47.5169715881348,22.7476673126221,16.1757793426514,-12.2401847839355,-18.7893409729004,-11.9422788619995,-4.03519630432129,-0.77856469154358,1.806880235672,1.77098786830902,1.20747816562653,-1.21286201477051,-3.16899442672729,-0.32871401309967,-1.81585323810577,-22.130916595459,-47.6216583251953,-49.1997222900391,-37.7093887329102,-26.9775791168213,-18.3777751922607,-9.62124061584473,-6.14686250686646,10.0609216690063,8.09521770477295,6.60688257217407,10.5251293182373,14.0916318893433,22.3660125732422,17.1975154876709,-1.24037945270538,4.17816734313965,6.90957450866699,4.12193632125854,7.23021268844604,7.86431074142456,6.89880657196045,5.71914529800415,SWING_RIGHT
0.19371493160725,0.13507360219955,-0.25869381427765,0.52265620231628,1.0510390996933,-0.67223739624023,-0.18936264514923,3.1228039264679,3.73059701919556,1.27063870429993,0.19463120400906,0.69522053003311,1.66646766662598,1.73182833194733,-0.37994700670242,-0.09933903813362,-0.12102411687374,-0.22608983516693,-1.01079952716827,-1.56728136539459,2.65290975570679,4.78575897216797,2.43880772590637,-0.56358295679092,-1.39471697807312,0.24731677770615,1.67242348194122,2.3083918094635,1.22681033611298,0.43331977725029,0.0301605835557,-0.05444176122546,0.34543412923813,-0.84060215950012,-6.37686347961426,-11.9937572479248,-13.43909740448,-15.1293125152588,-13.7552108764648,-9.04756450653076,-2.79203009605408,1.79039335250854,3.89025712013245,4.48552799224854,4.26653909683228,2.15862512588501,2.31296229362488,2.2028923034668,12.5530462265015,39.4663200378418,30.1247406005859,27.4423847198486,25.6681079864502,11.1747808456421,-12.2569351196289,-12.9640140533447,-8.57079124450684,-5.90159797668457,-5.76640367507935,-6.18155813217163,0.73130643367767,1.12253296375275,1.69322109222412,4.05015134811401,4.7931227684021,-8.15324401855469,-12.3598260879517,-27.3388957977295,-41.877685546875,-28.7973213195801,-20.6449737548828,-13.1279220581055,-6.68883657455444,-3.97657203674316,1.1691929101944,8.91834926605225,9.17677402496338,9.62542819976807,16.2391891479492,15.6708946228027,9.00209808349609,10.0561361312866,10.4401845932007,4.74287366867065,6.85932540893555,8.72931575775146,7.62861776351929,4.67467832565308,2.62522554397583,-1.86370968818665,SWING_RIGHT
0.3980433344841,0.42033925652504,0.20440477132797,0.17569494247437,0.37819081544876,0.42797484993935,0.39010232686996,0.01809635013342,0.55533653497696,0.44599485397339,2.28464508056641,5.80266714096069,3.9275951385498,-0.36467581987381,-0.7766922712326,0.04818057641387,-0.06757497787476,-0.05505260825157,-0.10147700458765,-0.2764847278595,-0.3051945567131,-0.47959145903587,-0.04527905210853,-0.82777440547943,3.28849625587463,4.67550134658813,2.25127768516541,0.95345622301102,0.93574166297913,0.91924875974655,0.38116869330406,0.32619243860245,0.10651648789644,0.22357009351254,0.33963108062744,0.22173754870892,0.96910917758942,-1.37203931808472,-8.76626873016357,-13.9271650314331,-15.6054677963257,-15.3223400115967,-12.0551471710205,-6.26202440261841,-0.54250872135162,2.18614268302917,2.51874494552612,2.37756848335266,1.80927300453186,2.66231417655945,2.68145680427551,2.48763823509216,18.8198490142822,47.3004188537598,33.8336143493652,30.0206527709961,20.93630027771,-3.40468740463257,-15.6451721191406,-15.0696983337402,0.51355957984924,0.69421768188477,0.82462650537491,0.73609209060669,0.97058868408203,0.97537434101105,1.54247331619263,4.78474807739258,-2.20588326454163,-16.6896381378174,-21.7767791748047,-35.633617401123,-36.4423904418945,-26.8782768249512,-19.8864498138428,9.63619613647461,9.69960594177246,9.07029342651367,9.71156978607178,10.0417795181274,10.5370931625366,11.6306133270264,14.4098768234253,24.157039642334,10.7691974639893,11.8639135360718,10.2044916152954,-4.99352169036865,0.36999019980431,5.03599452972412,SWING_RIGHT
0.07185091078281,0.18424680829048,0.85556793212891,1.00369834899902,0.68880665302277,0.88397234678268,-0.11758809536695,0.21234577894211,0.0571905747056,3.23153471946716,3.99539923667908,1.05714750289917,-0.13621893525124,-0.39002597332001,0.17416782677174,-1.00743985176086,-0.43958094716072,-0.28747999668121,-0.05291464552283,0.23112933337688,-0.41697961091995,-2.14850258827209,-1.89194667339325,1.48855841159821,0.84411454200745,-3.05041861534119,-3.15640044212341,-0.805783867836,2.29556393623352,2.30717015266418,0.60809844732285,0.51555508375168,0.72812992334366,0.37536564469337,-0.64482563734055,-1.74893200397491,-6.2186541557312,-10.4604539871216,-17.513219833374,-18.2001171112061,-16.1629428863525,-11.1061954498291,-3.26574206352234,2.84868621826172,5.38988733291626,4.12432909011841,3.74985218048096,4.13509654998779,6.12113952636719,9.64576721191406,19.6908359527588,26.1418857574463,32.0054969787598,37.8356094360352,27.3873500823975,3.60747933387756,-13.0585308074951,-19.6663093566895,-16.476676940918,-9.61525821685791,1.53170561790466,1.04356980323792,0.63320070505142,1.23379921913147,2.33689045906067,3.68644237518311,-1.05134642124176,-2.23579359054565,-33.5590400695801,-38.0635261535645,-44.1125831604004,-36.692440032959,-26.7287254333496,-21.7995109558105,-12.8539438247681,10.2535438537598,11.8890380859375,11.173583984375,10.0980110168457,9.23061275482178,9.45793056488037,9.84078216552734,14.6862478256226,9.35025405883789,14.516357421875,11.7502546310425,12.1486597061157,12.4716911315918,10.4138631820679,7.34626483917236,SWING_RIGHT
-0.05184566229582,-0.14782503247261,-0.5292991399765,-0.42392799258232,-0.03626905754209,1.76298153400421,1.84208631515503,0.45301958918571,1.24956440925598,3.19244050979614,3.80420398712158,1.53941142559052,0.99178689718246,1.66860568523407,0.43041825294495,0.12056598067284,0.02924431301653,-0.26854372024536,-1.50283694267273,-0.64849072694778,1.25796353816986,1.12602055072784,1.98983490467072,2.70880222320557,1.28911674022675,-0.33543148636818,1.65531969070435,2.08360004425049,1.40151262283325,0.46172416210175,-0.04894413799047,0.50211644172668,1.51429033279419,3.17831468582153,2.81234073638916,-5.9321665763855,-12.2796335220337,-19.4777812957764,-19.6017837524414,-15.4341249465942,-9.06680583953857,-2.03664112091064,2.4659903049469,3.42692947387695,2.52310466766357,1.0998010635376,0.78514492511749,1.6477575302124,10.394721031189,19.8056926727295,40.7297286987305,40.5024108886719,39.1672172546387,12.4812622070313,4.01066970825195,-18.2928295135498,-20.6461715698242,-14.4152612686157,-9.14387226104736,-3.76241445541382,0.61046886444092,0.88325065374374,1.72672069072723,1.04476618766785,0.07447660714388,-4.96480798721313,-22.4025020599365,-37.638801574707,-57.0649299621582,-50.2118873596191,-35.1909446716309,-24.7474689483643,-13.4150609970093,-8.0324068069458,1.36301159858704,8.34407138824463,8.519944190979,8.87767124176025,14.797513961792,15.6134672164917,20.9051933288574,5.42243528366089,4.36600399017334,3.38614320755005,7.3067831993103,4.65074968338013,4.21764898300171,6.01585531234741,5.54446935653687,0.9466604590416,SWING_RIGHT
0.77249270677567,0.50891214609146,0.10025530308485,0.6384117603302,0.46920704841614,0.63963341712952,1.6429500579834,2.36588788032532,3.06355166435242,3.10722732543945,0.59687411785126,0.17905460298061,1.43190228939056,2.20951080322266,0.54037076234818,-0.94391173124313,-0.86442524194717,-0.26915457844734,-0.42217180132866,-1.04714488983154,-0.36047622561455,1.1104439496994,1.18771612644196,0.80532574653625,-1.69311583042145,-1.06058359146118,0.78974914550781,1.88751804828644,1.8374285697937,-0.10208784788847,-0.18180342018604,-0.48447823524475,-0.84732151031494,0.07963921129704,-1.45908498764038,-5.53206205368042,-13.1433715820313,-17.9200439453125,-18.9264907836914,-16.6006145477295,-8.94982814788818,-0.28778541088104,3.51153182983398,3.55826163291931,2.03076171875,3.15643215179443,4.85653257369995,4.66869592666626,8.96261596679688,26.1933326721191,31.7805728912354,50.3883590698242,35.8914413452148,24.1283264160156,2.1945173740387,-11.8836545944214,-17.8537464141846,-11.5642127990723,-4.92293357849121,-2.21066904067993,0.15583257377148,1.06630158424377,1.14047908782959,1.63698983192444,2.98055958747864,1.8355940580368,-5.82861661911011,-36.0655212402344,-53.3751983642578,-52.3079986572266,-45.073299407959,-25.2607288360596,-18.1516532897949,-4.07707071304321,7.06510782241821,10.8421783447266,9.26770114898682,10.0621185302734,12.4920301437378,12.665509223938,16.7799682617188,18.9299182891846,10.2068843841553,7.40728139877319,5.82323312759399,5.4882378578186,11.6162567138672,9.46630573272705,5.4152569770813,-0.0475573502481,SWING_RIGHT
-0.00481042219326,-0.43522867560387,0.56358295679092,0.73339849710464,-0.65055233240128,0.83449369668961,-0.90130513906479,-1.70151507854462,1.42029619216919,3.04980754852295,0.84151846170425,0.86564689874649,2.56777286529541,3.06843852996826,2.44163274765015,-0.25663220882416,-0.3980433344841,-0.89748734235764,-1.10425913333893,-2.32686996459961,-4.26821899414063,-2.69276738166809,2.89541602134705,0.59244549274445,-1.26216316223145,-0.82930153608322,0.5481590628624,1.87774443626404,2.47454214096069,-0.34612134099007,0.94589698314667,1.28674972057343,1.16183149814606,-0.91146045923233,-2.67719078063965,-7.56221294403076,-14.4665431976318,-18.310375213623,-18.9240474700928,-16.8296813964844,-11.6718406677246,-4.30051755905151,1.81177294254303,2.83249878883362,2.07046675682068,2.79511594772339,4.46650266647339,10.3408823013306,14.8645133972168,26.7137718200684,36.4286308288574,51.849178314209,38.7101860046387,34.3540534973145,8.4804630279541,-9.91555786132813,-21.4776763916016,-12.9006042480469,-8.44516849517822,-3.96819734573364,0.08285148441792,0.26470601558685,0.99451690912247,1.62981128692627,0.25513470172882,-1.24636149406433,-27.1833629608154,-44.1903495788574,-51.5446891784668,-51.9454879760742,-42.3957328796387,-30.6948299407959,-17.9279251098633,-11.2124681472778,1.06271231174469,8.6874418258667,10.9139633178711,13.3127679824829,10.8242321014404,15.4136657714844,20.036600112915,10.896017074585,11.2609224319458,12.9717903137207,9.35503959655762,10.3205432891846,16.6399879455566,8.77597618103027,6.26111936569214,-0.21146570146084,SWING_RIGHT
0.2764847278595,0.52112907171249,0.3119138777256,-0.01488940231502,-0.11697725206614,-0.12919420003891,0.10330954194069,1.59041714668274,3.69394612312317,3.83993864059448,5.10836315155029,2.47981071472168,-2.04175686836243,0.20226679742336,2.849449634552,0.05276193097234,0.00725381122902,-0.04466820508242,0.27511033415794,0.900923371315,0.31542626023293,-1.89836061000824,-4.03518056869507,-1.85651755332947,1.02706325054169,-2.46858644485474,-5.64140367507935,-2.66741728782654,-0.94604969024658,0.96506232023239,-0.14881765842438,-0.06024480983615,-0.2059318870306,0.01916533336043,0.38177955150604,0.80540210008621,-0.44110807776451,-5.17899227142334,-10.988302230835,-15.5669841766357,-17.9072170257568,-15.3241720199585,-10.595832824707,-4.35305023193359,0.65207946300507,0.29461628198624,0.83778703212738,0.34486556053162,-0.12652049958706,-0.26171496510506,3.37537550926209,10.0106725692749,37.2912445068359,39.4962310791016,34.2427864074707,15.4507551193237,3.91734981536865,-3.07088875770569,-18.9484634399414,-14.308780670166,0.09122636169195,0.24675983190536,0.58055859804153,0.35563325881958,0.20608185231686,2.54626250267029,3.58355093002319,0.37118661403656,-5.90518712997437,-30.5022068023682,-48.77978515625,-44.405704498291,-40.7662200927734,-30.5392971038818,-15.3305158615112,9.51296520233154,9.01406192779541,8.63121032714844,9.34786033630371,10.4521484375,12.245569229126,15.3957195281982,32.6060981750488,32.9063949584961,10.5789680480957,6.21685218811035,0.10558330267668,2.03419828414917,21.46750831604,10.1853485107422,SWING_RIGHT
-0.11178504675627,0.023288551718,-0.53449136018753,-0.78707671165466,0.3675009906292,1.77397680282593,2.03755736351013,5.341477394104,6.94495153427124,3.61697936058044,0.94933301210403,1.56873214244843,3.31613707542419,2.18324446678162,1.3167576789856,-0.24105559289455,-0.03886515647173,0.57778513431549,0.43637400865555,-1.0056072473526,-1.67509591579437,2.59854412078857,1.1266313791275,0.78302985429764,-0.13293562829494,-1.08532285690308,-1.11555981636047,-0.95673954486847,0.31573167443275,0.5979431271553,0.18966807425022,0.16271443665028,0.26907822489738,-0.92276114225388,-4.55157566070557,-9.58938598632813,-13.6391506195068,-13.5725679397583,-14.1974649429321,-14.1751689910889,-10.9018669128418,-4.07144975662231,1.92691767215729,2.98437070846558,3.03690361976624,3.53928375244141,3.85872554779053,7.4407811164856,17.9763793945313,28.2966232299805,35.5289306640625,39.6086921691895,24.7839603424072,24.6990146636963,5.37457895278931,-12.2892379760742,-23.8035011291504,-14.0515518188477,-6.67567586898804,-6.67567586898804,-0.14446666836739,-0.04037888348103,-0.03798605874181,0.97417789697647,-2.65573406219482,-5.47208642959595,-16.7183532714844,-30.8455772399902,-40.1177635192871,-45.7755928039551,-35.9482727050781,-29.1191558837891,-16.1500568389893,-4.81047105789185,-4.81047105789185,9.52851867675781,9.95324516296387,9.1085786819458,15.9149627685547,22.0034999847412,26.4649181365967,23.9117755889893,24.422643661499,15.4555406570435,-1.20927274227142,3.05114793777466,7.98754119873047,3.718745470047,0.07686942815781,0.07686942815781,SWING_RIGHT
-0.71010994911194,-0.8231166601181,-0.5763344168663,0.11827529966831,0.67689514160156,0.69949644804001,3.23825407028198,7.62329721450806,9.52463626861572,4.59738922119141,3.33629512786865,4.1920919418335,-0.08849649876356,-1.98067224025726,-0.6059604883194,-0.51074469089508,-0.74408829212189,-1.20230007171631,-1.49275803565979,0.09613208472729,1.67578315734863,6.01783800125122,3.9524872303009,-1.48176276683807,-2.43682241439819,-0.48325654864311,-0.70957547426224,1.32088088989258,1.77351868152618,-0.1705027371645,0.43828290700912,0.45049986243248,0.24556060135365,-2.54127740859985,-6.51674747467041,-10.8728523254395,-13.5918092727661,-13.701150894165,-13.854474067688,-9.51577854156494,-4.48316097259521,0.54884624481201,4.35511207580566,3.66393828392029,2.72315716743469,3.31196570396423,4.05015134811401,13.2206439971924,26.9375,35.0037040710449,37.8403968811035,25.4048976898193,21.2114753723145,13.6453704833984,-21.328125,-23.2998123168945,-25.5275287628174,-6.88983392715454,-0.84077805280685,-3.05653190612793,0.50518471002579,0.71694946289063,2.79033041000366,3.76779842376709,-3.35084891319275,-10.8750801086426,-31.8098850250244,-45.6033096313477,-54.7726058959961,-40.1309242248535,-34.3678131103516,-21.5985145568848,-1.5717853307724,4.55384063720703,5.46311330795288,8.60847854614258,9.93051338195801,15.9759798049927,20.7807674407959,21.9448757171631,22.9319152832031,17.9524517059326,17.0491600036621,9.96760177612305,-3.31854581832886,3.72472763061523,3.48544526100159,-4.0280179977417,7.48983383178711,9.66610622406006,SWING_RIGHT
-0.12125317752361,-0.04695888236165,0.12774343788624,0.49486264586449,0.98842722177505,-0.68506520986557,1.4496169090271,3.94958567619324,4.96817350387573,4.83684110641479,2.50485563278198,1.61637818813324,4.03815841674805,3.36775374412537,0.79845374822617,0.0435992218554,-0.17141900956631,-0.60359346866608,-1.32385873794556,-2.47958183288574,-0.28198236227036,0.34199810028076,1.22742116451263,2.17034029960632,1.41434049606323,2.02740216255188,3.84039664268494,2.91038179397583,2.07352113723755,0.34627404808998,-0.26274067163467,0.19150061905384,0.92390650510788,-0.77463066577911,-5.22450017929077,-10.6333999633789,-15.1873426437378,-17.4356422424316,-17.2270374298096,-12.7203598022461,-6.03692722320557,-0.46493113040924,1.76443231105804,2.69383645057678,3.45991516113281,1.78534483909607,1.12731862068176,3.32632255554199,22.2403888702393,31.3773822784424,44.9961318969727,37.1979217529297,36.2635269165039,24.1917362213135,-7.35643434524536,-16.3785724639893,-13.4042930603027,-9.8904333114624,-8.76102066040039,-8.69761085510254,0.25274190306664,1.98514544963837,2.42063927650452,4.03459787368774,-0.94008022546768,-14.1233367919922,-29.9063949584961,-37.4713020324707,-51.3042106628418,-44.4727020263672,-30.4567432403564,-21.0362014770508,-17.4864482879639,-4.8164529800415,2.7628128528595,10.211669921875,11.7693977355957,11.9955186843872,17.393726348877,17.1616230010986,19.0184535980225,27.0894451141357,20.9195518493652,13.8080825805664,7.1464638710022,4.22004175186157,5.47627353668213,4.72373104095459,-7.22961473464966,-4.67886543273926,SWING_RIGHT
0.0437519364059,0.29053422808647,-0.03535278514028,-0.08880192041397,0.13568444550037,0.45515757799149,0.34551048278809,1.83658862113953,1.63531446456909,4.83073282241821,4.4428448677063,1.59835815429688,2.90412068367004,2.51829409599304,-0.49295374751091,-0.01259872503579,-0.14942851662636,0.24120831489563,0.17279341816902,-0.1246891990304,0.12514732778072,0.2241045832634,-3.7774031162262,2.51027679443359,0.95528876781464,0.52677941322327,2.90885472297668,1.70174407958984,1.39112830162048,-0.27953898906708,0.13400462269783,0.2565558552742,0.48256933689117,1.74213635921478,1.84200990200043,-6.53293514251709,-9.73690509796143,-15.488184928894,-17.3305759429932,-15.9561700820923,-14.0197076797485,-8.05524253845215,-1.40807926654816,2.85731434822083,4.86119890213013,3.91854619979858,4.04177665710449,4.94865655899048,9.34666442871094,16.2068862915039,32.9698066711426,30.3161659240723,39.0056991577148,30.9275321960449,12.3412818908691,-1.91635179519653,-25.1291236877441,-23.5654144287109,-20.2489624023438,-6.59192705154419,0.98494559526443,1.08903336524963,1.59511542320251,1.48025989532471,0.47647079825401,-3.36640238761902,-13.9103755950928,-31.3289279937744,-41.3548545837402,-49.1805801391602,-49.2009201049805,-34.0100860595703,-25.4533519744873,-18.5991115570068,0.46570309996605,10.1171531677246,8.91954517364502,9.72592639923096,12.6344022750854,14.3512525558472,14.6192493438721,19.0914344787598,21.323938369751,17.4367980957031,16.7727890014648,2.54626250267029,2.18614268302917,0.78873413801193,-5.23878622055054,-4.91814804077148,SWING_RIGHT
0.4957789182663,0.43469417095184,0.08009734749794,-0.02771719358861,1.25750541687012,2.23944234848022,1.45603084564209,-0.22784602642059,4.18323469161987,7.00481462478638,0.66773241758347,-0.86221092939377,1.97799980640411,3.66218209266663,2.16217017173767,-0.66223478317261,0.41621604561806,1.32607305049896,0.95712131261826,2.21829175949097,-0.3913240134716,-0.33329352736473,3.90758991241455,4.75766038894653,2.98124003410339,3.68432521820068,1.6256936788559,1.33493030071259,-0.67750597000122,-2.11948728561401,0.52257984876633,-1.74679410457611,-3.33140826225281,-7.74271821975708,-8.76932334899902,-9.44217109680176,-13.0150938034058,-12.501371383667,-11.5536413192749,-9.17339897155762,-4.61540937423706,-0.3885752260685,0.04115583375096,-0.36322504281998,0.57328015565872,10.6064853668213,18.2814636230469,19.7039966583252,29.7574405670166,16.3564376831055,20.0653133392334,30.0732936859131,22.3277263641357,16.8302173614502,-2.39013075828552,-18.7175559997559,-12.2976131439209,-5.73170757293701,-8.76580619812012,-11.3069839477539,1.29720902442932,2.58454751968384,1.32353007793427,1.39651107788086,-7.27507829666138,-7.58255577087402,-18.0344047546387,-30.1899433135986,-32.783763885498,-38.2764892578125,-24.7737903594971,-16.4336071014404,-10.1847505569458,-6.93410110473633,-1.89242362976074,13.2457685470581,10.3995065689087,13.6082811355591,11.0826568603516,14.2363977432251,10.5562362670898,14.2064867019653,21.2330112457275,25.3426837921143,-7.14825868606567,-9.70140075683594,-0.38374891877174,1.30079817771912,-0.99152588844299,0.41425740718842,SWING_RIGHT
-0.5427377820015,-0.18997350335121,0.381855905056,-0.49142661690712,-1.20397996902466,-0.83808243274689,-0.17928366363049,0.64635276794434,3.78679490089417,7.16852188110352,3.00307774543762,-1.37013041973114,-1.51490116119385,0.98934346437454,1.89736795425415,0.02954973652959,-0.17325155436993,-1.07066249847412,-1.60912442207336,-0.96834564208984,0.14591613411903,0.89298236370087,3.36943340301514,3.40608429908752,0.63825905323029,-2.31434750556946,-3.72884082794189,-0.93505442142487,2.14040875434875,1.28392457962036,1.00148403644562,1.05462777614594,0.23761957883835,-2.24829959869385,-3.34209799766541,-7.50601482391357,-10.6068277359009,-14.8229722976685,-17.3977699279785,-16.764627456665,-12.8330612182617,-7.42507743835449,-3.34606862068176,0.05734328553081,0.82067328691483,4.11356115341187,5.6928243637085,15.4854507446289,15.1995086669922,27.2246379852295,31.7303237915039,32.8848609924316,41.5337181091309,36.4226493835449,21.1696014404297,9.09182834625244,-2.71435809135437,-1.80508553981781,-3.29820680618286,-1.55024993419647,-0.25692933797836,0.26829522848129,4.67587471008301,3.36460781097412,3.3023943901062,-5.55822801589966,-9.23360347747803,-17.9566383361816,-35.1299247741699,-40.8571472167969,-37.4031066894531,-27.5267333984375,-21.1773777008057,-15.7157602310181,-6.71755027770996,9.2760763168335,11.5827569961548,10.2595262527466,6.82104015350342,14.1239347457886,13.4778728485107,16.0872459411621,14.5737857818604,19.8631191253662,7.81884717941284,1.67766773700714,4.40428924560547,11.5707931518555,12.5147619247437,6.1534423828125,SWING_RIGHT
-0.0710873529315,-0.05948125198483,-0.27854636311531,0.61855918169022,2.28678297996521,1.92546689510345,0.42614230513573,1.04309809207916,2.50699353218079,2.45049023628235,1.54307651519775,0.19096612930298,-0.0903290361166,0.34215080738068,0.50402534008026,0.05856497958302,0.06406260281801,-0.06757497787476,-1.75572776794434,-5.04704904556274,-3.89163160324097,-0.03947600349784,0.59977567195892,-0.26457321643829,-1.21726584434509,-1.15770828723907,-0.54953348636627,0.08452598750591,0.52647399902344,-0.05841226875782,0.18569757044315,-0.10819631814957,-0.39590537548065,-1.12770044803619,-4.61449289321899,-9.48462581634521,-14.2484703063965,-16.5835113525391,-16.5551052093506,-13.558518409729,-8.27270412445068,-2.11818933486938,2.31755447387695,3.78396964073181,2.97490239143372,2.94825649261475,3.71156692504883,4.85772895812988,17.3386917114258,23.3674087524414,49.4575500488281,41.254955291748,41.0611343383789,23.994327545166,15.4806652069092,-10.5149602890015,-17.8298187255859,-15.3329086303711,-4.6525444984436,-2.26570391654968,0.4645066857338,0.72293156385422,1.30199456214905,3.27128767967224,4.62682151794434,-0.78933238983154,-14.5145626068115,-21.365213394165,-45.2300300598145,-45.8928413391113,-34.9468765258789,-22.8679065704346,-17.4433784484863,-3.78394985198975,-0.3430709540844,10.1877412796021,9.7031946182251,11.9380912780762,18.2527503967285,19.9073867797852,16.7548427581787,14.5474643707275,15.2808647155762,14.3656101226807,12.926326751709,6.81386137008667,5.91774940490723,6.00508737564087,6.1737813949585,5.72512722015381,SWING_RIGHT
-0.15973655879498,-0.45080527663231,-0.04940227046609,0.42766943573952,0.54373043775558,-0.09498675167561,-0.17073181271553,2.77156662940979,5.31521129608154,2.11024832725525,-1.97212040424347,-0.24128466844559,1.84727847576141,1.60935342311859,1.71869516372681,-0.12102411687374,-0.1848576515913,-1.77619111537933,-1.47840309143066,-1.28232109546661,-1.75786566734314,2.81753301620483,1.49466693401337,-0.51318806409836,-2.89465236663818,-2.8885440826416,-2.26028752326965,0.44187164306641,0.62695837020874,-0.13568444550037,1.13831388950348,0.48104220628738,-1.15305054187775,-2.00518250465393,-4.95473480224609,-10.6880712509155,-14.7603607177734,-15.740159034729,-15.2230768203735,-13.9036474227905,-8.52620601654053,-1.60782635211945,2.42384195327759,2.50905513763428,1.09036231040955,0.87248295545578,3.4244282245636,10.3827562332153,19.9660110473633,33.4053001403809,45.664924621582,45.2198600769043,36.4872550964355,28.3576393127441,8.4864444732666,-2.73469710350037,-17.1658096313477,-5.88724088668823,-2.92253375053406,-2.40568399429321,1.84277248382568,2.24117755889893,3.80369067192078,6.19172763824463,6.78155851364136,4.65792846679688,-11.5582304000854,-22.4575386047363,-45.0553550720215,-44.9093933105469,-40.0950317382813,-26.4882469177246,-11.9446716308594,-7.70578622817993,-0.42801615595818,8.86331462860107,10.0250291824341,13.99831199646,14.6922302246094,13.5867462158203,15.6888408660889,17.6425800323486,18.7827606201172,7.47308444976807,0.42143589258194,3.68883514404297,13.7303152084351,6.55543661117554,6.05055093765259,7.6046895980835,SWING_RIGHT
-0.21532365679741,-0.14599248766899,-0.24494975805283,-0.284349411726,0.31008133292198,-0.27946263551712,0.47103959321976,4.28830051422119,6.57935953140259,3.97432494163513,0.23647424578667,0.53242975473404,2.70070838928223,2.01587224006653,1.15427219867706,-0.39773792028427,-0.82991236448288,-0.24930204451084,-0.20868068933487,-1.51291596889496,-1.61462199687958,4.08412456512451,2.98429417610168,0.28518930077553,-2.49515843391418,-2.7059006690979,-1.0996778011322,-0.28961795568466,1.3459255695343,0.55823802947998,1.98983490467072,1.45625984668732,1.31851375102997,0.07627955079079,-4.67130184173584,-10.7375497817993,-14.5932941436768,-16.8968753814697,-17.0868492126465,-14.041088104248,-9.10895442962646,-3.6282799243927,0.93368005752563,2.40857076644897,2.87380719184875,4.77876615524292,6.89402103424072,7.58554697036743,20.9111766815186,26.2878494262695,46.0705108642578,46.28466796875,39.2545547485352,27.3179588317871,16.4712944030762,-3.6966118812561,-15.2958192825317,-9.25035285949707,-7.2463641166687,-6.04875659942627,0.70139610767365,0.91076809167862,0.81505519151688,4.12911462783813,5.4547381401062,-6.25453948974609,-21.2563400268555,-36.9975242614746,-49.9391059875488,-48.0762939453125,-34.9624290466309,-24.2413864135742,-15.0397872924805,-10.2062854766846,-2.28723931312561,8.97099113464355,11.0910320281982,9.88146018981934,15.1420812606812,16.2798671722412,23.5420837402344,20.3931293487549,16.6447734832764,5.14845705032349,2.45054960250854,7.80209732055664,15.3131675720215,8.44337368011475,5.50977325439453,5.81725072860718,SWING_RIGHT
-0.02741177007556,0.52418333292007,1.20497262477875,0.31527355313301,-1.63707065582275,0.1582857966423,0.26212984323502,1.56903755664825,2.47431325912476,3.93523073196411,4.56990098953247,2.814936876297,1.42243421077728,1.01835870742798,1.10723698139191,-0.13171394169331,0.12789614498615,0.0439046472311,-0.29450473189354,-3.55314588546753,-3.69463324546814,1.97548007965088,0.73568916320801,2.52554798126221,2.48859167098999,-2.54555320739746,-1.74961924552917,-0.9640696644783,1.64004850387573,2.55700659751892,0.72415941953659,0.55892527103424,0.96758204698563,2.33129858970642,3.0613374710083,-2.542804479599,-7.65658855438232,-15.1381692886353,-19.9957790374756,-19.4270801544189,-16.2264709472656,-10.7974128723145,-2.20523500442505,3.9653913974762,4.54569625854492,2.65752863883972,5.99910545349121,4.13629293441772,3.37537550926209,19.2888431549072,32.7101860046387,40.9678153991699,48.8964347839355,45.8742980957031,25.5484657287598,15.7366971969604,-15.8198480606079,-23.3141689300537,-17.2447738647461,-4.51256418228149,1.67886424064636,2.61445784568787,4.53350162506104,4.27746963500977,1.01365947723389,2.76640200614929,-9.91675472259521,-31.6926364898682,-47.0748977661133,-60.4148826599121,-57.8617401123047,-45.599723815918,-39.5052032470703,-23.0306186676025,-8.0718879699707,8.8405818939209,12.2587299346924,10.4198455810547,8.23041248321533,11.5695962905884,21.1169586181641,14.557035446167,16.9917335510254,15.1875448226929,9.26770114898682,10.675877571106,10.7201442718506,11.9680013656616,9.69601631164551,6.39392137527466,SWING_RIGHT
0.14851224422455,-0.65299570560455,0.82960695028305,1.71686255931854,2.06168580055237,1.73488259315491,-1.6850221157074,0.52754294872284,2.52806782722473,1.61912703514099,0.7685222029686,0.77951747179031,0.57060772180557,0.85923302173615,1.02965939044952,-0.30458372831345,-0.2932830452919,-0.06788039952517,-2.00342631340027,-3.94844031333923,-3.16831207275391,-1.19161033630371,0.44553673267365,-1.77863454818726,-0.97139984369278,-2.26486897468567,-1.92065644264221,0.3102340400219,1.24391412734985,0.91161316633224,-2.3774938583374,-2.88762760162354,-2.1355984210968,-2.74407863616943,-4.31914806365967,-6.6160101890564,-16.6971282958984,-18.1066589355469,-17.4411392211914,-12.9756937026978,-7.90344715118408,-2.38574028015137,0.95903021097183,1.84689664840698,1.46389544010162,9.04038333892822,3.52373051643372,5.56959390640259,17.231014251709,33.4842643737793,33.4842643737793,50.271110534668,39.3263397216797,23.350658416748,4.91754961013794,-2.54087853431702,-12.8491582870483,-9.78754234313965,-6.7319073677063,-4.57118844985962,0.39990049600601,-1.56460690498352,-1.64715933799744,1.92771768569946,3.33828663825989,3.33828663825989,-17.5881443023682,-35.6838645935059,-50.4260444641113,-40.4982223510742,-35.5654220581055,-20.2980155944824,-15.4561386108398,-6.49741077423096,-0.22342981398106,9.50339412689209,12.7037944793701,15.5907354354858,14.4924297332764,16.1159591674805,16.1159591674805,12.1905336380005,19.2302188873291,11.6868448257446,6.35204696655273,8.93390274047852,10.330114364624,9.45553779602051,8.6874418258667,7.109375,SWING_RIGHT
-0.66185301542282,-0.21990501880646,-0.44897273182869,-0.62306421995163,0.00129805039614,0.18088714778423,1.7477103471756,3.8552098274231,4.03021764755249,2.17896842956543,0.41331452131271,-0.19791451096535,0.43652671575546,1.5177264213562,1.87049067020416,-0.48783788084984,-0.88885909318924,-1.98357379436493,-1.36814510822296,0.60282987356186,1.05058097839355,2.44888663291931,2.26624321937561,-0.27984440326691,-1.32477498054504,-1.36906147003174,-0.71415680646896,1.02981209754944,1.33981704711914,0.63123428821564,0.979188144207,0.23364907503128,-2.16491913795471,-1.80848968029022,-1.30362439155579,-5.52686977386475,-11.9341993331909,-17.1873321533203,-17.7725238800049,-13.984278678894,-8.18138313293457,-2.40925788879395,1.58087265491486,3.19938898086548,2.71827030181885,1.35702955722809,3.0116662979126,10.2822580337524,7.54965448379517,15.7151622772217,37.287654876709,46.6830711364746,44.5486755371094,30.7349090576172,12.7684011459351,-4.20987224578857,-11.7352991104126,-11.104790687561,-7.28584575653076,-3.78155708312988,0.17497515678406,0.14027923345566,0.65114688873291,0.61764734983444,4.57657241821289,7.7877402305603,-0.71395844221115,-23.3524532318115,-45.0828704833984,-47.4888572692871,-36.2449836730957,-26.6222457885742,-17.8908367156982,-9.79352378845215,-2.57078886032104,7.47069120407104,10.9713907241821,10.3229360580444,12.2527475357056,15.3634166717529,16.1829586029053,20.0461711883545,14.8070859909058,7.8583288192749,4.69860649108887,6.7420768737793,8.99133014678955,9.69362354278564,8.39432048797607,5.6054859161377,SWING_RIGHT
-0.10323318839073,0.10330954194069,0.66987037658691,0.75599986314774,-0.56228488683701,-0.37750360369682,-0.35642936825752,0.53120803833008,2.89129281044006,3.31094479560852,1.9789160490036,0.29878067970276,1.99815773963928,2.17530345916748,0.10697462409735,0.82212406396866,0.93451994657516,0.70056545734406,0.66757971048355,1.78176510334015,0.21372018754482,0.19692188501358,1.39937472343445,-0.19676917791367,-3.79695010185242,-3.63171601295471,-0.09659022092819,-2.03213620185852,-2.58159327507019,-1.10425913333893,1.60286319255829,0.96636039018631,0.43431240320206,-0.44904908537865,-2.29686212539673,-4.44315004348755,-7.96331024169922,-10.3453092575073,-10.7024259567261,-10.5408563613892,-11.0597715377808,-6.54881715774536,-1.89522993564606,-1.1881742477417,-0.88611030578613,6.92153882980347,8.99372291564941,11.2046909332275,16.3444747924805,22.6005096435547,29.0348091125488,24.2360038757324,18.4860496520996,8.39791011810303,4.4222354888916,-7.29541730880737,-24.6828632354736,-20.0838584899902,-7.79671335220337,-8.96321487426758,2.24835586547852,2.44337105751038,2.16101789474487,1.27447712421417,-0.63140606880188,-7.37438011169434,-21.915563583374,-26.648567199707,-32.5564460754395,-35.0964279174805,-35.6216506958008,-22.877477645874,-15.5410842895508,-16.3869476318359,-9.41904735565186,7.75902652740479,8.62881755828857,8.50558757781982,6.1534423828125,4.98215579986572,13.7697973251343,16.9522514343262,19.530517578125,23.3231410980225,18.4034976959229,9.61944580078125,9.54167938232422,13.3223390579224,7.64417123794556,1.02083790302277,SWING_RIGHT
-0.04726430773735,-0.04970769584179,-0.06070294603705,-0.17714570462704,-0.18447586894035,-0.10506572574377,-0.09865183383226,-0.3915531039238,0.55319857597351,0.88000184297562,1.73702049255371,2.64481592178345,2.10444521903992,3.22817516326904,2.24646711349487,0.54938077926636,0.07261446863413,0.07475243508816,0.35268792510033,-0.00801737047732,-0.03184041380882,0.9473477602005,0.61260342597961,0.39056047797203,1.1364049911499,1.2433032989502,-1.14762926101685,-3.26574206352234,-2.33725428581238,-2.91022896766663,0.66612893342972,0.53876727819443,0.53968358039856,0.51097375154495,0.50639235973358,0.70033639669418,1.14106273651123,0.26510772109032,-4.90342378616333,-9.3083963394165,-9.85754776000977,-9.46904850006104,-8.89393615722656,-7.91841316223145,-5.53664302825928,0.3329014480114,0.84975111484528,-0.25573292374611,-0.32632118463516,-0.26410779356956,-0.13968102633953,4.65194654464722,22.160228729248,43.8092918395996,31.0974216461182,11.156834602356,3.98674154281616,-1.75124704837799,-10.5891370773315,-16.8846530914307,0.50638109445572,0.46570309996605,0.53509497642517,0.62961143255234,1.6513466835022,3.37657189369202,3.64217519760132,0.08045866340399,-11.9554395675659,-23.6790733337402,-31.8146705627441,-33.8904457092285,-33.1558494567871,-30.2545509338379,-25.9055957794189,9.27966499328613,10.0011014938354,9.56560802459717,9.43759155273438,10.1590280532837,9.65055274963379,8.46490955352783,11.4248304367065,18.1845550537109,15.9293193817139,17.777774810791,18.8772773742676,16.6555404663086,16.8302173614502,8.45174884796143,SWING_RIGHT
0.02420482225716,-0.03504735976458,0.00679567595944,-0.23639789223671,0.00618482846767,-0.27854636311531,-0.5335750579834,0.73767441511154,4.61235475540161,4.8695216178894,2.59839153289795,1.70525646209717,1.01866412162781,1.81398725509644,1.00614178180695,0.3203130364418,0.48646348714828,0.14713783562183,-0.07673768699169,2.20638036727905,1.60431396961212,0.62665295600891,1.41892182826996,1.52826344966888,-2.72728037834167,-3.33140826225281,-1.58499586582184,-2.48782825469971,-1.17572832107544,-1.11311638355255,0.34299072623253,0.32649785280228,0.55251133441925,1.13648128509521,-0.05260922014713,-1.09929597377777,-1.88240218162537,-7.10071754455566,-10.5316944122314,-10.4628973007202,-10.5616254806519,-9.56800651550293,-6.71710538864136,-3.80939626693726,-0.9667421579361,0.55782675743103,-0.08464609831572,-0.61106705665588,0.46091747283936,11.1376924514771,13.2373943328857,19.9002094268799,38.943489074707,23.4882469177246,7.12851762771606,1.48743832111359,-12.5727872848511,-23.8453750610352,-24.9281272888184,-20.5600299835205,1.1859427690506,2.24715948104858,3.38494682312012,3.92333173751831,2.86809706687927,1.0962119102478,-5.65752983093262,-20.6832599639893,-33.8234443664551,-41.7329216003418,-42.6086921691895,-37.1482734680176,-28.6800727844238,-17.3237361907959,-6.99272489547729,10.3181505203247,9.59910678863525,10.3169536590576,9.21027374267578,9.42084217071533,9.8443717956543,14.0593280792236,26.1885471343994,31.1704025268555,18.3855514526367,9.78814029693604,7.54965448379517,9.51057243347168,9.12054252624512,3.27009129524231,SWING_RIGHT
0.01901262067258,0.19493663311005,0.87236624956131,-0.43492326140404,-0.06864395737648,3.16525769233704,4.97733640670776,4.53722095489502,4.50973272323608,0.88397234678268,1.79199683666229,0.34123456478119,-0.27610296010971,-0.73332214355469,0.06910209357738,0.10346225649118,0.56343024969101,1.82826590538025,2.12330508232117,-1.12105739116669,0.67063391208649,-0.03520007431507,-3.97898268699646,-4.24958801269531,-3.99364304542542,-0.34887012839317,-1.51413762569427,-0.82380390167236,-0.62802731990814,-0.75264018774033,-0.13507360219955,0.32069480419159,0.34573954343796,-3.55192399024963,-7.83006906509399,-9.29007053375244,-9.84777450561523,-12.2490911483765,-14.3599500656128,-6.63280868530273,-4.48774194717407,-4.20064401626587,-2.48286509513855,-0.24869118630886,1.07783997058868,1.42642140388489,7.36301422119141,20.8501586914063,35.5564460754395,18.8294200897217,10.7356977462769,5.12692165374756,2.38115763664246,-22.784158706665,-28.1093845367432,-11.6694965362549,-11.3584299087524,-15.0373945236206,-17.9398880004883,-4.3953161239624,3.03200531005859,1.96600294113159,-3.21326160430908,-16.0687007904053,-26.9488658905029,-31.4856567382813,-37.251163482666,-47.670711517334,-47.1407012939453,-16.0687007904053,-15.6056900024414,-11.6204442977905,-3.96460795402527,-0.93529456853867,-1.63878440856934,9.58594703674316,9.45434093475342,8.62403202056885,15.1265277862549,28.2786769866943,27.6744899749756,20.8190517425537,22.4892425537109,15.2808647155762,8.96500873565674,10.6914310455322,6.06610441207886,3.84197592735291,10.7285194396973,8.28664398193359,SWING_RIGHT
0.22761696577072,0.04466820508242,0.03947600349784,-0.13591352105141,-0.27335414290428,-0.05795413255692,-0.8041804432869,-1.83162546157837,-0.82433837652206,3.0785174369812,4.38298177719116,4.19820070266724,3.65057587623596,1.14236068725586,1.17565190792084,1.09456193447113,0.87282437086105,0.51150822639465,0.45042350888252,-0.13873867690563,-1.37455904483795,-1.27773976325989,0.44584214687347,1.55269742012024,2.26227283477783,-0.4426352083683,-2.6680281162262,-0.47867518663406,-2.01808667182922,-1.44999873638153,0.89336413145065,0.86465430259705,0.75989401340485,0.79623937606812,1.01675522327423,1.61843979358673,1.11082577705383,-0.38796436786652,-6.82217121124268,-9.63672637939453,-10.5001592636108,-11.5744104385376,-10.2799482345581,-6.58607864379883,-4.12886953353882,1.65732872486115,0.25633111596107,-0.82761752605438,-0.6936194896698,-1.17696964740753,6.15463876724243,12.8054895401001,40.316967010498,38.8154716491699,26.1191539764404,12.9717903137207,7.04476881027222,-11.125129699707,-24.5022048950195,-15.9047927856445,1.9947167634964,1.29840540885925,2.2280170917511,2.81784772872925,5.22981309890747,2.46729922294617,-3.25633239746094,-15.6750822067261,-22.3438777923584,-27.0816669464111,-38.2477760314941,-41.1885528564453,-38.1365089416504,-20.0874462127686,-15.6655111312866,9.34546756744385,9.51416206359863,9.08225727081299,8.10598564147949,9.41964530944824,6.0972113609314,5.80169773101807,14.0545425415039,29.5038032531738,28.7416877746582,18.0086822509766,19.5113754272461,8.81904697418213,6.18454933166504,9.08106136322021,SWING_RIGHT
-0.58213746547699,-0.13866232335567,-0.12430741637945,-0.13805148005486,-0.12339114397764,-0.84632885456085,0.05108210071921,-0.47157409787178,1.46549892425537,4.98955297470093,5.8634467124939,5.57512664794922,3.01957082748413,3.04766964912415,2.19301795959473,-0.19738002121449,0.02496838197112,0.54296684265137,0.7399650812149,-0.38521555066109,-0.36872267723083,0.6648308634758,0.17920731008053,0.07078192383051,3.00261974334717,-4.08038330078125,-0.59992837905884,-1.69219958782196,-1.65341079235077,-1.46007764339447,0.81761908531189,0.91107869148254,0.92146307229996,1.17557549476624,1.28400099277496,0.97246885299683,0.73148959875107,-2.20706748962402,-8.1190767288208,-10.7195291519165,-12.3401069641113,-13.6510620117188,-10.0951671600342,-6.46787977218628,-3.99295592308044,-1.1793624162674,-0.60867428779602,-1.09082806110382,-1.32771742343903,-0.05473581701517,3.99631285667419,15.625431060791,42.8330192565918,42.3652229309082,20.1753826141357,15.6924295425415,3.89701080322266,-23.2172584533691,-22.1416854858398,-20.7598304748535,0.85214394330978,0.86650091409683,0.49920263886452,1.88464689254761,1.11176526546478,0.33050861954689,-4.79491758346558,-11.365608215332,-18.5931301116943,-32.550464630127,-42.7163696289063,-52.2218589782715,-30.8515605926514,-23.5809688568115,-21.0086841583252,11.4535446166992,10.6698951721191,8.71615600585938,10.6363954544067,9.88265705108643,11.1747808456421,12.2766752243042,24.3065910339355,29.093433380127,25.750659942627,26.1179580688477,14.6407842636108,9.85633563995361,6.87966442108154,5.83519697189331,SWING_RIGHT
-0.20555010437965,0.40323555469513,1.18542551994324,-0.49784052371979,-1.19664978981018,0.53517854213715,2.12948989868164,3.90652084350586,3.71104979515076,2.85097694396973,2.18721485137939,0.84121304750443,-0.3005368411541,-1.20672881603241,-0.59313267469406,-0.25938102602959,-0.43622130155563,0.96445149183273,1.53284478187561,0.29099234938622,-1.00835609436035,-0.17355698347092,0.22960221767426,-1.8061226606369,-0.65704256296158,-0.81403034925461,-0.86198180913925,0.0842205658555,-0.16103461384773,-0.45973891019821,0.92237937450409,1.05310070514679,0.55831438302994,-2.08856320381165,-7.45317649841309,-9.48157119750977,-9.45194530487061,-10.4164724349976,-12.1904497146606,-8.51459980010986,-5.56871271133423,-2.98719573020935,-1.89675712585449,-1.03149199485779,0.56503373384476,2.85613298416138,8.54746150970459,13.0782709121704,29.4320182800293,40.2535591125488,10.8026971817017,8.88963508605957,8.29501914978027,-16.9779739379883,-25.0358047485352,-24.6565418243408,-21.8210468292236,-15.1438751220703,-16.9791698455811,-17.3117733001709,2.26271295547485,2.11435794830322,0.93230354785919,-4.76022148132324,-16.1560401916504,-33.4058990478516,-35.5067977905273,-38.4607353210449,-45.7145767211914,-30.0978202819824,-20.1077861785889,-15.131911277771,-7.62323379516602,-1.21525478363037,-0.08225327730179,11.0503540039063,11.3446712493896,8.95065212249756,3.37298250198364,14.0030975341797,23.5420837402344,24.3951263427734,21.5045967102051,12.425030708313,8.0054874420166,1.8475581407547,0.69780689477921,-0.16360925137997,7.07707214355469,10.2607221603394,SWING_RIGHT
0.31221929192543,0.22792237997055,0.03367295488715,0.43927553296089,-0.21532365679741,-0.24525517225266,0.28839626908302,0.31344100832939,-1.17282676696777,0.0907871723175,2.22325491905212,3.45541024208069,2.30694103240967,1.17259764671326,1.81368184089661,0.26106083393097,0.53685837984085,-0.00465771043673,-0.04955498501658,-0.0703237876296,-0.613061606884,-1.68303692340851,-1.04531240463257,1.93180441856384,0.71400409936905,0.31756421923637,-0.38765895366669,-3.0947048664093,-1.683953166008,-0.82410931587219,0.39216393232346,0.56228488683701,0.69911468029022,0.51555508375168,0.65207946300507,0.65421742200851,1.34386396408081,1.84445333480835,-4.47460889816284,-11.7026882171631,-11.7930936813354,-11.0445003509521,-11.2607402801514,-8.54514217376709,-4.80293941497803,0.47766721248627,-0.96041917800903,0.3400799036026,0.64396840333939,1.17038941383362,4.33968305587769,6.62722158432007,17.3243350982666,55.3558578491211,41.01806640625,6.43459939956665,0.53270214796066,-13.3504552841187,-26.7694034576416,-26.889045715332,2.12632203102112,2.82382988929749,4.79431915283203,5.23220586776733,4.54307270050049,5.09461832046509,5.13768911361694,-2.47268319129944,-27.5063934326172,-35.7592391967773,-48.2784881591797,-45.1056022644043,-41.6180648803711,-27.1163635253906,-20.9057922363281,9.65892791748047,8.76401233673096,10.0022974014282,9.51176929473877,6.49681234359741,9.50937652587891,9.4423770904541,7.58793973922729,15.8324098587036,24.781566619873,23.0192527770996,13.6956195831299,13.310375213623,12.1678018569946,13.4431762695313,SWING_RIGHT
0.01046075951308,-0.07689040154219,-0.32191649079323,-0.2089097648859,-0.30267482995987,-0.51830387115479,0.03520007431507,-0.78066277503967,-1.12487518787384,1.8946191072464,4.33319759368896,5.01917934417725,4.45811605453491,3.72143411636353,2.54364442825317,0.38170316815376,0.91466742753983,0.5432722568512,0.22471544146538,0.72072339057922,-0.32046574354172,-0.08651123940945,-0.92864054441452,0.95406705141068,2.14101958274841,2.45866012573242,1.40548324584961,-2.82104539871216,-2.98689031600952,-1.44541728496552,0.7528692483902,1.16610741615295,1.28949856758118,1.47855579853058,1.93394243717194,2.62542152404785,1.86552751064301,-0.3305447101593,-6.67923307418823,-9.92443561553955,-10.0038452148438,-9.17003917694092,-10.3761568069458,-8.61844444274902,-4.82584619522095,-1.3061820268631,-2.16161608695984,-1.37318110466003,-1.56939256191254,-0.78215390443802,1.66929292678833,17.3925304412842,24.98854637146,40.8541564941406,11.4619197845459,4.05374050140381,2.60967230796814,-8.12811946868896,-21.8354034423828,-26.860330581665,2.55703020095825,2.66829633712769,2.32253336906433,2.56181573867798,1.21944224834442,-0.11455638706684,-3.72173643112183,-7.08245611190796,-15.575779914856,-35.0007133483887,-38.4380035400391,-35.4601364135742,-39.1869583129883,-33.9179611206055,-20.4368000030518,8.11675357818604,8.1729850769043,9.39212799072266,9.54526901245117,9.96760177612305,10.9965152740479,13.0627183914185,10.8816604614258,15.7785720825195,24.3723945617676,15.5799674987793,9.53450107574463,12.2467651367188,8.760422706604,4.2415771484375,SWING_RIGHT
-0.16004198789597,-0.01977618038654,-0.09865183383226,0.03458922728896,-0.40254834294319,0.51166093349457,1.74404525756836,-0.1536280810833,-2.37436318397522,0.73064965009689,2.21103811264038,3.7449517250061,4.42574119567871,3.01162958145142,1.60019075870514,0.33039200305939,0.03107685409486,0.2241045832634,0.31695336103439,-0.66956496238708,-0.2380013614893,1.01057040691376,-1.94875550270081,-0.33268269896507,3.73594188690186,1.6861674785614,-0.76332998275757,-2.20561671257019,-2.37359976768494,-1.01629710197449,0.25502872467041,0.44378054141998,0.56350660324097,0.68750858306885,1.02561259269714,1.02561259269714,0.74309569597244,-0.78868019580841,-7.40217065811157,-12.3529348373413,-8.65204048156738,-6.20093965530396,-7.926353931427,-7.08361387252808,-5.68752241134644,-0.13609178364277,-1.32532465457916,-0.777368247509,0.22642084956169,4.69382095336914,6.98853778839111,19.8942260742188,37.512580871582,40.6292304992676,21.2210464477539,-16.2350025177002,0.26949164271355,-4.88584470748901,-15.9466676712036,-12.8766756057739,1.88464689254761,3.20309209823608,3.47587394714355,4.28823709487915,3.68404960632324,4.10159730911255,-3.97896504402161,-15.8198480606079,-30.3191566467285,-38.0013122558594,-36.545280456543,-26.4583377838135,-29.9937324523926,-23.3632221221924,-21.5614261627197,8.51037311553955,9.69242763519287,9.03200817108154,9.2557373046875,12.4178524017334,12.7899360656738,8.13589572906494,5.13051080703735,18.6679058074951,24.2336101531982,21.8431797027588,20.1861515045166,11.6054887771606,5.20229530334473,4.78474807739258,SWING_RIGHT
0.15278817713261,0.04100312292576,0.12194038182497,0.1103342846036,0.1307976692915,0.45240876078606,-0.40224292874336,-0.55281674861908,0.11125055700541,1.95387136936188,3.5311553478241,2.7382755279541,1.76481413841248,2.55128002166748,2.14812064170837,-0.04924955964088,0.27969169616699,0.37528929114342,0.08971819281578,0.20791713893414,0.26991814374924,-0.91398018598557,-0.19463120400906,-1.05844557285309,0.59580516815186,-1.97838151454926,-3.66806149482727,-0.6216134428978,-1.47993016242981,-2.07703328132629,1.12365353107452,0.94772952795029,0.82708716392517,0.91382747888565,0.72660279273987,0.35429140925407,0.24708771705627,-0.92276114225388,-6.76475143432617,-11.8773908615112,-12.0921030044556,-12.7930507659912,-12.3321666717529,-5.90284633636475,-1.81612527370453,0.14626128971577,0.56620168685913,0.57816576957703,1.87387919425964,5.10897541046143,5.52293395996094,9.11336421966553,31.9708023071289,43.2613372802734,14.8980131149292,6.35922527313232,0.7995018362999,-29.8238430023193,-38.3267364501953,-23.7807693481445,3.26769852638245,3.41844630241394,3.96161699295044,3.19471740722656,2.49242377281189,2.64197540283203,0.4944169819355,-12.432806968689,-19.4748840332031,-42.2581443786621,-43.4784851074219,-46.248176574707,-36.1396980285645,-23.1777782440186,-13.3157587051392,9.15284538269043,8.90399169921875,9.5297155380249,9.26650524139404,10.415060043335,9.6768741607666,7.28524780273438,18.8533477783203,22.9857540130615,25.2936305999756,22.6806678771973,15.0200471878052,13.0495576858521,13.6405849456787,5.76101970672607,SWING_RIGHT
-0.17286977171898,0.28503659367561,-0.36284327507019,0.13140851259232,0.53945446014404,0.05932854115963,-0.67956757545471,-1.33195245265961,-1.37349009513855,-0.56594997644424,1.8158198595047,1.76603579521179,2.88365721702576,1.36623620986938,0.163783416152,0.18623206019402,0.87832200527191,0.52433604001999,0.32092386484146,-0.0776539593935,-0.85037571191788,-2.08772325515747,-1.73954033851624,-0.55869615077972,0.26991814374924,1.86369502544403,-0.91947782039642,0.50631600618362,0.4763845205307,-0.10697462409735,1.35699713230133,1.39853477478027,1.51154148578644,1.99227833747864,2.20302057266235,1.62638080120087,1.18198943138123,1.0986088514328,-5.6029200553894,-11.66481590271,-12.9778318405151,-13.7649850845337,-14.9356737136841,-10.7207508087158,-5.05277585983276,-0.87068831920624,-0.98434740304947,-0.78215390443802,-0.36819559335709,1.51017022132874,6.27308368682861,13.089038848877,36.5231475830078,54.1331253051758,37.3247413635254,14.357234954834,8.26750087738037,-10.847562789917,-32.8998146057129,-19.8912353515625,3.19352102279663,3.63499665260315,3.20189571380615,3.88504672050476,2.26151657104492,0.42861434817314,-4.08664178848267,-13.281063079834,-29.1478691101074,-38.0611343383789,-46.9085960388184,-53.9973335266113,-57.2276420593262,-32.636604309082,-21.5016059875488,10.0621185302734,9.85992527008057,8.43380260467529,12.7995071411133,10.8637142181396,8.56301498413086,6.55663299560547,8.03300476074219,17.4296188354492,18.2982139587402,15.808482170105,13.7590293884277,12.2958183288574,4.68903493881226,15.0439748764038,SWING_RIGHT
2.27212262153625,1.70006430149078,0.957579433918,1.01683163642883,2.28861570358276,3.83413553237915,4.21163892745972,1.91538798809052,-6.77139472961426,-9.11834621429443,-1.89973497390747,1.07455670833588,1.40258169174194,3.22267746925354,4.40833187103271,0.56343024969101,0.26869642734528,0.60863292217255,1.23566770553589,1.81055128574371,3.18923354148865,-2.08100390434265,-6.81705522537231,-7.31184148788452,-6.11083984375,-6.2639331817627,-6.1539044380188,-4.20743942260742,-3.8207733631134,-4.49056720733643,-0.09964445978403,-0.41087114810944,-0.27770644426346,-0.28503659367561,-0.69155544042587,-0.07001836597919,2.05366849899292,1.44190490245819,-2.85647439956665,-7.85732841491699,-10.0905857086182,-7.32001161575317,-5.17838144302368,-2.97009205818176,-1.4700802564621,5.08983278274536,3.99631285667419,0.70139610767365,-1.10039925575256,-2.02761816978455,6.41784954071045,15.242579460144,46.7512664794922,52.2045097351074,51.5620384216309,14.9386911392212,5.82682228088379,-2.70478677749634,-3.8928234577179,-3.82103872299194,7.12373208999634,8.7412805557251,9.79771137237549,13.4013023376465,14.6503553390503,14.8166570663452,16.0812644958496,5.90817832946777,4.67108869552612,-8.77178859710693,-16.2397880554199,-14.1029977798462,-11.0665054321289,-10.5891370773315,-10.4336042404175,2.66470718383789,1.73030984401703,1.25772738456726,2.07009077072144,-0.3227319419384,-10.4479608535767,-11.8884401321411,-26.4822654724121,-20.631814956665,17.068302154541,46.0310287475586,38.005500793457,29.6473712921143,30.5135726928711,17.1101779937744,SWING_RIGHT
-0.2751866877079,-0.06039752438664,2.21928453445435,3.08126640319824,2.4294159412384,0.49180838465691,-5.35262537002563,-9.54074668884277,-7.38590669631958,-2.26685428619385,-0.90741360187531,0.75325101613998,3.81306123733521,1.59408223628998,-0.35093176364899,1.08173418045044,1.48397707939148,0.92169213294983,1.27598357200623,-0.08192989230156,-1.39380073547363,-5.22297334671021,-5.80358362197876,-7.10140466690063,-8.02073001861572,-6.70863008499146,-4.14696550369263,-5.20495319366455,-3.8012261390686,-1.03676056861877,0.01366770733148,0.52288526296616,1.00911962985992,2.14590644836426,2.30564308166504,1.79192042350769,-0.03458922728896,-5.33628511428833,-8.91989707946777,-8.93211364746094,-6.97213411331177,-4.32861661911011,-2.10902643203735,-2.08276009559631,-1.088911652565,-3.51834654808044,-2.03479647636414,-2.27527523040771,-0.25573292374611,17.8256320953369,33.8850593566895,57.8419990539551,54.4130859375,39.5979232788086,15.0918312072754,1.0100702047348,-2.87707018852234,2.83699035644531,0.43340000510216,-8.04197788238525,11.7155590057373,12.3831558227539,9.97597694396973,9.63141059875488,3.77497673034668,0.26949164271355,-2.8998019695282,-12.9867458343506,-19.6794700622559,-17.1849536895752,-13.0728874206543,-8.00967502593994,-11.1406831741333,-9.34606647491455,0.45134615898132,-1.48803663253784,3.99631285667419,2.07487630844116,-3.00867533683777,-17.9279251098633,-31.193733215332,-20.5995101928711,13.0938243865967,44.4960327148438,41.5169677734375,32.7412910461426,36.3520622253418,26.0796737670898,15.8264284133911,13.4407835006714,SWING_RIGHT
0.74775338172913,0.77218729257584,1.62187588214874,1.0003387928009,1.34607827663422,0.92886960506439,-3.51305890083313,-11.3834438323975,-8.4253396987915,-3.34080004692078,-2.56922364234924,1.0455414056778,2.34878396987915,0.72148698568344,-0.04818057641387,1.93424785137177,1.95257329940796,0.88565218448639,1.49741566181183,1.49833202362061,-1.28415369987488,-6.23858308792114,-4.00494384765625,-5.56260442733765,-8.06135082244873,-5.55710649490356,-3.70501780509949,-4.61945581436157,-3.49022841453552,-1.92096197605133,0.62153708934784,1.26292669773102,0.62000995874405,0.39796698093414,1.07814538478851,3.69386982917786,1.54452729225159,-5.34941864013672,-7.87687540054321,-7.99476909637451,-6.80079174041748,-3.61361956596375,-1.84269714355469,-1.97708356380463,-0.87725299596786,-6.2007007598877,1.31395876407623,0.54346984624863,1.41804647445679,3.67447829246521,33.4268341064453,53.0766944885254,51.6852684020996,37.3115844726563,27.043981552124,-2.04915356636047,-1.47128677368164,4.48923444747925,-1.383948802948,-5.18494749069214,8.6001033782959,10.191330909729,11.254940032959,12.7002048492432,11.7012014389038,5.35423994064331,-1.11116707324982,-19.6782741546631,-22.4060916900635,-20.0958213806152,-11.1574325561523,-7.52871751785278,-8.66291522979736,-3.08404922485352,-0.12053844332695,0.30658039450645,-1.36121702194214,-6.58833789825439,-12.9676036834717,-16.4348030090332,-26.970401763916,-25.7536506652832,8.06052207946777,42.4585456848145,38.6072959899902,33.5895462036133,29.36741065979,17.9201469421387,11.3554391860962,11.2369937896729,SWING_RIGHT
0.10605835169554,0.34520506858826,0.17905460298061,-0.43767204880714,0.40109759569168,1.62095952033997,3.36256146430969,3.96516227722168,-7.13943004608154,-13.6143350601196,-7.51082515716553,-1.17191052436829,-1.32065176963806,0.36414131522179,1.65058565139771,1.07623648643494,1.59851086139679,2.47362589836121,2.2185971736908,1.68464040756226,1.0478321313858,0.69384610652924,-3.54001259803772,-3.39524173736572,-3.43372511863709,-4.59685468673706,-8.11938190460205,-5.65545320510864,-3.82443833351135,-4.52538537979126,-0.21998137235641,0.1878355294466,0.5665608048439,1.44434833526611,1.15999889373779,2.6324462890625,3.18472862243652,4.67275238037109,0.11903885751963,-5.51953935623169,-9.04786968231201,-6.64319324493408,-6.11847543716431,-3.36714291572571,-1.80024325847626,-0.60269218683243,-6.62064123153687,-6.15045166015625,-2.73469710350037,-2.89740920066834,-7.78116035461426,-6.618248462677,41.2872581481934,54.6152801513672,55.7722091674805,42.888053894043,14.8657093048096,0.59730833768845,-4.80807781219482,1.74227404594421,9.74626541137695,6.3544397354126,5.24297332763672,8.91117095947266,9.84556770324707,13.8607244491577,15.2066869735718,-7.55144929885864,-14.1305150985718,-25.3337097167969,-23.8118762969971,-11.3560371398926,-9.85334491729736,-7.10877704620361,-6.76062107086182,1.76500582695007,0.51236313581467,-0.26530420780182,0.81744801998138,2.02821636199951,-0.30478578805923,-1.04775726795197,-44.6844673156738,-37.8003158569336,12.3484601974487,36.5566482543945,30.8258361816406,25.2493629455566,29.1843605041504,24.1271305084229,SWING_RIGHT
-1.52436935901642,-1.08486473560333,-0.82708716392517,1.69548296928406,4.51736831665039,1.99357640743256,-3.15693497657776,-3.2406210899353,-3.36309599876404,-2.34779143333435,-0.89428037405014,1.92363440990448,1.45053315162659,0.81036525964737,0.29847523570061,1.18191313743591,0.97178161144257,1.21367716789246,0.52952820062637,-0.91733986139297,-4.74406909942627,-5.77976036071777,-7.40805006027222,-7.56564855575562,-7.48165702819824,-5.34544801712036,-5.46456336975098,-4.14940929412842,-2.79325175285339,-1.58499586582184,0.89519667625427,-0.00251974491403,0.26480227708817,-0.57244026660919,-0.90871167182922,0.00878092925996,0.3680354654789,-0.023288551718,-2.01068019866943,-3.78801655769348,-4.20003318786621,-2.31121706962585,-0.96552044153214,-0.29786440730095,0.67559707164764,-1.67467677593231,0.75164538621902,-0.85274219512939,4.17577457427979,10.2966146469116,12.2168550491333,29.530122756958,35.2154693603516,42.2419929504395,25.653751373291,18.1008052825928,0.98614203929901,0.28624141216278,-3.46570444107056,-4.63459825515747,8.88963508605957,9.7366943359375,15.4854507446289,13.7937250137329,11.3937244415283,8.02462959289551,11.6688985824585,12.7037944793701,8.4326057434082,3.03798747062683,2.0521445274353,-3.90957307815552,-3.8557345867157,-0.08105687052011,4.12552547454834,-0.67567330598831,2.22682046890259,-4.67647266387939,-7.48803949356079,-27.8054962158203,-32.9919395446777,-15.3329086303711,-1.7273188829422,18.78395652771,29.8842601776123,31.1979198455811,28.849365234375,18.1630191802979,12.7779722213745,8.08445072174072,SWING_RIGHT
-0.54579204320908,0.01229330152273,0.77585238218307,1.98258113861084,1.75717854499817,1.88789975643158,1.90958487987518,2.4272780418396,-4.93572235107422,-6.33586025238037,-3.0579776763916,-1.27178394794464,0.87969642877579,1.67868459224701,1.2984322309494,0.8004390001297,0.44034451246262,0.1709608733654,-0.12163496017456,-0.33787488937378,-0.25021830201149,-2.24837613105774,-6.75169467926025,-7.80998754501343,-8.12549018859863,-8.23422145843506,-6.1679539680481,-4.64572238922119,-4.24775552749634,-3.66256380081177,-0.05138752609491,-0.31527355313301,-0.2047101855278,0.28007346391678,-0.13904410600662,-0.20104511082172,1.13159453868866,1.50634932518005,0.22051586210728,-1.14541494846344,-4.01647329330444,-3.82955408096313,-2.30419230461121,-1.20527803897858,-1.016526222229,-1.6615161895752,-2.84835624694824,-6.98435020446777,-5.95782947540283,-1.66271269321442,3.49142742156982,18.6367988586426,25.6334114074707,46.6447868347168,46.6447868347168,27.3263339996338,11.2501544952393,6.73968410491943,4.70219564437866,4.70219564437866,9.67208862304688,9.57039356231689,9.27009391784668,8.35483932495117,11.981162071228,13.7195472717285,13.8786706924438,9.48544788360596,5.00249481201172,5.00249481201172,1.54965174198151,2.00189518928528,0.79471623897552,-4.91575479507446,-4.91575479507446,1.31754791736603,1.86071872711182,1.07467651367188,-0.01525424420834,-8.41765117645264,-20.9392910003662,-21.3065910339355,-25.6830635070801,-15.5327091217041,-15.5327091217041,30.6463756561279,32.4864540100098,32.195728302002,21.520149230957,21.520149230957,SWING_RIGHT
-0.00572669319808,-0.06894938647747,0.15553697943687,0.48569992184639,0.554114818573,0.99300855398178,2.56899452209473,3.41203999519348,0.42033925652504,-5.5283203125,-6.38197946548462,-2.55792284011841,-3.07447052001953,-0.2275405973196,3.977379322052,0.68987560272217,0.70087087154388,0.67674243450165,0.64558917284012,0.690181016922,1.39754211902618,0.34321981668472,-1.5544536113739,-4.19216823577881,-5.02292060852051,-5.48136138916016,-7.11178922653198,-5.01100921630859,-2.66650104522705,-3.65798234939575,-0.20318306982517,-0.08620581775904,0.14408360421658,-0.24594238400459,-0.67720055580139,-1.35096502304077,-1.08616280555725,-0.66406732797623,0.12056598067284,-1.54429817199707,-1.74099099636078,-1.96211779117584,-3.35034441947937,-2.81371521949768,-1.6548615694046,-0.75822567939758,-1.40668058395386,0.30658039450645,0.72173511981964,-4.91096925735474,-7.87687301635742,-6.85633420944214,1.40249311923981,6.42622423171997,29.4786777496338,23.4691028594971,30.9682102203369,17.1376953125,9.64696311950684,1.55802667140961,8.63001441955566,9.74506950378418,10.6447706222534,10.6950197219849,11.5947208404541,12.946665763855,10.8397855758667,5.43439912796021,4.57059049606323,5.54446935653687,8.10598564147949,7.47188758850098,3.5763726234436,3.91136765480042,-2.85433840751648,0.93230354785919,1.62382924556732,3.8252260684967,3.56560492515564,0.07926224917173,-5.36081981658936,-11.9554395675659,-30.1121768951416,-36.9831695556641,-22.0292224884033,13.3737850189209,20.1813659667969,21.5727920532227,31.4360065460205,23.3721942901611,SWING_RIGHT
-1.11326909065247,-1.11449086666107,1.1472475528717,1.66097009181976,3.07699036598206,2.77156662940979,-1.01889324188232,-6.05059480667114,-4.26409578323364,-2.47423672676086,0.91848522424698,0.55625277757645,0.76546794176102,0.60145550966263,0.52601581811905,0.55548924207687,0.62207156419754,0.0023670331575,-0.5843517780304,-1.88522732257843,-4.0018892288208,-4.54920864105225,-6.22170829772949,-6.47253751754761,-5.32009792327881,-5.24801778793335,-3.63660287857056,-3.40501523017883,-2.14117240905762,-1.34768176078796,-0.52815383672714,-0.72148698568344,-0.63321954011917,-0.56816428899765,-0.84396183490753,0.85854583978653,1.33103621006012,0.17867282032967,-2.84181427955627,-2.81432604789734,-2.15361833572388,-1.73274457454681,-1.22513055801392,-0.40109759569168,0.62886726856232,-3.07687091827393,-0.79052877426147,-3.84975242614746,3.33230471611023,0.83539420366287,4.31814765930176,26.9889450073242,38.2064971923828,40.5921440124512,12.1091785430908,11.5241327285767,5.46909523010254,1.06031954288483,-1.42582321166992,-2.39371991157532,10.2439727783203,12.4992084503174,13.3008041381836,14.5331077575684,11.5049905776978,10.8254289627075,7.06391143798828,7.55683279037476,0.0864407196641,3.51774835586548,1.99950242042542,-0.45912283658981,-0.54287165403366,1.06989085674286,5.19990253448486,-2.30039978027344,3.27248406410217,-2.79212498664856,-12.6086797714233,-19.7871475219727,-24.6266307830811,-30.1791763305664,-16.5532474517822,16.2966175079346,31.0687084197998,30.3819675445557,20.895622253418,17.1795692443848,13.8631172180176,6.52074098587036,SWING_RIGHT
-0.07811209559441,-0.41843035817146,-0.38941511511803,0.52998638153076,1.90897405147552,-1.26201045513153,-2.36642217636108,-3.21404910087585,-4.11474370956421,-2.68253564834595,-0.0264954995364,2.14231777191162,2.88274097442627,0.63444125652313,-0.58977299928665,1.19199204444885,1.16144967079163,0.48493635654449,0.47943875193596,-0.72301411628723,-2.90076088905334,-4.06633377075195,-7.14721822738647,-5.77334642410278,-5.81335687637329,-4.61487483978271,-3.93042039871216,-3.99333763122559,-2.65520024299622,-0.74256122112274,0.03840702027082,-0.3119138777256,-1.48443520069122,-2.07115387916565,-1.02202379703522,-1.60446667671204,-0.92703706026077,1.81391096115112,-3.03423094749451,-4.31945371627808,-3.94500422477722,-2.22692012786865,-1.12281358242035,-1.07180786132813,-0.28809082508087,-5.34646320343018,-0.89581298828125,-0.87188476324081,-8.94048309326172,-0.70079791545868,18.646369934082,8.54985427856445,25.5269317626953,44.5761909484863,20.2615242004395,8.01625537872314,3.42203545570374,3.75822710990906,3.20069932937622,-5.18375110626221,11.0252294540405,13.6022996902466,13.9875440597534,10.7644119262695,5.8962140083313,5.02522659301758,13.2385902404785,16.7285213470459,4.94267416000366,1.31994080543518,0.12951152026653,-0.60269218683243,-3.46331167221069,-4.16201591491699,2.44097828865051,-0.6014958024025,-2.77058959007263,-2.78255367279053,-10.0184497833252,-26.2035007476807,-31.2427864074707,-15.816258430481,-11.7975130081177,13.9755802154541,28.612476348877,28.6280288696289,29.5791759490967,22.3193531036377,12.1331062316895,15.4579334259033,SWING_RIGHT
-0.03749075159431,-0.42942562699318,0.43255621194839,1.64203381538391,0.91237676143646,-1.49962997436523,-2.90099000930786,-3.54085254669189,-3.4803786277771,-1.98219931125641,0.1320193707943,2.62954473495483,3.19152426719666,0.27495762705803,-1.28155755996704,0.39605808258057,0.7836406826973,0.41255095601082,-0.48722705245018,-4.23217868804932,-4.89158868789673,-6.79353761672974,-7.35032510757446,-6.44291162490845,-5.05468463897705,-3.8531482219696,-3.35920166969299,-4.23156785964966,-2.52539539337158,-0.48539450764656,-0.15798036754131,0.07230904698372,-0.79387235641479,-0.54464668035507,-0.73187136650085,-1.64325547218323,-1.35371387004852,-2.96795415878296,-3.83321928977966,-5.67225122451782,-4.4752197265625,-1.91935849189758,-0.8360208272934,-0.61611580848694,-0.09689565002918,-3.69900465011597,-6.28564596176147,-0.32392835617065,2.97457766532898,23.0671100616455,25.1380977630615,33.0451812744141,39.451961517334,41.3016128540039,20.1670074462891,0.21086749434471,-0.4770690202713,2.78554463386536,0.74566334486008,-4.45752954483032,9.6098747253418,11.7047910690308,12.7480621337891,13.2290191650391,12.5985107421875,13.3654098510742,12.5769748687744,4.35762929916382,-3.11635231971741,-6.20907545089722,-6.83001327514648,-6.45673274993896,-6.22223615646362,-0.66251277923584,3.678067445755,1.88823616504669,-5.08325242996216,-7.66869735717773,-18.0499591827393,-27.7564430236816,-19.7536487579346,-9.61525821685791,12.7755794525146,25.6788749694824,33.1432838439941,32.3321189880371,31.0818691253662,12.3879423141479,5.5085768699646,10.8397855758667,SWING_RIGHT
