gyro_x_0,gyro_y_0,gyro_z_0,acc_x_0,acc_y_0,acc_z_0,gyro_x_1,gyro_y_1,gyro_z_1,acc_x_1,acc_y_1,acc_z_1,gyro_x_2,gyro_y_2,gyro_z_2,acc_x_2,acc_y_2,acc_z_2,gyro_x_3,gyro_y_3,gyro_z_3,acc_x_3,acc_y_3,acc_z_3,gyro_x_4,gyro_y_4,gyro_z_4,acc_x_4,acc_y_4,acc_z_4,gyro_x_5,gyro_y_5,gyro_z_5,acc_x_5,acc_y_5,acc_z_5,gyro_x_6,gyro_y_6,gyro_z_6,acc_x_6,acc_y_6,acc_z_6,gyro_x_7,gyro_y_7,gyro_z_7,acc_x_7,acc_y_7,acc_z_7,gyro_x_8,gyro_y_8,gyro_z_8,acc_x_8,acc_y_8,acc_z_8,gyro_x_9,gyro_y_9,gyro_z_9,acc_x_9,acc_y_9,acc_z_9,gyro_x_10,gyro_y_10,gyro_z_10,acc_x_10,acc_y_10,acc_z_10,gyro_x_11,gyro_y_11,gyro_z_11,acc_x_11,acc_y_11,acc_z_11,gyro_x_12,gyro_y_12,gyro_z_12,acc_x_12,acc_y_12,acc_z_12,gyro_x_13,gyro_y_13,gyro_z_13,acc_x_13,acc_y_13,acc_z_13,gyro_x_14,gyro_y_14,gyro_z_14,acc_x_14,acc_y_14,acc_z_14,motion_type
-0.37468749284744,-0.25011250376701,-0.09624999761581,-0.10106249898672,0.82376247644424,2.27631258964539,0.948337495327,-0.4822124838829,2.40226244926453,6.30066251754761,8.39464950561523,7.10820007324219,2.37159991264343,0.26056250929832,-0.01677500084043,0.22824999690056,0.42129999399185,0.38211250305176,0.55687499046326,-1.52611243724823,-1.80716252326965,-0.24089999496937,4.82432508468628,6.84131240844727,5.60133743286133,3.5158748626709,0.51411247253418,-0.56471252441406,-1.45406246185303,-2.01355004310608,-0.60912501811981,-0.39297500252724,-0.44673749804497,-0.5823125243187,-1.30184996128082,-4.89981269836426,-11.3662996292114,-16.0528507232666,-16.8994369506836,-14.1640119552612,-10.259425163269,-8.25948715209961,-4.285325050354,2.503737449646,6.13593769073486,0.57000005245209,1.54800009727478,4.15395021438599,8.66700077056885,19.4280014038086,40.8349533081055,50.9830513000488,40.7820014953613,26.0830516815186,14.2549505233765,8.18895053863525,-0.97800004482269,-17.0670013427734,-26.0580005645752,-12.2599506378174,0.18495000898838,0.93405002355576,0.97695004940033,1.98705005645752,3.28905010223389,1.83195006847382,-12.1800003051758,-37.8610534667969,-56.3410530090332,-60.4090538024902,-52.6630516052246,-44.7259521484375,-30.2269515991211,-18.5430011749268,-15.1350011825562,10.0339508056641,10.4860506057739,10.9620008468628,12.1660509109497,19.1560516357422,20.3160018920898,15.4729509353638,14.7409505844116,13.1929502487183,7.34400033950806,0.87600004673004,-6.83700037002563,-10.1830501556396,-0.72105002403259,0.67005002498627,SWING_RIGHT
-0.28682500123978,-0.43092501163483,-0.58616250753403,-1.6941374540329,-0.46021249890327,1.46630001068115,0.57942497730255,-0.84026247262955,1.84016251564026,5.7239875793457,7.03367519378662,5.06797504425049,1.97587502002716,1.20367503166199,1.34296250343323,-0.0015124999918,-0.0283249989152,0.91850000619888,0.31253749132156,-3.2511875629425,-0.48647499084473,0.63621246814728,3.39735007286072,6.83773756027222,4.64227485656738,3.77244997024536,1.01873743534088,-0.76986247301102,-1.28919994831085,-1.0448625087738,0.09817499667406,0.57832497358322,0.00412499997765,-1.37637495994568,-1.50961244106293,-6.82893753051758,-12.7322244644165,-17.12548828125,-18.4559383392334,-15.489649772644,-12.6282749176025,-8.08362483978271,-0.32326251268387,5.45421266555786,6.24469995498657,1.79205012321472,0.84495002031326,7.21005010604858,8.62905025482178,23.5390510559082,50.9310035705566,52.5960006713867,47.8540534973145,36.6240005493164,22.3159503936768,13.6660509109497,-13.3699502944946,-26.332950592041,-15.1720504760742,0.96900004148483,2.58795022964478,3.92100024223328,4.44000005722046,5.09595012664795,8.75895023345947,-0.52695000171661,-15.937050819397,-44.2930526733398,-61.4410514831543,-60.3570022583008,-59.8990516662598,-49.6120529174805,-30.877950668335,-19.3879508972168,-11.8450508117676,7.64805030822754,8.70795059204102,7.42800045013428,8.5620002746582,21.7810516357422,19.066951751709,14.9440507888794,10.9840507507324,13.4130010604858,12.8719501495361,1.79295003414154,-5.35905027389526,-4.28894996643066,1.51995003223419,3.62595009803772,SWING_RIGHT
-0.09253749996424,-0.49939998984337,0.03451250120997,-0.25258749723434,0.75528746843338,3.41137504577637,2.62583756446838,-1.56956243515015,0.54395002126694,6.11256265640259,6.70257472991943,4.96292495727539,1.93435001373291,0.42913749814034,-0.79750001430511,0.23182499408722,0.48482498526573,-0.14437499642372,-0.44742500782013,-2.89327502250671,-4.27748727798462,-3.35747504234314,0.66921252012253,7.9641375541687,2.90619993209839,0.5263500213623,0.00467499997467,-1.30377495288849,-1.96721243858337,-1.12172496318817,0.37674999237061,0.57956248521805,0.24365000426769,-0.52483749389648,-3.22726249694824,-7.32490015029907,-13.429762840271,-18.5267505645752,-19.4698619842529,-13.6923875808716,-5.61811256408691,-2.28896260261536,2.11529994010925,4.22757482528687,4.13228750228882,0.70395004749298,2.05995011329651,7.64100027084351,13.9699506759644,30.025951385498,41.449951171875,48.7939529418945,40.5289535522461,21.8089504241943,-7.49595022201538,-12.1050004959106,-12.8080501556396,-20.9920501708984,-8.5890007019043,-3.09795022010803,2.09700012207031,2.2219500541687,3.25995016098022,3.40200018882751,1.28400003910065,-5.14695024490356,-17.6689510345459,-43.9030532836914,-68.545051574707,-65.4889526367188,-44.9370002746582,-34.1569519042969,-18.0979499816895,-8.48505020141602,-0.09405000507832,9.30405044555664,10.2919502258301,12.3220510482788,10.3039503097534,21.4099502563477,24.4609508514404,18.6340503692627,16.6529998779297,16.3110008239746,15.7189502716064,-2.71200013160706,-6.88500022888184,-7.58400058746338,-0.95805007219315,1.24500000476837,SWING_RIGHT
-0.05224999785423,0.09803749620914,0.58313751220703,1.3136750459671,1.24162495136261,0.00879999995232,-2.16452503204346,-2.74119997024536,0.52071249485016,5.50041246414185,6.87610006332397,3.85481238365173,1.69111251831055,1.61658751964569,1.11938750743866,0.95026248693466,0.74744999408722,0.30277499556541,-0.42542499303818,-2.5414125919342,-6.1149001121521,-2.53522491455078,4.31722497940063,5.01366233825684,2.25747489929199,1.7627500295639,1.43893754482269,0.36258751153946,-0.48042500019073,-0.65504997968674,1.3113374710083,1.38709998130798,1.44210004806519,-0.254787504673,-4.29384994506836,-7.53142499923706,-13.154899597168,-17.3698253631592,-18.2604122161865,-16.2947120666504,-12.770037651062,-9.14526271820068,-3.73917508125305,2.85188746452332,5.45792484283447,2.050950050354,4.26900005340576,10.8280506134033,24.6660003662109,34.0060501098633,41.9839515686035,55.5900039672852,43.6470031738281,25.1329517364502,15.6160507202148,6.43200016021729,-4.68195009231567,-20.1349506378174,-23.6530513763428,-11.9490003585815,0.62100005149841,1.40100002288818,3.71700024604797,6.28995037078857,4.213050365448,-2.62305021286011,-25.5970516204834,-52.4839515686035,-65.8530044555664,-68.0809555053711,-58.0230026245117,-42.7350006103516,-27.9400520324707,-18.0760517120361,-13.9960508346558,10.3879508972168,10.3519506454468,11.9170503616333,13.6450510025024,13.5370502471924,17.2699508666992,15.7120504379272,14.0850009918213,15.7549505233765,14.7979507446289,2.31405019760132,-5.29905033111572,0.20895001292229,2.55105018615723,0.48900002241135,SWING_RIGHT
0.87505000829697,0.78347498178482,-0.18906250596046,0.2593249976635,1.56777501106262,-3.00753736495972,-4.7118501663208,0.31913748383522,5.50659990310669,6.65747499465942,4.40948724746704,1.14509999752045,0.80052500963211,1.84140002727509,2.04063749313354,-0.97143751382828,-0.97391247749329,-0.7540500164032,-2.40088748931885,-3.66286253929138,2.55076241493225,5.02466249465942,6.03625011444092,3.61116242408752,2.35152506828308,2.01918745040894,1.10536253452301,-0.01608750037849,-0.14313749969006,-0.24942499399185,-0.36973750591278,-0.26344999670982,-0.03011249937117,0.13736249506474,-3.30426239967346,-10.2228498458862,-15.531174659729,-17.4736366271973,-17.3941631317139,-14.6661624908447,-8.6088752746582,-3.34702491760254,0.75556248426437,3.99795007705688,5.39797496795654,1.35495007038116,1.62300002574921,2.15400004386902,13.0800008773804,39.4879531860352,53.7540016174316,50.509952545166,33.1830024719238,27.7579517364502,10.2229509353638,-2.45895004272461,-10.1520004272461,-13.2360010147095,-11.2290000915527,-4.98600006103516,1.65900003910065,2.0419499874115,2.87295007705688,8.60805034637451,7.52400016784668,-6.3270001411438,-33.4320030212402,-48.0379524230957,-56.2570533752441,-57.4920043945313,-42.7020034790039,-29.5099506378174,-20.90505027771,-13.828950881958,-8.74200057983398,9.80205059051514,8.05995082855225,7.33500051498413,17.506950378418,13.4389505386353,-3.70305013656616,9.59595012664795,18.1630516052246,14.5230007171631,4.37895011901855,-3.11205005645752,-1.79295003414154,4.4370002746582,5.6380500793457,3.65895009040833,SWING_RIGHT
-0.78154999017715,-0.86349999904633,-0.86583751440048,-0.80231249332428,-0.21834999322891,-1.12860000133514,-2.31481242179871,-2.32100009918213,-1.5109875202179,0.81276249885559,2.58183741569519,2.43278741836548,2.54264998435974,2.49259996414185,1.90987503528595,0.48482498526573,0.08401250094175,-0.57323747873306,-1.70458745956421,-3.14613747596741,-1.65192496776581,-0.46942499279976,2.69981241226196,4.46627473831177,3.31553745269775,1.40717494487762,1.11031246185303,1.40222501754761,-0.38389998674393,-0.88233751058578,-0.11439999938011,0.19717499613762,-0.03616249933839,-0.24502499401569,-2.41477489471436,-7.51671266555786,-13.3479499816895,-17.714262008667,-18.0283126831055,-16.3410491943359,-12.9020376205444,-7.70481252670288,-2.02881240844727,2.19216251373291,4.11881256103516,1.3620001077652,1.84305012226105,7.88205051422119,12.9310503005981,33.5890502929688,50.7940521240234,55.1230545043945,48.0280532836914,35.6760025024414,27.7630519866943,8.02395057678223,-6.36900043487549,-15.0330009460449,-13.8750009536743,-7.76100015640259,2.06895017623901,2.66400003433228,1.31505000591278,6.68505048751831,8.39805030822754,0.15705001354218,-20.1510009765625,-46.8840026855469,-60.060001373291,-59.9569511413574,-49.6360511779785,-37.0039520263672,-26.920051574707,-20.0959510803223,-13.8810005187988,7.51695013046265,9.39000034332275,7.98600053787231,9.72495079040527,10.687050819397,6.8779501914978,10.4479503631592,12.1969509124756,6.88695049285889,7.72005033493042,6.17895030975342,2.65905022621155,2.92500019073486,3.94905018806458,1.95300006866455,SWING_RIGHT
-0.42116248607635,-0.78278750181198,-1.2861750125885,-0.34416249394417,0.57571250200272,0.942287504673,0.48661249876022,0.03946249932051,0.38032498955727,2.77970004081726,2.89575004577637,0.68076246976852,2.76017498970032,3.35018754005432,1.9684499502182,0.26853749155998,0.34911251068115,0.14643749594688,-0.80162501335144,-2.7992250919342,-2.13702487945557,-0.40823748707771,0.18424999713898,3.48411250114441,2.90867495536804,0.14877499639988,1.17383754253387,-0.71857500076294,-1.12419998645782,-1.51882493495941,-0.02034999988973,-0.58588749170303,-0.83641248941422,-1.75271248817444,-3.26397490501404,-6.01892518997192,-11.4261121749878,-14.4608745574951,-17.0741996765137,-16.2189502716064,-12.7663249969482,-7.45318746566772,0.52332502603531,3.39074993133545,4.78101253509521,1.81200003623962,3.71895027160645,4.52295017242432,10.6489505767822,18.0930004119873,38.9040031433105,47.779052734375,42.1300506591797,49.9860038757324,28.6530017852783,15.4099502563477,-2.97795009613037,-14.7370510101318,-10.5589504241943,-7.71405029296875,0.2790000140667,0.13800001144409,1.29300010204315,3.29595017433167,5.44995021820068,3.6739501953125,-6.68100023269653,-23.556001663208,-45.7960510253906,-53.1540031433105,-50.6530532836914,-40.7730026245117,-27.4060516357422,-18.9829502105713,-12.2809505462646,8.36805057525635,6.82005023956299,7.47405052185059,12.5230503082275,16.8799514770508,18.0910511016846,17.2720508575439,18.5140514373779,14.1829509735107,14.2170009613037,5.08995008468628,1.07700002193451,7.4089503288269,1.61595010757446,0.34005001187325,SWING_RIGHT
0.05775000154972,-0.13034999370575,0.33756250143051,0.79681247472763,0.86033749580383,-0.007012499962,-0.7987374663353,-2.20604991912842,-0.6569749712944,1.8853999376297,4.01114988327026,3.34661245346069,3.21461248397827,2.75769996643066,2.01368737220764,-0.43395000696182,-0.28490000963211,-0.41566249728203,-1.92568743228912,-2.20536255836487,-1.31229996681213,-1.97326254844666,2.14142489433289,3.19577503204346,2.79620003700256,1.31312501430511,1.68327498435974,0.80616247653961,0.24172499775887,-0.174899995327,0.85813748836517,0.89595001935959,0.9814749956131,0.18012499809265,-1.31532502174377,-5.98839998245239,-11.211199760437,-16.0967121124268,-18.5072250366211,-15.8268003463745,-13.2709503173828,-10.8091497421265,-5.37872505187988,0.79461246728897,4.07123756408691,0.15300001204014,2.99595022201538,5.45100021362305,12.868950843811,25.4560508728027,42.6250534057617,49.9279518127441,50.1240005493164,37.2739524841309,18.6270008087158,17.4610500335693,7.2460503578186,-12.4870510101318,-17.5360507965088,-9.97005081176758,0.40800002217293,0.38595002889633,2.2219500541687,4.72200012207031,5.92605018615723,-0.13199999928474,-11.9220008850098,-35.5090522766113,-52.6350021362305,-51.2179527282715,-50.1840019226074,-48.6619529724121,-35.9029502868652,-24.7399520874023,-16.6140003204346,7.46895027160645,8.57205009460449,9.30900001525879,11.4550504684448,11.7900009155273,12.867000579834,14.9419507980347,11.1420001983643,16.6669502258301,13.2520503997803,12.1350002288818,2.86200022697449,3.74505019187927,1.87395012378693,0.26100000739098,SWING_RIGHT
-0.1560624986887,0.71871250867844,0.82981246709824,0.75776249170303,0.92028748989105,1.5555374622345,-0.18177500367165,1.6715874671936,2.34726238250732,4.70634984970093,6.37395000457764,2.97756242752075,2.8579375743866,4.2714376449585,1.98068749904633,-1.65316247940063,-0.89581251144409,-0.91162496805191,-1.50658750534058,-0.98009997606277,-0.94586247205734,3.15053749084473,1.15059995651245,3.06625008583069,2.64838743209839,2.20000004768372,2.72662496566772,0.66068750619888,-1.65811252593994,-1.32330000400543,2.57221245765686,1.71819996833801,0.70056247711182,-0.63731247186661,-2.33419990539551,-9.42507457733154,-15.1010751724243,-17.13401222229,-17.543212890625,-14.9349746704102,-11.6496877670288,-7.89662504196167,-1.24808752536774,3.93442487716675,6.03693723678589,-0.36705002188683,6.56400012969971,5.5009503364563,11.260950088501,21.7999515533447,55.5990028381348,52.1419525146484,45.5590515136719,43.0290031433105,25.3170013427734,21.4189510345459,4.71900033950806,-19.5580501556396,-17.8429508209229,-9.46005058288574,-0.48105001449585,-2.33805012702942,0.40995001792908,3.15705013275146,7.3690505027771,4.0090503692627,-13.51305103302,-32.3910026550293,-48.117000579834,-50.566951751709,-55.6830024719238,-51.2250022888184,-36.2500534057617,-25.6519508361816,-14.7910509109497,9.42600059509277,10.16100025177,9.11700057983398,10.7809505462646,12.9289503097534,19.7200508117676,11.0890502929688,29.0359516143799,18.832950592041,22.992000579834,9.61005020141602,-5.73405027389526,2.56305003166199,-1.47000002861023,-6.11505031585693,SWING_RIGHT
-0.32587498426437,-0.1182499974966,0.04798749834299,0.83476251363754,2.46812510490417,2.65141248703003,1.56777501106262,-0.08882500231266,4.44853734970093,8.86008739471436,8.14550018310547,2.97756242752075,1.81582498550415,2.8859875202179,2.47678756713867,0.25877499580383,-0.40947499871254,-0.10656250268221,-0.91286247968674,-2.02826237678528,-3.45523738861084,-1.2060124874115,5.0894250869751,4.63980007171631,1.69056248664856,-1.16091251373291,-1.49311244487762,-0.690524995327,-1.09243750572205,-1.48953747749329,0.73837500810623,1.14647495746613,0.62727499008179,-0.63112497329712,-5.56325006484985,-11.561824798584,-17.8645496368408,-18.7087993621826,-15.0400247573853,-11.5446376800537,-9.78670024871826,-4.66647481918335,2.03101253509521,5.65083742141724,6.47679996490479,0.40695002675056,1.84500002861023,10.8229503631592,21.2299518585205,41.248950958252,46.6639518737793,45.8149528503418,32.191951751709,17.473051071167,16.8700504302979,5.03700017929077,-16.1029510498047,-20.9820003509521,-10.9180507659912,-3.37005019187927,1.78200006484985,2.88000011444092,4.23900032043457,3.49200010299683,-0.71595001220703,-7.02105045318604,-26.5500011444092,-48.1600532531738,-55.0420532226563,-54.7000541687012,-52.4929542541504,-32.1150016784668,-21.5359516143799,-16.1190013885498,-10.6099500656128,9.27495002746582,9.90195083618164,10.8330001831055,18.6480007171631,24.2740516662598,25.2700519561768,21.6280517578125,12.6109504699707,22.5300006866455,15.4540510177612,0.52500003576279,-3.43995022773743,5.89905023574829,6.64995050430298,2.79105019569397,SWING_RIGHT
-0.82555001974106,-1.20669996738434,-1.19336247444153,-0.22329999506474,1.58482503890991,0.99481248855591,-2.19381237030029,-2.87677502632141,0.86157500743866,4.83339977264404,6.35689973831177,3.53471255302429,1.15362501144409,0.28503748774529,-0.69726252555847,-0.82238751649857,-0.38513749837875,-0.88591247797012,-1.07772505283356,-2.33736252784729,-2.44117498397827,0.24901250004768,4.81456232070923,4.95989990234375,4.81085014343262,1.69675004482269,0.14396250247955,-0.98009997606277,-1.25496244430542,-0.98986250162125,-0.30978751182556,-0.0386375002563,-0.11068750172853,-0.36602500081062,-3.31031250953674,-8.5746374130249,-14.1042003631592,-18.1150741577148,-17.2952995300293,-13.8403377532959,-12.0725002288818,-6.58817481994629,-0.18645000457764,3.4065625667572,3.91366243362427,0.43095001578331,2.64195013046265,6.3270001411438,16.5690002441406,38.284049987793,55.7740516662598,61.6390533447266,50.97900390625,31.9170017242432,28.2460517883301,8.54295063018799,-14.6650505065918,-20.2789516448975,-10.8439502716064,-2.07405018806458,1.96800005435944,1.5090000629425,3.09795022010803,6.76095008850098,8.2900505065918,3.06900024414063,-20.9329509735107,-52.1149520874023,-66.3100509643555,-64.1399993896484,-59.1739540100098,-38.1769523620605,-23.2999515533447,-14.8170003890991,-8.82299995422363,7.5120005607605,8.53800010681152,11.331000328064,15.562050819397,18.2820014953613,10.312050819397,6.67200040817261,11.367000579834,16.9140014648438,8.20604991912842,0.38100001215935,-6.8230504989624,-0.9250500202179,1.06500005722046,2.2350001335144,SWING_RIGHT
0.30937498807907,0.16527499258518,-0.32958748936653,-0.53116250038147,-0.09501250088215,0.7039999961853,-0.27829998731613,-1.98013746738434,1.69729995727539,5.35507488250732,2.8139374256134,1.66677498817444,2.55983757972717,2.03816246986389,1.13409996032715,0.07191249728203,-0.59523749351501,-2.02344989776611,-1.89145004749298,-1.56406247615814,-1.91345000267029,0.18424999713898,3.68073749542236,4.44193744659424,2.70957493782043,2.74243760108948,0.6044499874115,-2.26655006408691,-1.48829996585846,-1.51511251926422,0.54408746957779,-0.15468749403954,-1.3886125087738,-1.90052497386932,-3.95670008659363,-7.75500011444092,-13.1366128921509,-17.6691627502441,-17.5421123504639,-15.1108369827271,-12.1017875671387,-5.15267515182495,2.18363738059998,4.89706230163574,5.24644994735718,1.33800005912781,3.85995006561279,5.96100044250488,10.6290006637573,25.4730014801025,43.5079536437988,58.0470008850098,58.0930519104004,42.151050567627,31.5340518951416,11.9599504470825,-20.4439506530762,-22.3960514068604,-9.78105068206787,-7.60095024108887,1.63995003700256,2.00400018692017,3.64305019378662,6.2590503692627,8.74200057983398,7.31895017623901,-6.82500028610229,-38.2050018310547,-56.8369522094727,-63.6540031433105,-61.278003692627,-46.6639518737793,-31.9890022277832,-20.4000015258789,-8.11500072479248,8.60295009613037,8.64105033874512,9.49305057525635,11.568000793457,15.3079509735107,17.2320003509521,11.8650007247925,8.70600032806396,17.7850513458252,6.57105016708374,-7.94295024871826,2.47200012207031,2.02005004882813,0.48105001449585,1.78605008125305,SWING_RIGHT
-1.09683752059937,-0.17682500183582,0.52195000648499,1.43824994564056,1.26596248149872,2.15545010566711,2.81517505645752,0.56966251134872,2.0064001083374,2.03692507743835,1.58001244068146,1.87687504291534,4.20419979095459,3.74123740196228,2.02468752861023,-0.93857496976852,-0.13584999740124,-0.48523750901222,-0.76752501726151,-1.1119624376297,-3.61033749580383,-2.4814624786377,1.02355003356934,0.58134996891022,1.53917503356934,1.87261247634888,1.6160374879837,0.49087500572205,-0.08813749998808,0.57268750667572,-0.80465000867844,-1.64394998550415,-1.09532499313354,-2.03005003929138,-3.46912503242493,-6.08368730545044,-12.298412322998,-16.4890003204346,-17.1718254089355,-16.917724609375,-14.3838748931885,-13.2734251022339,-5.29801225662231,1.57891249656677,4.04676246643066,7.18800020217896,3.25695013999939,1.63695013523102,10.1010007858276,16.4490013122559,26.4540004730225,60.4620018005371,50.055004119873,50.0050506591797,41.5219535827637,29.8920021057129,22.1580009460449,-12.7120504379272,-12.8179502487183,-0.90795004367828,1.13100004196167,1.54905009269714,3.10005021095276,2.46795010566711,3.75600028038025,5.47605037689209,-3.17805004119873,-23.9820003509521,-39.6670532226563,-48.8280029296875,-49.5090026855469,-53.9440536499023,-39.7320022583008,-24.6379508972168,-14.3959503173828,12.6160507202148,12.9079504013062,14.2170009613037,14.2240505218506,14.4780006408691,23.6640014648438,19.9549503326416,21.0409507751465,23.6380519866943,14.7409505844116,10.6369504928589,10.8210000991821,7.85595035552979,3.31500005722046,2.15595006942749,SWING_RIGHT
-0.83654999732971,-1.32041251659393,-0.08401250094175,2.33626246452332,3.77423739433289,2.30202507972717,-1.61479997634888,-1.65027499198914,0.5293750166893,1.9904500246048,1.60448753833771,-0.49087500572205,-0.49445000290871,2.68936252593994,3.69971251487732,-0.8786249756813,-0.81262499094009,-2.19436240196228,-2.9933750629425,-3.01303744316101,-1.59211254119873,0.13048750162125,2.76333737373352,2.34671258926392,0.3075875043869,-0.69905000925064,0.02791249938309,0.2208250015974,-0.03808749839664,0.76340001821518,-0.41854998469353,-0.51631247997284,-0.39902499318123,-0.92798751592636,-0.03011249937117,-5.6585373878479,-11.4371128082275,-15.8853750228882,-18.5194625854492,-18.0025997161865,-15.2611246109009,-12.1140251159668,-7.01208734512329,-0.11921250075102,3.38579988479614,1.88100004196167,3.66600012779236,4.78800010681152,5.95395040512085,17.2240505218506,50.1199531555176,58.7530517578125,58.8589515686035,52.4689521789551,37.384952545166,25.090051651001,8.92800045013428,-10.8240003585815,-17.5530014038086,-6.3400502204895,1.75305008888245,1.96800005435944,3.40395021438599,4.62405014038086,11.53005027771,6.12495040893555,-6.36300039291382,-35.0400009155273,-56.3290519714355,-63.3070526123047,-56.2810516357422,-48.6270027160645,-37.2820510864258,-24.6780014038086,-17.8780517578125,9.56505012512207,11.8810501098633,17.7750015258789,19.0410003662109,16.0429515838623,6.31095027923584,3.32895016670227,8.42400074005127,7.65105056762695,6.6259503364563,4.42500019073486,3.01605010032654,13.1760005950928,15.6810007095337,7.42095041275024,SWING_RIGHT
-1.44746243953705,-1.53779995441437,-0.52992498874664,-0.17929999530315,-1.20546245574951,-0.66549998521805,0.22879999876022,3.05332493782043,2.2092125415802,2.95803737640381,4.60006237030029,4.24572515487671,4.76258754730225,5.30983734130859,2.73693752288818,0.14148749411106,0.27706250548363,0.29177498817444,0.00591249996796,-1.12172496318817,0.41029998660088,-0.83214998245239,-1.34406244754791,1.33869993686676,4.96361255645752,2.68386244773865,3.5011625289917,1.5830374956131,-0.98614996671677,-0.60623747110367,0.52579998970032,0.12017499655485,-0.1717374920845,-0.35254999995232,0.06888750195503,-0.44659999012947,-2.93892502784729,-8.43053722381592,-15.4589872360229,-16.9312000274658,-17.2988758087158,-15.5579872131348,-12.1995496749878,-9.92475032806396,-2.38301253318787,5.22105026245117,4.45605039596558,4.36995029449463,4.17105007171631,3.99900007247925,14.4720010757446,21.3660011291504,47.017951965332,52.3930511474609,38.8900527954102,33.7399520874023,21.8260517120361,14.8789510726929,0.36900001764297,-23.4450016021729,1.71000003814697,2.41800022125244,3.08595013618469,3.3270001411438,4.49700021743774,1.70505011081696,-0.80400002002716,-5.95395040512085,-32.4889526367188,-38.5519523620605,-49.4620513916016,-55.2910537719727,-53.7520523071289,-51.868953704834,-31.4119510650635,10.7299509048462,12.8580007553101,14.1780004501343,10.443000793457,10.5460500717163,14.1430511474609,18.6130504608154,23.5630512237549,13.0350008010864,18.3160514831543,14.7810010910034,5.34405040740967,7.61895036697388,4.05194997787476,-0.90105003118515,SWING_RIGHT
-0.83778750896454,-0.71678751707077,-0.0362999998033,0.28861248493195,0.43518748879433,1.24038743972778,0.94709998369217,1.3026750087738,3.57995009422302,4.37153768539429,5.0289249420166,3.56042504310608,1.18538749217987,-0.6484500169754,-0.7790749669075,0.76216250658035,-0.21285000443459,-1.93902504444122,-1.3917750120163,-1.74363744258881,0.52511250972748,2.24523758888245,4.68984985351563,5.88719987869263,4.2256498336792,1.39246249198914,-0.43518748879433,-2.35331249237061,-2.44488739967346,-3.52481245994568,0.09336250275373,-0.53336250782013,-1.49366247653961,-2.27191257476807,-4.90228748321533,-9.08297538757324,-13.3259496688843,-14.9129753112793,-15.4895124435425,-12.0627374649048,-6.74093723297119,-2.59929990768433,2.1128249168396,4.79077482223511,4.48909997940063,-0.20205001533031,3.54600024223328,8.48505020141602,17.9590511322021,34.5250511169434,46.0249519348145,40.9740028381348,38.0400009155273,31.2370510101318,5.92995023727417,-5.98395013809204,-14.4450006484985,-19.2810001373291,-10.3290004730225,-2.54700016975403,-0.39000001549721,0.13305000960827,1.71900010108948,4.57395029067993,5.99295043945313,-0.69900006055832,-17.9520015716553,-36.4320030212402,-55.9819526672363,-49.969051361084,-38.076000213623,-30.877950668335,-21.7950019836426,-16.4680500030518,-8.46900081634521,7.50705051422119,11.8860006332397,13.7359504699707,16.2199516296387,20.074951171875,22.1250019073486,15.6480007171631,12.9580507278442,4.29105043411255,-0.84600001573563,-1.99200010299683,-7.78305053710938,-6.34200048446655,-1.95405006408691,6.18900012969971,SWING_RIGHT
0.0015124999918,0.59771251678467,1.49325001239777,-0.43463748693466,-0.5018749833107,1.9354499578476,0.85057497024536,1.02781248092651,3.65323758125305,4.34953737258911,0.59166252613068,0.35956248641014,2.47059988975525,2.58788752555847,0.73576247692108,-0.3227125108242,-1.91468751430511,-2.0257875919342,0.44811248779297,-0.10532499849796,-0.63800001144409,-0.83586251735687,0.82802498340607,-0.85786247253418,-1.91716253757477,-2.65498757362366,-0.34595000743866,0.37606251239777,0.60211247205734,0.34306249022484,1.02066254615784,1.24052500724792,0.01759999990463,0.2924624979496,-0.82169997692108,-7.66823768615723,-15.3636999130249,-16.413236618042,-17.4919242858887,-16.5745258331299,-11.2905378341675,-5.59377479553223,0.67484998703003,4.12981224060059,4.60996246337891,0.54300004243851,0.84195005893707,6.47505044937134,7.66500043869019,21.0000019073486,54.7470016479492,55.4940032958984,42.952953338623,48.2890510559082,29.9980506896973,7.67205047607422,-2.38005018234253,-14.6749505996704,-8.62800025939941,-3.7390501499176,0.05100000277162,2.03295016288757,1.83405005931854,3.91095018386841,6.69705009460449,-0.51195001602173,-12.0799503326416,-19.4569511413574,-37.7820014953613,-54.355052947998,-49.1170539855957,-44.5039520263672,-29.4760513305664,-16.6140003204346,-5.16405010223389,10.8379507064819,13.0489501953125,7.88295030593872,4.65000009536743,14.2549505233765,17.5480499267578,11.332950592041,19.006950378418,23.4150009155273,16.0690498352051,10.4910001754761,14.7000007629395,13.678050994873,4.3289999961853,1.10594999790192,SWING_RIGHT
-0.77797502279282,-1.27641248703003,0.21903750300407,4.5132999420166,4.79435014724731,-0.71445000171661,-5.23600006103516,-2.12918758392334,2.69046258926392,6.48271226882935,6.35318756103516,3.68623757362366,2.06621241569519,1.25014996528625,0.52071249485016,-0.27018749713898,0.3980624973774,-0.38389998674393,-2.46441245079041,-2.61841249465942,-1.32825005054474,2.68386244773865,4.45417499542236,2.42976260185242,0.93554997444153,-0.85304999351501,0.08043749630451,0.5018749833107,0.48358750343323,0.49211248755455,-0.16816249489784,-0.03739999979734,0.37070000171661,-2.95845007896423,-8.2411994934082,-11.705924987793,-14.9532623291016,-15.7425127029419,-13.5605249404907,-11.2087249755859,-6.37683725357056,0.07617499679327,3.8304750919342,5.15611267089844,5.44321250915527,1.37100005149841,1.86705005168915,9.05505084991455,33.6880531311035,45.7050018310547,43.0459518432617,47.7960014343262,31.2319507598877,26.3599510192871,16.3680000305176,-9.71205043792725,-18.6420001983643,-11.3800506591797,-6.04095029830933,-5.32500028610229,1.37895011901855,2.07600021362305,5.56905031204224,12.1549501419067,6.62700033187866,-1.52400004863739,-20.3280010223389,-39.4069519042969,-49.9429512023926,-53.0250015258789,-37.9680023193359,-23.0850009918213,-17.1649513244629,-11.4220504760742,-6.5110502243042,9.30900001525879,12.0940504074097,19.4170513153076,26.29905128479,8.45205020904541,-5.68200016021729,3.54000020027161,18.7630500793457,16.7700004577637,10.6320009231567,4.33905029296875,0.18495000898838,4.73400020599365,4.35300016403198,5.3730001449585,SWING_RIGHT
-0.85978752374649,-0.0937749966979,1.40896248817444,2.99227499961853,2.29102492332459,0.27637499570847,-0.26730000972748,1.59706246852875,2.84570002555847,3.04727506637573,2.44612503051758,2.41683745384216,2.15173745155334,1.31491243839264,0.1175625026226,-0.53418749570847,-0.45594999194145,-0.88714998960495,-1.92692494392395,-2.17978739738464,1.58551251888275,2.09137487411499,1.35341250896454,0.52992498874664,1.04183745384216,0.53734999895096,0.58368748426437,0.50558751821518,0.56787496805191,0.35653749108315,0.74690002202988,0.37922498583794,-0.85841250419617,-3.345787525177,-7.24061250686646,-12.5489377975464,-16.5756244659424,-17.6691627502441,-16.2274742126465,-12.0529747009277,-3.56688737869263,3.48232507705688,6.38027477264404,7.03381252288818,4.96677494049072,2.50095009803772,7.12905025482178,14.4679508209229,26.121000289917,44.8740005493164,54.0150032043457,47.4180030822754,30.3660011291504,15.2329511642456,-3.17700004577637,-24.3990020751953,-18.2089500427246,-10.0350008010864,-2.33205008506775,5.14695024490356,0.21705001592636,2.40405011177063,4.50705003738403,7.3279504776001,3.26295018196106,-15.937050819397,-39.5809516906738,-55.5679512023926,-63.532054901123,-58.878002166748,-37.2979507446289,-24.316951751709,-13.3860006332397,-5.0179500579834,-0.90000003576279,12.0990009307861,14.8650007247925,17.3800506591797,16.8010501861572,11.5819501876831,6.30795049667358,10.0600500106812,13.6500005722046,10.0339508056641,5.61900043487549,6.9660005569458,5.32200002670288,2.89305019378662,2.15400004386902,3.59505009651184,SWING_RIGHT
1.06438744068146,1.01681244373322,1.3307249546051,2.00021243095398,2.80169987678528,1.10962498188019,-0.00453749997541,1.05338752269745,3.61899995803833,4.81745004653931,3.84986257553101,1.41267502307892,-1.38146245479584,-0.44440001249313,1.06686246395111,-0.61847501993179,-0.78952497243881,-1.70568752288818,-5.03126239776611,-2.79303741455078,-1.10948753356934,2.43347501754761,3.01496243476868,2.27342510223389,0.53982502222061,0.15853749215603,-1.43453752994537,-0.28861248493195,-0.15908749401569,-0.24584999680519,-1.38489997386932,-1.19308745861053,-1.54989993572235,-3.4288375377655,-5.79287481307983,-13.8281002044678,-16.9141502380371,-16.7026748657227,-15.582462310791,-14.0101499557495,-9.13907527923584,-2.19120001792908,3.4713249206543,5.58002519607544,4.89101266860962,2.50305008888245,2.29305005073547,7.11705017089844,17.8489513397217,39.8760032653809,59.430004119873,49.6600532531738,37.9879531860352,28.7580013275146,8.88705062866211,-10.6660509109497,-19.0540504455566,-13.6480503082275,-4.10295009613037,3.62505006790161,1.85595011711121,4.21005010604858,7.27095031738281,11.0320501327515,12.4849510192871,-8.22495079040527,-33.5200500488281,-51.7900543212891,-58.2840042114258,-56.8720512390137,-42.8760032653809,-29.3230514526367,-19.488000869751,-12.4410009384155,-7.42800045013428,9.14400005340576,8.57700061798096,11.3929510116577,16.582950592041,20.6350517272949,18.4000511169434,17.29905128479,17.0689506530762,14.0950508117676,6.16500043869019,2.50800013542175,1.52505004405975,3.72405028343201,9.64605045318604,8.0910005569458,SWING_RIGHT
-0.85002499818802,-0.7900750041008,-1.39122498035431,-1.62332499027252,-0.53116250038147,3.03503751754761,2.72112488746643,-2.00694990158081,-1.2141250371933,2.77846240997314,2.72965002059937,3.47971248626709,3.83404994010925,4.24324989318848,2.28731250762939,-0.07356250286102,-1.05215001106262,-1.61658751964569,-1.00938749313354,-4.34224987030029,-3.51999998092651,-0.91162496805191,-0.58300000429153,2.1646625995636,0.16596250236034,0.43353748321533,0.62163752317429,0.94778752326965,-0.74786251783371,-0.32518750429153,0.59179997444153,0.04564999789,-0.73865002393723,-0.2744500041008,-1.93957495689392,-7.16237497329712,-11.7536373138428,-15.9306125640869,-17.7509746551514,-16.2812366485596,-13.4982376098633,-5.50701236724854,0.12759999930859,3.19893741607666,4.15057516098022,0.18000000715256,-0.40095001459122,4.27395009994507,5.68305015563965,25.8030014038086,53.4390029907227,54.7069511413574,53.0250015258789,41.8549537658691,25.3720512390137,5.85795021057129,-20.1109504699707,-19.873950958252,-16.0699501037598,-9.38100051879883,3.40605020523071,5.70300006866455,6.88095045089722,6.56505012512207,7.58895015716553,-0.74205005168915,-15.4420509338379,-40.6290016174316,-56.8819541931152,-62.0170516967773,-67.0279541015625,-44.7049522399902,-30.223051071167,-18.6310501098633,-9.06195068359375,8.29200077056885,10.2799501419067,10.3039503097534,13.4460010528564,22.4149513244629,24.8509502410889,10.7539501190186,5.48505020141602,15.7819509506226,18.7680015563965,8.67000007629395,10.5559501647949,6.52605009078979,4.3289999961853,-0.99405002593994,SWING_RIGHT
-1.81142497062683,-2.23547506332397,0.38032498955727,3.68623757362366,1.79258751869202,0.59523749351501,2.17002487182617,3.26466250419617,3.3099000453949,2.10168743133545,2.68564987182617,3.03627490997314,1.96721243858337,0.49390000104904,-0.07782500237226,0.18906250596046,-2.25554990768433,-3.50652503967285,-1.7546374797821,-1.34901249408722,2.95872497558594,1.83961248397827,0.75844997167587,0.37111249566078,-2.27507495880127,0.13296249508858,0.0314874984324,0.16101250052452,0.5849249958992,-0.18356250226498,0.11164999753237,0.71389997005463,-0.52978748083115,-5.60587501525879,-12.0565500259399,-15.9268999099731,-16.8554382324219,-15.3404626846313,-15.0753622055054,-7.59123754501343,3.59479999542236,6.58556222915649,4.74319982528687,3.23193740844727,3.06693744659424,-0.69795000553131,5.25705003738403,21.8899517059326,44.7139511108398,49.9660530090332,48.0430526733398,34.0559997558594,24.7159519195557,23.7330017089844,-28.2019519805908,-31.5640506744385,-4.09605026245117,7.11900043487549,0.98100006580353,-1.10895001888275,4.13895034790039,5.5620002746582,5.63400030136108,0.5059500336647,-14.7600002288818,-39.0979499816895,-52.7880020141602,-55.9129524230957,-63.726001739502,-50.1079521179199,-29.1630020141602,-17.1960010528564,-4.15200042724609,2.88000011444092,4.85895013809204,7.50900030136108,14.3320503234863,26.5110015869141,25.6480503082275,13.9969511032104,9.13199996948242,12.1879501342773,8.16495037078857,4.89195013046265,11.0290508270264,10.3519506454468,7.1700005531311,2.56800007820129,4.69500017166138,7.75605058670044,SWING_RIGHT
0.09075000137091,0.47437500953674,1.40896248817444,2.18968749046326,0.3240875005722,-1.74308753013611,-3.53649997711182,-5.16876268386841,-3.00148749351501,-1.40470004081726,0.72228747606277,1.75353753566742,3.4626624584198,3.93181252479553,2.72469997406006,-0.21889999508858,-0.68681252002716,-2.54512500762939,-3.81314992904663,-3.91820001602173,-4.30072498321533,-3.24142503738403,-1.85597503185272,0.1915374994278,1.04554998874664,2.12190008163452,-1.04362499713898,-1.72039997577667,-1.1559624671936,-0.68557500839233,0.27046251296997,-0.76793748140335,-3.03544998168945,-2.34891247749329,-1.80152499675751,-3.86993741989136,-8.92897510528564,-13.8879127502441,-16.0406131744385,-15.0424995422363,-13.2734251022339,-8.66758728027344,-2.75811243057251,1.8489625453949,4.27762508392334,3.94395017623901,10.0930500030518,13.9819507598877,9.46395015716553,20.8500003814697,39.5599517822266,53.5890007019043,55.8360023498535,42.3070526123047,31.5000019073486,21.8040008544922,-12.3559503555298,-19.113000869751,-14.4709510803223,-7.00500011444092,3.04995012283325,4.11495018005371,3.49995017051697,9.79800033569336,10.1059503555298,8.63505077362061,-5.37900018692017,-27.9109516143799,-44.452953338623,-47.0710525512695,-48.555004119873,-37.1569519042969,-25.5610504150391,-17.3819999694824,-11.6059503555298,8.71500015258789,9.22800064086914,9.01005077362061,6.02595043182373,-0.50805002450943,2.70900011062622,6.21195030212402,17.9809513092041,22.3930511474609,14.6590509414673,9.16499996185303,10.8690004348755,12.070050239563,6.67905044555664,2.90805006027222,SWING_RIGHT
1.77911245822906,1.93916249275208,1.30996251106262,0.75295001268387,-0.18177500367165,-1.42669999599457,-2.71067500114441,-0.94655001163483,2.72717499732971,3.29285001754761,3.88409996032715,4.74911260604858,4.15662479400635,2.7112250328064,1.90244996547699,-0.88714998960495,-1.5358749628067,-1.8767374753952,-1.06920003890991,-0.62328749895096,-1.88897502422333,1.39246249198914,2.48709988594055,0.65587496757507,0.8427374958992,0.78044998645782,0.26977500319481,-0.47423750162125,-0.54752498865128,-0.82005000114441,2.28511238098145,2.59654998779297,2.66254997253418,0.82018750905991,-2.75563740730286,-9.18802452087402,-15.7265625,-18.1516494750977,-17.8780250549316,-16.9214382171631,-13.4920501708984,-7.42266225814819,-0.30621248483658,3.41756248474121,4.5012001991272,0.1489500105381,2.65395021438599,6.14505052566528,18.949951171875,32.9940032958984,52.2349510192871,56.6119537353516,40.4310035705566,32.1130523681641,26.6380519866943,13.6009502410889,-11.5090503692627,-16.4670009613037,-9.14700031280518,-4.213050365448,1.90605008602142,1.55895006656647,2.01104998588562,4.07595014572144,3.6739501953125,-5.53305006027222,-25.1620502471924,-39.234001159668,-48.435001373291,-54.5389518737793,-56.461051940918,-45.1470031738281,-30.832950592041,-18.760950088501,-7.89000034332275,11.9509506225586,8.89005088806152,6.11895036697388,3.38895010948181,2.49105000495911,4.13295030593872,13.1490001678467,23.2710018157959,29.566951751709,15.7309503555298,12.7879505157471,9.36900043487549,4.2529501914978,1.90305006504059,3.47700023651123,SWING_RIGHT
-0.55797499418259,-0.18906250596046,0.15056249499321,0.17379999160767,-0.04853750020266,0.15784999728203,-0.06077500060201,-1.05764997005463,2.05397510528564,4.40701246261597,6.69528722763062,6.54500007629395,2.02344989776611,0.78471249341965,0.07356250286102,-0.26661249995232,-0.50723749399185,-0.06256250292063,0.03519999980927,-1.45406246185303,1.24107503890991,0.65821248292923,1.7297500371933,3.4731125831604,3.81644988059998,3.09553742408752,1.90808749198914,-1.08515000343323,-2.33859992027283,-2.35688757896423,0.10917499661446,-0.03368749842048,-0.76188749074936,-1.30789995193481,-3.15026259422302,-4.05198764801025,-11.9257869720459,-15.5812244415283,-16.541524887085,-15.4101753234863,-12.0430746078491,-10.9801998138428,-3.11849999427795,1.56667494773865,1.3553375005722,3.7260000705719,3.76395010948181,8.22495079040527,11.7250509262085,21.5580005645752,38.7630004882813,55.675952911377,43.1130027770996,38.2390518188477,31.5769519805908,22.1610012054443,17.5570507049561,-26.7180004119873,-15.9019508361816,-0.3120000064373,-0.24705001711845,1.07295000553131,0.70200002193451,3.11205005645752,3.61200022697449,2.93505024909973,-14.7450008392334,-30.5220012664795,-50.1010513305664,-57.844051361084,-55.3270530700684,-56.4060020446777,-31.0770015716553,-16.6879501342773,-6.52800035476685,11.5339508056641,12.0199508666992,11.3790006637573,10.3470001220703,11.6440505981445,9.41400051116943,12.1090507507324,17.1240005493164,25.3339519500732,15.8200511932373,9.67305088043213,2.00805020332336,-6.14805030822754,1.64400005340576,7.06695032119751,SWING_RIGHT
0.18727499246597,-0.93912500143051,-1.4999874830246,-1.2421749830246,-0.19758750498295,1.88058745861053,5.18650007247925,1.31972503662109,-0.92331248521805,3.6507625579834,8.00497531890869,4.82735013961792,0.69795000553131,1.32825005054474,2.27273750305176,-0.84315001964569,-0.1553750038147,-0.60871249437332,-2.13083744049072,-1.74363744258881,-2.33859992027283,-1.03867495059967,-0.14313749969006,4.43575000762939,4.69232511520386,2.15242505073547,-0.38747498393059,-0.68681252002716,-1.10948753356934,-0.7735750079155,0.63827496767044,1.00223743915558,-0.30744999647141,-1.982337474823,-5.41901254653931,-10.9924373626709,-16.6233367919922,-18.4900379180908,-19.1046619415283,-14.9898376464844,-12.6357002258301,-8.55153751373291,-1.7331874370575,3.09993743896484,3.45427489280701,3.39300012588501,4.96500015258789,9.72705078125,14.1880502700806,28.207950592041,46.339054107666,48.9730529785156,53.8290023803711,48.4609527587891,26.7619514465332,22.9270515441895,-8.01000022888184,-20.0059509277344,-12.6190509796143,-1.37700009346008,1.79295003414154,1.69095003604889,1.23105001449585,2.20500016212463,-0.59400004148483,-2.70195007324219,-27.9850521087646,-48.5160026550293,-66.6829528808594,-58.0570526123047,-62.6659545898438,-49.0789527893066,-32.7109527587891,-21.3430519104004,-10.7520008087158,6.78705024719238,5.94705009460449,10.278000831604,15.3169507980347,20.2210502624512,30.7879505157471,27.8659515380859,16.0020008087158,16.7149505615234,22.8430519104004,11.3640003204346,-7.49805021286011,-0.79095005989075,7.66005039215088,7.4520001411438,SWING_RIGHT
-0.95754998922348,-1.37527501583099,-1.90437495708466,-1.27022504806519,0.17751249670982,-0.02529999986291,-0.22206249833107,-0.35640001296997,-1.11388754844666,-1.73580002784729,0.46942499279976,-0.69121247529984,0.00522499997169,2.11626243591309,3.24637508392334,-0.33495000004768,-1.74845004081726,-1.86092495918274,-2.20426249504089,-1.03386247158051,-0.72957497835159,-0.48276248574257,-0.07713750004768,-0.05637500062585,1.63198745250702,-0.10037499666214,1.34736251831055,0.93197500705719,-0.45223748683929,-0.61476248502731,-0.47231251001358,-1.10027503967285,-1.3556125164032,-1.38489997386932,-3.12702488899231,-5.62553739547729,-8.92773723602295,-12.7993249893188,-17.5726375579834,-17.0827255249023,-15.0057878494263,-13.7205753326416,-7.10503768920898,-1.34584999084473,1.60091245174408,3.03705024719238,3.5269501209259,5.32695007324219,11.69700050354,27.1810512542725,36.7120513916016,46.4059524536133,54.5350532531738,61.4550018310547,40.7899513244629,33.2419509887695,14.0779504776001,-17.7690010070801,-17.7829513549805,-11.0590505599976,3.02805018424988,3.06600022315979,2.26005005836487,3.35400009155273,5.14800024032593,4.37505006790161,-3.87000012397766,-19.324951171875,-49.0879516601563,-59.6550025939941,-57.7459526062012,-64.1490020751953,-43.957950592041,-29.0620517730713,-16.9060516357422,7.87995052337646,8.03805065155029,9.08895015716553,13.360050201416,12.3960008621216,10.1890506744385,7.56900024414063,6.43005037307739,6.16500043869019,7.21500015258789,14.0539503097534,2.80305004119873,11.3620510101318,10.7830505371094,7.78905057907104,SWING_RIGHT
-0.99054998159409,-1.203125,-0.84026247262955,0.59523749351501,1.80963754653931,3.78399991989136,2.46812510490417,-2.6776750087738,-2.47486257553101,1.73153746128082,5.26226234436035,4.61587476730347,2.78465008735657,2.36678743362427,1.89034998416901,-0.12361250072718,-0.0576125010848,-1.07662498950958,-1.86821246147156,-2.02950000762939,-3.13142490386963,-4.19677495956421,-2.54017496109009,3.34963750839233,4.6788501739502,3.03572487831116,0.61311250925064,-2.58664989471436,-0.8786249756813,0.47740000486374,-0.04839999973774,0.06283749639988,-0.47231251001358,-1.86752498149872,-2.10815000534058,-7.04261255264282,-11.8549747467041,-13.8829622268677,-16.0381374359131,-15.3258876800537,-13.8731994628906,-12.9826126098633,-7.8795747756958,2.37792491912842,6.2129373550415,-1.12395000457764,0.42105001211166,3.96000027656555,12.9580507278442,18.351001739502,47.1000022888184,43.9200019836426,49.1719512939453,47.2410011291504,34.3650016784668,27.8460006713867,12.6990003585815,-18.9199504852295,-35.8110008239746,-7.94595050811768,3.06195020675659,2.77005004882813,3.60300016403198,5.19600009918213,14.3440504074097,11.2999505996704,-5.92695045471191,-23.5780506134033,-45.4300537109375,-52.0240516662598,-55.7790031433105,-58.2840042114258,-44.6449508666992,-24.0030002593994,-15.363000869751,8.625,9.87405014038086,13.4700002670288,16.0810508728027,19.5070514678955,22.2450008392334,14.1450004577637,14.4199504852295,19.9570503234863,17.635950088501,8.0910005569458,-2.04704999923706,2.11605000495911,5.04900026321411,5.44395017623901,SWING_RIGHT
-0.81083750724792,0.20679999887943,1.54330003261566,1.12433743476868,-0.43340000510216,-1.4913250207901,-1.2531750202179,0.42308750748634,6.42523765563965,5.33307504653931,0.89952498674393,1.04981243610382,2.34602499008179,1.15610003471375,1.09615004062653,-1.07662498950958,-1.41129994392395,-2.72346258163452,-1.19019997119904,-1.58840000629425,-0.28490000963211,0.93073749542236,3.25434994697571,3.20924997329712,0.46529999375343,0.45663750171661,-0.4779500067234,-0.82128751277924,-0.34347498416901,-0.14808750152588,0.41951251029968,-0.03987500071526,-3.86251258850098,-6.49165010452271,-10.4549503326416,-14.2214870452881,-15.0253124237061,-15.7986125946045,-15.2233123779297,-13.0241374969482,-7.59976243972778,-0.14492499828339,3.44932508468628,2.15187501907349,1.56062495708466,-0.61905002593994,8.29395008087158,24.5440502166748,38.6740531921387,49.3060531616211,47.3869514465332,42.8599510192871,54.295051574707,44.0940017700195,21.3469505310059,-9.03900051116943,-26.0770511627197,-9.35295009613037,3.42900013923645,-3.44205021858215,2.57100009918213,5.31105041503906,6.45705032348633,9.11805057525635,1.93905007839203,-12.1800003051758,-21.4840507507324,-43.0630531311035,-56.7360038757324,-55.128002166748,-43.0219535827637,-26.8459510803223,-15.5470504760742,-7.17705011367798,-0.29895001649857,10.8120002746582,15.6760511398315,15.8340005874634,10.8360004425049,5.52600049972534,10.0699501037598,17.2510509490967,21.7279510498047,22.5439510345459,3.00405025482178,-0.66105002164841,10.8400506973267,7.70805025100708,4.79295015335083,9.35205078125,SWING_RIGHT
-0.83778750896454,-0.93554997444153,0.09075000137091,1.15114998817444,2.08216238021851,2.23121237754822,1.81582498550415,-3.15287494659424,-4.73385000228882,-0.23430000245571,3.70823740959167,6.7685751914978,6.13689994812012,3.0520875453949,0.04798749834299,-0.17984999716282,-0.21285000443459,-1.47111248970032,-2.7259373664856,-1.78145003318787,-4.75392484664917,-4.07948732376099,-2.72346258163452,2.95267486572266,3.34606242179871,3.15053749084473,-1.34777498245239,-4.05391263961792,-3.7118124961853,-1.52487504482269,0.72613751888275,0.48056250810623,-0.50902497768402,-2.11667490005493,-4.79228734970093,-7.11603736877441,-9.89051246643066,-14.7956876754761,-16.6465740203857,-16.564624786377,-15.4211750030518,-11.1977252960205,0.90337496995926,3.90018749237061,-0.35378751158714,2.47395014762878,3.67305016517639,8.44005012512207,19.8900012969971,29.1030006408691,37.2910499572754,52.4290542602539,60.6319541931152,52.2180023193359,40.4520034790039,30.4620018005371,-10.5040502548218,-34.5550498962402,6.94905042648315,14.7190504074097,-0.09105000644922,1.71195006370544,4.95405006408691,7.85205030441284,4.67895030975342,2.57805013656616,-10.3110008239746,-35.0610008239746,-54.1969528198242,-59.7919540405273,-65.9560546875,-61.0600547790527,-32.2110023498535,-17.9470500946045,-3.36195015907288,7.14300012588501,9.75900077819824,13.5850505828857,16.9660511016846,17.7340507507324,20.3500518798828,16.3579502105713,9.83295059204102,17.1960010528564,20.3689517974854,7.21005010604858,10.5270004272461,1.43400001525879,1.98195004463196,3.92205023765564,SWING_RIGHT
-1.12488746643066,-1.06136250495911,-0.66302502155304,-0.60926252603531,-1.35574996471405,-0.84026247262955,1.34420001506805,1.69235002994537,0.96428751945496,2.4253625869751,3.81081247329712,0.87752497196198,0.71623748540878,2.59159994125366,2.30450010299683,-0.43147498369217,-2.39112496376038,-1.26596248149872,-1.16091251373291,-0.57200002670288,1.03331243991852,2.15242505073547,4.57256269454956,5.32399988174438,4.46146249771118,1.95456254482269,0.22329999506474,-0.84438747167587,-0.3301374912262,-0.60871249437332,0.51603752374649,-0.08621250092983,-0.71541249752045,-2.16438746452332,-4.11784982681274,-6.92656230926514,-11.9050245285034,-16.3325252532959,-18.3104629516602,-15.3576498031616,-12.6466999053955,-10.8996248245239,-1.3446124792099,3.12317490577698,2.75178742408752,2.4100501537323,6.62400054931641,11.4859504699707,19.5190505981445,27.6720008850098,42.201000213623,52.3210525512695,57.4920043945313,48.9139518737793,32.1420021057129,22.7850017547607,4.96095037460327,-21.7500019073486,-8.68305015563965,3.1470000743866,0.10605000704527,0.42705002427101,1.05599999427795,2.68095016479492,3.59100008010864,-2.54595017433167,-18.0240001678467,-44.8890037536621,-64.6470031738281,-58.0930519104004,-53.8240509033203,-53.7259521484375,-24.7840518951416,-15.7120504379272,-9.92805004119873,7.05495023727417,10.335000038147,11.1660003662109,15.0520505905151,15.6049509048462,23.3119506835938,19.0429515838623,6.22200012207031,-0.05595000088215,2.07795000076294,-1.51605010032654,-9.0169506072998,7.54995012283325,4.65705013275146,1.8550500869751,SWING_RIGHT
-0.53363752365112,1.20614993572235,0.2593249976635,-2.25981259346008,-2.44433736801147,-3.49744987487793,-3.58173751831055,5.13878726959229,8.66469955444336,1.03014993667603,-1.6220874786377,0.6599999666214,2.92022490501404,3.01675009727478,0.60747498273849,-0.33137500286102,-2.96161246299744,-1.48458755016327,-1.41129994392395,-1.39425003528595,1.46341252326965,6.96231269836426,4.50546264648438,0.63387501239777,0.27706250548363,0.96002501249313,-0.89691251516342,-1.20848751068115,-1.81197500228882,-1.1559624671936,-0.2255000025034,-3.05373740196228,-4.28766250610352,-6.1397876739502,-8.89473724365234,-9.43236255645752,-12.6625127792358,-13.5580501556396,-15.1413621902466,-12.6185121536255,-7.90638732910156,-2.71658754348755,1.51909995079041,2.84336256980896,3.16593742370605,3.47505021095276,13.4599504470825,21.3109512329102,31.4640007019043,40.8730506896973,44.5849533081055,46.0369529724121,39.2269515991211,37.9039535522461,10.0720500946045,-6.24195051193237,-16.7710514068604,-14.8159503936768,-6.03105020523071,-5.00505018234253,2.5639500617981,5.36100006103516,6.69900035858154,2.07105016708374,-0.59595000743866,-9.37095069885254,-39.8640022277832,-51.4240531921387,-64.6110000610352,-49.3489532470703,-36.7650032043457,-27.6120014190674,-21.8520011901855,-16.1190013885498,-8.06205081939697,9.60600090026855,11.9149503707886,4.32705020904541,3.50400018692017,14.8510503768921,13.2619504928589,19.0699501037598,26.7120018005371,6.60705041885376,-10.1680507659912,2.46495008468628,11.0770502090454,8.62905025482178,2.56095004081726,-0.09195000678301,SWING_RIGHT
0.16279999911785,-0.64473748207092,-1.14441251754761,-0.7900750041008,-0.95754998922348,-0.97831249237061,0.0417999997735,2.0124499797821,2.27507495880127,0.7345250248909,2.27507495880127,5.00321245193481,4.64887475967407,3.26837491989136,1.61301243305206,-0.73933750391006,-0.9922000169754,0.23430000245571,-1.89392495155334,2.71810007095337,2.29418754577637,3.59768748283386,2.59228754043579,2.71191239356995,0.70963752269745,-0.14079999923706,-1.23048746585846,-0.30566251277924,-0.1199000030756,-0.32161250710487,-0.09363749623299,-0.09968750178814,-1.12227499485016,-5.66458749771118,-10.9166746139526,-15.7180376052856,-16.1884250640869,-16.1101875305176,-15.9000873565674,-12.4047002792358,-4.55276250839233,1.1892374753952,4.85925006866455,5.66307497024536,4.04318761825562,3.21105003356934,6.04905033111572,19.7389507293701,38.7600021362305,54.4579544067383,50.5980033874512,43.1389503479004,40.5190505981445,35.0440521240234,7.80795049667358,-15.8539505004883,-16.4449501037598,-8.59200000762939,0.82800006866455,6.6190505027771,1.45800006389618,2.67600011825562,5.91195011138916,7.94295024871826,-4.20195007324219,-26.803050994873,-37.4470520019531,-43.3530006408691,-55.3530044555664,-59.3320541381836,-46.5450019836426,-34.8049507141113,-17.8660507202148,-5.31495046615601,1.43205010890961,7.32300043106079,7.3080005645752,7.38300037384033,16.1650505065918,7.82505035400391,13.5010509490967,10.7490005493164,11.7229509353638,1.75905013084412,0.15105000138283,9.99105072021484,8.72294998168945,2.27595019340515,0.94095003604889,0.5869500041008,SWING_RIGHT
0.28737500309944,-0.07177499681711,-0.15729999542236,0.37784999608994,1.10838747024536,0.44013750553131,-1.50356245040894,-3.25682497024536,-2.77901244163513,3.92933750152588,7.10696268081665,3.89028739929199,1.34420001506805,1.28191244602203,3.67895007133484,0.23430000245571,0.19525000452995,-0.32890000939369,-0.65628749132156,-0.91533750295639,-1.66911244392395,-0.99715000391006,1.60022497177124,3.18106245994568,3.49016237258911,1.58427500724792,1.04554998874664,-0.52799999713898,-0.73933750391006,-1.47730004787445,0.41951251029968,-0.28778749704361,-0.26826250553131,-1.87728750705719,-5.671875,-9.8489875793457,-13.2379503250122,-16.4265747070313,-17.4686870574951,-16.0356616973877,-13.9599628448486,-10.0260877609253,-2.76553750038147,1.87453746795654,2.83607506752014,4.08195018768311,4.53495025634766,4.29300022125244,16.3920001983643,29.0929508209229,43.9290008544922,47.2189521789551,53.7859535217285,51.1369514465332,36.8290519714355,32.1370506286621,9.42300033569336,-16.0050010681152,-7.70400047302246,-2.56200003623962,1.78605008125305,1.63800013065338,2.97300004959106,3.78900027275085,4.51395034790039,-1.79700005054474,-11.331000328064,-32.5609512329102,-41.862003326416,-51.6420021057129,-54.7669525146484,-56.2170028686523,-39.0190505981445,-26.8200016021729,-13.9170007705688,8.57895088195801,8.2630500793457,9.43800067901611,11.3640003204346,11.3839502334595,8.48805046081543,9.76095008850098,14.8600511550903,20.1300010681152,25.7740516662598,13.2570009231567,-6.2029504776001,2.16105008125305,7.44000053405762,10.4980506896973,SWING_RIGHT
0.50118750333786,0.46818751096725,0.09432499855757,-1.98989999294281,-3.44121241569519,-1.83961248397827,1.47496247291565,5.47112512588501,5.78022480010986,1.22815001010895,1.14138746261597,3.59452509880066,3.16332507133484,1.41143751144409,-0.12677499651909,-0.36423748731613,-2.40817499160767,-0.51328748464584,-0.4974749982357,0.86102497577667,2.36871242523193,2.83415007591248,3.97526240348816,1.23983752727509,2.88543748855591,1.27036249637604,-1.06438744068146,-0.8896250128746,-0.61599999666214,-0.50599998235703,-0.97927498817444,-1.52418744564056,-1.98962497711182,-3.82469987869263,-7.07451248168945,-12.2458877563477,-16.112663269043,-17.0350131988525,-16.8639621734619,-15.2256498336792,-7.87462472915649,-1.31284999847412,2.27535009384155,3.90266251564026,3.26727509498596,5.74305009841919,6.66000032424927,17.4300003051758,28.5070514678955,45.5539512634277,49.1959533691406,43.2730522155762,48.6499519348145,43.3930511474609,25.9129505157471,-17.7330017089844,-17.1540012359619,-12.3750009536743,-6.70605039596558,-3.33900022506714,3.42300009727478,6.0600004196167,7.44795036315918,7.02000045776367,-2.53695011138916,-15.4990510940552,-38.6550025939941,-56.2480545043945,-66.0469512939453,-69.5809555053711,-46.8580513000488,-33.4200019836426,-18.9660015106201,-8.63400077819824,-1.41405010223389,8.56695079803467,10.090950012207,6.81495046615601,5.77695035934448,12.6300010681152,23.3650512695313,26.0899505615234,16.6740016937256,3.5110502243042,-9.62805080413818,9.11700057983398,6.98505020141602,1.22295010089874,1.18005001544952,2.28795003890991,SWING_RIGHT
0.29837501049042,-0.66921252012253,-0.88536250591278,-0.14630000293255,0.17751249670982,-0.58616250753403,-0.50421249866486,-1.76756250858307,-2.51515007019043,-0.17434999346733,4.89939975738525,4.17738771438599,1.79739999771118,1.50425004959106,2.11997509002686,0.30882498621941,-0.34842500090599,-0.44247499108315,-0.40823748707771,-2.59517502784729,-2.61098742485046,-2.1956000328064,-1.36372494697571,3.07477498054504,5.08213758468628,2.54952502250671,0.58011251688004,-0.31666249036789,-0.76986247301102,-1.44553744792938,0.88137501478195,0.44275000691414,0.74566251039505,0.45622500777245,0.16417500376701,-3.09168744087219,-10.6173372268677,-16.4828128814697,-20.1492500305176,-17.9916000366211,-14.1822996139526,-10.4842376708984,-4.94381237030029,0.7873250246048,3.71332502365112,2.97900009155273,4.24995040893555,6.79395055770874,14.0730009078979,23.6160011291504,43.2300033569336,54.3240013122559,52.3470039367676,46.0489540100098,23.5870513916016,14.5470008850098,-7.09395027160645,-19.8580513000488,-21.3990001678467,-9.25200080871582,1.80300009250641,1.63995003700256,3.63105010986328,5.83305025100708,5.91195011138916,1.59195005893707,-17.1480007171631,-41.8090515136719,-67.1140518188477,-71.506950378418,-65.4409561157227,-49.4539527893066,-31.8040523529053,-18.7410011291504,-11.5939502716064,7.75800037384033,8.76300048828125,10.2160501480103,12.0390005111694,11.4480009078979,11.0560503005981,13.231050491333,13.2400503158569,10.2469501495361,10.4340009689331,13.3290004730225,-0.18300001323223,0.86400002241135,5.02995014190674,5.94000005722046,SWING_RIGHT
0.93252497911453,-0.59592497348785,-1.94947493076324,-1.32274997234344,-0.13158750534058,-0.69973748922348,-0.7595499753952,-1.07965004444122,-0.64473748207092,1.08886253833771,1.70334994792938,-0.09624999761581,1.11814999580383,2.42054986953735,1.69606244564056,-0.34718748927116,0.18301250040531,-0.03079999983311,-3.60428738594055,-0.99110001325607,-2.38741254806519,-0.54395002126694,0.51658749580383,0.72668749094009,2.35152506828308,-0.38871249556541,0.01196249946952,-1.17067503929138,-1.46506249904633,-1.47001254558563,1.29910004138947,0.90213751792908,-1.06480002403259,-3.48136258125305,-7.37742519378662,-12.9801378250122,-16.8884372711182,-16.9666748046875,-15.904899597168,-13.3735246658325,-6.12397480010986,-1.15403747558594,2.10182499885559,3.27346253395081,3.0523624420166,1.85700011253357,8.14800071716309,14.9059505462646,27.4129505157471,44.0700035095215,54.1830024719238,49.5840034484863,40.6870536804199,34.4290504455566,14.4559507369995,-12.6000003814697,-9.91005039215088,-7.2330002784729,-1.32000005245209,-0.20700001716614,3.00705003738403,4.51200008392334,4.21695041656494,9.99405002593994,5.30895042419434,-6.53505039215088,-29.29905128479,-41.5960502624512,-51.5119514465332,-57.9850540161133,-34.3410034179688,-25.9560012817383,-17.9329509735107,-10.4449501037598,-3.1039502620697,6.2989501953125,4.5799503326416,5.83200025558472,16.2390003204346,13.5949506759644,15.0660009384155,14.5800008773804,13.1280002593994,9.97605037689209,7.10295057296753,4.91295003890991,2.42700004577637,10.2970504760742,7.31100034713745,4.56105041503906,SWING_RIGHT
-0.39544999599457,0.13832500576973,1.57630002498627,2.87127494812012,0.28008750081062,-2.22804999351501,-1.23722493648529,0.1017500013113,-0.71197497844696,1.60077500343323,6.22737503051758,6.48999977111816,1.91840004920959,1.74253749847412,2.39731240272522,-0.24818749725819,-1.51511251926422,-3.29642486572266,-1.97697496414185,0.98573750257492,3.17006254196167,-0.0527999997139,2.94043755531311,3.83955001831055,4.74003744125366,2.2207624912262,0.27953749895096,0.6679750084877,0.09748750180006,-0.55852502584457,0.77990001440048,1.80867493152618,3.56180000305176,1.7462500333786,-2.6701123714447,-7.7878623008728,-14.5549249649048,-17.8743133544922,-19.0214748382568,-17.1535377502441,-12.4609375,-8.33772468566895,-4.05074977874756,1.95772504806519,4.14576244354248,-0.08505000174046,-1.13100004196167,3.20205020904541,18.9570007324219,31.0459518432617,38.662052154541,45.1279525756836,39.8160018920898,33.5440521240234,26.017951965332,13.1350507736206,4.99395036697388,-13.2049503326416,-21.5689506530762,-16.6579513549805,0.43695002794266,0.99705004692078,-0.50295001268387,0.2790000140667,3.39195013046265,-8.6050500869751,-22.1370010375977,-43.5799522399902,-55.0969543457031,-57.9490509033203,-50.860954284668,-45.037052154541,-31.8139514923096,-20.4379501342773,-16.3390502929688,10.2349500656128,13.3980007171631,15.0259504318237,8.65995025634766,1.80705010890961,4.48695039749146,18.5839500427246,11.3809509277344,7.41105031967163,9.94995021820068,13.9489507675171,1.00095009803772,-1.63500010967255,7.96200037002563,8.49495029449463,SWING_RIGHT
-0.05582499876618,-0.93059998750687,-1.11265003681183,0.05775000154972,0.85552501678467,0.19332499802113,-3.05882501602173,-4.45279979705811,-4.02517509460449,3.00932502746582,6.68676233291626,1.17067503929138,-0.27706250548363,2.24826240539551,2.72965002059937,0.87449997663498,0.88054996728897,-0.1553750038147,-1.66058754920959,-2.44860005378723,-2.57441258430481,-3.45771241188049,-1.67034995555878,4.70085000991821,4.96113729476929,0.35034999251366,-0.28490000963211,0.6679750084877,-0.75157499313354,-0.89691251516342,1.84153747558594,1.25757503509521,0.91671252250671,-1.26403748989105,-4.29137516021729,-8.66882514953613,-12.6466999053955,-14.0492000579834,-18.202938079834,-16.0736122131348,-12.4353628158569,-7.96138763427734,-1.17974996566772,3.16222500801086,3.13170003890991,3.30195021629334,4.84305000305176,7.69800043106079,19.7149505615234,31.6699523925781,42.2209510803223,46.7190017700195,47.9370040893555,45.0660018920898,19.6390514373779,14.53005027771,-6.1080002784729,-20.3190002441406,-10.1179504394531,0.61500000953674,1.8840000629425,1.55895006656647,2.73405003547668,3.47295022010803,5.74200010299683,2.48700022697449,-9.83700084686279,-20.131950378418,-55.4629516601563,-52.2210006713867,-51.8160018920898,-39.0139503479004,-27.105001449585,-18.0090007781982,-10.9410009384155,6.56205034255981,7.07205057144165,10.4860506057739,12.7549505233765,11.0130004882813,6.1690502166748,4.81500005722046,8.3230504989624,9.67005062103271,23.0940017700195,7.79700040817261,-3.96105027198792,7.37505054473877,10.4190006256104,4.47795009613037,SWING_RIGHT
-0.36863750219345,-0.40892499685287,-0.23911249637604,0.42418751120567,1.14014995098114,1.20367503166199,-0.31363749504089,-2.68496251106262,-4.68489980697632,-4.51508760452271,-0.48963749408722,3.54323744773865,4.08333730697632,1.06081247329712,0.44137498736382,-0.02956249937415,0.28077501058578,-0.2396624982357,-1.75711250305176,-3.97086238861084,-1.05572497844696,-0.10656250268221,-1.80344998836517,0.78897500038147,4.90613746643066,2.67162489891052,1.77127504348755,0.10724999755621,0.77426248788834,0.61187499761581,0.94613748788834,0.72861248254776,0.72132498025894,0.24488750100136,0.20322500169277,-1.13698744773865,-4.12884998321533,-7.50447511672974,-14.1017246246338,-18.179838180542,-17.5811614990234,-14.4963502883911,-12.5501747131348,-7.77810001373291,0.22893749177456,4.5799503326416,2.33295011520386,3.87405014038086,5.71200037002563,8.44694995880127,21.1609516143799,28.0590019226074,40.8490524291992,57.3150024414063,39.6979522705078,24.4290008544922,19.7250003814697,17.3650512695313,-8.50305080413818,-20.9700012207031,1.56900012493134,2.06895017623901,2.00894999504089,3.40905022621155,6.05505037307739,8.57505035400391,4.43805027008057,-1.76895010471344,-23.8219509124756,-43.128002166748,-45.0750007629395,-44.578052520752,-53.5150527954102,-40.4479522705078,-24.775951385498,9.43605041503906,9.76395034790039,9.2160005569458,9.60300064086914,8.84895038604736,3.79305028915405,-0.00300000002608,1.64895009994507,2.98695015907288,8.31599998474121,21.6510009765625,14.3050508499146,4.546950340271,0.46005001664162,8.12205028533936,SWING_RIGHT
0.21903750300407,-0.3466374874115,-0.93059998750687,-0.80726248025894,-1.00031244754791,-1.41075003147125,0.16279999911785,0.50971251726151,1.20243752002716,1.3894374370575,0.41566249728203,-1.45474994182587,1.49572503566742,3.15837502479553,3.20113754272461,0.35777500271797,0.63868749141693,-1.78268754482269,-2.24578738212585,-2.17002487182617,-2.07349991798401,2.60205006599426,1.12502503395081,1.99966251850128,1.35588753223419,1.41212499141693,2.01561260223389,-0.09556250274181,-0.55371248722076,-0.95933747291565,1.10123753547668,0.18246249854565,-0.59455001354218,-0.91574996709824,-2.72882509231567,-5.18196249008179,-10.1250877380371,-16.2507133483887,-17.3722991943359,-17.2928256988525,-15.8230876922607,-9.99308776855469,-4.56747484207153,0.66879999637604,3.14641237258911,5.20005035400391,6.3600001335144,5.64705038070679,10.7920503616333,20.9550018310547,36.7069511413574,58.0309524536133,53.7520523071289,48.7129516601563,43.2930030822754,21.481050491333,-2.08800005912781,-11.3460006713867,-14.4019508361816,-4.98795032501221,-0.77595001459122,-0.31800001859665,1.5330001115799,3.45900011062622,3.54300022125244,5.2819504737854,-4.51605033874512,-26.4709510803223,-49.3680038452148,-54.5110511779785,-62.4810028076172,-48.025951385498,-36.1039505004883,-22.5750007629395,-13.3380002975464,7.9069504737854,6.06600046157837,8.12895011901855,8.45895004272461,10.9309501647949,13.0200004577637,13.4100008010864,13.9890003204346,13.7050504684448,11.6899509429932,-1.07295000553131,4.22595024108887,10.7179508209229,5.67900037765503,3.65895009040833,SWING_RIGHT
-0.46268749237061,-1.40703749656677,-1.47675001621246,-0.97955000400543,-0.08882500231266,1.30515003204346,1.21343743801117,0.49266248941422,1.3857250213623,3.64828753471375,5.28178739547729,5.51141262054443,4.81263732910156,2.73693752288818,0.49994999170303,-0.52071249485016,-0.14561249315739,-0.19937500357628,-0.71857500076294,-0.25561249256134,-1.68863749504089,0.39077499508858,1.29359996318817,3.21035003662109,3.95449995994568,2.50057506561279,1.4499374628067,1.47922503948212,0.45911249518394,0.23677499592304,0.38527500629425,0.50379997491837,-0.10216250270605,-0.68241250514984,-1.66718745231628,-4.75076246261597,-8.37196254730225,-11.8501625061035,-15.2671747207642,-14.5158748626709,-13.0974245071411,-12.9020376205444,-9.50688743591309,-4.99757480621338,-0.64583748579025,-0.66405004262924,1.75395011901855,3.74700021743774,5.36295032501221,10.4569501876831,20.6839504241943,31.3380012512207,41.0890502929688,47.8890037536621,29.8849506378174,32.5150527954102,28.3699512481689,8.31795024871826,-2.85105013847351,-15.1819505691528,1.92495012283325,1.37205004692078,1.80795013904572,3.88695025444031,5.5290002822876,9.34995079040527,3.77205014228821,-7.69800043106079,-23.6590518951416,-25.4389514923096,-30.9450016021729,-40.9020004272461,-42.1270523071289,-39.5839500427246,-30.949951171875,6.37500047683716,7.47105026245117,10.6390504837036,12.7210502624512,15.1500005722046,19.6009502410889,16.8109512329102,17.0069999694824,20.3400001525879,21.1939506530762,18.1939506530762,10.3570508956909,5.40405035018921,0.51705002784729,2.90295004844666,SWING_RIGHT
-0.49692499637604,0.53666251897812,1.3894374370575,1.61301243305206,1.00333750247955,0.55989998579025,-0.33316248655319,-0.86954998970032,-4.87671232223511,-3.83955001831055,3.75457501411438,6.23837518692017,2.75041246414185,2.8920373916626,3.05579996109009,-0.24708749353886,-1.63240003585815,-1.27929997444153,-1.09615004062653,-2.78203749656677,-3.75086259841919,-3.90362501144409,-1.86216247081757,0.40658751130104,4.92937517166138,2.88543748855591,0.98078751564026,1.01131248474121,-0.63305002450943,-0.62204998731613,0.10683749616146,-0.01663750037551,-0.28421249985695,-1.42408752441406,-1.95305001735687,-3.05745005607605,-8.70182514190674,-14.4181127548218,-18.7783756256104,-18.556037902832,-11.4665374755859,-7.5789999961853,-1.29208743572235,1.60943746566772,1.73043751716614,0.33795002102852,1.5700501203537,5.09895038604736,9.59595012664795,13.1440505981445,28.4059505462646,50.8110008239746,54.7090530395508,60.1459541320801,29.1190509796143,6.83400011062622,-0.08505000174046,-17.8380012512207,-8.27595043182373,-5.3449501991272,2.09505009651184,3.27900004386902,2.86095023155212,4.46400022506714,9.19995021820068,11.7619504928589,3.06600022315979,-11.6440505981445,-44.5750503540039,-64.8220520019531,-47.370002746582,-49.737003326416,-32.5579528808594,-19.5450000762939,-8.3230504989624,10.8619508743286,12.1879501342773,9.91200065612793,7.83000040054321,7.32300043106079,7.02405023574829,8.5620002746582,11.6370000839233,8.0310001373291,20.6580009460449,26.9179515838623,7.42095041275024,-1.16400003433228,5.47305011749268,1.47900009155273,SWING_RIGHT
-1.72837495803833,-1.93242502212524,-1.38393747806549,-0.24887499213219,-0.08401250094175,0.66123747825623,1.13286244869232,0.48042500019073,-0.51768749952316,0.35585001111031,4.75034999847412,1.36372494697571,-0.19511249661446,2.97880005836487,2.84322500228882,0.62521249055862,0.60692501068115,-0.85057497024536,-1.33196246623993,-2.54264998435974,-2.23836255073547,0.4811125099659,0.53982502222061,3.63673758506775,4.05088758468628,1.38641250133514,0.74373751878738,0.33453750610352,-1.09738755226135,-0.5878124833107,-0.17668749392033,-0.01787500083447,-0.38678750395775,-1.81981253623962,-2.40748739242554,-6.31702518463135,-12.6576995849609,-17.2733001708984,-18.5645618438721,-16.481575012207,-13.8818626403809,-8.62963771820068,-1.80028748512268,1.55938744544983,2.47073745727539,1.63695013523102,1.38300001621246,4.82400035858154,11.5840501785278,15.5950508117676,42.355052947998,52.3429527282715,52.101001739502,45.5800514221191,34.0900497436523,31.1340007781982,-6.77805042266846,-14.1510009765625,-12.0660009384155,-3.55995011329651,0.29595002532005,0.74805003404617,1.63305008411407,2.6140501499176,6.76095008850098,4.57395029067993,-8.58600044250488,-27.9760513305664,-50.569953918457,-46.9660530090332,-51.1339530944824,-43.1800537109375,-33.786003112793,-20.0340003967285,-7.73400020599365,7.60995054244995,10.2450008392334,13.7410507202148,15.1090507507324,16.5280513763428,18.9190502166748,14.7840003967285,13.2619504928589,9.14400005340576,13.0180501937866,5.09700012207031,-4.61700010299683,6.83505010604858,12.9870004653931,3.44100022315979,SWING_RIGHT
0.92757499217987,0.62576252222061,-1.34351253509521,-2.1620500087738,0.09075000137091,1.19019997119904,-1.36675000190735,-2.15599989891052,-0.40163749456406,1.30748748779297,3.16580009460449,3.78028750419617,3.2318000793457,0.68942499160767,-0.96236246824265,-2.46317505836487,-1.60311245918274,-1.32453751564026,0.50063747167587,0.30030000209808,-0.50723749399185,-0.00756249995902,0.85868752002716,1.40222501754761,0.05967500060797,0.78292500972748,1.4059374332428,0.38582500815392,-0.45594999194145,-1.15843749046326,-0.5823125243187,-2.08491253852844,-5.51306247711182,-8.85568714141846,-12.6454620361328,-15.1377878189087,-15.8500375747681,-15.7180376052856,-14.3545875549316,-11.4078245162964,-2.41367506980896,2.4169750213623,1.15005004405975,0.31569999456406,0.14217500388622,9.00195026397705,12.8430004119873,28.2559509277344,40.3879508972168,47.0419540405273,46.8750038146973,49.969051361084,50.8420524597168,40.2850532531738,14.5849504470825,-20.9940013885498,-3.45195007324219,5.96100044250488,-2.7769501209259,-2.95395016670227,4.36605024337769,9.05595016479492,7.66305017471313,0.6280500292778,-8.074049949646,-14.9920511245728,-25.4389514923096,-40.878002166748,-54.5800514221191,-61.7899513244629,-36.9130516052246,-17.3819999694824,-5.16195011138916,3.03795003890991,1.20000004768372,12.4290008544922,8.56905078887939,5.26695013046265,9.43605041503906,17.29905128479,14.2000503540039,9.29700088500977,9.63000011444092,7.13400030136108,7.47600030899048,7.9830002784729,1.32600009441376,0.01995000056922,-0.57795000076294,5.7460503578186,SWING_RIGHT
0.1885125041008,0.12003749608994,0.37661248445511,0.59771251678467,-2.34781241416931,-5.77101230621338,-4.38803768157959,0.97886252403259,8.67322540283203,7.65187501907349,-1.42779994010925,-2.99282503128052,2.08092498779297,3.64952492713928,2.50483751296997,0.18053749203682,0.45182499289513,0.07796250283718,-1.11319994926453,-1.23048746585846,1.90079998970032,4.92689990997314,5.83343744277954,4.9696626663208,0.06943749636412,-0.14313749969006,-0.06256250292063,-0.99343746900558,-0.04303750023246,-0.27994999289513,0.20941250026226,-0.28049999475479,-1.1418000459671,-4.91452503204346,-8.94492530822754,-11.6289253234863,-16.0503749847412,-14.9984998703003,-13.9391994476318,-13.6728620529175,-7.79404973983765,-2.03128743171692,-0.19016249477863,1.1171875,1.55567502975464,3.12000012397766,3.79500007629395,9.08595085144043,25.4940013885498,33.8910026550293,41.6989517211914,45.2839508056641,30.8380508422852,40.5619506835938,27.4540519714355,-1.67100012302399,-5.15595006942749,-2.82000017166138,-4.36605024337769,-3.02805018424988,1.69995009899139,1.33200001716614,6.2440505027771,10.9990501403809,5.45205020904541,-4.88700008392334,-27.5779514312744,-30.8160018920898,-36.4300498962402,-47.9710540771484,-38.566951751709,-32.2969512939453,-21.8160018920898,-11.5410003662109,-4.05105018615723,8.70105075836182,9.18195056915283,10.7370004653931,9.87405014038086,3.34800004959106,5.14995002746582,16.1119499206543,22.6680011749268,18.7630500793457,-4.25100040435791,-12.985050201416,11.8309507369995,16.3630504608154,6.51195049285889,3.50595021247864,SWING_RIGHT
-0.58616250753403,-0.60197502374649,-0.0937749966979,0.46818751096725,1.26115000247955,0.16527499258518,-1.22017502784729,-2.1377124786377,-2.77667498588562,1.80235004425049,5.14002513885498,0.65394997596741,1.16091251373291,5.04349994659424,4.5292501449585,-0.5292375087738,-0.54505002498627,-1.82792496681213,-2.21154999732971,-1.66182494163513,-1.96721243858337,-1.70334994792938,0.91602498292923,3.58544993400574,3.1933000087738,0.3980624973774,1.79561245441437,-0.31542500853539,-0.26537498831749,0.13901250064373,0.8068500161171,0.68213748931885,0.29975000023842,0.0114124994725,-2.88392496109009,-5.30048751831055,-10.465950012207,-16.35205078125,-19.5505752563477,-17.4271621704102,-13.8524370193481,-6.02992486953735,1.23323750495911,2.22639989852905,2.99983739852905,2.24895000457764,3.28800010681152,5.75700044631958,11.8330507278442,23.7520503997803,29.7540016174316,52.0410041809082,57.528003692627,54.6570014953613,34.5109519958496,15.9250507354736,-16.1749515533447,-14.7390003204346,-3.69405007362366,-6.01200008392334,0.21405000984669,-0.17700000107288,-0.13695000112057,2.77905011177063,4.2679500579834,6.8230504989624,-1.24500000476837,-26.6689510345459,-54.8530540466309,-55.2400512695313,-56.9970016479492,-45.1660537719727,-31.0290012359619,-19.1749515533447,-7.43505048751831,9.07005023956299,9.94095039367676,10.4310007095337,9.73500061035156,10.6249504089355,8.22495079040527,9.67995071411133,8.30100059509277,10.3279504776001,19.5100517272949,9.49095058441162,-1.77600014209747,17.3470516204834,13.4269504547119,2.41995000839233,SWING_RIGHT
0.87505000829697,1.27572500705719,1.17686247825623,1.07786250114441,0.23608750104904,0.48166251182556,1.89268743991852,-1.41075003147125,-4.80342483520508,1.27338755130768,8.21755027770996,5.15721225738525,0.94476246833801,1.22319996356964,1.20009994506836,-0.60128748416901,0.01924999989569,-1.33430004119873,-0.63057500123978,-1.37472498416901,-1.78639996051788,-0.8065750002861,-4.23348760604858,1.74927496910095,2.66062498092651,1.43893754482269,-0.30318748950958,0.22824999690056,-0.08813749998808,-0.168850004673,0.31817498803139,0.30346250534058,-0.54202497005463,-1.97752499580383,-4.31832504272461,-9.48241233825684,-14.98131275177,-16.8481502532959,-18.1101245880127,-14.5428247451782,-10.1483249664307,-3.7367000579834,1.38586246967316,3.67289996147156,2.15930008888245,2.74200010299683,5.06400012969971,8.31105041503906,16.3459510803223,25.9510517120361,48.4609527587891,48.7770004272461,43.7040023803711,48.2119522094727,19.7130012512207,5.80305004119873,-15.0220508575439,-15.8470506668091,-0.93195003271103,2.58900022506714,0.31695002317429,1.74300003051758,3.83205008506775,7.27605056762695,8.15595054626465,2.62395024299622,-12.5629501342773,-25.570951461792,-51.868953704834,-55.1710510253906,-60.2230529785156,-39.6600036621094,-20.8300514221191,-4.4850001335144,2.31000018119812,9.92100048065186,8.8879508972168,9.74895000457764,8.12895011901855,8.38800048828125,13.5900011062622,14.3029508590698,12.5080509185791,13.1880006790161,33.7549514770508,18.9949512481689,-2.60700011253357,-0.34605002403259,5.48505020141602,4.93905019760132,SWING_RIGHT
0.13832500576973,-0.01196249946952,-0.72297501564026,-0.80849999189377,-1.16269993782043,-1.32770001888275,0.63676249980927,0.66618752479553,1.18167495727539,5.6959376335144,7.47711229324341,2.21773743629456,1.70953750610352,1.55182504653931,0.17379999160767,-0.23113749921322,0.34430000185966,-0.0662750005722,-0.13584999740124,1.00883746147156,1.86903750896454,-1.15967500209808,1.18112504482269,3.16648745536804,3.74068737030029,0.08401250094175,-0.26785001158714,-1.98673748970032,-1.04238748550415,-0.02956249937415,0.6601374745369,0.35475000739098,-0.40149998664856,-1.17727494239807,-1.93957495689392,-3.65241241455078,-10.883674621582,-15.8610372543335,-18.350887298584,-13.2074251174927,-7.9565749168396,0.19965000450611,4.21533727645874,2.14939999580383,0.74566251039505,3.50805020332336,4.56300020217896,4.71405029296875,10.6680002212524,18.7129516601563,34.1040000915527,52.5529518127441,46.5040512084961,29.3230514526367,8.88495063781738,-12.4080009460449,-30.0270023345947,-9.43605041503906,5.6569504737854,1.46505010128021,2.22705006599426,3.41100025177002,3.88995027542114,6.47595024108887,3.7630500793457,2.31000018119812,-10.8210000991821,-33.1800003051758,-59.722053527832,-61.2280540466309,-59.5530014038086,-32.5170021057129,-15.292950630188,-0.51900005340576,6.61005020141602,8.77005004882813,7.20105028152466,6.99495029449463,7.97595024108887,5.62095022201538,11.776050567627,20.8690509796143,16.1809501647949,21.0030002593994,18.4069499969482,1.732950091362,-6.96000051498413,5.82705020904541,5.13795042037964,5.09700012207031,SWING_RIGHT
-1.13960003852844,-1.56708753108978,-1.50851249694824,-0.57021248340607,-0.20253749191761,-0.521399974823,1.02162504196167,1.38201248645782,-1.21522498130798,-1.92513751983643,3.03998756408691,5.2390251159668,0.69423747062683,0.8897625207901,1.87316250801086,0.57158750295639,0.47011250257492,-0.33618751168251,-1.36125004291534,-1.31601250171661,-1.79616248607636,0.64721250534058,0.4298250079155,1.84208750724792,4.24765014648438,4.53103733062744,1.06383752822876,-0.47423750162125,-0.84686249494553,-0.64776247739792,-0.50778752565384,-1.15032494068146,-1.69771254062653,-2.76058745384216,-4.58218765258789,-6.9742751121521,-11.4200620651245,-15.7082748413086,-16.8701496124268,-13.5898122787476,-10.9521503448486,-6.34259986877441,1.96501243114471,3.17941236495972,1.29057502746582,4.42500019073486,4.31895017623901,5.26905012130737,11.6800508499146,17.9370002746582,30.4330520629883,43.4860534667969,46.219051361084,37.10205078125,22.4190006256104,19.8880500793457,-18.6760501861572,-27.4789505004883,-1.65705013275146,2.05995011329651,1.55205011367798,1.3050000667572,1.79295003414154,2.98800015449524,3.21195006370544,4.2679500579834,-4.98705005645752,-21.6630001068115,-38.5980033874512,-38.8900527954102,-46.2649536132813,-48.5929527282715,-25.2169513702393,-11.9650506973267,0.58995002508163,6.03795051574707,7.38705015182495,10.2160501480103,12.9580507278442,13.0510501861572,17.0740509033203,16.6960506439209,12.6850509643555,5.13300037384033,11.7210006713867,13.06605052948,0.70200002193451,-4.49505043029785,7.96395015716553,8.61705017089844,SWING_RIGHT
-0.24529999494553,-0.56045001745224,-0.79502499103546,-0.89402496814728,-0.04977500066161,0.72118747234344,1.36372494697571,1.87440001964569,2.81751251220703,1.53972494602203,3.15961241722107,2.29349994659424,1.3087249994278,-0.04372499883175,-1.0760749578476,0.27348750829697,0.84768748283386,0.28682500123978,-0.20184999704361,0.30401250720024,-1.05338752269745,-0.32642498612404,-0.71609997749329,-0.60871249437332,1.13836252689362,-0.39613750576973,-1.81939995288849,-0.77481251955032,-0.32394999265671,0.33206251263618,0.42322498559952,-0.63964998722076,-2.26943755149841,-3.89069986343384,-6.2925500869751,-11.1989622116089,-13.7058620452881,-14.4120626449585,-15.0851249694824,-12.7553253173828,-1.94686245918274,1.78172504901886,1.57643747329712,1.05242502689362,-0.08387500047684,4.61100006103516,7.64805030822754,11.5219507217407,18.2479515075684,31.2730522155762,42.9960021972656,33.8220024108887,32.3020515441895,31.0819511413574,15.0349502563477,-23.7319507598877,-14.6910009384155,-2.1979501247406,-2.07405018806458,1.63905012607574,-0.54105001688004,0.70005005598068,2.45595002174377,1.25295007228851,-2.35500001907349,-22.666051864624,-32.0820007324219,-33.0529518127441,-44.2549514770508,-47.0400009155273,-33.3880500793457,-17.0520000457764,-5.39595031738281,1.75005006790161,2.57400012016296,9.39495086669922,9.38295078277588,11.0989503860474,10.4809503555298,13.3189506530762,13.7329502105713,13.4440507888794,18.0859508514404,21.5770511627197,14.2050008773804,10.8139505386353,5.3100004196167,2.97705006599426,2.76195001602173,4.01100015640259,SWING_RIGHT
-1.0564124584198,-0.75473749637604,0.40466248989105,0.62466251850128,-0.30511251091957,-1.66361248493195,1.27215003967285,3.56276249885559,1.55924999713898,1.88292503356934,4.09310007095337,3.30013751983643,2.42054986953735,1.27943754196167,0.12251249700785,0.80245000123978,-0.01003750041127,-0.34966251254082,-0.46818751096725,0.35530000925064,3.16648745536804,2.94167494773865,3.13472509384155,3.58792495727539,3.93731236457825,2.48600006103516,0.80849999189377,-0.52071249485016,-1.03743743896484,-0.20061250030994,-0.79612499475479,-1.06356251239777,-2.2731499671936,-3.16868758201599,-9.15750026702881,-12.2911252975464,-14.664924621582,-16.3484745025635,-15.5299377441406,-12.3631753921509,-7.20032501220703,-1.89433753490448,2.68702507019043,2.94965004920959,1.74872493743896,3.5029501914978,4.89600038528442,11.6010007858276,23.0269508361816,46.9750518798828,36.8370018005371,46.9420509338379,43.6060523986816,37.441951751709,16.6690502166748,-3.46095013618469,-20.0250015258789,-18.127950668335,-0.51794999837875,-0.2569500207901,-0.01695000007749,-0.16305001080036,1.26705002784729,2.7529501914978,-5.32200002670288,-16.5280513763428,-29.4829521179199,-43.2540016174316,-54.2160034179688,-57.411003112793,-50.7940521240234,-35.017951965332,-17.0659503936768,-7.03500032424927,-0.64605003595352,9.22305011749268,12.5350503921509,13.5079507827759,14.2930507659912,9.12705039978027,10.9840507507324,20.5909519195557,14.568000793457,-0.34800001978874,10.5630006790161,3.76695013046265,-1.9939501285553,-0.12795001268387,1.28100001811981,2.56995010375977,SWING_RIGHT
1.26843750476837,0.04551250115037,-0.55192500352859,-0.7070249915123,-1.17369997501373,-1.04541254043579,-5.65991258621216,-8.18386268615723,-1.84208750724792,6.07956266403198,6.45699977874756,3.56276249885559,0.86652499437332,1.32948744297028,2.21044993400574,-0.83104997873306,-0.27266249060631,-1.31477499008179,-1.15967500209808,-3.63357496261597,-7.26206254959106,-5.53946256637573,-0.55976247787476,1.53917503356934,-1.92816245555878,-3.8816249370575,-3.61157488822937,-1.90973746776581,-2.24936246871948,-1.52253746986389,1.47757494449615,0.72861248254776,-1.72218751907349,-3.23826241493225,-4.76176261901855,-7.92481231689453,-12.6282749176025,-18.3409881591797,-18.4375133514404,-13.2233753204346,-8.29496288299561,-4.76423740386963,-1.09903752803802,-0.36602500081062,0.22646249830723,10.9549503326416,12.4170007705688,19.8330001831055,22.4599514007568,32.2350006103516,47.6190032958984,62.5290031433105,64.1089553833008,30.2179508209229,8.62905025482178,-17.260950088501,-17.5200004577637,-20.0590515136719,-10.7550001144409,-11.3389501571655,2.67600011825562,6.2440505027771,6.15105009078979,5.52195024490356,2.61900019645691,-1.06995010375977,-24.7189502716064,-63.3379516601563,-78.3730545043945,-62.9650535583496,-49.7299537658691,-35.0400009155273,-22.021951675415,-12.8809509277344,-4.55595016479492,4.98195028305054,3.11595010757446,5.70300006866455,3.50100016593933,6.72900009155273,8.45895004272461,6.52800035476685,23.7409515380859,43.2430534362793,36.928050994873,16.6500015258789,9.67695045471191,6.15495014190674,13.2910509109497,7.28205013275146,SWING_RIGHT
0.13598750531673,0.89099997282028,0.86652499437332,1.05215001106262,0.81523752212524,0.45361250638962,-2.10952496528625,-4.93047475814819,-3.65502500534058,-0.42116248607635,1.52377498149872,-0.7265499830246,1.65701246261597,2.49755001068115,1.28067493438721,-0.04784999787807,-0.84810000658035,-1.16820001602173,-2.55364990234375,-4.78197479248047,-5.33417510986328,-8.25041198730469,-7.03725004196167,-0.98243749141693,-4.68311262130737,-5.1753625869751,-1.81816244125366,-2.12726259231567,-1.69235002994537,-0.59523749351501,0.81661248207092,-0.32078748941422,-1.466712474823,-2.17538738250732,-3.04040002822876,-4.07508754730225,-6.92903757095337,-10.1348495483398,-14.9373121261597,-13.4029502868652,-13.2024745941162,-7.00851249694824,-1.92005002498627,0.30469998717308,1.54838752746582,4.764000415802,12.0630006790161,12.8209505081177,18.318000793457,25.6039505004883,35.0590515136719,38.7030029296875,56.1040534973145,45.5160026550293,18.526050567627,17.239049911499,-29.6899509429932,-25.3210506439209,-18.1870517730713,-12.6360006332397,5.01705026626587,6.19905042648315,7.30905055999756,7.59900045394897,5.34000015258789,2.64795017242432,-3.10605025291443,-16.2769508361816,-43.1680526733398,-49.2529525756836,-52.101001739502,-39.1480522155762,-25.3650016784668,-13.8220510482788,-3.99600028991699,8.40900039672852,9.66795063018799,6.41295051574707,7.28895044326782,5.00595045089722,5.18595027923584,6.41100025177002,23.8789520263672,28.9039516448975,40.242000579834,34.8120002746582,20.4690017700195,20.4570007324219,10.6249504089355,4.75995016098022,SWING_RIGHT
-0.69354999065399,-0.61792498826981,0.03451250120997,0.85676246881485,1.06191253662109,0.73094999790192,-2.35757493972778,-6.14363765716553,-4.51756238937378,4.09310007095337,6.03927516937256,3.57623744010925,2.37654995918274,1.82792496681213,0.66495001316071,-0.15289999544621,-0.75528746843338,-1.20724999904633,-1.91826248168945,-3.98791241645813,-5.27312517166138,-5.98413753509521,-2.65746259689331,1.99485003948212,1.8518500328064,-0.61599999666214,-1.27324998378754,-1.15114998817444,-0.81138747930527,-0.78333747386932,0.37317499518394,-0.51631247997284,-1.38489997386932,-2.62129998207092,-4.93157482147217,-8.73963737487793,-13.7535753250122,-18.0551242828369,-16.5536251068115,-14.1359624862671,-10.7260999679565,-3.91503739356995,1.68767499923706,3.11712503433228,2.0847749710083,3.91500020027161,7.588050365448,11.1010503768921,21.1489505767822,35.7529525756836,47.2699508666992,57.1360511779785,60.847053527832,36.4819526672363,29.4690017700195,-2.44395017623901,-22.3990516662598,-17.3860511779785,-5.16300010681152,-1.18305003643036,4.70295000076294,3.70995020866394,4.53600025177002,5.65095043182373,5.94495010375977,4.89000034332275,-9.41400051116943,-41.8399505615234,-58.8109512329102,-63.3139533996582,-58.878002166748,-36.1090507507324,-19.5409507751465,-9.25095081329346,-2.31195020675659,8.24895000457764,10.4020500183105,12.1350002288818,10.687050819397,9.7300500869751,6.43305015563965,6.60495042800903,13.6540508270264,33.0799522399902,31.1749515533447,9.16800022125244,1.63200008869171,5.16900014877319,3.54195022583008,3.05895018577576,SWING_RIGHT
