gyro_x_0,gyro_y_0,gyro_z_0,acc_x_0,acc_y_0,acc_z_0,gyro_x_1,gyro_y_1,gyro_z_1,acc_x_1,acc_y_1,acc_z_1,gyro_x_2,gyro_y_2,gyro_z_2,acc_x_2,acc_y_2,acc_z_2,gyro_x_3,gyro_y_3,gyro_z_3,acc_x_3,acc_y_3,acc_z_3,gyro_x_4,gyro_y_4,gyro_z_4,acc_x_4,acc_y_4,acc_z_4,gyro_x_5,gyro_y_5,gyro_z_5,acc_x_5,acc_y_5,acc_z_5,gyro_x_6,gyro_y_6,gyro_z_6,acc_x_6,acc_y_6,acc_z_6,gyro_x_7,gyro_y_7,gyro_z_7,acc_x_7,acc_y_7,acc_z_7,gyro_x_8,gyro_y_8,gyro_z_8,acc_x_8,acc_y_8,acc_z_8,gyro_x_9,gyro_y_9,gyro_z_9,acc_x_9,acc_y_9,acc_z_9,gyro_x_10,gyro_y_10,gyro_z_10,acc_x_10,acc_y_10,acc_z_10,gyro_x_11,gyro_y_11,gyro_z_11,acc_x_11,acc_y_11,acc_z_11,gyro_x_12,gyro_y_12,gyro_z_12,acc_x_12,acc_y_12,acc_z_12,gyro_x_13,gyro_y_13,gyro_z_13,acc_x_13,acc_y_13,acc_z_13,gyro_x_14,gyro_y_14,gyro_z_14,acc_x_14,acc_y_14,acc_z_14,motion_type
0.00563749996945,0.05486249923706,0.007012499962,0.04564999789,-0.42281249165535,-1.45186245441437,0.31927499175072,3.42113757133484,3.40931248664856,2.90977501869202,4.15057516098022,8.04278755187988,9.89560031890869,5.03772497177124,1.45914995670319,0.42281249165535,0.85772502422333,1.62923753261566,2.51570010185242,1.59609997272491,-1.60599994659424,-6.85739994049072,-10.8326625823975,-8.98122501373291,-4.37937498092651,-2.36981248855591,-4.53447484970093,-9.37227535247803,-6.11462497711182,0.50077497959137,-0.67168748378754,-1.13561248779297,-2.22131252288818,-3.0049250125885,-1.04665005207062,5.22156238555908,12.7638502120972,11.4109878540039,6.32843732833862,6.22476243972778,7.60567474365234,12.0742874145508,19.9931869506836,17.8355369567871,7.32833766937256,-2.88900017738342,-5.11605024337769,-6.77100038528442,-5.43195009231567,-0.70695000886917,7.29900026321411,13.4160003662109,29.6029510498047,35.146053314209,24.2269515991211,8.00295066833496,-19.7110500335693,-10.021050453186,-7.01505041122437,-10.9189500808716,1.71105003356934,2.0269501209259,0.43695002794266,1.35900008678436,1.83300006389618,3.7110002040863,4.24695014953613,3.90495014190674,-5.92095041275024,-18.598051071167,-21.984001159668,-17.5990505218506,-16.0609512329102,-14.614951133728,-10.6080007553101,11.1390008926392,12.6000003814697,10.0330505371094,9.74100017547607,11.2660503387451,7.33395051956177,6.77595043182373,15.0019502639771,7.64295053482056,5.78895044326782,9.04800033569336,10.4449501037598,11.2210502624512,10.2409505844116,9.84105014801025,SWING_RIGHT
-0.78223747014999,-1.42285001277924,-1.4247750043869,-0.6736124753952,0.34869998693466,6.19740009307861,10.6379623413086,6.11531257629395,3.31498742103577,4.38075017929077,6.15078735351563,5.79369974136353,2.00488758087158,-1.34914994239807,-3.00671243667603,0.60995000600815,2.15641260147095,3.06075000762939,1.5552624464035,-3.12606239318848,-7.49471235275269,-13.2147121429443,-13.0919246673584,-4.72436237335205,0.1119249984622,0.80286252498627,-2.05356240272522,-1.97780001163483,2.82658743858337,6.14817476272583,-1.64862501621246,-4.58603763580322,-5.84113740921021,-4.08416271209717,0.73383748531342,24.939474105835,28.1096744537354,8.16502475738525,5.37116241455078,7.85812473297119,11.9812002182007,13.9734373092651,11.5775003433228,7.01277494430542,5.29787492752075,-7.63800048828125,-9.25500011444092,-5.41800022125244,1.23705005645752,9.90900039672852,22.9519519805908,44.97705078125,58.9380035400391,39.058952331543,-9.39795017242432,-34.3350028991699,-20.0299510955811,-12.6600008010864,-9.57300090789795,-8.91495037078857,1.38300001621246,-2.11500000953674,-1.08000004291534,1.61505007743835,5.92905044555664,4.76505041122437,-6.27795028686523,-12.8040008544922,-64.9360504150391,-61.6890029907227,-43.6830024719238,-27.117000579834,-8.08095073699951,-1.55895006656647,-3.34095025062561,17.8450508117676,15.1099510192871,12.3319501876831,12.5089502334595,6.62895011901855,-1.21800005435944,-12.3190507888794,-12.0079507827759,1.73400008678436,32.5990524291992,30.4170017242432,2.29905009269714,-5.43600034713745,-2.83905005455017,2.53200006484985,SWING_RIGHT
-1.07442498207092,-0.92344999313354,-0.71142500638962,0.3092375099659,5.26047515869141,10.5428123474121,25.9468002319336,44.5218124389648,27.9056243896484,7.29918766021729,5.94990015029907,1.67557501792908,-1.32288753986359,-2.43663740158081,2.02344989776611,0.39105001091957,-0.19511249661446,-1.52432501316071,-1.67901253700256,0.11110000312328,-2.73886251449585,-6.41533756256104,-9.93630027770996,-7.21833753585815,-1.76824998855591,-4.85086250305176,-2.90840005874634,3.43557500839233,6.81587505340576,7.23222494125366,-1.84648752212524,-1.25234997272491,1.15499997138977,12.2351627349854,26.4505996704102,24.7369365692139,20.9415245056152,15.4331369400024,8.33057498931885,11.6078872680664,14.7395877838135,13.3728370666504,7.96344995498657,4.61491250991821,7.18671226501465,-3.03000020980835,-0.79605001211166,2.71500015258789,5.53095006942749,23.6950511932373,41.919002532959,54.3270034790039,56.7049522399902,-2.05800008773804,-38.826000213623,-27.7900505065918,-17.3569507598877,-6.46005010604858,-6.8449501991272,-9.30000019073486,1.84500002861023,1.54605007171631,2.69295001029968,6.03705024719238,9.36105060577393,-15.0390005111694,-16.5400505065918,-55.4980545043945,-78.6550521850586,-47.9839515686035,-29.7559509277344,-10.4590501785278,-0.89805006980896,-2.0029501914978,-0.91005003452301,10.6360502243042,10.335000038147,9.6540002822876,11.8000507354736,11.6590509414673,4.19595003128052,-7.91700029373169,9.27600002288818,33.2119522094727,28.0390510559082,7.75800037384033,-7.17405033111572,-6.64995050430298,0.91305005550385,4.7590503692627,SWING_RIGHT
-1.33113753795624,-1.01667499542236,-1.0231374502182,-0.66921252012253,-1.2644499540329,-3.71689987182617,-2.43732500076294,1.05737495422363,7.93540000915527,8.20256233215332,2.74202489852905,3.3099000453949,3.54598736763,2.97096252441406,0.83104997873306,-0.35585001111031,1.0144749879837,2.44983744621277,1.71448743343353,-8.84661197662354,-17.9866504669189,-12.4921503067017,-4.74443769454956,-10.6821002960205,-11.1929121017456,-0.51342499256134,2.46619987487793,-1.01131248474121,-3.23014998435974,-4.35201263427734,-2.71534991264343,-1.87329995632172,-1.18525004386902,-2.54388737678528,-13.608099937439,-14.2095251083374,0.33343750238419,10.3426122665405,18.0211620330811,20.7703380584717,15.0660123825073,7.7566499710083,3.85082507133484,3.13733744621277,2.94772505760193,1.65795004367828,-0.94395005702972,-0.86505001783371,7.26495027542114,30.916051864624,32.9209518432617,20.4139518737793,-11.1250505447388,-39.7339515686035,-3.72900009155273,-11.1850509643555,-13.9590005874634,-1.76805007457733,-6.2920503616333,-5.86800050735474,2.44605016708374,2.26395010948181,2.19000005722046,8.02695083618164,5.93805027008057,3.4830002784729,-30.4669513702393,-35.683952331543,-6.75195026397705,-7.51095056533813,0.8029500246048,1.3090500831604,-0.40305000543594,1.52205002307892,3.1429500579834,10.453950881958,9.88200092315674,9.60900020599365,14.7409505844116,9.43200016021729,-3.19200015068054,3.5350501537323,17.0670013427734,10.5169506072998,6.32505035400391,1.59495007991791,6.31305027008057,9.55905055999756,6.90705013275146,5.26695013046265,SWING_RIGHT
-0.01182499993593,-0.15413749217987,-0.63827496767044,-1.37898755073547,-3.03572487831116,-1.97064995765686,-0.59097498655319,-2.27672505378723,-0.28847500681877,13.3093128204346,21.2570877075195,9.6071252822876,1.21907496452332,0.9094250202179,2.41367506980896,0.0196624994278,0.32326251268387,1.15816247463226,2.23203754425049,1.83246254920959,-1.94878745079041,-15.2476501464844,-20.4006004333496,-9.27519989013672,-8.15306282043457,-19.0363254547119,-13.550350189209,0.75638747215271,3.97773742675781,3.70425009727478,0.0244750007987,-0.12993749976158,-0.54848748445511,-1.37568747997284,-2.331862449646,-3.31375002861023,-5.93161249160767,-2.63120007514954,5.4630126953125,11.6719627380371,19.835750579834,19.3459739685059,11.107250213623,4.75378751754761,5.06728744506836,0.96105003356934,-0.85305005311966,-2.04299998283386,-2.59905004501343,0.50894999504089,17.0800514221191,52.6080017089844,43.1230506896973,15.0919504165649,-31.7320518493652,-34.6870498657227,-6.07905006408691,-7.50900030136108,-8.59395027160645,-6.48105049133301,5.26500034332275,5.03295040130615,3.79995012283325,0.83895003795624,-0.88605004549026,16.2850513458252,-4.63905000686646,-9.58005046844482,-61.5160522460938,-35.25,-16.0590000152588,-10.7110500335693,-0.41895002126694,2.18505001068115,1.43805003166199,8.81100082397461,10.1089506149292,10.5790500640869,9.58500003814697,9.4150505065918,17.2200012207031,-3.39705014228821,-4.89000034332275,9.40995025634766,18.3270015716553,11.6419506072998,2.02605009078979,-1.25895011425018,1.48305010795593,5.23305034637451,SWING_RIGHT
-0.16926249861717,-0.08263749629259,-0.16445000469685,-0.94792497158051,-3.683762550354,-2.92957496643066,-1.21577501296997,-2.84102487564087,1.3058375120163,16.259786605835,21.9422492980957,9.66858768463135,1.68410003185272,0.68007498979568,1.30528748035431,-0.09487500041723,-0.22921249270439,0.20679999887943,1.74157500267029,3.67510008811951,1.37376248836517,-10.8406372070313,-19.909725189209,-12.4533748626709,-7.32256269454956,-10.5950622558594,-8.61905002593994,-1.38462495803833,3.50281238555908,4.76079988479614,-0.39902499318123,-0.28998750448227,-0.2759625017643,-0.48413750529289,-1.25853753089905,-1.27641248703003,-1.90781247615814,-2.17896246910095,3.37246251106262,10.1480503082275,17.2325992584229,19.897762298584,13.0348625183105,4.6762375831604,3.41742491722107,2.07000017166138,1.68900012969971,-0.03600000217557,-3.57405018806458,-4.15605020523071,22.5379505157471,44.5170021057129,42.5629501342773,25.465051651001,-26.002950668335,-27.6439514160156,-11.7859506607056,-7.40295028686523,-9.34095001220703,-7.15395021438599,5.34405040740967,5.33700037002563,4.95900011062622,2.09700012207031,0.48000001907349,12.0619506835938,1.28505003452301,-9.2590503692627,-54.6670532226563,-35.7769508361816,-18.5449504852295,-12.3679504394531,-4.17000007629395,3.25395011901855,0.3199500143528,8.53800010681152,8.61495018005371,10.2700500488281,12.3820505142212,16.969051361084,19.1629505157471,-15.9640502929688,-13.4350509643555,17.3400001525879,28.1370010375977,20.9040012359619,5.58000040054321,0.59595000743866,1.10699999332428,6.54795026779175,SWING_RIGHT
-0.08579999953508,-0.39283749461174,-0.74992501735687,-1.21013748645782,-2.59531259536743,-1.08418750762939,-8.06795024871826,-9.54277515411377,-1.40676248073578,18.4683132171631,21.2509002685547,2.77915000915527,0.51177501678467,-0.51823747158051,1.35506248474121,0.33618751168251,0.61489999294281,0.86817497014999,1.45186245441437,1.54206252098084,-9.26406288146973,-22.1178379058838,-15.2365121841431,-2.8608250617981,-18.0043869018555,-21.2914619445801,-3.51793742179871,1.20229995250702,3.23881244659424,3.83817505836487,0.67251247167587,0.4311999976635,0.22439999878407,-0.02502499893308,-0.11329999566078,-3.80270004272461,-7.52152490615845,-1.20477497577667,8.4326000213623,15.6469497680664,19.5185375213623,15.464075088501,8.32301235198975,2.0711624622345,4.65382480621338,1.32495009899139,0.67605000734329,-0.24000000953674,-1.59495007991791,6.67800045013428,46.5310516357422,42.6300010681152,34.4650497436523,5.30100011825562,-48.2430038452148,-20.988000869751,-5.27700042724609,-9.93000030517578,-7.47495031356812,-6.39000034332275,5.41605043411255,5.01195001602173,4.72695016860962,2.84595012664795,5.28705024719238,6.16095018386841,-5.11395025253296,-34.0980033874512,-60.3120040893555,-18.4159507751465,-19.3039512634277,-9.93495082855225,2.29995012283325,-0.27795001864433,-0.40500003099442,8.57700061798096,8.84505081176758,9.62295055389404,9.96105003356934,11.2330503463745,4.34205007553101,-10.7430009841919,6.85500049591064,11.0119504928589,20.1640510559082,13.7860507965088,0.83400005102158,-2.81805014610291,2.69400024414063,6.8860502243042,SWING_RIGHT
-0.3605250120163,-0.54793751239777,-1.50163745880127,-3.03063750267029,-5.55665016174316,-3.48315000534058,-7.24157476425171,-12.3791246414185,-4.61188745498657,8.65452480316162,17.5544872283936,10.4703502655029,2.7971625328064,2.8000500202179,3.84835004806519,0.34251248836517,0.68323749303818,1.57588744163513,2.07734990119934,1.12667500972748,-5.45655012130737,-19.1186866760254,-19.840425491333,-5.95182514190674,-3.57279992103577,-23.5570507049561,-16.7590503692627,5.04377508163452,3.34152507781982,3.33052492141724,1.10096251964569,0.79914999008179,-0.45278748869896,-0.57763749361038,5.64602518081665,11.1523494720459,-2.84102487564087,-7.9730749130249,5.26927518844604,13.9618873596191,28.438850402832,23.8990116119385,7.44150018692017,3.5011625289917,3.8315749168396,-2.050950050354,-5.19795036315918,-4.99395036697388,-4.43805027008057,3.1189501285553,35.2579498291016,51.1489524841309,35.4160499572754,2.40300011634827,-27.4069519042969,-20.4559516906738,-11.4270009994507,-8.44005012512207,-9.03705024719238,-7.08000040054321,3.85005021095276,2.70495009422302,0.64500004053116,0.01995000056922,4.09395027160645,5.04300022125244,-1.00604999065399,-31.617000579834,-40.5649528503418,-18.0079517364502,-10.2700500488281,-5.65995025634766,-0.70395004749298,3.11700010299683,2.00595021247864,8.08800029754639,11.202000617981,9.96795082092285,11.917950630188,15.5080509185791,12.598051071167,-6.97800016403198,-1.43400001525879,32.4600028991699,27.0570011138916,12.1549501419067,6.6340503692627,2.51700019836426,2.22000002861023,3.25995016098022,SWING_RIGHT
-2.28717494010925,-3.39047503471375,-3.36902499198914,-2.27988743782043,-1.43274998664856,-7.97967481613159,-10.5993251800537,-5.56269979476929,-22.3238124847412,-19.3775997161865,4.09859991073608,3.87516236305237,1.22430002689362,0.38637501001358,1.5888124704361,0.3950375020504,0.174212500453,0.01333750039339,-0.96896249055862,-3.36242508888245,-12.4405870437622,-16.5583000183105,-9.73417472839355,1.8437374830246,6.97069978713989,-0.49788749217987,-2.91499996185303,1.07690000534058,3.87832498550415,4.01568746566772,1.28823745250702,5.8972373008728,11.696849822998,9.88129997253418,-1.3996125459671,-19.8158130645752,-15.0251750946045,2.61304998397827,6.61127519607544,11.5182371139526,15.447437286377,14.6147375106812,9.77253723144531,3.99533748626709,3.73161244392395,-0.40005001425743,1.01595008373261,1.65405011177063,2.99700021743774,15.5470504760742,45.5020523071289,38.6760025024414,32.2549514770508,14.053050994873,-36.5149536132813,-27.340051651001,-9.6739501953125,-10.7680501937866,-7.3560004234314,-5.61900043487549,2.37000012397766,1.51695013046265,0.37500002980232,1.55805003643036,7.9960503578186,-2.9890501499176,-11.1300001144409,-26.4960021972656,-62.1010513305664,-30.5320510864258,-18.7459506988525,-11.8009510040283,0.14699999988079,-0.41505002975464,-0.77400004863739,9.42900085449219,10.6939506530762,10.8970508575439,12.7249507904053,13.3879508972168,1.97100007534027,-7.18200016021729,-0.28905001282692,12.7030506134033,23.8420505523682,18.7459506988525,2.67495012283325,-2.82300019264221,3.4459502696991,9.91305065155029,SWING_RIGHT
-0.70015001296997,-0.74923747777939,-1.20642495155334,-2.30835008621216,-2.44736242294312,-1.44952499866486,-3.29614996910095,-1.67268753051758,25.5193119049072,24.3196239471436,2.6978874206543,2.96367502212524,1.14248752593994,1.09119999408722,2.12244987487793,-0.15963749587536,0.25341248512268,0.64501249790192,1.17713749408722,1.22938752174377,-5.12572479248047,-14.374662399292,-13.8921747207642,-11.8896245956421,-3.27799987792969,1.08735001087189,-4.04607486724854,-0.02557500079274,3.3350625038147,3.43626236915588,-0.97803747653961,-0.9618124961853,-1.12708747386932,-2.05150008201599,-4.43781232833862,-7.3651876449585,-4.62164974212646,1.27435004711151,4.6776123046875,11.0705375671387,16.5263996124268,14.321174621582,10.5417127609253,4.62687492370605,3.33698749542236,2.43705010414124,1.70595002174377,1.63905012607574,-0.72405004501343,8.06295013427734,43.5349502563477,38.3020515441895,31.4260520935059,12.2539501190186,-44.707950592041,-28.113000869751,-6.9940505027771,-14.2960510253906,-7.55400037765503,-3.83205008506775,2.87505006790161,2.19495010375977,1.45500004291534,-0.02400000020862,5.9650502204895,-4.77600002288818,-8.35605049133301,-23.6650505065918,-72.9310531616211,-31.617000579834,-17.0239505767822,-10.1530504226685,2.30805015563965,-0.57705003023148,-0.64500004053116,9.29805088043213,9.19005012512207,11.086950302124,15.0979509353638,20.4649505615234,11.7379503250122,-19.068000793457,-1.17300009727478,17.3140506744385,22.8460502624512,18.127950668335,1.84200012683868,-2.70105004310608,5.43705034255981,7.34595012664795,SWING_RIGHT
0.18411250412464,-0.2065249979496,-0.88137501478195,-1.81128752231598,-3.41192507743835,-7.18932485580444,-9.37241268157959,-10.4154872894287,-6.76623725891113,1.44636249542236,17.7662372589111,16.0975379943848,1.31876254081726,1.44677495956421,1.96817493438721,-0.10395000129938,0.5324000120163,1.28177499771118,2.16796255111694,3.16621255874634,-0.29507499933243,-18.1757125854492,-21.8299121856689,-7.73671245574951,-2.88488745689392,-24.5331630706787,-26.2381629943848,-1.73401248455048,2.65787506103516,3.30467486381531,1.57616245746613,0.52758747339249,-0.7429124712944,-2.05053758621216,-2.58293747901917,3.86319994926453,-1.81211245059967,-9.870849609375,-0.2403499931097,10.0654125213623,21.4058628082275,21.9009990692139,13.240837097168,6.71398735046387,3.79664993286133,-1.29405009746552,-2.34300017356873,-4.83795022964478,-5.37495040893555,-2.81700015068054,19.8820514678955,50.4349517822266,37.3390502929688,25.3930511474609,-18.0180015563965,-45.373950958252,-8.12400054931641,-7.63305044174194,-9.00795078277588,-5.47095012664795,5.08800029754639,4.60005044937134,3.21795010566711,-0.7140000462532,-2.65605020523071,5.17905044555664,9.00405025482178,-10.2030000686646,-52.3890037536621,-44.8879508972168,-12.5190010070801,-12.9790506362915,-0.45495003461838,1.08105003833771,-0.3160500228405,8.9170503616333,9.32895088195801,9.89895057678223,6.45000028610229,5.96805047988892,20.8009510040283,-4.69095039367676,1.33605003356934,4.77600002288818,20.6950511932373,16.5450000762939,3.25695013999939,-1.62000012397766,1.28100001811981,6.85005044937134,SWING_RIGHT
-0.22495000064373,0.03781250119209,-0.03079999983311,-0.83943748474121,-1.56007504463196,-2.67794990539551,-5.69360017776489,-5.13644981384277,-0.80341249704361,7.71732473373413,14.9289245605469,8.06354999542236,0.92633748054504,0.43944999575615,2.00090003013611,0.40397500991821,0.77192497253418,1.24959993362427,1.0700249671936,-1.55512499809265,-6.91872501373291,-13.8971252441406,-13.5565376281738,-6.16123723983765,-5.96901226043701,-21.6313629150391,-17.4275741577148,1.96624994277954,4.54190015792847,3.0714750289917,4.07948732376099,3.70246243476868,2.78478741645813,1.65453743934631,-0.38747498393059,-5.00376224517822,-6.52960014343262,-0.31459999084473,7.65696239471436,14.0617122650146,24.0807876586914,21.9176368713379,9.23766231536865,3.1440749168396,3.00079989433289,0.65505003929138,0.17295001447201,0.24795001745224,2.12100005149841,6.25005006790161,24.3970508575439,44.4430503845215,33.8070030212402,5.04000043869019,-29.7510013580322,-26.590051651001,-6.40200042724609,-10.488000869751,-10.3210506439209,-5.99295043945313,4.83900022506714,4.88700008392334,3.34905004501343,4.0009503364563,4.12095022201538,9.50505065917969,2.16600012779236,-27.9760513305664,-45.0430526733398,-26.1109504699707,-15.2779502868652,-9.42495059967041,-0.46995002031326,-1.04700005054474,-1.68900012969971,7.97505044937134,7.40505027770996,7.59000015258789,9.15405082702637,10.7149505615234,15.8809509277344,-3.44295024871826,2.72595024108887,16.3680000305176,21.0739517211914,10.4500503540039,2.38995003700256,-0.80100005865097,4.43595027923584,5.07000017166138,SWING_RIGHT
-0.19167499244213,-0.18163749575615,-0.08497499674559,-0.13021250069141,-0.46488749980927,-1.04678750038147,-1.66526246070862,-0.02681249938905,-2.44488739967346,-10.8336248397827,-7.80491256713867,10.6154127120972,15.1031370162964,4.48401260375977,0.98353749513626,1.47413754463196,1.22113752365112,0.9842249751091,1.07868754863739,1.54453754425049,1.93984997272491,1.09986245632172,-3.74164986610413,-14.4590873718262,-16.8694629669189,-7.88727474212646,-12.7036247253418,-21.0883750915527,-10.0908498764038,1.1562374830246,1.23048746585846,1.34612500667572,1.80193746089935,2.08078742027283,2.06786251068115,2.05686259269714,1.53023743629456,-0.4492124915123,-3.58008742332459,-1.23804998397827,7.22782516479492,15.6065244674683,22.7991504669189,18.4012126922607,7.46679973602295,1.34205007553101,1.45695006847382,1.11705005168915,0.91095006465912,0.09405000507832,-0.54405003786087,5.39700031280518,32.451000213623,42.5989532470703,19.1059513092041,-4.15799999237061,-33.8200531005859,-19.2589511871338,-6.84795045852661,-10.407000541687,4.33395004272461,4.33095026016235,4.37895011901855,3.7110002040863,3.19800019264221,1.61100006103516,5.45895004272461,13.8799505233765,-5.44905042648315,-33.2929496765137,-30.5340023040771,-13.8840007781982,-11.3530502319336,-6.86205053329468,0.04905000329018,9.23505020141602,9.63495063781738,9.98700046539307,10.150050163269,12.0180006027222,10.7179508209229,14.5090503692627,12.1930503845215,-10.5229501724243,5.05800008773804,10.9330501556396,16.2910499572754,10.3900508880615,2.89605021476746,0.99900007247925,SWING_RIGHT
0.00577499996871,-0.12044999748468,-0.23127499222755,-0.28063750267029,-0.32793748378754,-0.4976125061512,-1.06204998493195,-1.49049997329712,1.47331249713898,0.06819999963045,-5.44458770751953,-1.283562541008,11.2494249343872,10.5946502685547,1.99993753433228,0.05555000156164,0.15276250243187,0.30469998717308,0.45622500777245,0.60885000228882,0.79131251573563,0.9840874671936,0.32656249403954,-4.70263767242432,-12.6147994995117,-11.8307752609253,-6.56699991226196,-13.3963499069214,-13.5646495819092,-2.21306252479553,0.69231247901917,0.46323749423027,0.19965000450611,-0.0417999997735,-0.11563749611378,-0.11357499659061,0.00797499995679,1.75504994392395,6.06650018692017,6.68511247634888,5.03731250762939,9.34284973144531,20.0877876281738,23.5742378234863,13.8157253265381,-1.01295006275177,-1.28205001354218,-1.56705009937286,-1.88505005836487,-2.28000020980835,-2.81895017623901,-2.03595018386841,6.07695007324219,41.2549514770508,33.2100028991699,16.8910503387451,-9.91800022125244,-35.7919502258301,-13.827000617981,-7.11405038833618,4.63500022888184,4.65000009536743,4.63500022888184,4.41495037078857,4.20195007324219,3.33705019950867,2.31195020675659,10.756950378418,7.05000019073486,-13.6210508346558,-25.0759506225586,-28.5700511932373,-13.7430009841919,-12.1450510025024,-5.21700048446655,9.03900051116943,9.27105045318604,9.40500068664551,9.49605083465576,9.47700023651123,10.1410503387451,8.81895065307617,18.9330005645752,8.97195053100586,-3.7110002040863,4.24905014038086,11.9580001831055,14.5549507141113,8.6050500869751,1.28595006465912,SWING_RIGHT
-0.92496252059937,-1.68355000019073,-2.76333737373352,-5.02603769302368,-6.2485499382019,-3.3371250629425,-16.4367504119873,-18.3013877868652,-20.6025867462158,-17.1698989868164,3.47517490386963,5.51182508468628,3.83583736419678,2.99475002288818,4.42213726043701,0.21903750300407,-0.21573749184608,-0.51383751630783,-1.40607500076294,-7.13294982910156,-16.111837387085,-17.4288120269775,-8.9980001449585,6.37601232528687,13.2893753051758,11.5194749832153,9.37378787994385,5.02727508544922,4.1160626411438,0.74414998292923,-0.2056999951601,-0.12113749980927,-0.33522498607635,1.50686252117157,15.8504495620728,13.8755378723145,-6.84681224822998,-3.25283741950989,7.04481267929077,12.3154621124268,13.0503997802734,6.86083745956421,2.66186237335205,1.64450001716614,4.98313760757446,-5.7460503578186,-4.74495029449463,-5.66205024719238,-0.30900001525879,34.3410034179688,44.6710510253906,31.5670509338379,16.045051574707,-25.0860004425049,-35.6959533691406,-10.7179508209229,-6.46695041656494,-10.8400506973267,-8.87400054931641,-8.19105052947998,3.02100014686584,1.08795011043549,-1.03005003929138,3.40395021438599,13.4779510498047,-2.89605021476746,-18.3010501861572,-37.8300018310547,-32.2090530395508,-13.6879510879517,-12.6940507888794,-3.86805009841919,1.95495009422302,-0.74295002222061,-0.45300000905991,7.95600032806396,7.87500047683716,9.00495052337646,23.437952041626,15.7780504226685,0.85995006561279,2.29905009269714,7.76505041122437,18.8299503326416,12.6769504547119,6.52200031280518,-1.36905002593994,0.93600004911423,6.42795038223267,7.03695011138916,SWING_RIGHT
-0.3951750099659,-0.95741248130798,-1.73428750038147,-2.50483751296997,1.60916244983673,-2.28002500534058,-5.6100001335144,-0.85813748836517,-1.57107496261597,0.34168750047684,2.93479990959167,4.89513731002808,1.1863499879837,3.44767498970032,3.53883743286133,0.78072500228882,1.19116246700287,1.8356249332428,2.26104998588562,-4.71968746185303,-28.1492748260498,-24.5102005004883,-1.41817498207092,5.09203767776489,11.7338371276855,11.9047498703003,8.96816253662109,6.68717479705811,7.99301242828369,0.38554999232292,-0.89292502403259,-1.63349997997284,-2.66763758659363,-3.99753737449646,-0.55123752355576,0.04991250112653,1.50012505054474,8.65686225891113,13.7916622161865,14.4599123001099,8.97270011901855,4.67073726654053,-0.43573749065399,3.43901252746582,7.14216232299805,-6.32100009918213,-6.81900024414063,-9.36300086975098,-3.38505005836487,43.8679504394531,55.4839515686035,28.0159511566162,3.37995004653931,-54.1489524841309,-21.2509517669678,-7.14195013046265,-3.49695014953613,-9.06300067901611,-10.6459503173828,-6.23205041885376,5.64405012130737,3.72495007514954,-0.18195000290871,1.25895011425018,15.6049509048462,-1.80600011348724,-40.8859519958496,-60.1369514465332,-26.8510513305664,-22.2690010070801,-8.4190502166748,-4.93605041503906,-2.65395021438599,-0.47205001115799,0.02505000121891,9.30195045471191,7.63305044174194,5.6569504737854,8.97900009155273,-11.8570508956909,-10.3840503692627,20.8180503845215,6.74205017089844,23.8090515136719,9.25695037841797,-3.78795027732849,-2.55405020713806,1.64100003242493,3.28605008125305,6.42795038223267,SWING_RIGHT
0.06311249732971,0.02708750031888,-0.01814999990165,-0.05775000154972,-0.31157499551773,-1.03633749485016,-1.94246244430542,0.44233748316765,-3.92919993400574,-7.43187475204468,-2.28745007514954,-0.12828749418259,3.89730000495911,6.55338764190674,3.45812487602234,-0.00137499999255,-0.0716374963522,-0.07150000333786,0.35749998688698,1.1394624710083,1.56694996356964,1.39603745937347,-4.15057516098022,-26.5724239349365,-25.847936630249,-5.12599992752075,3.59356236457825,12.9568996429443,10.4730997085571,3.84257507324219,-0.07741250097752,-0.00577499996871,0.02062499895692,-0.16114999353886,-0.60293751955032,-1.37417495250702,-2.19120001792908,-0.47162500023842,-5.58456230163574,-2.4982373714447,9.35137462615967,15.8901872634888,16.4601249694824,7.71746253967285,1.68767499923706,-4.33995008468628,-4.51500034332275,-4.95300006866455,-6.71400022506714,-8.50500011444092,-8.26605033874512,-2.050950050354,30.9420013427734,51.4080009460449,20.4070510864258,-15.8629503250122,-40.8619537353516,-13.498950958252,-2.97300004959106,-9.78900051116943,3.76605010032654,3.79005026817322,3.88305020332336,3.56295013427734,2.75805020332336,-1.05900001525879,0.10905000567436,19.4250011444092,-3.62205028533936,-45.0580520629883,-32.6989517211914,-18.0370502471924,-15.5509510040283,-7.63305044174194,1.41405010223389,8.31105041503906,8.46405029296875,8.52600002288818,9.10095024108887,9.65895080566406,8.50200080871582,8.36805057525635,-7.25100040435791,-7.31805038452148,6.8449501991272,15.3139505386353,24.2089519500732,12.7990503311157,0.19605000317097,-3.31605005264282,SWING_RIGHT
0.24447499215603,0.01594999991357,-0.08621250092983,-0.13007499277592,-0.34911251068115,-1.43123745918274,-3.44712495803833,-1.60352504253387,1.61259996891022,-2.89836239814758,-3.24898743629456,0.86583751440048,2.15613746643066,3.86897492408752,3.58159995079041,-0.776462495327,-0.48936250805855,-0.31721249222755,-0.19648750126362,0.11632499843836,0.99384999275208,1.9794499874115,0.32161250710487,-20.1784000396729,-27.7648239135742,-8.92691230773926,2.67657494544983,12.1697120666504,13.0355501174927,5.60216236114502,-0.02378750033677,-0.1703625023365,-0.16403749585152,-0.16266250610352,-0.31226250529289,-1.04830002784729,-2.23973751068115,-1.16050004959106,-5.58029985427856,-4.82033729553223,6.33352518081665,14.4518003463745,17.1231498718262,10.9933996200562,4.00386238098145,-3.03705024719238,-2.97300004959106,-3.03495025634766,-3.55695009231567,-5.78205013275146,-9.72900009155273,-5.88495016098022,15.5299510955811,48.7900505065918,25.7280006408691,6.15105009078979,-36.5440521240234,-21.3499507904053,-6.89805030822754,-11.1660003662109,3.5029501914978,3.54600024223328,3.54600024223328,3.36600017547607,3.01605010032654,-2.89305019378662,-3.94200015068054,21.6019515991211,10.2610502243042,-24.7309513092041,-34.9270515441895,-19.57200050354,-17.9800510406494,-10.9189500808716,-0.96105003356934,8.99295043945313,9.17805004119873,9.36900043487549,9.95595073699951,12.65505027771,14.6140508651733,7.14900016784668,-0.2790000140667,-8.96100044250488,13.4239501953125,4.23000001907349,23.0689506530762,17.3659515380859,2.54100012779236,-3.26295018196106,SWING_RIGHT
0.06737499684095,0.01856249943376,-0.06984999775887,-0.34127500653267,-1.21728754043579,-2.69032502174377,-3.55011248588562,3.83294987678528,-2.98938751220703,-7.66548728942871,0.89993751049042,0.13172499835491,3.71882486343384,6.57016229629517,4.29054975509644,-0.02488750033081,0.01457499992102,0.01264999993145,0.29686251282692,0.73988747596741,2.04215002059937,1.78034996986389,-7.97266244888306,-29.2414379119873,-21.6856746673584,-0.44178751111031,6.41588735580444,14.3101749420166,11.0181503295898,4.61285018920898,0.10449999570847,0.07658749818802,-0.01787500083447,-0.36148750782013,-1.29139995574951,-2.52628755569458,-2.9829249382019,0.7041375041008,-3.97265005111694,-2.07583737373352,10.7534627914429,16.4603996276855,14.8449125289917,7.46611261367798,3.03228759765625,-3.25305008888245,-3.28605008125305,-4.06005001068115,-6.16305017471313,-10.6009502410889,-6.16305017471313,2.13000011444092,44.6989517211914,46.1479530334473,16.2990016937256,-16.3540515899658,-37.9780502319336,-16.8160514831543,-9.27195072174072,-6.42105007171631,4.38600015640259,4.33605003356934,4.5130500793457,4.20705032348633,0.68595004081726,-6.31800031661987,8.9970006942749,14.4649505615234,-15.9250507354736,-37.0560035705566,-32.3310012817383,-10.8109502792358,-13.242000579834,-5.64300012588501,-3.20505023002625,8.46195030212402,8.62905025482178,9.55605030059814,11.953950881958,15.0379505157471,5.26905012130737,10.4449501037598,-2.70795011520386,-5.72505044937134,14.4130506515503,13.9030504226685,18.6910514831543,11.4430503845215,0.79995006322861,-1.27095007896423,SWING_RIGHT
0.0331375002861,-0.01429999992251,-0.12553749978542,-0.29741248488426,-0.43738749623299,-0.68956249952316,-1.32082498073578,-1.53229999542236,-0.70083749294281,-6.52850008010864,-6.33792495727539,-0.21889999508858,1.5749249458313,3.73931241035461,3.83803749084473,-0.07122500240803,-0.0757625028491,-0.00082499999553,0.26510000228882,0.5847874879837,0.9013124704361,1.02409994602203,-0.2910875082016,-17.8105125427246,-26.8906002044678,-10.0126123428345,2.29130005836487,10.7164745330811,12.8452501296997,8.16873741149902,0.03767500072718,-0.07837499678135,-0.24818749725819,-0.30332499742508,-0.30566251277924,-0.53006249666214,-1.14619994163513,-1.70871245861053,-4.09887504577637,-1.32302498817444,6.58707475662231,13.2384996414185,16.1596870422363,10.6163749694824,4.17298746109009,-1.87305009365082,-2.03895020484924,-2.33100008964539,-2.88195013999939,-3.88995027542114,-4.09800004959106,-5.72205018997192,12.5050506591797,62.8060531616211,30.6190509796143,4.06995010375977,-41.3650512695313,-28.3500022888184,-9.13005065917969,-7.19505023956299,4.77405023574829,4.77195024490356,4.46100044250488,4.70295000076294,4.2810001373291,2.84205007553101,-0.00300000002608,22.2940502166748,-8.2369499206543,-30.2449512481689,-39.9589500427246,-31.5040512084961,-18.010950088501,-12.7369508743286,-3.44895005226135,8.99805068969727,9.13695049285889,9.6109504699707,9.71895027160645,10.8660001754761,9.71205043792725,9.23295021057129,12.5359506607056,5.92800045013428,10.8349504470825,9.03404998779297,27.8299522399902,9.96105003356934,0.02895000204444,-3.7300500869751,SWING_RIGHT
-0.04289999976754,0.02612499892712,0.03286249935627,-0.21738749742508,-0.65931248664856,-1.23199999332428,-2.05713748931885,-1.95951247215271,2.41890001296997,-1.79313743114471,-5.4759373664856,-1.74349999427795,-0.96346247196198,3.88561248779297,6.34796237945557,0.01608750037849,0.04344999790192,0.09872499853373,0.2268749922514,0.56677502393723,1.3972749710083,2.60507488250732,1.99773752689362,-12.7286500930786,-24.8236999511719,-13.1583375930786,-1.34901249408722,7.79501247406006,15.0126628875732,9.68962478637695,-0.04221250116825,-0.01498750038445,-0.03217500075698,-0.19799999892712,-0.47107499837875,-0.82142502069473,-1.47551250457764,-2.19353747367859,-4.87904977798462,-5.10826253890991,2.89176249504089,10.7868747711182,16.3554878234863,14.7981624603271,6.96327495574951,-0.69000005722046,-0.81900006532669,-1.02795004844666,-1.68900012969971,-3.6910502910614,-5.32695007324219,-4.98195028305054,4.49595022201538,51.4819526672363,39.9690017700195,13.2499504089355,-21.4980010986328,-37.5730514526367,-13.1560506820679,-6.86895036697388,4.33605003356934,4.36695003509521,4.36005020141602,3.8689501285553,3.61305022239685,1.1910001039505,-1.48995006084442,11.4919509887695,12.5700006484985,-18.6960010528564,-33.6670532226563,-28.9540519714355,-13.4940004348755,-12.118950843811,-2.71095013618469,9.1830005645752,9.06494998931885,10.0140008926392,10.2630004882813,11.6230506896973,10.9759502410889,7.78095054626465,17.556001663208,4.49505043029785,-4.24500036239624,7.35000038146973,17.1360015869141,19.2319507598877,6.83505010604858,-1.77795004844666,SWING_RIGHT
-0.42294999957085,-1.6637499332428,-3.46582508087158,-2.69225001335144,1.7294750213623,0.27981248497963,-3.49346256256104,-2.34891247749329,-2.04943752288818,1.43522500991821,3.72322487831116,4.0613374710083,3.44932508468628,4.6793999671936,3.26177501678467,0.41112500429153,1.05104994773865,1.85130000114441,-1.00100004673004,-10.9929876327515,-18.6518745422363,-15.0572128295898,-5.60436248779297,3.45578742027283,13.3139877319336,13.1679620742798,6.64317512512207,6.22723770141602,6.72760009765625,0.13131250441074,-0.59358751773834,-1.81898748874664,-3.47943758964539,-3.74976253509521,-5.76894998550415,-7.48357486724854,-1.94273746013641,5.52268743515015,11.8945751190186,14.5807752609253,9.75438785552979,5.02768754959106,1.53999996185303,3.23303747177124,5.48748731613159,-7.15905046463013,-6.9529504776001,-7.12305021286011,11.3800506591797,43.582950592041,40.0189514160156,24.6790504455566,15.4009504318237,-46.0690536499023,-26.2069511413574,-5.80395030975342,-13.3020009994507,-11.6380500793457,-8.41394996643066,-6.23505020141602,2.82000017166138,-2.11500000953674,-5.41095018386841,5.06400012969971,11.1139507293701,-10.8450002670288,-19.2469501495361,-41.9509506225586,-25.8259506225586,-15.2470502853394,-9.48900032043457,3.6820502281189,-0.6400500535965,-1.21200001239777,0.06300000101328,10.9570503234863,6.89295053482056,12.2629508972168,30.6970520019531,2.89305019378662,-6.59700012207031,9.10395050048828,5.1060004234314,24.4939517974854,18.7050018310547,1.33905005455017,-5.28705024719238,4.02405023574829,6.37605047225952,6.3400502204895,SWING_RIGHT
-0.50462502241135,-0.95273751020432,-2.3706374168396,-4.50408744812012,1.56694996356964,-2.91472506523132,-7.47230005264282,-0.25712499022484,-0.94050002098083,0.78952497243881,4.0181622505188,6.46153736114502,4.39257478713989,2.77131247520447,2.93851256370544,-0.2041874974966,0.58341246843338,1.35973751544952,0.94366252422333,-9.08998775482178,-23.7936878204346,-16.9699745178223,-2.65704989433289,2.85257506370544,11.2800874710083,12.902587890625,8.75943756103516,4.95852518081665,0.84356248378754,-4.19113731384277,-0.48839998245239,-1.12419998645782,-2.44736242294312,-3.80655002593994,-3.29436254501343,-8.140549659729,-5.28550004959106,6.66201257705688,12.7325000762939,14.4390125274658,9.82781219482422,5.78146266937256,2.23189997673035,2.12822508811951,4.61422491073608,-6.42405033111572,-7.10895013809204,-4.60395002365112,1.53105008602142,51.3619537353516,50.7949523925781,26.6670017242432,13.8829507827759,-45.7570533752441,-31.3579521179199,-8.21505069732666,-9.66900062561035,-7.12995052337646,-7.41105031967163,-6.53205013275146,3.17205023765564,0.05100000277162,-5.57100009918213,1.9939501285553,4.03005027770996,-9.06494998931885,-32.6970024108887,-54.7360534667969,-30.5610008239746,-13.2139501571655,-8.95005035400391,1.3660501241684,-1.42095005512238,-0.99900007247925,0.20895001292229,10.0999507904053,8.83995056152344,6.93405055999756,11.1420001983643,4.55805015563965,-4.47000026702881,4.00005006790161,7.84095048904419,23.1670513153076,11.2210502624512,0.16305001080036,-0.63795000314713,6.4549503326416,7.40505027770996,8.30805015563965,SWING_RIGHT
-0.00123749999329,0.05678749829531,0.11481250077486,-0.18754999339581,-0.9649749994278,-2.45355010032654,-3.67400002479553,-3.27469992637634,-0.59661251306534,0.47451248764992,-0.40136250853539,-2.19958758354187,-4.84866237640381,-1.75133752822876,3.31608748435974,-0.46461248397827,-0.68255001306534,-0.65986251831055,0.03712499886751,2.11048746109009,4.13159990310669,5.09368753433228,2.94882488250732,-17.0828628540039,-23.0143375396729,-7.21228742599487,-0.7625749707222,5.77898740768433,13.0388498306274,12.0401878356934,-0.0844250023365,-0.08951249718666,-0.07039999961853,-0.23581250011921,-0.63690000772476,-1.82448744773865,-3.38566255569458,-4.43836259841919,-6.75675010681152,-4.61422491073608,1.38545000553131,6.69061231613159,12.3454370498657,12.6491746902466,9.46742534637451,0.19695000350475,0.61905002593994,-0.36405003070831,-2.40495014190674,-6.06195020675659,-7.32000017166138,-5.17605018615723,9.925950050354,67.9810562133789,43.4590530395508,27.6559505462646,3.67500019073486,-42.1290016174316,-24.0180015563965,-9.71895027160645,5.49495029449463,5.72805023193359,5.40000009536743,4.55895042419434,2.73600006103516,-0.51794999837875,-3.36495018005371,5.62005043029785,-2.38095021247864,-9.98805046081543,-33.9859504699707,-66.0430526733398,-20.5039501190186,-14.121000289917,-7.5949501991272,8.6650505065918,8.34195041656494,8.87400054931641,9.1830005645752,10.0570507049561,6.59400033950806,3.46800017356873,18.5040016174316,17.6779499053955,3.92805027961731,6.39705038070679,11.3500509262085,18.0580501556396,10.9960508346558,0.51300001144409,SWING_RIGHT
-0.00288749998435,0.06833750009537,0.07383749634027,-0.63208746910095,-1.73497498035431,-2.06841254234314,-0.27183750271797,-5.11156225204468,-5.37446260452271,0.50971251726151,1.300612449646,3.88753747940063,4.33331251144409,3.51230001449585,3.84697508811951,-0.21779999136925,-0.16912500560284,0.34127500653267,1.32054996490479,1.5916999578476,-0.68860000371933,-15.0875997543335,-26.3720874786377,-15.1864624023438,-0.99123752117157,6.80776262283325,10.5730628967285,9.21772480010986,7.80051231384277,4.92497491836548,-0.08689999580383,0.02557500079274,-0.13089999556541,-1.29263746738434,-2.77557492256165,-3.58627486228943,-9.8382625579834,-12.2253999710083,-0.04221250116825,10.5677003860474,14.8726873397827,14.8376245498657,8.89748764038086,4.01087474822998,3.61391258239746,-1.92795014381409,-2.54205012321472,-4.81005001068115,-4.51005029678345,-3.70500016212463,6.3120002746582,46.5310516357422,49.7700004577637,17.1130504608154,-18.328950881958,-30.5059509277344,-14.6509504318237,-8.29200077056885,-7.29300022125244,-5.6569504737854,5.24100017547607,5.22900009155273,4.16805028915405,1.23495006561279,0.3649500310421,7.14495038986206,13.6909503936768,-9.23295021057129,-47.5890007019043,-24.1249504089355,-14.2909507751465,-10.8330001831055,-1.34595000743866,2.98995018005371,0.41100001335144,8.33700084686279,8.33895015716553,8.28404998779297,7.39305019378662,8.19795036315918,14.4780006408691,4.71300029754639,-11.0689506530762,24.844051361084,20.3070011138916,12.0160503387451,5.87295007705688,-0.52799999713898,1.95900011062622,5.91600036621094,SWING_RIGHT
-0.30992498993874,-0.41208750009537,-1.11732494831085,-2.45987486839294,-0.47602498531342,-3.28047490119934,-3.84092497825623,0.94888746738434,-0.18411250412464,2.21196246147156,4.19787502288818,3.68472504615784,2.08999991416931,3.11396241188049,2.58032488822937,0.39682498574257,0.33123749494553,0.36767500638962,1.83315002918243,-1.51786243915558,-25.704662322998,-27.146900177002,-4.44991254806519,3.67138743400574,10.5393753051758,10.059775352478,5.35177516937256,4.27446269989014,2.0326623916626,-5.07237482070923,-0.86624997854233,-1.16806244850159,-2.52532505989075,-4.35654973983765,-3.81411242485046,-13.2067375183105,-8.91261291503906,7.97389984130859,14.2118625640869,17.8068008422852,12.6607246398926,6.93165016174316,2.47183752059937,4.38418769836426,5.32317495346069,-2.57505011558533,-4.15095043182373,-6.66795015335083,-5.5570502281189,35.1289520263672,45.0799522399902,31.0909519195557,8.64900016784668,-48.8520011901855,-19.873950958252,-4.89600038528442,-9.36705017089844,-7.92795038223267,-7.02495050430298,-5.83005046844482,5.52405023574829,5.09100008010864,1.84095013141632,-2.86500024795532,19.9300518035889,4.65900039672852,-27.4399509429932,-48.3820533752441,-12.7150506973267,-14.3110504150391,-5.64300012588501,2.800950050354,0.0,0.22605000436306,1.54605007171631,8.93295001983643,10.3969507217407,10.6480503082275,8.72294998168945,4.02795028686523,-12.5419502258301,8.40195083618164,6.30405044555664,23.9190006256104,15.6130504608154,-2.21205019950867,-0.89205002784729,8.0710506439209,8.11395072937012,6.75900030136108,SWING_RIGHT
-0.33522498607635,-0.77109998464584,-0.92812502384186,-0.94723749160767,-0.25863748788834,-0.21353749930859,-2.62418746948242,-2.16576242446899,-2.34135007858276,-4.67266225814819,-0.55907499790192,2.69046258926392,3.23303747177124,3.89743757247925,3.19646239280701,-1.25798749923706,-1.06865000724792,-0.58066248893738,-0.84053748846054,-3.36737489700317,-13.4750003814697,-20.5653247833252,-13.3050498962402,-2.16163754463196,6.15807485580444,9.37296199798584,8.05626201629639,6.67672491073608,5.66142511367798,1.40978753566742,-0.61957502365112,-1.68533754348755,-2.17140007019043,-2.72744989395142,-4.53598737716675,-12.7573871612549,-10.1131248474121,3.29216241836548,8.65040016174316,11.5117750167847,13.9341125488281,11.6993246078491,6.81367492675781,4.23733758926392,5.01008749008179,-2.80695009231567,-2.85300016403198,-2.35005021095276,-1.80900013446808,7.54305028915405,34.7530517578125,48.5479507446289,30.3150005340576,-6.86205053329468,-31.6480522155762,-24.2520008087158,-11.695050239563,-8.92905044555664,-6.48105049133301,-7.6360502243042,4.75305032730103,3.91500020027161,3.08595013618469,2.6050500869751,7.56495046615601,9.33000087738037,-6.56700038909912,-35.0989532470703,-43.0600509643555,-21.8910007476807,-10.5499505996704,-4.89105033874512,2.41995000839233,0.68595004081726,0.64800000190735,8.95995044708252,8.77500057220459,8.13105010986328,10.2289505004883,10.9399509429932,14.9040002822876,-0.00900000054389,6.07395029067993,28.6470012664795,30.0340518951416,5.91795015335083,0.70395004749298,0.05505000427365,5.47305011749268,5.61405038833618,SWING_RIGHT
0.08855000138283,-0.17008750140667,-0.2413125038147,-0.12663750350475,-0.13928750157356,-1.1308000087738,-2.99612498283386,-1.62428748607636,0.67746251821518,-0.8232125043869,-0.9978374838829,-1.27077496051788,-1.77471244335175,3.05717492103577,4.44894981384277,0.08937499672174,-0.32766249775887,-0.40356248617172,0.10037499666214,0.97171247005463,2.00062489509583,1.82311248779297,-3.03036236763,-16.7000617980957,-19.2979869842529,-9.22927474975586,-2.09618759155273,6.29997491836548,9.15653705596924,6.81436252593994,0.29081249237061,0.08263749629259,-0.1409374922514,-0.27059999108315,-0.83792501688004,-3.39308738708496,-6.62626266479492,-7.02680015563965,-18.5121746063232,-16.8927001953125,0.23196250200272,7.14161252975464,13.0699253082275,14.9399251937866,12.1776876449585,-4.81905031204224,-4.71900033950806,-5.77500009536743,-6.36195039749146,-10.873950958252,-10.9840507507324,-3.74595022201538,27.2830505371094,49.642951965332,31.8430519104004,29.9910011291504,-1.48095011711121,-37.8940505981445,-15.1110010147095,-7.14495038986206,4.49400043487549,4.50600004196167,4.71900033950806,4.77705001831055,1.74495005607605,-6.39495038986206,-6.52005052566528,6.93195009231567,7.07805013656616,-13.8820505142212,-27.949951171875,-41.8459510803223,-7.36695051193237,-10.1740503311157,-2.88600015640259,8.01600074768066,7.67595052719116,7.93995046615601,7.77705049514771,9.18705081939697,6.68895053863525,12.961950302124,19.7850017547607,1.53795003890991,-9.12195014953613,14.8060503005981,16.1569499969482,23.0809516906738,13.6320009231567,0.2710500061512,SWING_RIGHT
-0.08415000140667,-0.09941250085831,-0.13131250441074,-0.15427500009537,-0.20184999704361,-0.32766249775887,-0.50311249494553,0.49582499265671,0.70881247520447,1.0399124622345,1.18002498149872,-1.18882501125336,0.2549250125885,2.58238744735718,1.97023749351501,-0.14217500388622,-0.17049999535084,-0.12925000488758,-0.16637499630451,-0.43573749065399,-0.86418747901917,-0.90282499790192,-2.60645008087158,-21.8095626831055,-26.1908626556396,-7.13968753814697,1.74308753013611,7.78456258773804,9.19118785858154,6.61705017089844,0.80217498540878,0.60541248321533,0.44371250271797,-0.16060000658035,-1.90698754787445,-4.73000001907349,-6.31276226043701,-5.23077487945557,-17.5082874298096,-11.2304496765137,8.7198371887207,10.0667877197266,13.9657373428345,15.1967744827271,10.0392875671387,-1.57395005226135,-1.48095011711121,-1.81800007820129,-2.51805019378662,-4.05299997329712,-5.39400005340576,-2.88900017738342,9.38505077362061,49.5870018005371,41.0250015258789,13.4659509658813,-19.992000579834,-28.7689514160156,-14.7919502258301,-9.71895027160645,5.92905044555664,5.89005041122437,5.7610502243042,5.46900033950806,4.10595035552979,2.85405015945435,3.25800013542175,13.3249502182007,8.08695030212402,-18.1039505004883,-38.6940002441406,-22.0459518432617,-12.7660503387451,-8.97405052185059,-1.19505000114441,8.17199993133545,8.01600074768066,8.2369499206543,8.51399993896484,9.1200008392334,9.7669506072998,9.52305030822754,12.3510007858276,4.45500040054321,1.84395003318787,22.4700012207031,19.8139514923096,16.4970016479492,2.95800018310547,-0.41595003008842,SWING_RIGHT
-0.23045000433922,-0.18039999902248,-0.05843750014901,0.07067500054836,-0.13392500579357,1.19226253032684,1.6632000207901,2.06456255912781,1.74817502498627,-2.25390005111694,-1.88567495346069,2.01671242713928,3.37314987182617,1.64133751392365,-0.18342499434948,0.01237499993294,-0.29287499189377,-0.81152498722076,-1.3474999666214,-0.71967500448227,-2.93479990959167,-20.6772499084473,-21.949125289917,-5.52474975585938,1.01392495632172,6.28182506561279,5.60326242446899,3.59837508201599,3.60318756103516,3.24224996566772,0.98477500677109,-0.08236250281334,-2.56533741950989,-6.65816259384155,-9.93478775024414,-10.7247247695923,-23.311336517334,-16.2971878051758,5.06659984588623,9.95637512207031,14.632061958313,14.6353626251221,11.3902254104614,5.35892486572266,0.89196246862411,-2.22795009613037,-3.21900010108948,-4.80195045471191,-5.85105037689209,-3.44400024414063,18.7590007781982,49.5010528564453,34.9710006713867,24.8850002288818,-17.989049911499,-25.8349514007568,-11.7480001449585,-11.0890502929688,-7.98495054244995,-11.731050491333,5.24400043487549,4.96095037460327,3.46695017814636,-0.58905005455017,-1.22700011730194,10.3669500350952,9.19800090789795,-12.6769504547119,-49.8049507141113,-28.3840522766113,-12.4020004272461,-13.3020009994507,-3.64095020294189,-4.6230001449585,-5.03895044326782,8.57895088195801,8.95695018768311,9.40005016326904,8.49300003051758,8.23905086517334,8.27505016326904,-0.45600003004074,3.76995015144348,11.8840503692627,15.4380006790161,21.8140506744385,9.48000049591064,-2.17605018615723,4.49100017547607,8.55300045013428,SWING_RIGHT
-0.02172499895096,0.007012499962,0.30318748950958,0.19799999892712,-0.27252501249313,4.21767520904541,3.60318756103516,1.04376244544983,1.52666246891022,-3.40697503089905,-1.20669996738434,3.37658739089966,3.13197493553162,2.32815003395081,2.19188737869263,-0.06036249920726,-0.20102499425411,0.08497499674559,1.72507500648499,1.63143754005432,-7.13638734817505,-19.7458248138428,-14.9238376617432,-2.98760008811951,2.26806259155273,7.6560001373291,5.96035003662109,3.82346248626709,6.91624975204468,6.49783754348755,-0.48124998807907,-1.86284995079041,-5.59143733978271,-9.27506256103516,-10.0387372970581,-16.5648994445801,-22.1608753204346,-9.17757511138916,4.76657485961914,10.4447746276855,14.4769620895386,14.1131372451782,11.374137878418,6.26106262207031,4.44853734970093,-3.61395025253296,-6.96300029754639,-11.0850009918213,-6.08100032806396,3.30900025367737,39.9210014343262,45.4129524230957,27.0049514770508,23.8189506530762,-23.428050994873,-29.4640522003174,-13.8919506072998,-7.60200023651123,-3.88995027542114,-6.36195039749146,5.00700044631958,3.85500025749207,-1.40400004386902,-5.76300048828125,0.30105000734329,11.9190006256104,4.07505035400391,-18.0130500793457,-46.1359519958496,-26.3719520568848,-11.6299505233765,-7.5400505065918,3.02100014686584,0.77205002307892,-0.51794999837875,8.68395042419434,9.70005035400391,7.89405059814453,5.0460000038147,9.95100021362305,16.1809501647949,-1.81005012989044,0.25605002045631,17.8429508209229,27.2820014953613,24.0840015411377,1.32195007801056,-5.20605039596558,4.59105014801025,10.5379505157471,SWING_RIGHT
-0.15936249494553,-0.23581250011921,-0.49871250987053,-0.68585002422333,2.02441239356995,1.93599998950958,0.72902500629425,1.63322496414185,-1.43838751316071,-2.79097509384155,1.09724998474121,2.62927508354187,1.58908748626709,1.59609997272491,1.85074996948242,0.21023750305176,0.61187499761581,1.08253753185272,-0.50352501869202,-5.67352485656738,-16.2127628326416,-18.7433128356934,-9.64246273040771,-2.03087496757507,4.71597480773926,5.58813762664795,3.76846241950989,5.34380006790161,5.36827516555786,0.43766251206398,-1.49503743648529,-3.66423749923706,-5.62003755569458,-7.09376239776611,-8.74857521057129,-25.3529376983643,-19.6417369842529,3.35885000228882,8.0379753112793,12.7985000610352,15.0746746063232,13.871000289917,8.81498718261719,4.03480005264282,3.12853741645813,-5.95005035400391,-7.5949501991272,-4.4239501953125,0.95700001716614,10.9249505996704,41.7370529174805,42.355052947998,32.6550025939941,-4.94595003128052,-23.0689506530762,-20.7559509277344,-14.5549507141113,-9.44204998016357,-7.61400032043457,-10.8310508728027,2.96400022506714,0.73605000972748,-2.42895007133484,1.00005006790161,4.18305015563965,8.55600070953369,-5.18295001983643,-31.5499515533447,-44.707950592041,-16.6429500579834,-12.5449504852295,-5.34405040740967,0.52095001935959,-3.07800006866455,-1.29795002937317,7.85595035552979,7.41300058364868,7.68795013427734,10.0620002746582,11.8909502029419,3.32205009460449,0.58395004272461,1.7700001001358,26.4790515899658,21.5170516967773,5.60700035095215,0.24000000953674,1.5090000629425,6.94305038452148,7.34805011749268,SWING_RIGHT
-0.16335000097752,-0.17833749949932,-0.22728750109673,-0.29837501049042,1.33319997787476,3.66354990005493,3.86856245994568,2.16149997711182,-1.71641254425049,-2.14582490921021,1.31642496585846,1.15252494812012,-0.02007500082254,1.04747498035431,2.49576258659363,0.1395625025034,-0.18095000088215,-0.04702499881387,0.74360001087189,-1.79836249351501,-17.4288120269775,-21.3490753173828,-8.69659996032715,-0.90543746948242,5.57342481613159,4.24613761901855,1.64573752880096,4.02613735198975,3.94790005683899,-1.05764997005463,0.03588749840856,-2.84226250648499,-7.13446235656738,-8.57890033721924,-6.70463752746582,-24.5887126922607,-19.321361541748,5.33101224899292,9.06455039978027,13.7746124267578,15.4350624084473,14.0922374725342,8.80673789978027,3.50872492790222,2.58279991149902,-3.10905003547668,-5.75595045089722,-6.78795051574707,-4.16505002975464,14.5890007019043,42.235050201416,33.9029998779297,27.7230014801025,-10.1650505065918,-21.1750507354736,-15.4819507598877,-15.6610507965088,-5.77995014190674,-7.60905027389526,-8.80695056915283,3.48600006103516,1.32795011997223,-0.12705001235008,-0.93705004453659,10.498950958252,9.49695014953613,-7.07295036315918,-34.2109527587891,-35.9260520935059,-16.2600002288818,-11.8530006408691,-1.62195003032684,-3.18795013427734,-2.84100008010864,-0.86700004339218,8.44694995880127,8.4330005645752,9.50295066833496,10.1430006027222,12.2550001144409,2.81895017623901,1.99500012397766,7.89600038528442,24.7530002593994,21.6289501190186,4.73505020141602,-0.61905002593994,4.2180004119873,7.30005025863647,7.63500022888184,SWING_RIGHT
-0.41676250100136,-0.62823748588562,-0.86721247434616,-0.99206250905991,-0.71087497472763,-0.30222499370575,4.06601238250732,5.37693738937378,-1.48761248588562,-5.91552495956421,0.17091250419617,2.8003249168396,-0.57227498292923,-0.52029997110367,0.48344999551773,0.20033749938011,0.0937749966979,-0.24241249263287,-0.98312497138977,-1.50837504863739,1.01777493953705,-6.98211240768433,-12.7023878097534,-3.50611257553101,3.51106238365173,3.87956237792969,-0.2894375026226,0.59936249256134,5.21248769760132,3.39171242713928,0.174212500453,-1.91977500915527,-4.95962476730347,-6.75097513198853,-3.75814986228943,22.2487373352051,30.6264743804932,11.3367376327515,6.64729976654053,8.96266269683838,14.1906871795654,16.8904991149902,13.2793378829956,6.22201251983643,1.7331874370575,-1.88505005836487,-3.25800013542175,-3.86805009841919,-2.01900005340576,2.64495015144348,29.7469520568848,45.0300025939941,34.1440505981445,24.6220512390137,-21.7180519104004,-30.5509510040283,-14.0860509872437,-12.445050239563,-7.3410005569458,-11.5009508132935,4.19505023956299,3.08595013618469,2.08004999160767,2.50905013084412,3.99795007705688,9.13800048828125,-2.75205016136169,-17.5030517578125,-44.7700538635254,-28.6729507446289,-18.4990501403809,-13.1149501800537,-2.72295022010803,-4.9699501991272,-3.68400025367737,9.16095066070557,10.2580509185791,13.3450508117676,11.3719501495361,10.243950843811,8.778000831604,-2.5639500617981,0.4909500181675,22.7670001983643,25.9860019683838,13.5150003433228,2.64195013046265,-2.27700018882751,5.61900043487549,7.83405017852783,SWING_RIGHT
-0.14616249501705,-0.14753749966621,-0.20253749191761,-0.59441250562668,-0.9814749956131,-1.07098746299744,-0.66673749685287,2.69981241226196,6.63313722610474,4.46283769607544,-1.55017495155334,-2.54691243171692,4.44729995727539,5.64822483062744,-0.03024999983609,0.31666249036789,0.28916248679161,0.30841249227524,0.42858749628067,0.54477500915527,0.18713749945164,-0.57969999313354,-2.48118758201599,-6.46194982528687,-7.74125003814697,-4.17408752441406,1.02712500095367,2.94593739509583,-0.21986250579357,0.92358750104904,0.25464999675751,0.25698751211166,0.11948750168085,-0.262212485075,-1.363450050354,-1.23420000076294,3.02183747291565,9.37832450866699,12.4229869842529,10.1254997253418,8.53531265258789,10.1443376541138,15.2028245925903,18.6785507202148,12.6630620956421,-0.3570000231266,-0.48405003547668,-0.95400005578995,-2.56500005722046,-1.93800008296967,1.87395012378693,5.62200021743774,17.1709499359131,42.7500038146973,36.7770004272461,15.3409509658813,-17.8429508209229,-19.006950378418,-14.4450006484985,-13.1539506912231,4.81500005722046,4.71195030212402,4.49700021743774,4.46295022964478,4.25205039978027,2.59500002861023,5.19600009918213,13.4560508728027,-1.60005009174347,-20.8510513305664,-32.5030517578125,-20.7409515380859,-20.7870006561279,-12.9070510864258,-3.90900015830994,8.80200004577637,8.78505039215088,9.64695072174072,11.3089504241943,12.2629508972168,8.20800018310547,6.53400039672852,10.5120000839233,-1.59600007534027,-1.04595005512238,16.4920501708984,31.0279521942139,21.1290016174316,-0.18795001506805,1.5330001115799,SWING_RIGHT
0.39599999785423,0.29425001144409,-0.04991250112653,-0.60939997434616,-1.1533499956131,-1.88319993019104,1.32728743553162,2.60878753662109,-1.39108753204346,-0.93692499399185,3.32117509841919,2.39992499351501,-0.26276248693466,-0.71266251802444,-0.73259997367859,-0.21518750488758,0.07823749631643,0.51094996929169,1.01667499542236,1.36564993858337,0.75941246747971,-6.99586248397827,-11.8237628936768,-5.18209981918335,-0.03437500074506,-2.13647508621216,-3.02953743934631,1.61699998378754,4.44661235809326,4.21299982070923,2.67698740959167,1.20216250419617,-0.39668750762939,-2.1513249874115,-4.24118757247925,0.26276248693466,14.7764377593994,15.3797874450684,7.17818737030029,11.181224822998,17.9599742889404,16.0747127532959,8.60653781890869,2.16562509536743,0.52373749017715,1.27305006980896,0.6810000538826,-0.50805002450943,-3.36495018005371,-1.6429500579834,24.4830017089844,49.7839508056641,32.8650016784668,12.4909505844116,-25.8859519958496,-20.7769508361816,-10.4569501876831,-10.3470001220703,-7.7989501953125,-12.4210510253906,5.07405042648315,4.87695026397705,4.76505041122437,3.8449501991272,1.99905014038086,8.05605030059814,-0.69195002317429,-21.5940017700195,-49.0980033874512,-32.8000526428223,-22.3960514068604,-16.0710010528564,-5.40795040130615,-8.34899997711182,-4.60605001449585,8.73705005645752,8.8279504776001,9.34995079040527,9.89895057678223,10.4419507980347,15.6300010681152,12.2890510559082,9.80295085906982,14.3890504837036,27.2670021057129,13.4220008850098,1.06305003166199,0.2490000128746,2.85000014305115,4.11705017089844,SWING_RIGHT
-0.07507500052452,-0.09941250085831,-0.15276250243187,-0.17902499437332,-0.45677500963211,-0.77893751859665,-1.02588748931885,-1.07222497463226,4.20378732681274,5.918137550354,0.0662750005722,-0.71623748540878,4.20090007781982,3.58916258811951,0.27238750457764,0.24186250567436,0.20845000445843,0.09748750180006,0.17311249673367,0.34457498788834,0.42006251215935,-0.61462497711182,-3.22189998626709,-9.36209964752197,-11.245849609375,-4.83367490768433,1.17548751831055,-2.53838753700256,-5.36882495880127,1.57368743419647,0.07342500239611,-0.02419999986887,0.10147500038147,-0.08428750187159,-1.19611251354218,-2.79248738288879,-1.74171245098114,7.66919994354248,21.5316753387451,17.6802997589111,7.99067497253418,11.6478996276855,19.9111003875732,20.6962242126465,11.0258502960205,-3.52305006980896,-3.307950258255,-3.66195011138916,-4.47705030441284,-4.8139500617981,-3.45195007324219,-0.36705002188683,32.6310005187988,46.6129531860352,34.0630531311035,-5.20005035400391,-18.9190502166748,-21.2299518585205,-17.3119506835938,-6.28305006027222,4.46295022964478,4.44105005264282,4.40100002288818,3.26295018196106,1.66095006465912,1.3950001001358,4.94400024414063,8.36505031585693,-0.70005005598068,-27.3970508575439,-30.3000011444092,-21.8070011138916,-10.7629508972168,-3.37005019187927,-5.12805032730103,8.47395038604736,8.38500022888184,8.54100036621094,8.53800010681152,7.41300058364868,8.65799999237061,10.7179508209229,17.8690509796143,1.11900007724762,-4.99695014953613,29.9500522613525,23.4139518737793,10.2600002288818,0.28305000066757,3.09405016899109,SWING_RIGHT
-0.35007500648499,-0.81028747558594,-1.7714124917984,-2.69335007667542,-0.41428750753403,8.08073711395264,9.46962451934814,3.95752501487732,5.18938732147217,7.35020017623901,3.25421237945557,-0.93293750286102,-2.11969995498657,-0.12746250629425,3.77162504196167,-0.23691250383854,0.02268750034273,0.08841250091791,-1.65838754177094,-4.9576997756958,-11.5728244781494,-11.6697626113892,-3.61721253395081,2.50607490539551,3.31223750114441,1.46630001068115,3.019362449646,4.59112501144409,3.50308752059937,-2.37256240844727,1.10220003128052,-0.41139999032021,-2.68331241607666,-0.83765000104904,11.9626379013062,20.4184741973877,12.8125247955322,8.05749988555908,13.3867244720459,18.1130123138428,14.4720125198364,6.95804977416992,0.9784500002861,1.43467497825623,2.6389000415802,-3.45195007324219,-6.75000047683716,-2.91795015335083,7.50705051422119,36.8479499816895,40.8409538269043,23.2180519104004,2.54700016975403,-29.7490520477295,-15.8119506835938,-15.8509511947632,-3.05400013923645,-14.5840511322021,-9.36495018005371,-3.01800012588501,4.40295028686523,3.34905004501343,1.63695013523102,5.30805015563965,11.1949501037598,-3.76995015144348,-25.488000869751,-33.0780029296875,-19.3830013275146,-19.9170017242432,-7.47495031356812,-8.86695003509521,-6.21495008468628,-3.3840000629425,-1.24305009841919,8.84505081176758,11.5489501953125,14.7919502258301,14.1670503616333,-3.28500008583069,-13.488000869751,13.1850004196167,13.3399505615234,27.3150005340576,15.1320009231567,-3.01395010948181,2.32605004310608,5.37900018692017,8.11905002593994,8.42100048065186,SWING_RIGHT
-0.2255000025034,-0.3286249935627,-0.75996249914169,-1.46478748321533,-2.41958737373352,-3.13596248626709,1.95621252059937,6.3518123626709,1.95002496242523,-3.6565375328064,0.57488751411438,3.02114987373352,-0.45649999380112,-0.1907124966383,0.25877499580383,0.21793749928474,0.39105001091957,0.53583747148514,0.5348749756813,0.47286251187325,-1.73057496547699,-12.3506622314453,-15.6634502410889,-5.9710750579834,2.86934995651245,3.67496252059937,-2.12272500991821,-1.06617498397827,2.74312496185303,2.74917507171631,1.2971750497818,0.76601248979568,-0.21958750486374,-1.3087249994278,-2.98594999313354,11.2707376480103,22.3620376586914,11.2437877655029,5.23366260528564,10.4971628189087,17.3405380249023,17.3210124969482,13.7328128814697,6.35882472991943,1.56145000457764,-1.22895002365112,-2.25195002555847,-1.90200006961823,-4.19204998016357,-1.03305006027222,39.2220001220703,44.8189506530762,27.901050567627,27.0340518951416,-35.9880027770996,-28.6069507598877,-12.0190505981445,-15.8580007553101,-5.6380500793457,-8.27505016326904,4.67400026321411,3.87405014038086,3.21300005912781,0.46800002455711,1.35000002384186,4.44600009918213,-0.60405004024506,-13.4440507888794,-50.5060539245605,-32.9869499206543,-14.3989505767822,-13.4239501953125,2.6140501499176,-3.31305027008057,-1.95900011062622,9.04800033569336,9.84405040740967,9.50295066833496,12.3060007095337,15.35205078125,11.6689500808716,-10.6140003204346,-2.31300020217896,22.9750518798828,21.7320003509521,18.5179500579834,4.66800022125244,-4.31205034255981,5.96595048904419,8.60295009613037,SWING_RIGHT
-0.71238750219345,-1.00457501411438,-1.19693744182587,-1.0781375169754,-1.05077505111694,-3.86842489242554,0.06063750013709,6.37711238861084,0.64294999837875,-7.9547872543335,-4.69974994659424,-2.13963747024536,-3.65007495880127,0.38871249556541,2.01616239547729,0.21587499976158,0.54408746957779,0.89003747701645,1.09711253643036,0.47396248579025,-2.6195125579834,-12.1893749237061,-13.6415128707886,-4.73742485046387,3.75814986228943,2.39387488365173,-9.1690502166748,-7.13116264343262,-1.62016248703003,-1.51139998435974,0.56086248159409,-0.18383750319481,-1.39094996452332,-2.55763745307922,-2.37008738517761,10.6045503616333,26.1350364685059,17.5767631530762,6.25968742370605,9.64507484436035,17.3245868682861,21.9843254089355,17.4015865325928,6.61883735656738,0.51700001955032,-4.00995016098022,-5.28405046463013,-5.11395025253296,-4.47705030441284,-1.27005004882813,29.4720020294189,45.5929527282715,31.9789524078369,7.30605030059814,-35.0850028991699,-17.0100002288818,-18.2860507965088,-9.175950050354,-11.0629501342773,-6.3139500617981,4.37400007247925,3.37995004653931,1.52205002307892,1.11000001430511,2.17605018615723,1.97505009174347,2.91600012779236,-16.7610015869141,-46.6669540405273,-13.4389505386353,-10.6960506439209,3.33495020866394,-5.25300025939941,-1.93995010852814,0.51105004549026,9.49605083465576,9.19200038909912,8.02305030822754,6.53400039672852,11.0989503860474,13.9320011138916,3.37200021743774,4.65795040130615,15.9820508956909,4.4089503288269,14.3340005874634,1.81095004081726,9.05805015563965,6.36600017547607,5.02695035934448,SWING_RIGHT
-0.47726249694824,-0.85016250610352,-2.12822508811951,-3.40986251831055,-3.08646249771118,2.44983744621277,10.5604124069214,11.5623750686646,5.17288732528687,-13.09068775177,-9.45944976806641,4.7546124458313,2.48283743858337,2.21608757972717,3.92534995079041,-0.29658749699593,-0.16719999909401,0.3060750067234,0.95424997806549,-0.39008748531342,-9.89628791809082,-16.656063079834,-10.8471002578735,-3.84463739395142,10.9366121292114,-4.7234001159668,-16.8210620880127,3.24554991722107,5.39481258392334,3.18669986724854,0.81647497415543,0.52882498502731,-0.99646252393723,-3.8226375579834,-4.89128732681274,20.5683498382568,28.5770378112793,8.69013786315918,6.40571260452271,8.12102508544922,22.3786754608154,24.325813293457,11.6494121551514,5.6171498298645,3.94459986686707,-2.28299999237061,-4.05795001983643,-5.2219500541687,-4.74300003051758,8.99895000457764,47.521053314209,41.4370536804199,25.5750007629395,18.9460506439209,-44.4210014343262,-22.068000793457,-10.4329500198364,-11.7049503326416,-5.45895004272461,-9.06105041503906,4.07505035400391,2.64495015144348,-0.89400005340576,-2.9650502204895,2.76705002784729,6.82695055007935,-6.46695041656494,-16.336950302124,-46.7890510559082,-19.4170513153076,-12.8590507507324,-7.29105043411255,4.94700002670288,-0.96105003356934,-0.17805001139641,8.32500076293945,10.417950630188,9.88905048370361,11.0790004730225,12.4690504074097,10.7779502868652,-0.51900005340576,0.48900002241135,20.9659519195557,24.6280517578125,20.2480506896973,-1.83795011043549,0.52005004882813,6.01605033874512,5.37405014038086,SWING_RIGHT
-0.57901251316071,-0.51906251907349,-0.6678375005722,-1.22113752365112,-2.07377505302429,-3.11299991607666,-3.28900003433228,2.75646257400513,15.7235374450684,18.8297996520996,6.89809989929199,-0.7870500087738,2.11928749084473,3.96989989280701,2.80623745918274,-0.76601248979568,-1.29085004329681,-1.26912498474121,-0.66398751735687,0.42899999022484,0.20363749563694,-2.37104988098145,-6.80130004882813,-8.66868782043457,-5.90149974822998,-0.90144997835159,1.44526255130768,4.18481254577637,6.5503625869751,4.08031225204468,0.80712497234344,1.15555000305176,1.22210001945496,1.03358745574951,0.49788749217987,0.3603875041008,2.62088751792908,14.3192501068115,22.1280117034912,14.9956121444702,9.51898765563965,10.8483371734619,12.3397998809814,10.1976871490479,6.58790016174316,-2.88195013999939,-2.5489501953125,-2.77395009994507,-3.6820502281189,-2.76195001602173,0.29595002532005,9.66300010681152,36.3240013122559,47.8200035095215,24.4570503234863,11.6620502471924,-35.1190528869629,-22.4080505371094,-4.963050365448,-13.3429508209229,4.71195030212402,4.82505035400391,4.40805006027222,2.80605006217957,1.3330500125885,-0.29700002074242,4.85100030899048,12.3829507827759,-4.80195045471191,-30.0100517272949,-37.4440536499023,-22.5010509490967,-12.7900505065918,-10.2559509277344,3.8689501285553,7.87995052337646,8.74905014038086,9.49395084381104,9.94695091247559,9.8700008392334,11.6400003433228,7.44900035858154,11.56605052948,-5.55495023727417,10.6990509033203,7.42905044555664,21.3900012969971,20.5759506225586,1.32405006885529,-3.75705027580261,SWING_RIGHT
-0.5543999671936,-1.01062500476837,-1.87440001964569,-3.40051245689392,-4.98327493667603,-5.35260009765625,5.32083749771118,17.510763168335,6.91459989547729,-19.1730003356934,-20.5024871826172,-2.10649991035461,3.45565009117126,2.81489992141724,1.75890004634857,0.7294374704361,1.12144994735718,1.40799999237061,1.294837474823,-1.25276243686676,-10.4405126571655,-21.6510257720947,-17.5892753601074,-4.84398746490479,8.09613704681396,31.3839626312256,28.5124130249023,9.64782524108887,5.63103723526001,2.86439990997314,0.3422375023365,-0.03107500076294,-0.75446248054504,-2.1261625289917,-2.6281750202179,4.97296237945557,16.3795490264893,15.1397123336792,6.82811260223389,4.98409986495972,-1.41569995880127,-1.64505004882813,7.00493764877319,5.57878732681274,1.79973745346069,-6.73800039291382,-7.16400051116943,-6.8860502243042,-7.42005014419556,1.49100005626678,36.8119506835938,49.0969505310059,28.7959518432617,18.6220512390137,-23.7660007476807,-24.295051574707,-10.2340507507324,-16.5,-5.16195011138916,-10.9740009307861,4.17795038223267,2.16405010223389,-0.21600000560284,-4.13205003738403,-2.74995017051697,3.78495025634766,-0.8770500421524,-15.7860012054443,-42.4060516357422,-32.2180519104004,-9.80295085906982,-11.2930507659912,3.40395021438599,-3.6910502910614,-2.73795008659363,7.88400030136108,7.91295051574707,6.73200035095215,9.29505062103271,16.5400505065918,18.5880012512207,1.66500008106232,2.28000020980835,26.568000793457,17.8380012512207,19.0960502624512,9.17505073547363,-2.90400004386902,6.68505048751831,5.96100044250488,SWING_RIGHT
0.512875020504,0.33522498607635,0.18947499990463,-0.04757500067353,-0.48454999923706,-0.68241250514984,0.73218750953674,4.13806247711182,4.07096242904663,-0.92812502384186,0.56361252069473,7.70398759841919,6.44146251678467,1.76027500629425,0.01196249946952,0.17586250603199,0.52469998598099,0.86872500181198,1.22484993934631,1.81225001811981,2.13001251220703,-0.91038751602173,-9.46522521972656,-11.4516878128052,-2.43086242675781,2.75948739051819,-13.9105997085571,-11.6961622238159,7.13625001907349,5.2172999382019,2.42838740348816,1.64367496967316,1.0422500371933,0.47354999184608,-0.28751251101494,-1.16228747367859,1.3359500169754,8.913987159729,10.9102125167847,9.77817535400391,13.6963748931885,26.43918800354,23.29758644104,6.20551252365112,1.17204999923706,2.65200018882751,2.53005003929138,1.74495005607605,0.46800002455711,-0.60195004940033,1.14105010032654,32.1330032348633,41.4900016784668,33.0930023193359,-15.5820007324219,-24.0270004272461,-16.0279502868652,-15.35205078125,-1.96005010604858,-10.3300504684448,3.91200017929077,3.79695010185242,3.60600018501282,3.4740002155304,3.34500026702881,3.57405018806458,4.97295045852661,-3.34605026245117,-34.7760009765625,-32.5270500183105,-12.153000831604,-14.0179510116577,-2.67795014381409,-4.82895040512085,-4.53404998779297,9.4750509262085,9.28995037078857,9.2590503692627,10.3920001983643,11.0430002212524,10.6050004959106,6.90495014190674,-1.64400005340576,12.0709505081177,24.1800003051758,22.7479515075684,9.01995086669922,-1.49100005626678,2.68005013465881,5.90100049972534,SWING_RIGHT
0.01264999993145,-0.11536250263453,-0.44261249899864,-0.98505002260208,-1.6409250497818,-1.33264994621277,4.23692512512207,9.78120040893555,4.04896259307861,-7.06626224517822,-3.83143758773804,0.68997502326965,-0.60926252603531,-0.02103750035167,-0.55371248722076,0.55618751049042,0.75652498006821,1.37266254425049,2.4950749874115,3.92383742332459,1.3194500207901,-10.8138246536255,-14.186562538147,-4.09186267852783,4.89060020446777,-4.62550020217896,-15.2554874420166,-4.42351245880127,2.26723742485046,2.61153745651245,1.19404995441437,0.95562499761581,0.38417500257492,-0.65394997596741,-2.48957490921021,-0.32945001125336,14.8044872283936,17.9579124450684,8.32369995117188,9.78999996185303,20.1496620178223,22.6289253234863,13.9093627929688,4.69521236419678,1.67021250724792,1.22205007076263,0.60900002717972,-1.62405002117157,-5.82495021820068,-4.50104999542236,26.859001159668,49.819953918457,27.9289512634277,15.5520009994507,-38.8399505615234,-23.2750511169434,-6.59100008010864,-12.0690002441406,-5.47500038146973,-11.9059505462646,4.29495000839233,4.0339503288269,3.37995004653931,1.54395008087158,1.38300001621246,8.82194995880127,1.12695002555847,-20.1880512237549,-52.9830017089844,-21.5719509124756,-13.7190008163452,-10.4280004501343,2.02500009536743,-4.36605024337769,-3.23805022239685,9.81495094299316,10.1599502563477,10.5240001678467,10.9519500732422,9.64500045776367,13.7190008163452,5.19495010375977,4.34895038604736,20.5879516601563,14.4040508270264,19.4929504394531,3.43695020675659,-3.25605010986328,6.16995048522949,6.41895008087158,SWING_RIGHT
-0.1348875015974,-0.3286249935627,-0.83751249313354,-1.61535000801086,-2.54017496109009,-1.9736750125885,3.15974998474121,6.93797492980957,0.23759999871254,-6.79360008239746,-0.17710000276566,4.13957500457764,1.94700002670288,0.59413748979568,0.6404749751091,-0.99151247739792,0.18136249482632,0.8094624876976,1.42642498016357,1.78804993629456,-1.28480005264282,-12.4507627487183,-14.4441003799438,-3.91517496109009,3.35774993896484,-14.8763999938965,-16.6310367584229,4.41938734054565,5.7534122467041,4.95082473754883,2.98883748054504,2.20495009422302,1.43467497825623,0.55701249837875,-0.41552498936653,1.57918751239777,10.9423875808716,12.8402996063232,7.34689998626709,10.1054248809814,26.9218120574951,25.8190631866455,9.10002517700195,4.32299995422363,3.76598739624023,-2.25705003738403,-1.85700011253357,-3.51600027084351,-4.18395042419434,-2.65395021438599,27.4720516204834,49.1779518127441,28.513952255249,14.814001083374,-35.8159523010254,-21.3640518188477,-9.72900009155273,-15.0079507827759,-4.17495012283325,-8.19405078887939,4.75995016098022,4.65000009536743,3.75705027580261,1.56495010852814,1.74900007247925,7.50000047683716,4.59705018997192,-17.998950958252,-48.4489517211914,-19.5559501647949,-13.1629505157471,-8.64600086212158,4.31505012512207,-1.51395010948181,-1.93305003643036,8.49000072479248,8.60295009613037,9.83400058746338,8.77305030822754,10.6939506530762,10.0830001831055,0.96000003814697,4.69395017623901,20.4319515228271,20.941951751709,18.6139507293701,-1.12695002555847,-3.42405009269714,4.45995044708252,5.47005033493042,SWING_RIGHT
-0.43573749065399,-0.52469998598099,-0.69932502508163,-1.10838747024536,-2.03046250343323,-2.00791239738464,1.87206244468689,5.12036228179932,1.60641252994537,-1.75188744068146,5.84718751907349,7.83131265640259,2.86426258087158,1.87055003643036,0.48702499270439,0.75171250104904,0.56003749370575,0.95947498083115,1.52143752574921,1.67145001888275,0.00054999999702,-9.52985000610352,-16.0296115875244,-8.43246269226074,1.42862498760223,-12.437424659729,-14.7096128463745,3.20814990997314,5.75011253356934,4.54437494277954,0.56182497739792,0.57516247034073,0.38733750581741,-0.05142499879003,-0.69643747806549,-0.12430000305176,7.05801248550415,10.7643251419067,8.36439990997314,10.6019372940063,25.8843746185303,27.5017871856689,10.4444999694824,3.25819993019104,1.41789996623993,-2.16495013237,-2.79795002937317,-3.61905026435852,-5.65005016326904,-3.94695019721985,5.56695032119751,47.4630012512207,37.1119499206543,13.6600503921509,-23.1529502868652,-20.1570014953613,-10.7280006408691,-11.3860502243042,-4.75200033187866,-6.16500043869019,4.56599998474121,4.48200035095215,3.96195030212402,2.52495002746582,0.68805003166199,11.3820009231567,7.80600023269653,-9.92295074462891,-42.8760032653809,-15.8940010070801,-11.4580507278442,-10.1650505065918,-2.48895001411438,-2.35905003547668,-4.34700012207031,8.7319507598877,9.22305011749268,9.37905025482178,11.0119504928589,10.9189500808716,10.7989501953125,6.73695039749146,2.22705006599426,19.3210506439209,18.3790512084961,19.0999507904053,5.43000030517578,-0.95505005121231,3.3510000705719,6.55305051803589,SWING_RIGHT
-0.31542500853539,-0.38692501187325,-0.37413749098778,-0.48936250805855,-1.25798749923706,-2.93466258049011,-3.79362487792969,-2.14170002937317,5.88059997558594,10.0476751327515,3.61074995994568,-0.43793749809265,7.84121227264404,9.15901279449463,2.0433874130249,0.79502499103546,0.71857500076294,0.40576249361038,0.13667500019073,0.20446249842644,0.55261248350143,-0.75611251592636,-5.76386260986328,-13.6013622283936,-13.2335500717163,-5.31286239624023,0.78828752040863,-14.1642875671387,-16.9446754455566,2.02647495269775,0.38115000724792,0.5324000120163,0.77096247673035,0.92413747310638,0.76986247301102,0.11013749986887,0.36822500824928,4.21189975738525,12.6285495758057,12.8279247283936,7.23428726196289,10.3089246749878,23.8973617553711,24.0846366882324,9.76071262359619,-4.36695003509521,-3.84195017814636,-3.66195011138916,-3.70800018310547,-5.17800045013428,-4.66800022125244,3.95295023918152,28.6650009155273,48.0570030212402,30.681001663208,13.7530508041382,-23.449951171875,-24.6450004577637,-11.038950920105,-12.703950881958,4.71195030212402,4.49400043487549,4.34100008010864,3.54795026779175,1.69395005702972,0.60195004940033,1.78500008583069,11.22705078125,-1.4760000705719,-18.1860008239746,-38.428050994873,-27.6960010528564,-13.0390510559082,-13.6900510787964,-3.74100017547607,8.46900081634521,7.83195018768311,8.11005020141602,8.24400043487549,9.92700004577637,11.8939504623413,14.320050239563,10.7230501174927,0.7140000462532,-2.15205001831055,21.6220512390137,22.6980018615723,20.8459510803223,4.50705003738403,-3.02595019340515,SWING_RIGHT
-0.50091248750687,-0.42473748326302,-0.88838750123978,-2.17208743095398,-1.27998745441437,2.31962490081787,1.09243750572205,-3.29202508926392,-1.75230002403259,6.83869981765747,6.40818738937378,0.47162500023842,-0.88316249847412,-0.41483750939369,5.69717502593994,1.32247495651245,0.56306248903275,0.69918751716614,0.96167498826981,-2.00722503662109,-12.6219501495361,-15.187424659729,-5.22788763046265,2.58898758888245,-12.7683877944946,-14.5120248794556,3.77231240272522,5.38078737258911,5.59652519226074,2.44241237640381,1.07937502861023,1.13176250457764,0.79942500591278,0.24832500517368,2.15572500228882,7.04838752746582,8.1226749420166,7.74564981460571,12.3704624176025,28.0637493133545,25.9359378814697,8.53228759765625,2.56025004386902,1.86216247081757,2.69939994812012,-1.80405008792877,-2.51805019378662,-3.99495029449463,-0.12000000476837,26.6479511260986,38.1079521179199,27.7710018157959,14.2030506134033,-29.8540515899658,-18.8400001525879,-12.6820507049561,-13.326000213623,-10.1460008621216,-11.9110507965088,-8.60100078582764,5.94795036315918,5.31105041503906,4.99995040893555,4.43400001525879,12.9130506515503,4.69305038452148,-14.1049509048462,-35.4319534301758,-18.5110511779785,-19.6870517730713,-13.0819501876831,-3.3840000629425,-5.96895027160645,-3.55005025863647,-1.30800008773804,7.76205015182495,8.55495071411133,10.4500503540039,12.1620006561279,3.66000008583069,-3.03795003890991,7.72605037689209,11.5129508972168,23.9020519256592,19.8379516601563,1.37205004692078,-2.27205014228821,3.48495006561279,4.08105039596558,5.19495010375977,SWING_RIGHT
-0.10216250270605,-0.16376249492168,-0.34691250324249,-0.63690000772476,-1.17878746986389,-2.05865001678467,-2.77337503433228,-2.21306252479553,3.94693756103516,15.9787378311157,18.7222747802734,-8.77346229553223,-14.356650352478,3.85109996795654,3.41879987716675,-0.10078749805689,0.22343750298023,0.37345001101494,0.31693750619888,0.33054998517036,0.33934998512268,-0.11687500029802,-2.29116249084473,-8.85527515411377,-10.352237701416,-4.96498727798462,7.35006237030029,11.9634628295898,4.06944990158081,4.19320011138916,0.36011248826981,0.28435000777245,0.4159374833107,0.52401250600815,0.31308749318123,-0.25987499952316,-0.47726249694824,2.38479995727539,15.8101625442505,21.4915256500244,12.5203371047974,4.88551235198975,10.0736627578735,14.7969245910645,8.57628726959229,-3.18105006217957,-3.03705024719238,-3.09195017814636,-3.17895007133484,-4.35900020599365,-2.95305013656616,-1.56900012493134,16.9099502563477,50.0689506530762,37.0930519104004,16.4449501037598,-2.67600011825562,-32.5870513916016,-12.8640003204346,-9.2790002822876,5.5339503288269,5.21700048446655,5.29395008087158,4.44600009918213,3.14805006980896,2.46600008010864,1.60605013370514,7.58100032806396,5.14305019378662,-12.5550003051758,-32.1130523681641,-35.3989524841309,-12.6990003585815,-10.9120502471924,-5.23095035552979,7.44600057601929,7.6830005645752,7.80105018615723,7.91805028915405,9.34305000305176,9.65700054168701,11.4820508956909,9.85305023193359,8.37495040893555,-6.72705030441284,24.7090511322021,14.9449510574341,28.0530014038086,11.5060501098633,0.48105001449585,SWING_RIGHT
0.32174998521805,0.27802500128746,0.17476250231266,-0.30057498812675,-1.283562541008,-2.9074375629425,-0.38898751139641,5.0850248336792,0.74978750944138,-8.89047527313232,-3.7367000579834,2.41009998321533,1.37224996089935,3.11409997940063,4.1735372543335,-1.07098746299744,-0.856350004673,-0.42239999771118,0.26427498459816,1.31161248683929,0.79172497987747,-6.49288749694824,-12.7965745925903,-7.86197519302368,1.53573751449585,-16.9426116943359,-21.7306365966797,-0.17091250419617,-0.23154999315739,-2.3263623714447,0.7870500087738,1.00732505321503,1.07937502861023,1.00979995727539,0.71170002222061,2.09536242485046,10.3203372955322,12.0458250045776,5.7413125038147,8.17698764801025,22.8890743255615,22.7261371612549,12.3355369567871,7.05237483978271,2.36596250534058,0.65505003929138,0.87495005130768,0.88995003700256,-1.03305006027222,-0.65400004386902,10.1389503479004,51.2160034179688,35.6749534606934,16.2630004882813,-36.775951385498,-29.695951461792,-5.05395030975342,-9.5710506439209,-8.89305019378662,-9.2359504699707,4.72395038604736,4.66695022583008,4.57800006866455,2.87505006790161,0.1540500074625,1.42605006694794,4.08000040054321,-10.0230007171631,-45.927001953125,-38.0160026550293,-10.9930505752563,-5.32395029067993,0.43500003218651,-2.67600011825562,-1.38900005817413,8.86905002593994,8.54805088043213,9.56100082397461,10.0810508728027,7.64700031280518,13.2109508514404,9.67605018615723,-5.02605009078979,25.9879512786865,11.6760005950928,14.6929502487183,6.61005020141602,7.48005056381226,8.59305000305176,6.80205011367798,SWING_RIGHT
0.16775000095367,0.28325000405312,0.27073749899864,-0.02296249940991,-0.942562520504,-1.76384997367859,0.33302500844002,4.08526229858398,1.99003744125366,-1.89750003814697,2.55364990234375,4.77606248855591,2.32842493057251,1.06053745746613,-0.31679999828339,-0.31624999642372,-0.27871251106262,-0.04606249928474,0.45265001058578,1.63693749904633,2.63738751411438,0.03891250118613,-11.3979253768921,-13.2730121612549,-3.09732508659363,-5.96309995651245,-7.77411222457886,1.44581246376038,4.37593746185303,2.67437505722046,0.93884998559952,0.87188750505447,0.79791247844696,0.58423751592636,0.05004999786615,-0.62328749895096,0.68777501583099,7.09609985351563,10.6665620803833,10.8527374267578,19.5863246917725,23.3018493652344,13.4549245834351,4.10671234130859,2.31233739852905,0.74100005626678,0.73905003070831,0.41805002093315,-1.48500001430511,-3.28395009040833,-1.32195007801056,33.0090026855469,40.278003692627,17.1250514984131,-16.8570003509521,-28.8460521697998,-14.8570508956909,-9.74805068969727,-6.54600048065186,-11.2260007858276,4.71195030212402,4.87305021286011,4.72905015945435,4.19700002670288,2.9520001411438,3.43995022773743,11.4229507446289,-0.23295001685619,-39.003002166748,-23.5390510559082,-13.5610504150391,-12.6199502944946,1.01205003261566,-3.47295022010803,-1.50195002555847,8.96505069732666,8.94795036315918,9.28800010681152,10.7230501174927,10.5210008621216,10.9140005111694,-3.72105026245117,4.77300024032593,13.6660509109497,15.0960006713867,20.9950504302979,3.25005006790161,-3.41400027275085,6.2029504776001,6.10995006561279,SWING_RIGHT
0.16376249492168,0.15895000100136,-0.0323125012219,-0.95246249437332,-2.56492495536804,-3.60373759269714,0.19538749754429,3.70356249809265,-3.51449990272522,-8.85197448730469,-0.25327500700951,4.43726253509521,3.66932487487793,3.60030007362366,2.57688736915588,-0.4628250002861,-0.27994999289513,0.34127500653267,1.89915001392365,4.22235012054443,2.10594987869263,-12.3388376235962,-16.4397754669189,-4.3173623085022,3.46541237831116,-11.8647375106812,-11.5534372329712,5.86217498779297,2.59902501106262,1.09175002574921,1.04211246967316,0.9648374915123,0.75116246938705,0.03135000169277,-1.56089997291565,-0.06916250288486,10.5448751449585,12.4214744567871,5.22582483291626,9.06647491455078,25.1413249969482,22.3847255706787,8.81471252441406,4.77276229858398,1.59431254863739,-0.40995001792908,-0.31695002317429,-2.63700008392334,-6.77595043182373,-6.48900032043457,27.5130004882813,48.2490005493164,21.7650012969971,10.0699501037598,-33.2620506286621,-21.3109512329102,-12.7279510498047,-5.15205001831055,-10.3560009002686,-10.6410007476807,5.40900039672852,5.36100006103516,4.71195030212402,2.13300013542175,-0.52695000171661,4.77195024490356,6.14895009994507,-17.3070011138916,-43.9320030212402,-14.2939510345459,-6.82095050811768,-0.28500002622604,-1.44195008277893,-1.35300004482269,0.35595002770424,8.39205074310303,8.671950340271,9.63000011444092,8.04705047607422,10.0930500030518,12.0160503387451,5.06805038452148,8.41095066070557,20.0610008239746,15.2280006408691,17.8720512390137,0.56295001506805,4.51200008392334,5.92800045013428,5.86305046081543,SWING_RIGHT
-0.33715000748634,-1.30336248874664,-2.72731256484985,-1.70596253871918,2.48022508621216,8.5447998046875,9.74063777923584,2.14197492599487,0.32394999265671,8.55346202850342,7.058424949646,1.29896247386932,0.6017000079155,6.95722484588623,10.5971250534058,0.42460000514984,1.23172497749329,1.27929997444153,-0.44068750739098,-6.81284999847412,-14.2436246871948,-9.27258777618408,-0.00989999994636,3.7919750213623,-10.5671501159668,-10.5741624832153,5.84539985656738,8.10741233825684,8.90298748016357,2.24138760566711,0.29576250910759,-0.53776252269745,-1.6744749546051,-1.64793753623962,3.70191240310669,11.831600189209,11.1795749664307,7.69903755187988,13.3604621887207,30.7731876373291,25.6183128356934,6.06237506866455,3.10571241378784,3.41412496566772,3.29106259346008,-5.48295021057129,-7.36995029449463,-1.33005011081696,4.34100008010864,37.0830001831055,39.0130500793457,22.3440017700195,9.66495037078857,-33.6379508972168,-15.1390504837036,-12.2719507217407,-16.1160011291504,-6.2989501953125,-9.32205009460449,-10.6320009231567,4.95195007324219,2.16600012779236,-0.71595001220703,9.04200077056885,8.47695064544678,-2.757000207901,-15.1800003051758,-35.0629501342773,-11.1439504623413,-11.053050994873,-7.71000051498413,2.88000011444092,-2.11005020141602,-1.59795010089874,-0.14595000445843,11.9680509567261,15.3400506973267,7.89405059814453,6.83100032806396,11.953950881958,-4.96095037460327,9.421950340271,18.9349517822266,27.3439521789551,16.9159507751465,1.65000009536743,-4.89405012130737,1.47795009613037,3.04695010185242,4.92705011367798,SWING_RIGHT
-2.34409999847412,-2.49438738822937,-2.14252495765686,0.50545001029968,6.07282495498657,10.9635620117188,10.5197124481201,4.63581228256226,-4.57036256790161,-14.8662252426147,-8.64902496337891,0.86570000648499,1.2282874584198,1.99168753623962,3.21887493133545,-1.15472495555878,-1.37981247901917,-2.72387504577637,-4.52911233901978,-3.21007490158081,-1.39933753013611,-2.49452495574951,-2.63724994659424,0.61613750457764,12.0902376174927,-5.71546268463135,-17.1056880950928,1.2673374414444,2.17580008506775,-1.08996248245239,1.73909997940063,2.98044991493225,5.70143747329712,10.0720129013062,13.3894748687744,13.8093996047974,10.6658744812012,6.70408725738525,6.1857123374939,6.56356239318848,18.5788631439209,22.9242744445801,10.8652496337891,3.58283758163452,1.71792495250702,-1.75605010986328,1.75200009346008,6.64995050430298,9.30105018615723,15.5140504837036,31.5289516448975,26.9830513000488,28.4440517425537,4.71705007553101,-23.9670009613037,-21.4720516204834,-12.9499502182007,-10.171950340271,-2.86200022697449,-7.65000057220459,2.59995007514954,2.92095017433167,2.56095004081726,5.81100034713745,6.47505044937134,1.68495011329651,-4.37100028991699,-16.6360511779785,-47.3520011901855,-16.4850006103516,-14.2480506896973,-11.2069501876831,-0.24195000529289,-1.76805007457733,-0.40995001792908,7.28595018386841,9.40799999237061,7.42005014419556,10.3390502929688,10.7920503616333,3.63600015640259,5.61600017547607,15.1960506439209,6.93105030059814,16.5160503387451,13.993950843811,2.86200022697449,5.24805021286011,8.14305019378662,7.40805053710938,SWING_RIGHT
-0.22866250574589,-0.45457500219345,-0.75088751316071,-1.81527495384216,-3.21213746070862,-2.54154992103577,3.51174998283386,11.0635251998901,-1.92348754405975,-12.8192625045776,-2.82493758201599,3.0743625164032,4.26648759841919,2.15283751487732,1.4473249912262,0.37771248817444,0.30634999275208,0.48798748850822,1.22801244258881,1.92981243133545,-2.99832487106323,-17.3292617797852,-14.6803245544434,-0.93871247768402,4.93336248397827,4.00509977340698,2.28552508354187,4.52567481994629,4.03315019607544,3.52935004234314,0.01127499993891,-0.10889999568462,-0.15510000288486,-0.5626500248909,-1.16916251182556,2.37503743171692,10.3863372802734,10.793062210083,6.76596260070801,10.7053375244141,15.3610877990723,12.9497499465942,7.33906269073486,3.00093746185303,2.23121237754822,-2.8050000667572,-3.05895018577576,-4.37805032730103,-5.36505031585693,-1.42500007152557,38.9340019226074,45.3000030517578,33.0450019836426,7.27200031280518,-35.4079513549805,-14.4570007324219,-11.0340003967285,-12.8070001602173,-3.06105017662048,-7.27395057678223,5.24595022201538,4.42995023727417,3.40695023536682,0.86805003881454,1.1050500869751,4.57305002212524,4.6690502166748,-17.6710510253906,-54.2190017700195,-12.667950630188,-11.5110006332397,-8.89800071716309,1.57905006408691,-2.28495001792908,-2.49300003051758,8.47800064086914,8.08605003356934,9.00104999542236,7.24500036239624,11.1079502105713,3.54495024681091,3.59700012207031,6.18900012969971,12.7300510406494,19.1550006866455,15.2470502853394,6.51705026626587,-3.33300018310547,5.08200025558472,7.16805028915405,SWING_RIGHT
-0.96566247940063,-0.69478750228882,-0.2230249941349,0.79860001802444,2.57111239433289,4.84921264648438,6.74643754959106,4.94601249694824,-15.1751871109009,-24.1440372467041,-5.86520004272461,8.53751277923584,9.76414966583252,5.7534122467041,5.59872484207153,-1.4968249797821,-1.81252503395081,-1.88361251354218,-0.97913748025894,0.97322499752045,2.44846248626709,-0.53404998779297,-4.30457496643066,-0.89292502403259,8.98397541046143,27.908374786377,31.924337387085,14.7023248672485,3.15961241722107,-0.37867498397827,1.99581253528595,3.10695004463196,4.73756265640259,6.66723728179932,8.37141227722168,10.151762008667,11.4445371627808,9.44295024871826,4.36521244049072,6.01163768768311,3.82882499694824,-1.74418747425079,1.93943750858307,2.67506241798401,1.74831247329712,1.08105003833771,2.80605006217957,4.11105012893677,4.9830002784729,6.34095048904419,18.7090511322021,33.9720001220703,28.7869510650635,-2.34300017356873,-26.7580509185791,-16.9950008392334,-8.22705078125,-9.4680004119873,-9.61200046539307,-9.73905086517334,4.12800025939941,4.48695039749146,4.40100002288818,4.6710000038147,5.16000032424927,7.00395011901855,3.41400027275085,-18.8419513702393,-40.4520034790039,-12.0660009384155,-8.46900081634521,-3.48495006561279,1.55805003643036,-0.74805003404617,0.37995001673698,7.85295057296753,8.60295009613037,9.34500026702881,8.95995044708252,9.16305065155029,11.9680509567261,6.43305015563965,7.93995046615601,16.3050003051758,13.3159503936768,11.53005027771,0.66600000858307,5.12295007705688,9.28305053710938,5.58300018310547,SWING_RIGHT
-0.03739999979734,-0.35323750972748,-1.3388375043869,-3.16593742370605,-5.00390005111694,-5.11706256866455,1.90107500553131,7.32765007019043,1.60503745079041,-4.12527513504028,-2.52188754081726,1.76646244525909,4.42309999465942,4.09997510910034,2.53742504119873,0.06187500059605,0.39599999785423,1.91138744354248,4.03548765182495,3.96316242218018,-3.64278745651245,-22.7570743560791,-20.9628372192383,-4.47328758239746,2.54897499084473,8.31531238555908,7.4168872833252,5.52736234664917,1.65123748779297,0.11550000309944,0.02791249938309,-0.06393750011921,-0.52964997291565,-1.81238746643066,-3.57472491264343,-1.45832502841949,7.48439979553223,7.69793748855591,3.91366243362427,10.3266620635986,13.7802495956421,11.5821752548218,10.4952373504639,5.05532503128052,1.07896244525909,-3.19095015525818,-5.34600019454956,-9.88905048370361,-8.8279504776001,-3.10005021095276,32.3029518127441,46.5510025024414,29.2590007781982,8.96805000305176,-33.175952911377,-17.8840503692627,-5.81805038452148,-9.98295021057129,-5.62200021743774,-12.1290006637573,5.23395013809204,4.69305038452148,1.31595003604889,-3.78000020980835,-3.86100029945374,2.03895020484924,7.96500015258789,-12.3060007095337,-47.1529541015625,-15.1560010910034,-5.68800020217896,-6.72300052642822,3.2749502658844,-2.46705007553101,-1.05900001525879,8.20305061340332,9.20895004272461,8.61495018005371,5.91795015335083,11.9680509567261,7.84605026245117,10.5000009536743,3.63600015640259,18.1470012664795,7.64505052566528,15.1440010070801,5.97105026245117,1.37205004692078,6.48105049133301,4.31805038452148,SWING_RIGHT
-0.09473749995232,-0.02529999986291,0.01429999992251,-0.16403749585152,-0.98944997787476,-2.2757625579834,-3.61129999160767,-1.90946245193481,9.22377490997314,11.5385875701904,2.55928754806519,6.67273759841919,8.85582542419434,3.95834994316101,1.20051252841949,0.15633749961853,0.01306249946356,-0.13750000298023,0.20019999146461,1.59967494010925,2.9797625541687,2.28579998016357,-2.97632503509521,-23.6139755249023,-22.3016757965088,-1.45309996604919,-10.8006248474121,-14.0852251052856,-0.06916250288486,4.30457496643066,0.14176249504089,0.10807500034571,0.03176249936223,-0.1142624989152,-0.6650875210762,-1.61755001544952,-3.27153754234314,-3.54942488670349,6.62144994735718,11.5520620346069,8.5643253326416,21.2074489593506,25.7023239135742,12.525975227356,3.13059997558594,-5.32695007324219,-5.41095018386841,-6.12705039978027,-9.97095012664795,-12.7300510406494,-11.9130001068115,-4.31400012969971,50.1840019226074,55.4650535583496,13.2979507446289,-24.9640502929688,-19.0410003662109,-12.8190002441406,-16.4110507965088,-4.08900022506714,4.21395015716553,4.26900005340576,4.35000038146973,4.18005037307739,1.35405004024506,-3.64800024032593,-6.19905042648315,9.82500076293945,-0.20400001108646,-47.2320022583008,-25.0159511566162,-15.0870008468628,-13.0440006256104,1.17900002002716,-6.47895050048828,7.23495054244995,7.53495025634766,7.76205015182495,9.29805088043213,8.1340503692627,8.87595081329346,6.87900018692017,-4.81095027923584,-3.90495014190674,14.9449510574341,18.2430000305176,25.4209518432617,9.13905048370361,-2.98305010795593,-1.1010000705719,SWING_RIGHT
-0.23842500150204,-0.21587499976158,-0.38087499141693,-0.84342497587204,-1.87247502803802,-3.27126240730286,1.31298744678497,8.18083763122559,5.91126251220703,1.10343754291534,-7.39337491989136,-5.06494998931885,4.08526229858398,1.95208752155304,0.01842499896884,0.12526249885559,-0.05403750017285,0.35323750972748,1.23021245002747,2.23355007171631,1.50590002536774,-6.47033739089966,-18.9985122680664,-14.4274625778198,-0.39214998483658,22.3421001434326,25.7919750213623,7.88493728637695,4.4496374130249,3.96041250228882,0.01086249947548,0.0629749968648,-0.0354750007391,-0.29988750815392,-0.86198747158051,-1.69193744659424,0.99481248855591,7.54861259460449,9.25471210479736,10.3104372024536,7.46102476119995,6.93756246566772,9.38093757629395,4.71212482452393,3.66093754768372,-2.64195013046265,-3.39195013046265,-4.75005006790161,-6.57000017166138,-6.838050365448,2.04900002479553,37.5120010375977,38.1490516662598,12.3259506225586,-24.6070518493652,-18.4129505157471,-15.0750007629395,-10.8379507064819,-1.61700010299683,-12.7249507904053,4.13700008392334,4.17600011825562,3.96195030212402,1.87200009822845,-1.83195006847382,2.19000005722046,17.3509502410889,1.53405010700226,-38.6200523376465,-13.9900503158569,-10.0900506973267,-7.71000051498413,2.98095011711121,-2.22495007514954,-0.98205006122589,9.06494998931885,9.78405094146729,10.5289506912231,10.4779500961304,9.44400024414063,13.6440010070801,-6.06600046157837,-5.3779501914978,14.0160007476807,13.9510507583618,18.3480014801025,3.64500021934509,-1.70895004272461,2.3449501991272,2.425950050354,SWING_RIGHT
-0.04743750020862,-0.10298749804497,-0.345124989748,-1.5054874420166,-3.69627499580383,-3.80819988250732,1.32068753242493,3.38071250915527,-0.55412501096725,-3.72446250915527,-3.04851245880127,1.98989999294281,4.92593765258789,2.02248740196228,0.72228747606277,0.07617499679327,0.12306249886751,0.37303748726845,1.77072501182556,3.87103748321533,0.70235002040863,-13.252799987793,-20.2471504211426,-9.76029968261719,3.94501256942749,28.5528373718262,30.4352130889893,9.89807510375977,4.9634747505188,2.03513741493225,0.01072499994189,0.01526249945164,0.06723749637604,-0.29411250352859,-0.99151247739792,0.29356250166893,4.45018768310547,4.84453725814819,5.78723764419556,12.9100122451782,5.21482515335083,-0.88660001754761,6.27013731002808,4.99262475967407,3.00616240501404,-2.36205005645752,-2.74500012397766,-4.14105033874512,-10.8589506149292,-8.4330005645752,20.8090515136719,43.480052947998,26.9350509643555,-4.18395042419434,-30.5730018615723,-14.3010005950928,-15.38805103302,-5.09205007553101,-9.85605049133301,-9.54195022583008,3.57705020904541,3.46395015716553,2.34300017356873,-2.18700003623962,-2.70705008506775,10.2090005874634,11.15505027771,-19.9200000762939,-40.6459503173828,-13.2730503082275,-9.61395072937012,-3.82005023956299,-1.97400009632111,-1.57605004310608,-1.03005003929138,9.12495040893555,9.61395072937012,9.69300079345703,11.9800510406494,13.1509504318237,21.5460014343262,-6.64005041122437,6.22905015945435,24.2020511627197,12.247950553894,8.02095031738281,0.52905005216599,-0.03195000067353,2.4210000038147,6.3880500793457,SWING_RIGHT
0.0851124972105,0.08635000139475,-0.02186249941587,-0.17833749949932,-0.431062489748,-1.36166250705719,-3.77904987335205,-4.80823755264282,0.33907499909401,10.6550121307373,8.8364372253418,1.28741252422333,7.73409986495972,10.0494623184204,5.67146253585815,0.09281250089407,0.16541250050068,0.22714999318123,0.3077250123024,0.68089997768402,2.14995002746582,4.04387474060059,2.04957509040833,-18.0566368103027,-29.320499420166,-13.1250619888306,-0.39544999599457,-12.414737701416,-11.5854749679565,4.37222480773926,-0.05032499879599,-0.07713750004768,-0.05115000158548,-0.01773750036955,-0.05156249925494,-0.43491250276566,-2.19381237030029,-5.02603769302368,-1.73511254787445,2.05906248092651,2.22970008850098,9.28894996643066,22.7119750976563,20.6794490814209,9.24178791046143,-5.19795036315918,-5.34600019454956,-5.50695037841797,-6.76905012130737,-10.0189504623413,-16.9120502471924,-14.7700510025024,17.5590000152588,55.150951385498,33.0209999084473,9.27705001831055,-34.6440010070801,-15.9460506439209,-10.9720506668091,-14.413950920105,2.82705020904541,2.85105013847351,2.83005023002625,2.85600018501282,2.16405010223389,-2.51700019836426,-16.9860000610352,6.03900051116943,16.816951751709,-13.5970506668091,-40.5220527648926,-12.8590507507324,-6.2440505027771,-5.33595037460327,6.5110502243042,8.16900062561035,8.22900009155273,8.25104999542236,9.37695026397705,9.93705081939697,9.45795059204102,4.92900037765503,12.5479507446289,-1.54095005989075,-6.94005012512207,15.271050453186,12.8209505081177,18.5470504760742,5.3860502243042,-3.96300029754639,SWING_RIGHT
-0.01993750035763,-0.01539999991655,-0.08552499860525,-0.15812499821186,-0.07631249725819,0.0599500015378,-0.11687500029802,-0.17943750321865,2.26228737831116,1.6134250164032,-3.74618744850159,-12.4606628417969,-9.0278377532959,2.49755001068115,4.14081239700317,0.19731250405312,0.18590000271797,0.23045000433922,0.2095499932766,-0.01773750036955,-0.1370874941349,0.55811250209808,0.47272500395775,-11.3359127044678,-14.7118120193481,-1.02561247348785,14.7342252731323,24.0594749450684,17.0011882781982,7.15618753433228,-0.08813749998808,-0.1040875017643,-0.11068750172853,-0.01567500084639,0.21243749558926,0.40823748707771,0.31913748383522,0.34801250696182,4.09213733673096,8.44909954071045,7.35006237030029,0.87821251153946,-2.65993738174438,0.36794999241829,0.91629999876022,-2.17305016517639,-2.27805018424988,-2.45505023002625,-2.00505018234253,-1.80105006694794,-2.48205018043518,-3.84405016899109,17.0419502258301,36.4200019836426,9.23100090026855,-8.32095050811768,-16.6939506530762,-16.7580013275146,-6.47400045394897,-12.4830007553101,3.8950502872467,3.54300022125244,3.84795022010803,3.89295029640198,3.77295017242432,3.4980001449585,1.48395001888275,14.6320505142212,1.12005007266998,-19.0099506378174,-17.719051361084,-12.445050239563,-8.26800060272217,-0.51794999837875,-4.75005006790161,9.03900051116943,8.72504997253418,9.76905059814453,9.28605079650879,8.54805088043213,8.99100017547607,4.05000019073486,17.4379501342773,-2.81295013427734,29.0659523010254,13.9489507675171,14.5519504547119,12.1039505004883,2.09595012664795,3.83205008506775,SWING_RIGHT
-0.21793749928474,-0.29136249423027,-0.48565000295639,-0.86418747901917,-2.01891255378723,-2.49342489242554,0.7011125087738,6.09908723831177,5.60174989700317,0.9843624830246,-9.71437454223633,-6.92889976501465,5.6629376411438,6.69542503356934,7.00713729858398,0.22055000066757,-0.27156248688698,-0.93334996700287,-1.03633749485016,0.00618749996647,-0.55687499046326,-9.00033760070801,-16.5155372619629,-11.1947002410889,0.14946250617504,26.9752998352051,29.8161869049072,10.4532995223999,9.71382522583008,9.00844955444336,0.1024374961853,0.09075000137091,0.07658749818802,-0.04771250113845,-0.3812874853611,0.02543750032783,3.16373753547668,5.44926261901855,7.06640005111694,11.2901248931885,1.43013751506805,-1.81761252880096,4.61628770828247,0.37729999423027,-0.90543746948242,-3.1690502166748,-2.50605010986328,-2.3689501285553,-4.15605020523071,-3.84705018997192,7.89495038986206,39.7819519042969,43.4629516601563,1.75695013999939,-12.7009506225586,-12.3850507736206,-15.1849508285522,-13.9849510192871,-3.78195023536682,-9.74805068969727,2.26905012130737,2.10900020599365,1.80195009708405,0.05400000140071,-2.38995003700256,5.52195024490356,10.1299505233765,-8.19795036315918,-43.5660018920898,-21.748950958252,-10.7179508209229,-8.49105072021484,1.48800003528595,-4.72995042800903,-3.66900014877319,8.94105052947998,9.15900039672852,9.20400047302246,10.3440008163452,11.1180009841919,22.3189506530762,0.60105001926422,-7.30605030059814,32.2180519104004,17.6820011138916,15.5340003967285,7.09395027160645,0.73995006084442,0.26100000739098,3.86100029945374,SWING_RIGHT
-0.04248749837279,0.13034999370575,0.23636250197887,0.14904999732971,-0.45086249709129,-2.06098747253418,-3.66533756256104,-0.95204997062683,11.3401746749878,14.0068502426147,6.34328746795654,13.0960502624512,12.3096876144409,3.77808737754822,4.543137550354,0.25409999489784,0.03891250118613,-0.33219999074936,-0.32628750801086,0.87532502412796,3.06501245498657,2.99117493629456,-4.74539995193481,-22.82692527771,-19.8435878753662,-2.90551257133484,-10.9163999557495,-14.1586503982544,-0.12155000120401,4.59566259384155,0.04578749835491,0.01759999990463,0.0054999999702,0.04042499884963,-0.04578749835491,-0.61654996871948,-1.92926251888275,-1.41913747787476,7.02996253967285,9.38066291809082,8.20654964447021,23.3620758056641,27.7276992797852,14.3136119842529,4.43959999084473,-4.44600009918213,-4.09605026245117,-4.11300039291382,-6.93195009231567,-13.0990505218506,-11.8990507125854,-0.52305001020432,36.0100517272949,39.2479515075684,19.1200504302979,-21.5560512542725,-22.03005027771,-12.4620008468628,-12.9790506362915,-6.12000036239624,0.87795001268387,1.00499999523163,1.09995007514954,0.8029500246048,-2.22795009613037,-8.20604991912842,-2.15805006027222,15.6240005493164,4.71900033950806,-32.6520004272461,-21.3379516601563,-10.4740505218506,-7.07295036315918,-1.45200002193451,3.53895020484924,9.08205032348633,9.08895015716553,9.22305011749268,12.0060005187988,12.8470506668091,8.78700065612793,16.8349514007568,-1.64895009994507,-4.32000017166138,12.1999502182007,13.9990510940552,19.242000579834,7.49400043487549,0.83400005102158,4.4520001411438,SWING_RIGHT
-0.36410000920296,-0.36203750967979,-0.46227499842644,-0.61503750085831,-0.79722499847412,-1.00705003738403,-1.89777493476868,-2.9467625617981,-0.81427496671677,5.5356125831604,6.1875,2.63436245918274,9.27134990692139,9.1570873260498,3.78881239891052,-0.89319998025894,-0.90557497739792,-0.83228749036789,-0.93857496976852,-1.00773751735687,-0.60032498836517,0.95246249437332,1.30900001525879,-5.31946229934692,-16.5837383270264,-14.7613124847412,-4.61931228637695,-11.8245878219604,-14.9707250595093,-1.43274998664856,0.8787624835968,1.0066374540329,1.14730000495911,1.2474000453949,1.30377495288849,1.16159999370575,0.23911249637604,-0.6543624997139,2.68234992027283,8.01019954681396,8.73372459411621,9.65112495422363,24.1018257141113,29.9905376434326,15.2204246520996,-4.50795030593872,-4.38600015640259,-3.71295022964478,-3.19995021820068,-3.43995022773743,-5.68905019760132,-7.68405055999756,0.7219500541687,40.1560516357422,38.053050994873,14.3230504989624,-22.8030014038086,-19.7209510803223,-10.9030504226685,-11.0490007400513,2.54205012321472,2.55900001525879,2.48505020141602,2.52300000190735,2.0749499797821,0.76500004529953,-2.29200005531311,1.98900008201599,12.1489505767822,-0.26399999856949,-35.0370025634766,-14.7799510955811,-9.1560001373291,-5.21700048446655,3.02595019340515,8.00205039978027,8.24100017547607,8.63205051422119,9.21795082092285,9.6739501953125,10.452000617981,9.45300006866455,22.4290504455566,2.39505004882813,0.21105000376701,7.22100019454956,11.9659509658813,19.090950012207,2.49300003051758,1.10205006599426,SWING_RIGHT
-0.87133747339249,-0.28049999475479,1.14042496681213,2.92393755912781,2.86715006828308,2.72222495079041,3.43612504005432,0.21092499792576,0.52043747901917,12.6395502090454,10.9588871002197,1.44402503967285,-0.78058749437332,2.1898250579834,7.30221223831177,0.82513749599457,-1.38916254043579,-3.87722492218018,-3.93057489395142,-0.8787624835968,-1.47179996967316,-8.31709957122803,-7.488112449646,-1.24533748626709,-12.793137550354,-10.955587387085,5.3521876335144,6.82907485961914,6.91693735122681,-0.80024999380112,-0.02859999984503,1.78474998474121,4.93611240386963,6.31826257705688,3.87103748321533,3.92768740653992,8.00772476196289,10.6570749282837,13.09068775177,26.4561004638672,25.0523624420166,7.96248722076416,2.47417497634888,4.19856262207031,5.9907374382019,-1.23405003547668,1.72095012664795,3.52395009994507,0.73905003070831,2.40300011634827,37.7560501098633,37.4400024414063,14.3419504165649,-27.631950378418,-19.8120002746582,-11.8410005569458,-10.1820001602173,-3.48000025749207,-12.1980009078979,-6.99600028991699,2.79105019569397,4.52100038528442,5.22705030441284,6.04095029830933,5.5339503288269,13.8109502792358,-10.3320007324219,-39.8940010070801,-22.0699501037598,-20.8900508880615,-11.2620000839233,3.41595005989075,-0.99405002593994,-1.80105006694794,-1.84905004501343,9.63495063781738,9.21795082092285,6.22500038146973,9.19695091247559,11.8150501251221,-3.65595006942749,3.6499502658844,10.6600503921509,27.5620517730713,17.1510009765625,-1.75200009346008,-3.28995013237,3.62805008888245,5.889000415802,9.00795078277588,SWING_RIGHT
0.02584999985993,-0.13021250069141,-0.21422499418259,-0.07864999771118,-0.16142499446869,-0.6404749751091,-1.7800749540329,-2.88983750343323,3.45331239700317,11.7810001373291,8.08238792419434,12.2834253311157,17.9591503143311,9.8012752532959,4.98643732070923,-0.27692499756813,-0.14781250059605,0.0244750007987,0.04551250115037,0.08470000326633,1.12062501907349,3.04603743553162,2.19945001602173,-14.126612663269,-21.4154872894287,-7.89249992370605,-4.86708736419678,-10.8799619674683,-2.82177495956421,6.18323755264282,0.44811248779297,0.36300000548363,0.25176250934601,0.23485000431538,0.0701249986887,-0.50751250982285,-1.59101247787476,-2.38521242141724,6.70078754425049,12.4179000854492,9.34848785400391,16.1192626953125,27.2508506774902,20.6263751983643,4.70277500152588,-3.82005023956299,-3.72705006599426,-3.62400007247925,-3.87600016593933,-6.63495016098022,-10.4119501113892,-9.16394996643066,11.2069501876831,45.9060020446777,30.1039505004883,-11.6520004272461,-22.6000518798828,-15.3859510421753,-12.3199510574341,-6.77805042266846,2.18805003166199,2.31195020675659,2.28795003890991,2.30505013465881,1.98705005645752,-0.71595001220703,-5.3100004196167,4.91595029830933,18.5149517059326,-23.1739501953125,-23.4910507202148,-12.2239503860474,-10.6630506515503,-4.36199998855591,4.60905027389526,9.52500057220459,9.34095001220703,9.42705059051514,10.1190004348755,11.7810001373291,10.782000541687,7.36995029449463,17.5270500183105,-3.28305006027222,5.8560004234314,9.87900066375732,23.6869506835938,10.6099500656128,-1.2679500579834,2.15100002288818,SWING_RIGHT
0.05307500064373,0.05664999783039,0.0591249987483,0.04166249930859,-1.0760749578476,-2.94456243515015,-1.39534997940063,8.54259967803955,10.380012512207,9.35481262207031,20.8645248413086,15.7788124084473,5.95168733596802,4.72958755493164,4.01197481155396,-0.2058375030756,-0.32394999265671,-0.32766249775887,-0.18493749201298,1.62786245346069,3.8229124546051,-2.93534994125366,-18.0972003936768,-14.9818620681763,-4.85540008544922,-14.258337020874,-8.24394989013672,7.06832504272461,6.15381240844727,5.76193761825562,0.16321249306202,0.20899999141693,0.24323749542236,0.2050125002861,-0.61036247014999,-1.95373749732971,0.54147499799728,9.56697463989258,12.7272748947144,12.2744874954224,23.4159755706787,21.8560371398926,7.63867473602295,1.61782503128052,1.54219996929169,-1.59105002880096,-1.57395005226135,-1.41105008125305,-3.29100012779236,-11.5900506973267,-0.8479500412941,41.2050018310547,37.7419509887695,9.50205039978027,-29.5690517425537,-14.8380002975464,-14.193000793457,-11.0010004043579,-4.03095006942749,-13.0630502700806,3.12405014038086,3.27300024032593,3.21795010566711,2.61195015907288,-2.31600022315979,-0.00705000013113,16.3540515899658,-5.07300043106079,-44.3490028381348,-15.1339511871338,-12.7300510406494,-8.13899993896484,4.10100030899048,-3.82005023956299,-2.44605016708374,9.59700012207031,9.76200008392334,9.2160005569458,10.5600004196167,14.157000541687,13.2799510955811,-2.25,2.13195013999939,9.91995048522949,13.5079507827759,18.4180507659912,0.90495002269745,-0.98805004358292,3.13500022888184,4.74195003509521,SWING_RIGHT
-0.06668750196695,0.00068749999627,0.10216250270605,0.15138749778271,-0.35365000367165,-2.34465003013611,-5.31396245956421,-4.38226270675659,6.01067495346069,13.3303499221802,7.48110008239746,3.47792506217957,11.9875249862671,11.1226501464844,5.31190013885498,-0.03891250118613,-0.30428749322891,-0.54436248540878,-0.50407499074936,0.52882498502731,3.49126243591309,4.74113750457764,0.5378999710083,-23.2138500213623,-29.8572998046875,-8.56583786010742,-0.11412499845028,-16.5473003387451,-16.1937866210938,4.36163759231567,0.04235000163317,0.13213749229908,0.27774998545647,0.31721249222755,0.02873750030994,-0.82678747177124,-2.66832494735718,-3.94253754615784,5.91359996795654,5.89572477340698,0.77742499113083,10.8344497680664,24.5455379486084,22.9920616149902,9.93946266174316,-4.0620002746582,-3.62895011901855,-3.56400012969971,-4.18695020675659,-12.3730506896973,-16.9189510345459,-8.96295070648193,26.4780006408691,58.0710029602051,36.1870498657227,9.58800029754639,-29.4040508270264,-17.5150508880615,-16.2889499664307,-5.92800045013428,1.82400012016296,1.86900007724762,1.9939501285553,1.86900007724762,-1.61505007743835,-8.95500087738037,-12.3370504379272,4.29495000839233,12.8340005874634,-17.8069515228271,-52.420051574707,-20.7270011901855,-9.62595081329346,-4.5600004196167,0.78405004739761,9.14205074310303,9.19500064849854,9.11100006103516,9.38100051879883,13.5370502471924,12.1380004882813,6.59595012664795,14.2360506057739,-9.46200084686279,-3.75405025482178,22.1610012054443,13.1179504394531,22.4580001831055,1.11600005626678,-0.36300000548363,SWING_RIGHT
-0.05719999969006,-0.10353749990463,-0.09019999951124,-0.11632499843836,-0.39998748898506,-0.63621246814728,-1.08157503604889,-2.33612489700317,2.42054986953735,10.1767873764038,8.26567459106445,8.52651214599609,19.4386501312256,15.1695499420166,4.28188753128052,-0.08373750001192,-0.12856249511242,-0.04221250116825,0.33948749303818,0.98505002260208,1.53890001773834,1.60159993171692,-0.08016250282526,-11.998387336731,-19.5965003967285,-9.32621288299561,-1.06658744812012,-8.14948749542236,-3.38621258735657,6.55132484436035,-0.02488750033081,0.05719999969006,0.14121249318123,0.05458749830723,-0.28049999475479,-0.61132502555847,-1.02382504940033,-1.64505004882813,5.24768733978271,12.5936250686646,10.7562122344971,11.1973123550415,27.4692001342773,25.9591751098633,5.58332490921021,-4.27095031738281,-4.32105016708374,-4.83600044250488,-6.96300029754639,-6.94605016708374,-6.96495056152344,-6.7900505065918,3.2749502658844,55.0000534057617,36.5230522155762,-8.03595066070557,-16.6840515136719,-22.4490013122559,-13.2019510269165,-7.83000040054321,2.80305004119873,2.89395022392273,2.90100002288818,2.79900002479553,2.2260000705719,1.13205003738403,-1.88505005836487,2.05605006217957,11.8249502182007,-19.1800518035889,-20.4349517822266,-14.3680505752563,-10.6990509033203,1.66800010204315,-4.65900039672852,8.74695014953613,8.73000049591064,8.89005088806152,10.4809503555298,8.97405052185059,7.56600046157837,8.36805057525635,20.9040012359619,-12.1440010070801,0.28695002198219,9.79800033569336,24.256950378418,13.8859510421753,-2.48505020141602,0.2080500125885,SWING_RIGHT
0.17957499623299,0.99274998903275,1.41102504730225,1.07085001468658,0.22563749551773,-0.22055000066757,-0.15207499265671,1.92816245555878,3.86759996414185,2.26806259155273,-1.43412494659424,-16.3435249328613,-14.2807502746582,2.40473747253418,4.41484975814819,1.16751253604889,1.32426249980927,1.20628750324249,1.36991250514984,1.94466245174408,2.16919994354248,-0.82018750905991,-10.9775876998901,-18.0448131561279,-10.7560749053955,-1.71751248836517,20.601900100708,28.6697120666504,12.7448749542236,7.1813497543335,-2.14238739013672,-2.19284987449646,-1.93641245365143,-1.59444999694824,-1.26596248149872,-0.72668749094009,-0.19030000269413,1.05187499523163,3.91490006446838,5.47222518920898,6.88806247711182,5.44348764419556,5.53533744812012,7.16484975814819,2.29294991493225,-1.32495009899139,-1.557000041008,-2.59200000762939,-4.3759503364563,-4.57005023956299,-2.53005003929138,10.371000289917,42.9820518493652,46.1430015563965,29.9460010528564,-7.89405059814453,-21.0070514678955,-7.5930004119873,-11.0290508270264,-6.83100032806396,0.29100000858307,0.66195005178452,0.69795000553131,-0.12495000660419,-0.13005000352859,-0.5100000500679,3.40200018882751,2.87295007705688,-9.4750509262085,-35.7559509277344,-32.0980529785156,-18.0079517364502,-18.3649501800537,-6.87405014038086,-1.77705013751984,9.25695037841797,9.63495063781738,10.6050004959106,10.4929504394531,10.3470001220703,11.3569507598877,10.9260005950928,5.64000034332275,7.28295040130615,3.33195018768311,12.363000869751,25.8469505310059,1.44405007362366,3.01800012588501,9.4480504989624,SWING_RIGHT
-0.05664999783039,-0.01856249943376,-0.12870000302792,-0.19126249849796,-0.09583749622107,-0.61792498826981,-0.24213749170303,3.26466250419617,6.13016223907471,5.28632497787476,-3.66987490653992,-7.76682472229004,-0.60747498273849,8.44470024108887,12.8088121414185,0.30511251091957,0.35640001296997,0.2714250087738,0.18205000460148,0.68777501583099,3.02816247940063,2.99392509460449,-6.36611223220825,-14.4238872528076,-9.68618774414063,2.85229992866516,11.6188879013062,11.7871875762939,12.2282876968384,7.48054981231689,0.12264999747276,0.12704999744892,0.0369874984026,-0.04427500069141,0.00288749998435,0.47203749418259,0.5906999707222,-0.4658499956131,1.72507500648499,5.52736234664917,6.6247501373291,11.8376502990723,14.1563119888306,7.4734001159668,2.64811253547668,4.56105041503906,4.44405031204224,4.2330002784729,3.81405019760132,1.05705010890961,-1.63095009326935,15.9900007247925,41.0560531616211,38.1970520019531,6.58305025100708,-18.8059501647949,-15.106050491333,-8.47605037689209,-8.53395080566406,-8.55105018615723,-1.84395003318787,-1.80900013446808,-1.83495008945465,-1.89195013046265,-2.68995022773743,-5.22405004501343,5.64405012130737,0.25500002503395,-16.3770008087158,-33.234001159668,-24.2880020141602,-12.3420009613037,-4.98000001907349,-0.10800000280142,1.09305000305176,9.51300048828125,9.20400047302246,9.24195003509521,9.550950050354,11.8150501251221,15.5010004043579,11.4910507202148,-1.12200009822845,5.53695011138916,7.16595029830933,9.72105026245117,6.82095050811768,0.8359500169754,7.02000045776367,11.1540002822876,SWING_RIGHT
-0.23553749918938,-0.03767500072718,-0.1402499973774,-0.21175000071526,-0.24296249449253,-0.55137497186661,-1.38187503814697,-0.86721247434616,8.71763706207275,11.914924621582,7.25958728790283,18.8401126861572,16.3739128112793,2.96683740615845,6.78315019607544,-0.12416250258684,0.45416250824928,0.66178750991821,0.97198748588562,0.64542502164841,-0.01512499991804,0.29328748583794,-4.31433725357056,-20.3508243560791,-18.9569873809814,-4.15841245651245,-8.44291210174561,-7.54696226119995,5.52832508087158,11.7577629089355,1.4108874797821,1.27737498283386,0.60802501440048,0.01113750040531,0.12168750166893,0.74071252346039,0.92908751964569,2.56341242790222,13.2705373764038,12.3853120803833,5.13163757324219,13.9550123214722,19.9093132019043,13.3938751220703,5.38202476501465,-4.63200044631958,-2.956050157547,-4.38300037384033,-4.58700037002563,-5.08005046844482,-7.46295022964478,-0.73305004835129,28.6000518798828,52.1790008544922,33.6940498352051,6.10395050048828,-27.3610515594482,-19.0600509643555,-7.40595054626465,-10.5840005874634,-0.53700000047684,-0.63495004177094,-0.4909500181675,-0.43905001878738,-0.57000005245209,-3.15705013275146,-0.27600002288818,3.13905024528503,-1.72905004024506,-17.9820003509521,-43.4749526977539,-32.1150016784668,-15.9460506439209,-8.46405029296875,-1.33395004272461,11.7090005874634,8.75100040435791,9.0169506072998,9.71700000762939,13.4890508651733,11.5060501098633,10.1839504241943,6.33195018768311,-6.58500051498413,16.9260005950928,9.77895069122314,10.7130002975464,7.06305027008057,4.41195011138916,10.0279502868652,SWING_RIGHT
0.02364999987185,-0.69300001859665,-2.5335750579834,-3.84738755226135,-1.44512498378754,17.3130378723145,19.1905994415283,8.97655010223389,21.1345748901367,16.3268871307373,5.5254373550415,8.15058708190918,7.46157503128052,4.92951250076294,1.15156245231628,1.79616248607636,2.84019994735718,2.66351246833801,-0.521399974823,-12.2658252716064,-26.1163368225098,-16.6350250244141,-3.31086254119873,-8.84702491760254,-3.83721256256104,6.86097478866577,5.81955003738403,-0.87477499246597,-4.84770011901855,-6.40722513198853,0.29479998350143,0.36258751153946,0.3255999982357,-0.28435000777245,-0.12732499837875,6.69102478027344,6.50691223144531,3.28020000457764,14.3599500656128,19.4473133087158,10.3622751235962,3.79458737373352,2.99475002288818,3.02816247940063,2.15764999389648,-5.79900026321411,-8.47200012207031,0.01800000108778,9.38505077362061,39.6940536499023,39.3700523376465,24.7699508666992,-7.69305038452148,-37.4590530395508,-9.84900093078613,-11.0940008163452,-8.3299503326416,-2.81895017623901,1.88595008850098,2.382000207901,-1.84905004501343,-6.00705051422119,-5.87295007705688,-2.2300500869751,1.97205007076263,-7.28400039672852,-19.3810501098633,-38.0160026550293,-19.0500011444092,-12.246000289917,0.62595003843307,1.3660501241684,0.75600004196167,-0.46695002913475,0.925950050354,17.8789501190186,11.7570009231567,8.20800018310547,9.46995067596436,-6.37005043029785,-4.00605010986328,-0.94695001840591,19.0240516662598,13.0099506378174,12.1759510040283,7.59000015258789,11.2470006942749,10.0020008087158,7.34805011749268,6.09795045852661,SWING_RIGHT
