gyro_x_0,gyro_y_0,gyro_z_0,acc_x_0,acc_y_0,acc_z_0,gyro_x_1,gyro_y_1,gyro_z_1,acc_x_1,acc_y_1,acc_z_1,gyro_x_2,gyro_y_2,gyro_z_2,acc_x_2,acc_y_2,acc_z_2,gyro_x_3,gyro_y_3,gyro_z_3,acc_x_3,acc_y_3,acc_z_3,gyro_x_4,gyro_y_4,gyro_z_4,acc_x_4,acc_y_4,acc_z_4,gyro_x_5,gyro_y_5,gyro_z_5,acc_x_5,acc_y_5,acc_z_5,gyro_x_6,gyro_y_6,gyro_z_6,acc_x_6,acc_y_6,acc_z_6,gyro_x_7,gyro_y_7,gyro_z_7,acc_x_7,acc_y_7,acc_z_7,gyro_x_8,gyro_y_8,gyro_z_8,acc_x_8,acc_y_8,acc_z_8,gyro_x_9,gyro_y_9,gyro_z_9,acc_x_9,acc_y_9,acc_z_9,gyro_x_10,gyro_y_10,gyro_z_10,acc_x_10,acc_y_10,acc_z_10,gyro_x_11,gyro_y_11,gyro_z_11,acc_x_11,acc_y_11,acc_z_11,gyro_x_12,gyro_y_12,gyro_z_12,acc_x_12,acc_y_12,acc_z_12,gyro_x_13,gyro_y_13,gyro_z_13,acc_x_13,acc_y_13,acc_z_13,gyro_x_14,gyro_y_14,gyro_z_14,acc_x_14,acc_y_14,acc_z_14,motion_type
-0.74112498760223,-1.03317499160767,-1.94947493076324,-2.67643737792969,-3.10640001296997,-1.77594995498657,2.23863744735718,3.44561243057251,-0.68255001306534,3.70466256141663,6.65266227722168,2.35578751564026,1.08652496337891,-0.60554999113083,-1.34832501411438,0.12430000305176,0.50421249866486,0.76931250095367,1.3972749710083,1.24946248531342,-0.4779500067234,-1.23420000076294,3.93607497215271,4.15346240997314,-4.73687505722046,-3.86938738822937,2.77543759346008,0.98078751564026,-0.23237499594688,-0.31308749318123,-1.69991254806519,-1.93324995040894,-2.46097493171692,-4.10300016403198,-5.61054992675781,-5.82188749313354,1.54742503166199,14.9825496673584,22.917537689209,18.3911743164063,8.89597511291504,5.13796234130859,1.46437501907349,-0.62603747844696,-1.44086253643036,3.64305019378662,2.31705021858215,1.41195011138916,-1.24500000476837,-3.36195015907288,-11.3850002288818,-38.8330535888672,-19.2600002288818,1.54800009727478,42.3199501037598,34.0150527954102,30.6649513244629,22.3159503936768,14.2789506912231,9.81795024871826,3.86400008201599,3.86400008201599,2.0749499797821,-2.5969500541687,-11.6959505081177,-21.0649509429932,-19.6900501251221,-41.4019508361816,-74.7349548339844,-54.6660041809082,-19.4239501953125,-9.10995006561279,-4.97295045852661,-2.67405009269714,-1.91505014896393,8.26905059814453,6.81795024871826,7.83405017852783,7.88595056533813,11.1760501861572,15.9409503936768,21.7080001831055,12.7830009460449,13.9800004959106,18.5550003051758,-9.48795032501221,-4.68000030517578,1.00995004177094,3.37995004653931,6.57900047302246,SWING_LEFT
-1.27627503871918,-2.06181240081787,-2.01671242713928,-2.11310005187988,-2.43691253662109,-1.05764997005463,2.66860008239746,2.28621244430542,0.46956250071526,4.94463729858398,5.09863758087158,1.4774374961853,0.75047498941422,-0.14492499828339,-0.31597501039505,0.48716250061989,0.58121252059937,0.28435000777245,0.30882498621941,0.12925000488758,0.01677500084043,0.17448750138283,3.00272488594055,1.00759994983673,-4.76121234893799,-0.6514750123024,2.22199988365173,0.57144999504089,0.30882498621941,0.30387499928474,-2.06029987335205,-2.39511251449585,-2.99860000610352,-3.53003740310669,-4.48538732528687,-3.46527504920959,5.14167499542236,16.9617252349854,21.8644256591797,18.469274520874,9.98703765869141,6.55393743515015,3.27854990959167,0.78512501716614,-1.43481254577637,-0.80205005407333,-1.95405006408691,-1.05300009250641,-1.18305003643036,-2.92095017433167,-12.2059507369995,-33.1129531860352,-10.8600006103516,6.04200029373169,36.1650009155273,32.1949501037598,24.0229511260986,19.5360012054443,16.5869998931885,11.131950378418,3.2749502658844,1.9410001039505,-0.42105001211166,-2.34405016899109,-8.28600025177002,-20.9380512237549,-27.4999504089355,-54.952953338623,-75.1399536132813,-57.3790512084961,-24.3160514831543,-14.506950378418,-8.16195011138916,-2.29800009727478,-2.37495017051697,6.39495038986206,8.53500080108643,10.0459508895874,9.2920503616333,11.2980003356934,17.6500511169434,19.2660007476807,12.7060508728027,13.9650011062622,8.5420503616333,-7.11795043945313,0.82995003461838,4.29195022583008,7.04295015335083,8.52105045318604,SWING_LEFT
-0.48826250433922,-0.78512501716614,-1.29222500324249,-1.36056244373322,0.01498750038445,0.78471249341965,1.07057499885559,1.47014999389648,4.97887516021729,5.7386999130249,4.12128734588623,2.83841252326965,0.19098749756813,-0.66178750991821,-0.74978750944138,-0.01003750041127,0.6484500169754,0.96731251478195,1.33746254444122,-2.85656237602234,-2.6672248840332,3.7039749622345,3.87502503395081,-2.3813624382019,-0.85786247253418,2.48586249351501,1.39865005016327,0.55563747882843,-0.00508749997243,-0.25561249256134,-2.16906237602234,-2.65773749351501,-3.38579988479614,-4.28257513046265,-5.65826225280762,0.8729875087738,13.3735246658325,17.9207878112793,19.8107242584229,11.870924949646,7.0023250579834,3.33107495307922,2.67506241798401,2.52725005149841,0.53460001945496,-0.51705002784729,-1.732950091362,-4.11105012893677,-6.47205018997192,-10.1400003433228,-29.3989505767822,-18.4360504150391,-6.30900049209595,25.2160511016846,35.9520034790039,29.1690006256104,22.4100017547607,14.5710010528564,13.5030002593994,10.1820001602173,2.79795002937317,1.41195011138916,-1.40700006484985,-8.38199996948242,-20.6580009460449,-21.3540000915527,-42.7620010375977,-58.7869529724121,-70.243049621582,-33.4410018920898,-18.631950378418,-12.9570007324219,-4.98195028305054,-1.75005006790161,2.7529501914978,10.0870504379272,9.53295040130615,8.75505065917969,10.7790002822876,14.6809511184692,15.433051109314,20.9659519195557,21.8400001525879,14.0490007400513,0.87105005979538,2.65905022621155,-0.71505004167557,0.17205001413822,5.39400005340576,8.14500045776367,SWING_LEFT
-0.95988750457764,-1.50479996204376,-1.11870002746582,-0.04235000163317,0.24103750288486,0.75295001268387,0.74194997549057,0.69671249389648,4.84082508087158,7.08262491226196,4.49391269683838,4.1383376121521,1.45914995670319,0.55508750677109,-2.38067507743835,0.60568749904633,0.64240002632141,-0.4131875038147,-0.46076250076294,0.38458749651909,0.71197497844696,0.8732625246048,0.94173747301102,-3.3659999370575,-1.25496244430542,2.36376237869263,0.57763749361038,0.8952624797821,-0.09913749992847,-0.19566249847412,-3.12564992904663,-3.16841244697571,-2.92654991149902,-2.10911250114441,-0.71761250495911,4.16184997558594,9.46770000457764,18.0356006622314,18.5682754516602,12.1273622512817,8.6796875,3.9675624370575,1.64752495288849,0.83517497777939,-1.76343750953674,-3.29205012321472,-4.34295034408569,-6.14595031738281,-7.95600032806396,-12.0049505233765,-25.1830520629883,-25.3909511566162,-3.11505007743835,24.72705078125,33.5170516967773,30.6630020141602,25.185001373291,14.8390502929688,14.989951133728,8.31900024414063,-0.31095001101494,-2.14995002746582,-4.74495029449463,-8.67405033111572,-15.7879505157471,-24.1219520568848,-33.3139533996582,-56.0190010070801,-60.5490036010742,-32.8090515136719,-20.2789516448975,-12.997950553894,-1.0150500535965,0.34695002436638,-0.5020500421524,7.98000049591064,9.60495090484619,13.7020502090454,12.5479507446289,13.5180006027222,15.3829507827759,15.9120006561279,17.3239517211914,15.6769504547119,-3.05700016021729,2.60400009155273,-0.67995005846024,0.51195001602173,1.39800012111664,6.92595052719116,SWING_LEFT
-1.14798748493195,-1.35451245307922,-0.74731248617172,-0.9757000207901,-1.06122493743896,0.17146250605583,1.14028751850128,2.44254994392395,3.47490000724792,6.15408754348755,4.84329986572266,2.77117490768433,1.15128743648529,-2.44915008544922,-1.84071254730225,0.52016252279282,0.40163749456406,-0.34347498416901,-0.44742500782013,1.33993744850159,0.67044997215271,-0.36066249012947,-0.55976247787476,-0.33137500286102,-0.51452499628067,-0.89086252450943,0.02543750032783,1.39246249198914,1.31560003757477,0.37729999423027,-4.26910018920898,-3.78894996643066,-2.80307507514954,-2.87883758544922,-2.12877488136292,2.10691237449646,11.055962562561,18.8578491210938,18.9824256896973,12.5965127944946,9.75603771209717,4.07508754730225,1.60971248149872,-1.46410000324249,-2.34987497329712,-4.50104999542236,-7.32600021362305,-7.4650502204895,-6.85200023651123,-14.3800506591797,-28.0270519256592,-26.3899517059326,-5.88795042037964,26.2980003356934,26.1640510559082,30.1620006561279,28.828950881958,22.8379516601563,13.4020509719849,10.2510004043579,-0.51705002784729,-1.15605008602142,-3.01605010032654,-7.44105052947998,-14.7220506668091,-22.6639518737793,-38.743953704834,-61.5570030212402,-61.3200035095215,-36.6389999389648,-24.1150512695313,-12.1150503158569,-7.7590503692627,-0.90705001354218,-3.2989501953125,8.27205085754395,10.4100008010864,10.9050006866455,10.1440505981445,13.2229509353638,17.2120513916016,17.2360515594482,13.1749505996704,12.3040504455566,3.37800025939941,-2.82495021820068,-5.07105016708374,-5.7049503326416,7.4650502204895,11.3359508514404,SWING_LEFT
0.2788499891758,-1.08088743686676,-2.62762498855591,-2.18899989128113,-1.02712500095367,-0.53116250038147,0.96428751945496,1.46148753166199,3.57995009422302,6.41300010681152,3.39789986610413,2.47059988975525,-0.83407497406006,-1.7051374912262,-1.16269993782043,0.1024374961853,1.38160002231598,1.75793743133545,0.9649749994278,-0.03684999793768,-1.84126245975494,0.97240000963211,3.44506239891052,-0.68309998512268,0.49348750710487,1.90822494029999,-0.1199000030756,1.93503749370575,0.51301246881485,-1.01419997215271,-2.46331238746643,-3.40394997596741,-4.28601264953613,-4.7991623878479,-2.99475002288818,0.97583746910095,8.86682510375977,18.619836807251,19.9733867645264,9.9286003112793,7.12346267700195,2.99282503128052,0.99288749694824,1.11883747577667,0.19634999334812,0.88305002450943,-1.96605014801025,-5.51895046234131,-8.7610502243042,-17.5759506225586,-16.8150005340576,-26.3350505828857,-9.42405033111572,29.9080505371094,35.0350532531738,34.0750503540039,24.8280010223389,14.4529504776001,8.824049949646,13.371000289917,4.87200021743774,2.12805008888245,-3.07395005226135,-10.1710500717163,-14.1690006256104,-21.1699504852295,-31.7479515075684,-57.984001159668,-68.6080551147461,-23.2390518188477,-12.4759502410889,-3.38295006752014,-0.54300004243851,2.69295001029968,3.72705006599426,7.41195058822632,5.90100049972534,7.54605054855347,11.9299507141113,11.9299507141113,13.921950340271,20.5639514923096,18.4260005950928,22.3429508209229,-0.97905004024506,1.99095010757446,-2.36805009841919,-2.36505007743835,11.952000617981,7.67100048065186,SWING_LEFT
-0.63868749141693,-0.74854999780655,-0.58616250753403,-1.65151250362396,-1.60751247406006,0.20061250030994,0.74428749084473,-0.03396249935031,4.72463750839233,7.27196264266968,4.29577493667603,2.87374997138977,-1.83837497234344,-0.20982499420643,0.3240875005722,0.2441999912262,0.346774995327,-0.31652501225471,0.55577498674393,0.78539997339249,-0.4643374979496,1.68341243267059,2.27961254119873,-4.43244981765747,-0.41676250100136,2.97467494010925,2.25142502784729,1.8825124502182,0.42129999399185,0.59111249446869,-3.47118759155273,-2.97274994850159,-2.97274994850159,-2.5280749797821,-2.12121248245239,1.65384995937347,12.1373996734619,20.3424377441406,20.789587020874,11.7305374145508,6.7997875213623,4.17188739776611,2.050950050354,1.43151247501373,0.58850002288818,-3.24900007247925,-4.14000034332275,-4.71705007553101,-6.82095050811768,-8.77005004882813,-25.2960014343262,-23.9599514007568,-5.17605018615723,24.3559513092041,35.427001953125,32.0820007324219,28.5960006713867,10.9770002365112,16.8760509490967,13.8090009689331,-0.44295001029968,-3.0090000629425,-5.44905042648315,-9.20595073699951,-17.25,-22.3980007171631,-37.7890510559082,-64.5829544067383,-71.2300567626953,-33.1410026550293,-12.5479507446289,-7.60395050048828,-3.22905015945435,-3.77505016326904,-0.88995003700256,9.06704998016357,9.8299503326416,8.62395000457764,8.42295074462891,11.8540506362915,16.47705078125,16.0819511413574,21.6049518585205,18.4759502410889,-3.55995011329651,-3.51195025444031,-6.75405025482178,5.86995029449463,11.9350509643555,9.25605010986328,SWING_LEFT
0.26289999485016,-0.85373747348785,-1.0674124956131,-0.75721251964569,0.06132499873638,1.32343745231628,1.70953750610352,2.89079999923706,7.05196237564087,7.22177505493164,3.13032507896423,-5.69043731689453,0.27156248688698,2.65746259689331,0.70523750782013,0.69739997386932,1.13121247291565,1.65288746356964,2.55200004577637,0.46653750538826,0.44948750734329,3.12619996070862,2.95886254310608,0.30524998903275,-5.85337495803833,-0.7539125084877,4.86956262588501,0.2576749920845,1.77498745918274,0.69134998321533,-2.67588758468628,-2.8419873714447,-1.8463499546051,-0.19085000455379,0.82678747177124,3.67949986457825,8.39410018920898,13.2393245697021,10.0469875335693,10.2950372695923,0.04372499883175,-2.58788752555847,3.56345009803772,2.18047499656677,0.59592497348785,0.76305001974106,-7.20405054092407,-11.2410001754761,-14.392050743103,-10.7070007324219,-9.34695053100586,-7.56795024871826,1.46700012683868,29.9520015716553,26.7600021362305,30.9930019378662,-18.7590007781982,3.15705013275146,14.0220003128052,4.17900037765503,0.2080500125885,-1.43595004081726,-7.23495054244995,-10.4170503616333,-13.5199508666992,-14.0179510116577,-16.3450508117676,-24.7830009460449,-8.73600006103516,-16.2379512786865,-6.35205030441284,6.92595052719116,0.81600004434586,6.68895053863525,6.04305028915405,8.83395004272461,8.02995014190674,11.9779500961304,13.2469511032104,16.8480014801025,15.6559505462646,19.6210517883301,20.6190013885498,19.9939517974854,-8.95200061798096,-18.9259510040283,5.94900035858154,34.0009498596191,-0.58605003356934,0.4279500246048,SWING_LEFT
0.37908750772476,-0.31982499361038,-1.15293753147125,-2.39676237106323,-3.82978749275208,-2.77791237831116,1.638587474823,4.14919996261597,4.46806240081787,6.4154748916626,6.1773247718811,5.71175003051758,3.18161249160767,1.82792496681213,0.46694999933243,0.22591249644756,0.16843749582767,-0.20542499423027,1.11773753166199,3.51106238365173,2.20137500762939,-4.81002473831177,-1.29263746738434,1.58936250209808,-3.54186248779297,-2.0818874835968,-0.78691250085831,1.31436252593994,0.11110000312328,-0.63057500123978,-1.15486252307892,-1.30391252040863,-2.34726238250732,-3.60552501678467,-5.69951248168945,-6.69033765792847,1.85061252117157,15.1196374893188,22.5365257263184,19.0925617218018,10.0286998748779,8.3390998840332,3.06982493400574,0.91726249456406,-0.36066249012947,2.29995012283325,1.13895010948181,-0.69000005722046,-2.5639500617981,-3.80400013923645,-16.2690010070801,-39.901050567627,-18.295051574707,4.63200044631958,35.2360534667969,32.2309532165527,28.5409507751465,23.1660003662109,17.8770008087158,15.0180006027222,6.31800031661987,7.43595027923584,6.41595029830933,2.18505001068115,-9.56505012512207,-21.949951171875,-25.5130519866943,-53.253002166748,-78.8080520629883,-68.8399505615234,-30.8980522155762,-24.223051071167,-13.2349510192871,-7.63500022888184,-2.70000004768372,6.40905046463013,7.47000026702881,6.84000015258789,6.04995012283325,4.40700006484985,17.3290500640869,20.941951751709,12.0000009536743,20.0179500579834,1.06305003166199,-1.76205003261566,-3.17400026321411,-0.15300001204014,-0.43305000662804,2.65695023536682,SWING_LEFT
-1.7051374912262,-3.06734991073608,-3.89578747749329,-3.07601237297058,-1.26898753643036,1.78034996986389,1.40043747425079,3.11932492256165,5.64588737487793,11.0445499420166,8.21878719329834,3.80710005760193,1.54453754425049,-1.43522500991821,-0.99054998159409,-0.66233748197556,1.47564995288849,2.77557492256165,2.1843249797821,1.93627500534058,-1.56873750686646,0.87711250782013,2.13056254386902,2.53123760223389,-3.15576243400574,3.72116255760193,4.54217481613159,0.98216247558594,1.28026247024536,-0.5047624707222,-3.5457124710083,-4.32025003433228,-4.88468742370605,-5.64093732833862,-4.59153747558594,2.10718750953674,7.53156232833862,11.8123502731323,19.5469989776611,15.9344625473022,9.60726261138916,5.42657518386841,2.16328740119934,0.89031249284744,0.81097501516342,3.34395027160645,0.33705002069473,-2.78700017929077,-8.31300067901611,-15.8550004959106,-14.2530002593994,-17.7510013580322,-14.4540004730225,0.65505003929138,34.5730514526367,36.3679504394531,29.181001663208,23.0149517059326,12.2509508132935,10.3140001296997,4.25400018692017,0.24405001103878,-4.675950050354,-11.6449508666992,-15.0640506744385,-24.4309520721436,-32.8470001220703,-42.9439506530762,-72.376953125,-61.8420028686523,-32.5740013122559,-15.2899503707886,-11.8680009841919,-5.15205001831055,-2.20500016212463,7.2180004119873,7.06305027008057,8.74305057525635,15.0930004119873,17.344051361084,9.84195041656494,20.0130004882813,24.07200050354,18.4759502410889,10.7860507965088,-7.49805021286011,2.65005016326904,-2.61705017089844,5.30805015563965,6.55995035171509,SWING_LEFT
-0.01553750038147,0.25437501072884,-0.26234999299049,0.4657124876976,-0.52497500181198,-2.42604994773865,-1.16764998435974,1.53725004196167,4.32025003433228,6.79428768157959,4.57434988021851,4.61106252670288,3.36118745803833,2.33007502555847,2.6001250743866,-0.46200001239777,-1.11072504520416,-1.34640002250671,-2.0685498714447,-0.05637500062585,1.35478746891022,0.14519999921322,2.59352493286133,-1.17177498340607,-4.26387500762939,0.17943750321865,-0.69410002231598,0.75006252527237,1.04816246032715,-0.67938750982285,-3.01427507400513,-2.79675006866455,-3.13156247138977,-4.28601264953613,-5.17302513122559,-4.23101234436035,3.98364996910095,17.1476249694824,23.9012126922607,17.1586246490479,12.7714128494263,8.53572463989258,3.99464988708496,2.34657502174377,0.72173750400543,-3.32100009918213,-4.29795026779175,-5.04000043869019,-4.13505029678345,-7.24005031585693,-12.0499505996704,-31.9900512695313,-12.1819505691528,11.8390502929688,38.0230522155762,27.9550514221191,35.0710525512695,24.0979518890381,18.4900512695313,16.8430500030518,2.47695016860962,3.21495008468628,1.71405005455017,-3.99795007705688,-11.3820009231567,-23.6430015563965,-32.7559509277344,-58.3870544433594,-78.8080520629883,-64.8630065917969,-37.9830017089844,-24.340051651001,-13.9200010299683,-8.44200038909912,-4.26600027084351,11.7390003204346,10.1820001602173,10.6129503250122,11.2669506072998,4.34700012207031,8.93295001983643,23.6070003509521,19.6180515289307,16.40505027771,-4.74300003051758,0.54300004243851,2.65200018882751,-1.19400000572205,5.04900026321411,3.39195013046265,SWING_LEFT
-1.23488748073578,0.28256249427795,0.51342499256134,-0.26111251115799,-1.34351253509521,-1.76137495040894,1.09862494468689,1.94644999504089,4.07838726043701,6.21390008926392,3.80833745002747,1.96239995956421,1.19886255264282,0.91052502393723,0.74676251411438,2.01932501792908,1.75051248073578,0.98573750257492,1.12502503395081,0.030387500301,-0.88948750495911,0.31872498989105,1.82627499103546,-3.80572509765625,-2.60356259346008,1.87027502059937,3.18120002746582,3.1409125328064,2.06703758239746,0.1379124969244,-1.72411251068115,-1.08157503604889,-1.62029993534088,-2.88474988937378,-2.75769996643066,2.20495009422302,14.5356750488281,23.4187240600586,23.2379131317139,13.1929874420166,7.93594980239868,2.90372490882874,0.84754997491837,0.82926249504089,1.36675000190735,-4.00605010986328,-3.35700011253357,-3.31800007820129,-6.52005052566528,-8.30100059509277,-26.1070518493652,-12.4840507507324,4.82595014572144,35.7310523986816,32.4109497070313,32.0370025634766,23.6980514526367,11.8219509124756,8.37405014038086,5.7330002784729,-0.35895001888275,-1.75905013084412,-5.23095035552979,-9.67305088043213,-19.4460010528564,-29.5759506225586,-48.4500007629395,-78.8029556274414,-78.8080520629883,-38.827953338623,-16.7359504699707,-8.83005046844482,-4.82205009460449,-3.72495007514954,-1.88895010948181,12.562050819397,12.2389507293701,8.51399993896484,7.42695045471191,9.2029504776001,15.8230504989624,15.1650009155273,12.0259504318237,8.26005077362061,2.68305015563965,0.6360000371933,6.57705020904541,6.51000022888184,7.23000049591064,7.5730504989624,SWING_LEFT
-2.65691256523132,-2.49562501907349,-2.64219999313354,-1.00759994983673,0.88357502222061,0.2727999985218,1.59829998016357,3.43323755264282,6.08203744888306,7.47106266021729,6.29942512512207,2.04421257972717,0.28613749146461,0.690524995327,1.30019998550415,0.58025002479553,2.5471875667572,2.78410005569458,3.75787496566772,0.09638749808073,-0.59386247396469,0.90268748998642,-1.93283748626709,-3.58462500572205,-1.84249997138977,-0.70867496728897,1.13726246356964,0.61558747291565,0.32972499728203,0.37867498397827,-2.04544997215271,-1.97092497348785,-1.86463749408722,-1.77182495594025,0.33206251263618,5.51814985275269,14.0725746154785,20.7381629943848,19.9953880310059,13.5766124725342,11.2503871917725,2.91720008850098,1.16888749599457,1.53903746604919,1.57327497005463,0.05400000140071,-3.95295023918152,-3.85005021095276,-9.62505054473877,-13.3099508285522,-20.7540016174316,-12.4260005950928,5.72100019454956,23.9010009765625,29.2500019073486,29.1760520935059,22.5559501647949,12.6000003814697,11.2140007019043,12.3679504394531,-1.44105005264282,-2.98800015449524,-7.57500028610229,-15.2940006256104,-23.4490509033203,-33.8640022277832,-52.2640533447266,-78.295051574707,-75.0370559692383,-41.5999526977539,-30.8640022277832,-13.0050010681152,-10.6660509109497,-8.028000831604,-2.39100003242493,11.0779504776001,10.0510501861572,9.95700073242188,15.3469505310059,9.72495079040527,12.4590005874634,15.5890502929688,11.0989503860474,9.82095050811768,-2.84400010108948,-5.8560004234314,-2.62605023384094,3.99300026893616,7.37100028991699,4.90095043182373,SWING_LEFT
-2.17923760414124,-2.54691243171692,-2.3588125705719,-1.39370000362396,0.05651250109076,2.44983744621277,1.91221249103546,-0.46639999747276,4.23225021362305,4.62687492370605,5.04721260070801,4.07109975814819,2.04792499542236,0.85799998044968,0.34842500090599,1.47688746452332,1.19102501869202,0.5545374751091,0.37496250867844,0.23072500526905,0.29315000772476,1.09697496891022,2.31261253356934,-5.40980005264282,-3.49662494659424,-0.91519999504089,1.28507494926453,1.20573747158051,0.18438750505447,0.20872500538826,-3.24390006065369,-3.10708737373352,-2.81874990463257,-1.85487496852875,-0.28380000591278,5.97382497787476,17.693775177002,20.580587387085,19.6007633209229,14.0872869491577,8.10452461242676,3.82731246948242,1.97037494182587,0.81097501516342,0.11948750168085,-4.56599998474121,-5.48805046081543,-7.11300039291382,-9.00195026397705,-11.7540006637573,-30.0910511016846,-16.1110515594482,-3.36600017547607,22.0429515838623,32.3310012817383,30.8809509277344,21.3390007019043,15.246000289917,11.5470008850098,8.41695022583008,-0.57705003023148,-3.26805019378662,-6.49305009841919,-10.992000579834,-18.8020515441895,-33.6510009765625,-67.8030014038086,-78.8050537109375,-77.8140029907227,-45.5940017700195,-26.2120513916016,-14.8630504608154,-8.24100017547607,-3.8209502696991,-0.21000000834465,8.05395030975342,8.76705074310303,10.9600505828857,11.7630004882813,12.3760509490967,17.53005027771,6.9859504699707,8.73600006103516,13.326000213623,-0.27705001831055,3.87600016593933,-0.86205005645752,1.06995010375977,3.07095003128052,4.60095024108887,SWING_LEFT
-1.18964993953705,-1.55980002880096,-3.32392501831055,-3.25434994697571,-1.92513751983643,0.61118751764297,1.75106251239777,2.71493744850159,4.12720012664795,5.41612482070923,3.83652496337891,2.89327502250671,1.86463749408722,1.06686246395111,0.43889999389648,1.552649974823,2.20137500762939,2.5202374458313,1.54659998416901,1.83974993228912,-0.58533751964569,-2.91761255264282,1.26926255226135,-0.96896249055862,-3.09966254234314,-0.41799998283386,0.05486249923706,0.22220000624657,0.07067500054836,0.64006251096725,-1.63501250743866,-1.66182494163513,-2.21031260490417,-3.35995006561279,-3.72281241416931,-0.86528748273849,12.1728754043579,20.0149116516113,21.1304492950439,16.4011383056641,11.0867624282837,9.16011238098145,5.19557476043701,1.34846246242523,0.47134998440742,-1.75005006790161,-2.63595008850098,-3.17700004577637,-3.46905016899109,-5.38695049285889,-22.4269504547119,-23.8300514221191,8.46000003814697,20.4150009155273,31.7040023803711,29.0350513458252,28.7880020141602,22.359001159668,17.2309513092041,14.4199504852295,2.62095022201538,2.60895013809204,-3.56700015068054,-10.3930501937866,-20.7409515380859,-31.7670021057129,-43.1950531005859,-68.8189544677734,-77.7330017089844,-49.2240028381348,-29.1379508972168,-24.1290016174316,-13.3570508956909,-5.03700017929077,-2.45400023460388,8.08695030212402,6.4350004196167,8.25705051422119,10.113000869751,12.1500005722046,12.0259504318237,14.1330003738403,11.8770008087158,12.7350006103516,-0.33000001311302,-2.53305006027222,-0.52605003118515,2.71695017814636,3.06900024414063,3.94305014610291,SWING_LEFT
0.12484999746084,-1.5439875125885,-3.33616256713867,-3.36063742637634,-1.45103752613068,0.16761249303818,2.92379999160767,4.40096235275269,4.0136251449585,3.50047492980957,3.93304991722107,3.70204997062683,2.45712494850159,1.51772499084473,-0.52745002508163,-0.37152498960495,0.88687497377396,1.48541247844696,1.52088749408722,0.63511252403259,-0.24818749725819,0.31391251087189,0.55825001001358,-0.87848746776581,-2.9664249420166,-2.57056260108948,-0.09418749809265,0.88440001010895,1.36826252937317,1.68588745594025,-3.63123750686646,-6.10279989242554,-4.85292482376099,-3.45289993286133,-1.96116244792938,1.4889874458313,11.2613878250122,21.7852249145508,22.02956199646,12.4733123779297,9.61578750610352,5.08199977874756,2.44805002212524,1.60008752346039,0.01677500084043,2.89395022392273,-2.6290500164032,-7.11600017547607,-8.2669506072998,-7.54905033111572,-14.1769504547119,-22.7530517578125,-3.28005003929138,33.2130012512207,26.5300521850586,28.582052230835,27.7660522460938,21.2599506378174,17.3170509338379,11.1660003662109,-0.39900001883507,-5.33400011062622,-7.43595027923584,-11.7390003204346,-18.9259510040283,-26.1550521850586,-37.6230010986328,-73.2049560546875,-78.8080520629883,-36.4210510253906,-22.8460502624512,-13.4440507888794,-8.44395065307617,-6.37995052337646,-4.49100017547607,9.55500030517578,5.14995002746582,7.09395027160645,11.5639505386353,12.5670003890991,14.2690505981445,16.3240509033203,8.67900085449219,4.82205009460449,1.53405010700226,1.42200005054474,-0.62700003385544,-0.98805004358292,-0.6240000128746,5.75505018234253,SWING_LEFT
-2.91829991340637,-3.59397506713867,-3.11753749847412,-1.29346251487732,-0.52016252279282,0.57942497730255,3.1768000125885,4.23225021362305,2.578125,4.61353731155396,8.1270751953125,5.96832513809204,0.81757497787476,-0.3588750064373,-0.60073751211166,1.45364999771118,1.76398754119873,2.31866240501404,0.17091250419617,0.49953749775887,-0.76986247301102,-1.93036246299744,1.24726247787476,1.14345002174377,-2.91266250610352,-5.76413726806641,-1.30363750457764,2.70723748207092,1.71393752098084,1.0920250415802,-3.8315749168396,-4.06120014190674,-4.10038757324219,-2.80046248435974,-2.82975006103516,-1.63501250743866,6.42221260070801,17.7865867614746,22.3056621551514,19.1890869140625,12.7128372192383,5.85048723220825,2.03142499923706,0.08648750185966,-0.57447499036789,-2.20500016212463,-2.71305012702942,-5.1670503616333,-5.31795024871826,-3.81195020675659,-11.6389503479004,-29.7229518890381,-9.4480504989624,11.7139501571655,18.5809516906738,31.4700012207031,28.7590522766113,19.5460510253906,13.9819507598877,11.8360509872437,0.47805002331734,-1.48200011253357,-4.80495023727417,-8.10900020599365,-15.4140005111694,-21.9070510864258,-26.5210514068604,-52.5760536193848,-78.8080520629883,-58.4680519104004,-35.4810028076172,-17.3749504089355,-10.0030508041382,-7.64895057678223,-4.95300006866455,5.55195045471191,8.73405075073242,10.2090005874634,11.2330503463745,8.58495044708252,12.2080507278442,15.8380508422852,8.51100063323975,11.0850009918213,11.0160007476807,0.30795001983643,-11.7460508346558,-2.67900013923645,3.98805022239685,4.44105005264282,SWING_LEFT
-2.12794995307922,-3.57321238517761,-3.40216255187988,-1.2421749830246,2.62459993362427,3.05456256866455,2.07844996452332,3.82909989356995,5.23654985427856,4.71116256713867,5.00692510604858,4.48758745193481,1.29167497158051,-0.21477499604225,-0.9953625202179,1.32302498817444,0.41648748517036,-0.42776250839233,-2.11117506027222,-1.96955001354218,1.5966500043869,2.47390007972717,-0.07342500239611,-0.1552374958992,-2.84789991378784,-1.46492505073547,-0.02213750034571,1.80441248416901,1.52707493305206,0.99921250343323,-5.4955997467041,-6.14556264877319,-5.80703735351563,-4.23843765258789,0.18053749203682,9.82464981079102,19.8353366851807,24.2690258026123,21.2770252227783,12.2069749832153,7.55961227416992,4.48703765869141,-0.50613749027252,-1.49930000305176,-1.87563753128052,-4.546950340271,-5.59500026702881,-8.24805068969727,-10.6399507522583,-19.6090507507324,-19.7740516662598,-10.2550506591797,15.5160007476807,26.2140007019043,26.121000289917,30.9310512542725,30.3750019073486,16.4209499359131,11.9269504547119,8.9800500869751,-2.36505007743835,-8.30805015563965,-12.5550003051758,-17.8900508880615,-22.9369506835938,-31.3530006408691,-59.0430030822754,-78.8080520629883,-77.1389999389648,-32.8399505615234,-18.7950000762939,-13.9300508499146,-6.24195051193237,-4.8120002746582,-2.82495021820068,3.28200006484985,6.2920503616333,10.8120002746582,19.6590003967285,17.2570514678955,14.2330503463745,15.03600025177,15.6990003585815,10.0600500106812,3.91605019569397,0.21705001592636,-1.32795011997223,-0.30105000734329,2.30295014381409,4.01505041122437,SWING_LEFT
-2.70819997787476,-2.35028743743896,-1.17012500762939,-1.04665005207062,-0.9013124704361,-0.5849249958992,0.62699997425079,1.98563754558563,1.37596249580383,3.62271237373352,6.17113733291626,3.66904997825623,1.30748748779297,-0.18782499432564,-0.01553750038147,1.77746248245239,2.20880007743835,0.53006249666214,-0.83943748474121,-0.70620000362396,-0.11742500215769,0.26867499947548,1.93875002861023,-0.92977499961853,-2.4447500705719,-2.00254988670349,1.14826250076294,1.45983743667603,1.11278748512268,0.35543748736382,-4.76135015487671,-4.18343734741211,-3.14256238937378,-1.94163751602173,-0.96538752317429,2.38452506065369,6.31716251373291,19.8903369903564,22.2494239807129,18.9972743988037,8.8204870223999,3.953125,0.49568748474121,-0.48289999365807,-0.23856249451637,-3.87900018692017,-5.50005006790161,-5.59995031356812,-4.6710000038147,-5.80395030975342,-15.8980503082275,-23.7469520568848,-5.94000005722046,16.7110500335693,31.6420516967773,29.2140007019043,26.9280014038086,17.7930011749268,9.76500034332275,6.32505035400391,-3.97905015945435,-4.82595014572144,-5.35995006561279,-7.2610502243042,-11.7679510116577,-17.4870014190674,-20.7720012664795,-59.2390518188477,-75.7999572753906,-58.9969520568848,-22.1440505981445,-11.3320503234863,-7.49595022201538,-4.49805021286011,-2.08695006370544,8.32200050354004,9.78194999694824,9.27300071716309,7.95795059204102,8.52300071716309,15.0120010375977,18.5650501251221,10.9440002441406,15.9880504608154,15.2989511489868,-1.78095006942749,-1.54095005989075,-0.32805001735687,6.36300039291382,7.17495012283325,SWING_LEFT
-0.50421249866486,-0.13901250064373,-0.70097500085831,-1.40222501754761,-2.72043752670288,-4.56651258468628,-3.82126259803772,3.33313751220703,4.06738758087158,8.76603698730469,8.20531272888184,4.26896238327026,2.87127494812012,0.73094999790192,0.33989998698235,0.22838750481606,0.15867500007153,0.16486249864101,0.96745002269745,1.86051249504089,2.19532489776611,0.5154874920845,1.17878746986389,3.00891256332397,-0.9286749958992,1.91069996356964,2.84157490730286,1.24973750114441,1.43907499313354,0.92344999313354,-1.98192501068115,-2.53907489776611,-3.91833758354187,-5.67517518997192,-5.19983768463135,-3.22932505607605,-1.06067502498627,13.9308128356934,21.5140743255615,17.6533508300781,10.9377126693726,6.62502479553223,2.66914987564087,1.09560000896454,0.59468752145767,2.60400009155273,2.11304998397827,4.69395017623901,0.7579500079155,-6.42105007171631,-15.1800003051758,-24.4069519042969,-19.2499504089355,4.7039999961853,42.3400535583496,34.1389503479004,33.0229530334473,20.8129501342773,12.0450010299683,9.79395008087158,6.56505012512207,6.89700031280518,3.79695010185242,-0.86895006895065,-5.76495027542114,-14.8750505447388,-19.056001663208,-47.026050567627,-75.8080520629883,-56.8759536743164,-29.5159511566162,-14.1640510559082,-8.08500003814697,-3.49305009841919,-0.40695002675056,10.3500003814697,9.0400505065918,8.40105056762695,7.54095029830933,5.26005029678345,13.7670001983643,19.230001449585,28.465051651001,28.5780010223389,12.5290508270264,-10.0270500183105,-4.90995025634766,-2.95395016670227,0.84495002031326,4.80495023727417,SWING_LEFT
-1.68437504768372,-1.48046255111694,-1.93613743782043,-3.33492493629456,-3.49373745918274,-4.7876124382019,1.83535003662109,6.5107626914978,5.35507488250732,5.83646249771118,5.94151258468628,2.66365003585815,1.81211245059967,1.22443747520447,-0.50545001029968,-0.86143749952316,-0.14547500014305,0.33591249585152,0.11962500214577,-0.08195000141859,-0.26276248693466,-3.11299991607666,3.3987250328064,5.31190013885498,2.41518759727478,1.45007503032684,3.27648758888245,3.0908625125885,2.22337508201599,1.12021243572235,-2.9470374584198,-3.75828742980957,-4.84068727493286,-5.24631261825562,-5.50536251068115,-5.51512479782104,1.09436249732971,12.1642122268677,20.1408615112305,17.5251998901367,12.1776876449585,7.76737499237061,4.05583763122559,1.68561244010925,0.9843624830246,0.43200001120567,1.44495010375977,-1.05300009250641,-3.22995018959045,-3.17700004577637,-5.10195016860962,-27.0889511108398,-11.5909509658813,7.47600030899048,39.8500518798828,38.3629531860352,26.5210514068604,21.0660018920898,16.0579509735107,10.4239501953125,5.42205047607422,3.04005002975464,-0.483000010252,-4.66095018386841,-10.8100509643555,-22.3500003814697,-16.9249515533447,-34.9590034484863,-62.8980026245117,-49.8340530395508,-28.3380012512207,-12.4879503250122,-5.86305046081543,-3.72795009613037,-3.27300024032593,9.06704998016357,8.75804996490479,6.59295034408569,8.30805015563965,9.49995040893555,15.6270008087158,36.5869522094727,18.4450511932373,16.7040004730225,10.828950881958,6.29595041275024,1.68495011329651,6.15000009536743,1.70205008983612,3.62700009346008,SWING_LEFT
-1.34241247177124,-1.01859998703003,-2.85972499847412,-4.5445122718811,-2.82796239852905,-0.32958748936653,5.48212480545044,4.22867488861084,3.8596248626709,3.58971238136292,4.17614984512329,2.29955005645752,1.91345000267029,1.63377499580383,1.19267499446869,1.08473753929138,0.85140001773834,-1.39768743515015,-0.27623748779297,1.05916249752045,-0.30195000767708,-0.04661250114441,3.16414999961853,-1.66168749332428,-2.47898745536804,-1.01530003547668,0.11591249704361,0.54106247425079,-0.01842499896884,-0.65491247177124,-3.38689994812012,-3.40890002250671,-4.18096256256104,-4.41553735733032,-4.18948745727539,-2.93356251716614,11.7562503814697,22.6197128295898,20.7700614929199,11.3053874969482,7.65490007400513,5.0685248374939,2.93919992446899,1.48403751850128,0.6044499874115,-0.24405001103878,-1.32600009441376,-1.75500011444092,-3.06495022773743,-8.074049949646,-15.8839511871338,-20.3080501556396,-2.18805003166199,40.5610504150391,28.9320011138916,24.4660511016846,20.6830501556396,17.3479499816895,14.2470006942749,11.3959503173828,1.35195004940033,-0.7590000629425,-5.73600006103516,-13.3740005493164,-21.775951385498,-24.8160018920898,-39.8809509277344,-74.2750549316406,-72.0529556274414,-28.0870513916016,-17.7319507598877,-12.4909505844116,-9.21300029754639,-7.81905031204224,-4.67295026779175,8.58105087280273,6.76605033874512,5.06805038452148,10.2300004959106,17.1739501953125,23.3370018005371,8.51805019378662,8.27895069122314,1.34700012207031,4.52505016326904,-0.11205000430346,3.03495025634766,5.92500019073486,5.49405002593994,4.16505002975464,SWING_LEFT
0.43889999389648,-0.84149998426437,-1.55732500553131,-1.68327498435974,-1.43027496337891,-0.94655001163483,0.68323749303818,1.42725002765656,4.04043769836426,7.30606269836426,6.53276252746582,3.24032497406006,1.98440003395081,0.3753750026226,-0.82073748111725,-0.07837499678135,-0.83214998245239,0.44948750734329,0.35901248455048,-0.48152500391006,-2.61456251144409,-1.63116252422333,0.51177501678467,-4.23087501525879,-5.4465126991272,-2.01836252212524,1.37912499904633,1.71022498607636,1.94356250762939,1.7994624376297,-2.63065004348755,-2.744225025177,-3.46142506599426,-4.59635019302368,-4.25067520141602,-0.37166249752045,10.2913246154785,20.8982124328613,23.7693500518799,18.2080249786377,10.131275177002,4.95123767852783,1.08707499504089,-0.63071250915527,-1.75958752632141,-4.87995004653931,-6.18195009231567,-2.88300013542175,-5.98995018005371,-9.39000034332275,-18.8500499725342,-24.4789505004883,-6.48795032501221,19.5870018005371,26.1139507293701,35.0350532531738,30.8809509277344,19.2750015258789,13.3210506439209,15.7180509567261,3.36600017547607,1.78995013237,-2.85795021057129,-8.38695049285889,-16.7670001983643,-23.3770503997803,-33.4620018005371,-66.2590560913086,-78.8080520629883,-57.3480033874512,-27.8809509277344,-16.4749507904053,-9.60105037689209,-6.65295028686523,-3.83295011520386,5.5090503692627,7.93395042419434,8.88705062866211,8.18100070953369,7.92705059051514,12.6630010604858,13.2139501571655,11.6760005950928,10.242000579834,-1.09605002403259,-11.7169504165649,-3.26805019378662,0.61005002260208,3.99600028991699,6.83295011520386,SWING_LEFT
-1.7100875377655,-1.34722495079041,-0.75349998474121,-0.77549999952316,-2.10347509384155,-1.31917500495911,1.81458747386932,3.39789986610413,3.65805006027222,6.09908723831177,5.75093746185303,4.68435001373291,2.37902498245239,1.51153743267059,0.61723750829697,1.62593746185303,1.83493745326996,0.64982497692108,0.11219999939203,-0.67457497119904,-1.54192495346069,-0.61215001344681,3.58311247825623,-1.49311244487762,-3.58833742141724,0.00838750042021,0.63511252403259,1.28631246089935,0.67787498235703,0.80739998817444,-4.20296239852905,-3.98433756828308,-3.81081247329712,-3.74604988098145,-4.00991249084473,-0.77604997158051,8.8778247833252,20.4267253875732,24.2127876281738,18.0834503173828,12.7701749801636,7.88947486877441,3.82236242294312,1.62827503681183,0.43834999203682,-3.48600006103516,-5.73195028305054,-6.60795021057129,-6.32595014572144,-3.96495008468628,-17.4259510040283,-21.2470512390137,-15.502950668335,16.5199508666992,25.4910011291504,31.0600509643555,28.6470012664795,20.2429504394531,15.5140504837036,11.3910007476807,0.7180500626564,-1.4479501247406,-6.22200012207031,-8.47305011749268,-19.2859516143799,-22.3570518493652,-32.623950958252,-69.8959503173828,-78.8080520629883,-61.9609527587891,-37.4730033874512,-20.5470008850098,-11.3680505752563,-9.0600004196167,-5.78400039672852,10.5970506668091,9.21300029754639,8.57100009918213,7.70400047302246,7.69500017166138,14.8180503845215,16.6759510040283,15.6990003585815,17.1430511474609,0.72705000638962,2.41995000839233,-2.50395011901855,2.32695007324219,4.60095024108887,5.29800033569336,SWING_LEFT
-1.65384995937347,-2.09618759155273,-1.97147500514984,-1.68203747272491,-1.56227493286133,-0.85002499818802,0.17008750140667,2.28854990005493,3.43447494506836,3.92081236839294,8.77456283569336,4.57558727264404,2.12973737716675,0.65752500295639,0.46818751096725,-0.57062500715256,-0.11495000123978,1.4695999622345,1.23997497558594,1.34860002994537,0.42019999027252,-1.13382494449615,-0.60004997253418,-0.60610002279282,-4.08306264877319,-5.7934250831604,0.79887497425079,0.0671000033617,1.03592503070831,1.08226251602173,-4.44358730316162,-3.90733742713928,-2.76993751525879,-1.71187496185303,-1.16091251373291,0.1402499973774,4.19264984130859,14.3328628540039,25.0215625762939,24.772274017334,17.2746753692627,9.54497528076172,2.95129990577698,-0.72476249933243,-1.43948745727539,-2.95695018768311,-5.3580002784729,-6.03405046463013,-5.99295043945313,-6.06705045700073,-7.12500047683716,-18.1270503997803,-18.1459503173828,-12.5010004043579,9.52605056762695,29.3580017089844,33.6940498352051,31.8480014801025,16.756950378418,13.7850008010864,-1.47900009155273,-3.15000009536743,-4.75500011444092,-7.37895011901855,-8.83905029296875,-18.8740501403809,-24.961950302124,-43.995002746582,-78.8080520629883,-78.8080520629883,-58.0129508972168,-29.7990016937256,-19.6500015258789,-11.1690006256104,-10.0410003662109,9.64605045318604,11.6980504989624,11.5230007171631,10.8240003585815,9.62205028533936,8.87700080871582,12.9760503768921,12.4260005950928,10.3500003814697,1.5130500793457,-4.63005018234253,-9.08295059204102,-4.22100019454956,3.10500025749207,4.36199998855591,SWING_LEFT
-3.49016237258911,-3.75278759002686,-2.41628742218018,-1.33141243457794,-1.03812503814697,1.61411249637604,5.90603733062744,3.42113757133484,5.55293750762939,8.23336219787598,1.14138746261597,-1.56708753108978,-2.5066249370575,-0.55192500352859,-0.55563747882843,3.44148755073547,4.40412521362305,1.78474998474121,-1.21082496643066,-0.95548748970032,0.03781250119209,-0.4838624894619,2.50071239471436,-1.56021249294281,-3.08866238594055,4.17202520370483,2.9381000995636,2.99309992790222,0.22838750481606,1.40359997749329,-3.95257496833801,-2.9470374584198,-2.7112250328064,-1.84016251564026,-0.04427500069141,4.86571264266968,13.3236122131348,23.2562007904053,22.1883754730225,19.1157989501953,7.13088750839233,-1.75711250305176,-3.3576123714447,-2.0344500541687,-3.89757490158081,-7.72905015945435,-10.3000507354736,-9.58200073242188,-7.93005037307739,-7.86300039291382,-14.952000617981,-17.836950302124,-5.58105039596558,22.2799510955811,23.1400508880615,45.7680015563965,22.2900009155273,9.85395050048828,10.1200504302979,9.19095039367676,0.00195000006352,-4.15395021438599,-9.83805084228516,-14.4439506530762,-17.8510513305664,-21.3019504547119,-39.7350006103516,-78.8050537109375,-77.172004699707,-58.3290023803711,-15.867000579834,-11.2549505233765,-10.3810501098633,-5.70795011520386,-4.28295040130615,5.83695030212402,9.68205070495605,12.6030006408691,11.3770503997803,12.1579504013062,17.451000213623,13.2570009231567,1.24395000934601,21.9240016937256,-1.1010000705719,-1.51500010490417,3.03105020523071,12.7590007781982,10.9990501403809,11.1859502792358,SWING_LEFT
-1.87618744373322,-2.0326623916626,-3.3544499874115,-4.86213731765747,-2.7277250289917,-0.36492499709129,0.55618751049042,5.72646236419678,11.279125213623,3.96591258049011,3.11203742027283,3.48589992523193,1.6825875043869,-0.51644998788834,-0.38458749651909,0.51301246881485,0.22343750298023,2.62652492523193,3.94226241111755,0.78787499666214,-1.74954998493195,-1.75944995880127,-5.55280017852783,-6.9858250617981,3.00286245346069,1.77251243591309,-0.93348747491837,1.5966500043869,2.60947489738464,0.51782500743866,-3.81452488899231,-6.24084997177124,-6.89314985275269,-6.63905000686646,-5.34159994125366,2.45533752441406,13.3187999725342,22.9813365936279,21.2122631072998,10.3219871520996,9.09287452697754,4.5457501411438,1.06012499332428,0.52868747711182,0.58121252059937,2.28600001335144,1.90500009059906,-3.40200018882751,-6.43605041503906,-11.4400501251221,-24.7470016479492,-13.0750503540039,1.87095010280609,42.2220001220703,32.1900024414063,29.3629512786865,28.2280521392822,17.2980003356934,10.6780500411987,8.7450008392334,2.69100022315979,-4.66395044326782,-9.34905052185059,-15.0450010299683,-23.3179512023926,-28.7500514984131,-45.4480514526367,-78.7909545898438,-78.8080520629883,-25.9180507659912,-17.614049911499,-13.1509504318237,-6.9190502166748,-4.6230001449585,-2.92995023727417,11.0440502166748,11.4300003051758,4.36199998855591,8.70705032348633,12.8970003128052,10.5130500793457,14.1660003662109,14.788950920105,-20.5500011444092,-9.36405086517334,2.84895014762878,-0.48105001449585,-2.14695000648499,4.0290002822876,9.43095016479492,SWING_LEFT
-0.35640001296997,-1.0063624382019,-1.86642503738403,-1.34117496013641,1.31120002269745,1.08515000343323,-0.93926250934601,1.36867499351501,5.27931261062622,7.87545013427734,6.45699977874756,4.88221263885498,1.94287502765656,1.50425004959106,-0.18177500367165,0.58630001544952,1.24849998950958,1.6246999502182,1.02726244926453,0.23938749730587,-2.30188751220703,-1.47716248035431,3.30343747138977,0.36148750782013,-0.42776250839233,1.64312493801117,1.2277375459671,1.83246254920959,0.31748750805855,0.7598249912262,-2.9837498664856,-3.78881239891052,-4.49006271362305,-3.7705249786377,-2.43155002593994,-1.61301243305206,4.02641248703003,16.3755626678467,21.9392242431641,17.5862503051758,14.1055746078491,8.15223789215088,4.63237476348877,1.54756247997284,-1.12062501907349,1.07595002651215,-0.99795007705688,-6.14805030822754,-12.3690004348755,-11.2630500793457,-13.0540504455566,-25.5400505065918,-20.0140514373779,16.723051071167,18.7420501708984,35.4580535888672,30.5190010070801,24.2200508117676,21.9880504608154,12.6310510635376,2.33400011062622,0.34395000338554,-2.54700016975403,-6.838050365448,-12.187050819397,-17.6190013885498,-20.9500503540039,-48.8410530090332,-78.8080520629883,-53.6290512084961,-37.3050003051758,-18.6750011444092,-10.2349500656128,-6.17205047607422,-2.47500014305115,7.94100046157837,5.58795022964478,6.86895036697388,12.5020503997803,12.748950958252,7.50300025939941,14.5260009765625,26.5690517425537,24.2269515991211,5.9089503288269,3.94005012512207,-2.19300007820129,1.47000002861023,2.37495017051697,2.76000022888184,SWING_LEFT
-2.86220002174377,-3.71607494354248,-3.01977491378784,-2.00694990158081,-1.14083755016327,0.41566249728203,3.64828753471375,5.58841228485107,4.88468742370605,5.93903732299805,5.13149976730347,4.31172513961792,3.21090006828308,1.55429995059967,0.66495001316071,1.27407503128052,0.91011250019073,-0.48152500391006,-0.23471249639988,0.59482496976852,-1.04830002784729,-0.7013875246048,-0.59757500886917,-1.68973743915558,-3.55162501335144,-1.16077494621277,-0.7343875169754,0.28572499752045,0.54724997282028,0.70358747243881,-3.88409996032715,-4.46325016021729,-3.75223755836487,-1.83768749237061,0.74497497081757,4.5297999382019,14.8593502044678,24.3520755767822,22.1993751525879,15.1733999252319,10.3133249282837,5.71243762969971,2.19147491455078,0.23306250572205,-0.5879499912262,-1.88895010948181,-3.49605011940002,-6.33000040054321,-6.3139500617981,-4.88895034790039,-8.95695018768311,-15.7690505981445,4.8139500617981,29.0110511779785,26.8800010681152,26.8080005645752,25.5630016326904,17.9629516601563,13.5340509414673,9.39705085754395,-1.50300002098084,-6.46905040740967,-9.56205081939697,-13.7280006408691,-21.0649509429932,-30.2130012512207,-47.8759536743164,-78.8080520629883,-78.8080520629883,-47.8830032348633,-31.3069515228271,-21.2029514312744,-12.0259504318237,-8.62395000457764,-5.61195039749146,7.62495040893555,9.796950340271,12.8500509262085,12.117000579834,11.1880502700806,14.5060510635376,15.9259510040283,7.88895034790039,3.99105024337769,0.70305001735687,-0.90495002269745,3.0090000629425,0.7180500626564,2.70495009422302,4.36199998855591,SWING_LEFT
-0.91726249456406,-1.24588751792908,-1.99471247196198,-2.81201243400574,-2.65319991111755,0.342375010252,2.3753125667572,4.56458759307861,1.06438744068146,5.85227489471436,6.05879974365234,0.94586247205734,1.58729994297028,0.30208748579025,0.4131875038147,2.02303743362427,-0.0489500015974,-2.93961238861084,-1.64216244220734,0.73287498950958,0.44701248407364,0.1342000067234,1.53065001964569,2.07308745384216,-5.32317495346069,-3.27071237564087,3.76392507553101,0.54353749752045,0.45925000309944,0.34443750977516,-2.78822493553162,-4.51206254959106,-4.43148756027222,-2.59641242027283,-1.09738755226135,3.56468749046326,7.87971258163452,17.0608615875244,22.4144248962402,14.6822500228882,11.711012840271,4.30993747711182,2.19023752212524,1.43770003318787,1.19459998607636,-2.64600014686584,-5.51595020294189,-6.56505012512207,-6.18900012969971,-7.42005014419556,-16.875,-20.4379501342773,-7.99200057983398,22.3159503936768,36.1020011901855,38.2429504394531,23.1829509735107,14.2069511413574,7.8070502281189,6.35595035552979,-0.53400003910065,-5.32695007324219,-8.94900035858154,-12.153000831604,-18.4879512786865,-23.3340015411377,-28.3050022125244,-52.794002532959,-78.8080520629883,-40.4010009765625,-29.4540004730225,-9.28500080108643,-7.7359504699707,-4.52505016326904,-2.49405002593994,7.44795036315918,7.69500017166138,8.53305053710938,8.67900085449219,15.081000328064,20.193000793457,19.314001083374,10.5730504989624,13.3570508956909,7.63995027542114,-8.58300018310547,11.1349506378174,7.63500022888184,7.86705017089844,9.19800090789795,SWING_LEFT
-2.2818124294281,-2.21581244468689,-2.36733746528625,-2.4418625831604,-0.98078751564026,0.53294998407364,2.39731240272522,2.92875003814697,3.3379499912262,4.46806240081787,6.19808769226074,1.70829999446869,-0.09872499853373,0.23732499778271,0.11398749798536,1.91674995422363,0.71211248636246,-0.174899995327,-0.3092375099659,-0.02089999988675,-1.29387497901917,-0.03066249936819,0.11962500214577,-3.97924995422363,-3.66038751602173,0.4629625082016,2.29666256904602,0.54724997282028,-0.83943748474121,-0.28723749518394,-5.15597486495972,-5.06673765182495,-4.43382501602173,-2.84803748130798,-1.30996251106262,3.21158742904663,10.5686626434326,19.5556621551514,24.1895503997803,21.0167369842529,8.51262474060059,5.15652513504028,2.08147501945496,1.08088743686676,-0.09803749620914,-2.97405004501343,-4.90605020523071,-5.10900020599365,-7.02495050430298,-7.36005020141602,-12.6300010681152,-14.8399505615234,-7.1850004196167,14.0800504684448,33.5790023803711,29.0370006561279,23.7889518737793,16.5960006713867,14.1640510559082,14.0820007324219,-2.94705009460449,-5.32905006408691,-8.97795009613037,-13.278000831604,-19.242000579834,-21.2560501098633,-29.377950668335,-55.7650527954102,-78.8080520629883,-64.9999542236328,-17.0370006561279,-9.82800006866455,-5.37705039978027,-4.35705041885376,-2.44395017623901,8.27400016784668,9.62700080871582,8.38905048370361,10.7860507965088,13.3669509887695,12.1579504013062,12.1579504013062,9.20805072784424,2.44905018806458,4.18905019760132,-6.32295036315918,-1.58895003795624,4.47900009155273,7.04805040359497,5.19705009460449,SWING_LEFT
-3.1603000164032,-2.23176240921021,-1.97889995574951,-2.43705010414124,-3.49016237258911,-0.9257875084877,2.22378754615784,3.97581243515015,6.17113733291626,6.24084997177124,5.99279975891113,4.76863765716553,1.38696253299713,-0.14877499639988,0.15784999728203,1.61864995956421,0.52029997110367,-1.55292499065399,-1.63597500324249,-1.28163754940033,-2.00612497329712,-1.37087500095367,-0.36904999613762,-3.20099997520447,-3.86925005912781,0.3920125067234,1.85679996013641,2.96367502212524,1.75917494297028,-0.16871249675751,-5.32578754425049,-5.00444984436035,-4.00633764266968,-3.02279996871948,0.32216250896454,4.35269975662231,12.3744497299194,23.1156749725342,24.1260242462158,18.4365501403809,10.0226497650146,3.05029988288879,-0.14451250433922,-0.96662497520447,-0.78952497243881,-7.74495029449463,-6.99795055389404,-10.0699501037598,-10.0180501937866,-10.1160001754761,-13.0110006332397,-18.3259506225586,-4.59000015258789,29.8729515075684,37.735050201416,41.5830001831055,30.787052154541,16.8330001831055,9.40605068206787,8.79600048065186,0.23205001652241,-3.55995011329651,-6.88995027542114,-8.88000011444092,-18.8760013580322,-27.2250003814697,-40.0969505310059,-78.7069549560547,-78.8080520629883,-64.0180511474609,-29.6170520782471,-10.921950340271,-4.50300025939941,-2.35095000267029,0.04995000362396,6.45900011062622,9.53805065155029,6.54495048522949,6.24105024337769,11.5159502029419,16.2400512695313,15.6270008087158,14.0970010757446,3.21000003814697,-2.62800002098084,0.46200001239777,-3.42795014381409,-0.58605003356934,7.47195053100586,6.04305028915405,SWING_LEFT
-1.87866246700287,-2.96848750114441,-3.48892498016357,-2.83524990081787,-1.6990875005722,2.84927487373352,3.27084994316101,3.15356254577637,4.48882484436035,6.89191246032715,6.25913763046265,3.1988000869751,1.97092497348785,0.97281247377396,-0.15729999542236,1.23378753662109,2.50442504882813,2.29789996147156,0.57282501459122,-0.47176250815392,-3.97429990768433,-1.08872497081757,-0.73809999227524,-3.20718741416931,-4.20034980773926,-1.93159997463226,0.88316249847412,1.54783749580383,0.44206249713898,0.08662500232458,-4.13696241378784,-4.89568758010864,-5.07044982910156,-4.75268745422363,-4.31048727035522,4.66785001754761,13.6767120361328,20.762638092041,20.1078624725342,13.5386619567871,8.40509986877441,5.41681241989136,2.52862501144409,1.39370000362396,0.53721249103546,-0.94605004787445,-4.07505035400391,-5.94000005722046,-7.39605045318604,-8.70300006866455,-23.428050994873,-10.6879501342773,0.43200001120567,22.8310508728027,27.7180519104004,24.937952041626,23.4750003814697,17.2639503479004,13.1320505142212,12.4519510269165,-0.72000002861023,-4.27800035476685,-8.73600006103516,-13.5630006790161,-17.4370517730713,-22.3789501190186,-38.2339515686035,-64.8730545043945,-68.9929504394531,-37.4440536499023,-23.9590511322021,-15.7639503479004,-11.2789506912231,-7.44795036315918,-3.48795008659363,6.24105024337769,5.11800003051758,5.71200037002563,8.37705039978027,10.3879508972168,9.98400020599365,6.32295036315918,8.1739501953125,5.84400033950806,4.88400030136108,-5.5639500617981,-1.54905009269714,2.40795016288757,2.02995014190674,3.60300016403198,SWING_LEFT
0.14808750152588,-0.93554997444153,-1.74185001850128,-4.9366626739502,-4.63980007171631,-2.46138739585876,3.94033741950989,5.19131231307983,2.47554993629456,1.18538749217987,6.4644250869751,2.13468742370605,4.03562498092651,2.94456243515015,0.26056250929832,-0.82967501878738,-0.01361249946058,0.95521247386932,2.13785004615784,1.53188753128052,1.40359997749329,-1.987837433815,0.02557500079274,3.8567373752594,-1.13629996776581,-4.8735499382019,1.26183748245239,-0.29576250910759,-0.55233746767044,-0.03795000165701,-2.97632503509521,-4.3471999168396,-4.89816236495972,-5.78503751754761,-5.99403762817383,-1.18786251544952,11.0475749969482,21.2635498046875,23.8756370544434,20.0321006774902,9.38726234436035,8.86929988861084,5.19199991226196,2.38081240653992,0.42611250281334,3.12105011940002,2.50305008888245,1.19400000572205,-0.95100003480911,-3.40200018882751,-24.4909515380859,-23.2960510253906,0.97800004482269,12.118950843811,35.9779510498047,12.2629508972168,22.0000514984131,20.2740001678467,15.2959508895874,15.892050743103,2.08500003814697,-1.84995007514954,-4.50104999542236,-15.9100503921509,-24.4380016326904,-21.2130012512207,-34.8199501037598,-68.0839538574219,-78.8080520629883,-64.7749557495117,-18.0859508514404,-20.1589508056641,-12.2299509048462,-7.64700031280518,-5.38695049285889,8.44200038909912,6.33000040054321,5.41800022125244,8.43495082855225,9.56205081939697,23.310001373291,16.9369506835938,-2.91300010681152,-1.69995009899139,22.957950592041,-12.3010501861572,4.41000032424927,5.24805021286011,-1.44105005264282,-0.70800000429153,SWING_LEFT
-0.87931251525879,-0.9453125,-3.77850008010864,-4.52856254577637,-3.5072124004364,-2.54938745498657,-4.0631251335144,-1.74185001850128,1.69482493400574,5.52736234664917,6.2346625328064,6.62076234817505,2.41683745384216,1.06809997558594,-2.28800010681152,-1.12901246547699,-0.34581249952316,1.46354997158051,0.91987496614456,2.43471240997314,0.97116249799728,-0.93596249818802,-1.17177498340607,-6.22228765487671,-6.11723756790161,0.62053751945496,0.48853749036789,0.48124998807907,-0.7099124789238,0.76216250658035,-9.22666263580322,-11.4757499694824,-12.5545749664307,-12.3187627792358,-9.91443729400635,2.0656623840332,10.5858497619629,18.5476493835449,21.5445995330811,19.8976249694824,13.8734750747681,8.64572525024414,4.66056251525879,2.79248738288879,-1.70334994792938,7.75695037841797,1.71105003356934,-9.77100086212158,-8.00594997406006,-19.6759510040283,-25.0150508880615,-17.8090515136719,-1.53000009059906,9.3919506072998,18.7849502563477,30.7249507904053,26.4889507293701,22.078950881958,23.9509506225586,10.3279504776001,-0.45495003461838,-6.07395029067993,-15.5580005645752,-19.6900501251221,-25.3170013427734,-27.8950519561768,-36.3330001831055,-61.7410545349121,-71.8900527954102,-64.5520553588867,-44.4589538574219,-26.1379508972168,-15.7159509658813,-13.1350507736206,-7.36200046539307,9.71805000305176,4.90500020980835,7.24005031585693,12.0400505065918,14.0040006637573,1.94595015048981,13.6129503250122,18.9360008239746,15.0430507659912,-7.19205045700073,15.5860509872437,-3.30405020713806,-4.08405017852783,-4.04400014877319,2.66700005531311,SWING_LEFT
-1.21646249294281,-1.39370000362396,-0.7705500125885,-1.26664996147156,-3.3764500617981,-5.02218770980835,-0.0449624992907,3.24266242980957,6.63905000686646,4.23225021362305,6.55228757858276,3.29766249656677,2.9739875793457,2.25197505950928,0.94352501630783,-0.16623750329018,1.26183748245239,2.19408750534058,2.74381256103516,2.50318741798401,1.37555003166199,-4.57792520523071,-2.69637489318848,-1.92183744907379,-2.40322494506836,-0.93720000982285,3.08467507362366,0.08910000324249,0.17696249485016,1.4805999994278,-4.32148742675781,-3.36971259117126,-3.10584998130798,-3.63604998588562,-4.6611123085022,-4.97626256942749,3.71621251106262,11.5912494659424,23.9929256439209,17.8024005889893,13.1722249984741,7.66342496871948,3.99959993362427,2.01189994812012,-0.49390000104904,-1.67100012302399,-6.41205024719238,-2.62695002555847,-3.72795009613037,-5.53305006027222,-6.58200025558472,-34.909049987793,-34.6860008239746,-3.1800000667572,46.3519515991211,39.4860000610352,29.0779514312744,26.9320507049561,22.6440010070801,8.84400081634521,1.34295010566711,-2.02305006980896,-5.14695024490356,-5.67600011825562,-10.1110506057739,-19.420051574707,-23.9950504302979,-41.2560005187988,-78.8080520629883,-59.3680534362793,-39.271053314209,-17.0490016937256,-10.9300508499146,-7.12695026397705,-4.5130500793457,10.8240003585815,11.0659503936768,8.29305076599121,5.00805044174194,2.46795010566711,6.3400502204895,19.9969501495361,22.1800518035889,5.03205013275146,9.29400062561035,2.33595013618469,5.66400003433228,5.14005041122437,4.06995010375977,7.12695026397705,SWING_LEFT
-3.34963750839233,-1.74556243419647,-1.09436249732971,-1.41446244716644,-2.05590009689331,-0.16224999725819,3.69723749160767,7.07520008087158,6.00379991531372,2.84693741798401,8.83808708190918,5.16078758239746,1.71311247348785,1.19019997119904,-0.26234999299049,2.00832509994507,1.78722500801086,1.2227874994278,0.94297498464584,1.68822503089905,0.00962499994785,-6.2039999961853,-3.26699995994568,2.74257493019104,0.33467498421669,-6.0792875289917,-0.42899999022484,1.39136254787445,-0.15166249871254,0.91740000247955,-5.77046251296997,-3.54447507858276,-2.04544997215271,-1.68863749504089,-1.86587500572205,-1.80716252326965,3.66478753089905,14.479437828064,21.9489879608154,19.1756114959717,11.2223377227783,8.59924983978271,4.67280006408691,1.68808746337891,0.00329999998212,-4.84395027160645,-6.70395040512085,-4.42200040817261,-2.09295010566711,-2.05395007133484,-5.52600049972534,-25.1400012969971,-11.7730503082275,8.33400058746338,39.0670509338379,19.7929515838623,25.0720520019531,22.7620506286621,18.0040512084961,12.8350505828857,-5.26200008392334,-4.64505004882813,-5.61195039749146,-8.8540506362915,-14.5570507049561,-22.0030517578125,-22.6810512542725,-41.0830535888672,-71.3370056152344,-56.6700019836426,-26.8200016021729,-15.9220504760742,-7.36005020141602,-3.06900024414063,-1.76895010471344,12.996000289917,11.6929502487183,8.78205013275146,5.55900049209595,5.44200038909912,10.0819501876831,12.0859508514404,7.1850004196167,1.4719500541687,14.3460006713867,0.96705007553101,-11.4319505691528,2.44395017623901,2.45100021362305,2.88705015182495,SWING_LEFT
-3.88602495193481,-2.80719995498657,-1.20188748836517,-1.65756249427795,-1.66361248493195,0.71252501010895,2.28978753089905,5.03621244430542,4.79435014724731,9.07032489776611,8.44236278533936,4.27501249313354,2.56217503547668,1.00938749313354,-0.49939998984337,2.08656239509583,2.24784994125366,1.61012494564056,0.91616249084473,0.10738749802113,-2.68303751945496,-2.45093750953674,0.29191249608994,-3.06666254997253,-5.27051258087158,0.70606249570847,3.28377509117126,2.7230498790741,2.08903741836548,1.33278751373291,-5.37954998016357,-4.96897506713867,-3.79252505302429,-2.6831750869751,-2.84570002555847,-1.48224997520447,3.529212474823,23.2072505950928,24.7674617767334,12.4195499420166,6.28663730621338,3.56097507476807,1.38393747806549,0.72544997930527,0.64116251468658,-7.02000045776367,-5.35605049133301,-6.69900035858154,-4.27095031738281,-1.49205005168915,-16.3770008087158,-32.1220512390137,1.46895003318787,36.4039535522461,40.6560020446777,32.0370025634766,25.5960006713867,16.4530506134033,11.0989503860474,7.54800033569336,-3.46395015716553,-7.05795049667358,-8.32695007324219,-12.1290006637573,-20.3820018768311,-26.2069511413574,-25.7910003662109,-78.1060562133789,-78.8080520629883,-36.2590522766113,-21.3109512329102,-11.2339506149292,-5.2219500541687,-2.99505019187927,-0.58095002174377,10.5340509414673,11.5489501953125,9.46200084686279,4.2180004119873,8.34600067138672,10.4650506973267,14.9419507980347,6.54105043411255,1.90095007419586,10.5529508590698,-6.79200029373169,-0.48105001449585,1.55100011825562,1.17300009727478,2.71500015258789,SWING_LEFT
-2.73020005226135,-3.26040005683899,-2.76815009117126,-1.58675003051758,0.67223751544952,1.33691251277924,2.23973751068115,3.22189998626709,1.93668746948242,1.54330003261566,6.05137491226196,3.29037499427795,1.79987502098084,1.39548754692078,0.64294999837875,0.99192500114441,1.07621252536774,0.36767500638962,-0.59262502193451,0.30524998903275,0.66687500476837,0.31872498989105,-0.40452501177788,-1.98536252975464,-3.88272500038147,-4.7635498046875,0.66206252574921,0.69629997014999,-0.50709998607635,0.14519999921322,-4.78334999084473,-5.44059991836548,-4.81868743896484,-1.91963744163513,0.28682500123978,1.09683752059937,6.89741230010986,16.9240493774414,24.4619369506836,18.5403633117676,9.87483787536621,7.21998739242554,3.787024974823,1.56227493286133,0.42611250281334,-0.65595000982285,-0.97200006246567,-5.55000019073486,-7.11300039291382,-2.55495023727417,-1.23300004005432,-14.0209503173828,-15.4789505004883,5.79795026779175,41.2720527648926,25.2919521331787,24.3900012969971,19.207950592041,13.0189504623413,8.75295066833496,-5.84595012664795,-9.28695011138916,-10.7689504623413,-11.0970001220703,-15.7230005264282,-18.9720001220703,-24.7780513763428,-46.9230003356934,-78.8080520629883,-54.5770530700684,-24.1800003051758,-16.6729507446289,-9.84495067596436,-6.61695051193237,-4.94895029067993,7.03905010223389,8.08500003814697,9.59595012664795,12.76305103302,9.03795051574707,7.18200016021729,7.20900011062622,6.64095020294189,-0.49995002150536,9.21000003814697,1.24395000934601,-1.77900004386902,6.46905040740967,5.53005027770996,7.03605031967163,SWING_LEFT
-3.85536241531372,-3.42292499542236,-0.73026251792908,-1.94589996337891,-2.37957501411438,1.37472498416901,3.89028739929199,3.22189998626709,-1.00512504577637,9.07266235351563,6.96643733978271,1.67282497882843,1.40277504920959,-0.54697501659393,-1.55003750324249,2.77433753013611,2.17456245422363,-0.00261249998584,0.39324998855591,0.17215000092983,-2.33598756790161,-0.23842500150204,0.93816250562668,-3.12400007247925,-8.44951248168945,0.9649749994278,2.63628745079041,0.1868624985218,0.70235002040863,-0.07713750004768,-4.79792499542236,-3.81081247329712,-1.65206253528595,-2.5511748790741,-2.37654995918274,2.98429989814758,10.3243246078491,14.7360124588013,26.3922996520996,16.6296615600586,10.7666625976563,6.64454984664917,1.37651252746582,-0.426662504673,0.2758249938488,-6.6109504699707,-11.1670503616333,-1.67805004119873,-3.22995018959045,-4.95900011062622,-8.43000030517578,-9.41400051116943,-9.1200008392334,12.118950843811,36.7939529418945,26.568000793457,27.2010021209717,17.7379512786865,6.5310001373291,3.05700016021729,-5.65005016326904,-5.19300031661987,-11.4589509963989,-15.7780504226685,-19.125,-20.590051651001,-30.0240020751953,-37.7620506286621,-78.8080520629883,-52.3320007324219,-23.7610511779785,-13.0600509643555,-5.50200033187866,-4.14900016784668,-3.72795009613037,8.81805038452148,12.0240001678467,10.312050819397,6.47805023193359,8.94195079803467,13.6039505004883,6.51405048370361,4.47900009155273,9.93105030059814,6.23895025253296,-13.1350507736206,2.9520001411438,2.08500003814697,1.60395002365112,9.58905029296875,SWING_LEFT
-3.46321249008179,-2.50181245803833,-1.35217499732971,-0.78154999017715,-1.39851248264313,-0.33206251263618,3.85728740692139,6.17361259460449,2.24097490310669,4.28725004196167,5.31107473373413,3.26342487335205,0.99481248855591,-1.64051246643066,-1.42669999599457,1.45983743667603,0.53858751058578,-0.37523749470711,-1.37087500095367,-1.92431247234344,-1.85102498531342,-0.12223749607801,1.14950001239777,1.14702498912811,-3.72638750076294,-2.51198744773865,1.20931243896484,0.02433750033379,0.12443749606609,-0.44976249337196,-4.28601264953613,-4.04414987564087,-2.59036254882813,-0.71128749847412,0.50311249494553,3.7650249004364,13.0732250213623,23.1877250671387,23.402774810791,16.5831871032715,14.3816747665405,5.66967487335205,0.56045001745224,-0.8787624835968,-0.70276248455048,-3.76605010032654,-5.28405046463013,-7.74300050735474,-3.74895024299622,0.9709500670433,-9.8569507598877,-18.3589515686035,-3.86400008201599,21.0400505065918,23.7120018005371,24.7849502563477,28.9789505004883,17.1640510559082,8.00804996490479,4.29195022583008,-4.56105041503906,-5.83695030212402,-7.29300022125244,-12.1630506515503,-19.0630512237549,-21.8620510101318,-36.5910034179688,-78.6619567871094,-78.8080520629883,-45.120002746582,-36.1390533447266,-11.623950958252,-5.89200019836426,-4.63305044174194,-4.45500040054321,8.88705062866211,9.47595024108887,9.94800090789795,8.12295055389404,8.25300025939941,15.3229503631592,19.2019500732422,9.1069507598877,8.41995048522949,8.56095027923584,2.44200015068054,5.53005027770996,-1.30695009231567,5.71905040740967,9.23895072937012,SWING_LEFT
-1.16641247272491,-2.24771237373352,-2.24276256561279,-2.02771258354187,-2.13152503967285,-0.00577499996871,1.72039997577667,2.81146240234375,2.04173755645752,3.58599996566772,7.88892507553101,3.11684989929199,0.93252497911453,0.19208750128746,-1.01488745212555,-0.50352501869202,-0.07218749821186,0.01581249944866,-0.09666249901056,-0.7929624915123,-1.36482501029968,-0.26523751020432,0.26248750090599,-4.92236232757568,-5.72756242752075,-6.26257514953613,3.8226375579834,1.84827494621277,0.29796248674393,-0.21876250207424,-4.9091625213623,-3.63494992256165,-2.42178750038147,-1.78158748149872,-0.68076246976852,2.73996257781982,9.0635871887207,18.4280242919922,26.7282123565674,18.6296005249023,10.9437627792358,4.89389991760254,1.58675003051758,0.34540000557899,0.38334998488426,-5.85405015945435,-7.5730504989624,-5.08500003814697,-3.74505019187927,-4.45095014572144,-9.5580005645752,-12.5650501251221,-15.5959510803223,4.69905042648315,47.4370536804199,43.4839515686035,22.7659511566162,18.3390007019043,9.3390007019043,7.27305030822754,-2.45400023460388,-4.7310004234314,-7.40805053710938,-10.5820503234863,-16.0630512237549,-19.8120002746582,-27.2899513244629,-46.6879539489746,-78.8080520629883,-53.5500030517578,-26.7700519561768,-9.09794998168945,-4.81500005722046,-2.57805013656616,-2.38905000686646,6.39195013046265,9.2629508972168,9.96405029296875,8.97300052642822,10.8769502639771,12.6649503707886,10.5850505828857,6.61995029449463,-0.49005001783371,14.5399503707886,10.2300004959106,-6.54300022125244,4.02405023574829,3.52395009994507,6.33705043792725,SWING_LEFT
-0.95012497901917,-0.69726252555847,-0.68502497673035,-0.09129999577999,-0.51039999723434,-1.89695000648499,-4.19993734359741,-4.34775018692017,4.51577520370483,7.87050008773804,-1.43027496337891,5.91456270217896,4.40096235275269,-0.47121250629425,-0.57749998569489,-0.52552497386932,-0.57309997081757,-0.3422375023365,-0.34952500462532,0.14767499268055,0.38843750953674,1.75670003890991,1.57959997653961,-5.78118753433228,-0.93596249818802,2.7413375377655,-3.06171250343323,2.33089995384216,0.90144997835159,1.13726246356964,-5.37459993362427,-6.30066251754761,-6.41190004348755,-5.97574996948242,-5.67146253585815,-5.83151245117188,-7.61639976501465,-8.38612461090088,6.25363731384277,19.5359992980957,20.8091125488281,20.0186252593994,18.407262802124,-0.79681247472763,-2.4400749206543,6.56205034255981,5.01300001144409,3.43200016021729,1.02404999732971,-0.591000020504,-0.22305001318455,-0.79695004224777,-8.27505016326904,-65.6800537109375,-17.1240005493164,-0.8359500169754,7.87095022201538,33.1579513549805,40.7689514160156,5.97495031356812,3.75105023384094,3.11400008201599,2.95905017852783,3.35595011711121,3.21300005912781,0.61500000953674,-7.83105039596558,-22.1950511932373,-18.5890502929688,-61.5420036315918,-60.1560020446777,-49.8889541625977,-41.7490501403809,-14.623950958252,-10.6249504089355,9.71100044250488,8.08005046844482,8.29800033569336,7.22805023193359,5.12805032730103,3.78495025634766,2.90400004386902,11.3359508514404,36.6180000305176,-12.6559505462646,27.9289512634277,2.14200019836426,-7.52505016326904,13.0840501785278,13.3669509887695,SWING_LEFT
-0.36863750219345,-0.93059998750687,-1.9569000005722,-2.35028743743896,-2.32828760147095,2.95556259155273,6.89809989929199,0.69905000925064,7.90116262435913,8.7122745513916,-0.43092501163483,-2.13042497634888,-2.27699995040894,0.05403750017285,-0.88783746957779,-0.35076248645782,0.13062499463558,0.21738749742508,0.57901251316071,0.72187501192093,-1.59444999694824,4.55688762664795,6.01686239242554,-7.70783758163452,2.15984988212585,6.74244976043701,2.7132875919342,0.91011250019073,-2.54622507095337,-0.90420001745224,-3.8865749835968,-4.04167509078979,-4.67334985733032,-4.82611227035522,-5.44417476654053,-0.71499997377396,15.0634002685547,25.8803882598877,22.4156627655029,17.2441501617432,6.51268768310547,-3.58971238136292,-2.76141238212585,-1.98921251296997,-2.82617497444153,1.08600008487701,0.95205003023148,-0.25394999980927,-1.42500007152557,-2.6290500164032,-37.5570030212402,-27.8479518890381,-6.53895044326782,21.6889514923096,31.8670520782471,61.6849517822266,12.1620006561279,-0.67995005846024,4.43595027923584,5.15595006942749,-0.96705007553101,-2.0590500831604,-4.36199998855591,-6.01905012130737,-18.4450511932373,-16.6759510040283,-35.4880523681641,-78.8050537109375,-76.5949554443359,-39.832950592041,-17.2720508575439,-13.3050003051758,-5.47995042800903,-2.83905005455017,-1.5130500793457,10.2610502243042,9.09105014801025,8.47005081176758,8.38695049285889,12.1890001296997,27.2920513153076,13.1680507659912,12.9649505615234,27.7969512939453,-29.5590019226074,-0.88800007104874,9.23400020599365,18.3780002593994,8.86500072479248,6.04500007629395,SWING_LEFT
-0.88550001382828,-1.09064996242523,-0.86954998970032,-0.48716250061989,-0.28435000777245,-0.23306250572205,-0.33687499165535,1.7216374874115,1.24038743972778,2.42907500267029,0.87381249666214,-1.02231252193451,-3.19453740119934,-1.82132494449615,0.26661249995232,0.77934998273849,1.34007501602173,0.78787499666214,1.13602495193481,0.49224999547005,0.24914999306202,0.74140000343323,3.10791254043579,0.62177497148514,-4.50821256637573,3.67234992980957,3.43158745765686,-0.67333751916885,-0.1907124966383,-0.57805001735687,-2.83346247673035,-2.81146240234375,-2.95322489738464,-2.56093740463257,-2.68441247940063,-3.06556248664856,-1.95016252994537,7.29203748703003,19.598424911499,21.319787979126,20.7248249053955,13.2369871139526,3.54145002365112,-1.75230002403259,-3.30261254310608,1.84005010128021,0.11400000751019,0.3649500310421,-1.98195004463196,-0.38505002856255,-3.33000016212463,-11.9569501876831,-39.2520027160645,-22.3870506286621,-5.67000007629395,9.19995021820068,37.3549499511719,31.4790019989014,18.3460502624512,14.731050491333,1.82595014572144,1.61100006103516,0.80100005865097,1.03095006942749,-0.99105006456375,-3.52905011177063,-9.0400505065918,-15.5239505767822,-54.5820007324219,-58.2619514465332,-46.8630027770996,-26.2170009613037,-16.2640514373779,-10.3789501190186,-8.6380500793457,8.71695041656494,10.2880506515503,11.2999505996704,11.3340005874634,11.0250005722046,9.33495044708252,10.6200008392334,17.0320510864258,9.56205081939697,10.9510507583618,-6.85200023651123,12.4429502487183,0.26505002379417,19.4700012207031,13.3429508209229,SWING_LEFT
0.5489000082016,0.08098749816418,-0.4614500105381,-0.73026251792908,-0.5849249958992,-0.6044499874115,-1.23846244812012,0.62342500686646,1.73387503623962,5.09121227264404,7.0214376449585,2.14197492599487,2.34726238250732,1.18896245956421,-0.84878748655319,0.34567499160767,0.84163749217987,1.66622495651245,2.3394250869751,1.22031247615814,-2.62680006027222,-1.48692500591278,-2.18817496299744,-1.43192493915558,-5.94742488861084,-5.57108736038208,1.79451251029968,-0.1552374958992,0.37248748540878,1.96927499771118,-1.3527250289917,-2.19078755378723,-2.36183738708496,-2.66969990730286,-2.55364990234375,-2.75646257400513,2.86701250076294,11.043999671936,22.8896255493164,18.3217372894287,13.9112873077393,6.41121244430542,1.83713746070862,-0.67952501773834,-2.91651248931885,1.14405000209808,-0.87105005979538,-1.20705008506775,-2.78895020484924,-6.96705055236816,-7.03200054168701,-41.943000793457,-41.8500022888184,-10.5199508666992,30.3439521789551,36.8500518798828,30.1069507598877,26.0899505615234,21.3229503631592,1.77300012111664,2.44605016708374,1.83300006389618,0.37500002980232,-1.27605009078979,-5.10405015945435,-14.7390003204346,-19.8670501708984,-33.8239517211914,-78.784049987793,-56.2150535583496,-41.3149528503418,-19.5150012969971,-8.44395065307617,-4.27305030822754,-1.57500004768372,11.1139507293701,10.3240509033203,9.90000057220459,7.35195016860962,5.28105020523071,3.21705007553101,14.1310510635376,15.631950378418,4.47900009155273,7.26600027084351,-4.50600004196167,4.61295032501221,1.74495005607605,-0.34395000338554,11.2309503555298,SWING_LEFT
-2.88172507286072,-4.19498729705811,-4.04360008239746,-3.0685875415802,0.89209997653961,2.41560006141663,0.41937500238419,-0.3075875043869,3.98186254501343,6.04532480239868,4.0746750831604,0.83104997873306,-2.48215007781982,-2.76815009117126,-1.13836252689362,1.63817501068115,1.87151253223419,2.14032506942749,2.29913759231567,0.09515000134706,-1.02877497673035,1.27283751964569,-0.28476250171661,-5.19364976882935,-1.29758751392365,1.50136244297028,-0.84920001029968,-0.13447499275208,1.18621253967285,0.55330002307892,-5.93656253814697,-6.11613750457764,-5.6348876953125,-4.89692497253418,-3.13637495040894,8.13381290435791,11.726824760437,18.2947864532471,20.4572505950928,12.5564994812012,5.855299949646,3.12730002403259,-1.10233747959137,-2.47912502288818,-0.92262500524521,-1.14405000209808,-3.7350001335144,-8.74200057983398,-9.16499996185303,-19.8649501800537,-9.55605030059814,-6.14400005340576,-5.64600038528442,15.5910005569458,40.4700012207031,25.2900009155273,34.2490501403809,19.5960006713867,4.05299997329712,0.30105000734329,-3.2989501953125,-6.45705032348633,-11.1900005340576,-13.4359502792358,-19.7170505523682,-27.4260005950928,-30.1249523162842,-45.1339530944824,-61.0870513916016,-27.0139503479004,-8.24805068969727,-9.51900005340576,-3.92595028877258,-2.57595014572144,-2.01600003242493,3.07095003128052,6.02100038528442,9.32505035400391,11.9040002822876,17.0230503082275,7.01700019836426,9.8830509185791,15.5220003128052,7.53705024719238,0.5500500202179,-6.57900047302246,-11.451000213623,2.25705003738403,10.9339504241943,12.2100009918213,SWING_LEFT
-0.64968746900558,-0.85731250047684,-1.13588750362396,-1.67956244945526,-1.49503743648529,0.51094996929169,3.02032494544983,1.79987502098084,3.53718757629395,7.77040004730225,4.38129997253418,0.62342500686646,0.58423751592636,1.67653751373291,0.0662750005722,0.50448751449585,0.50448751449585,0.74634999036789,0.80616247653961,0.62411248683929,-0.02942499890924,1.42931246757507,2.39923739433289,-3.93896245956421,-3.88024997711182,3.03462505340576,2.35166239738464,0.26124998927116,-1.62016248703003,-0.10037499666214,-1.65577495098114,-1.55306243896484,-1.53958749771118,-1.98921251296997,-2.18473744392395,0.33563750982285,10.1839370727539,19.7070503234863,23.110725402832,11.0757627487183,5.19557476043701,6.66283750534058,6.24016237258911,1.87742495536804,-0.07851249724627,0.4420500099659,-1.24005007743835,-0.27795001864433,-1.18500006198883,-3.79500007629395,-14.6839504241943,-23.0710506439209,-5.96400022506714,22.4530506134033,54.949951171875,20.5039501190186,14.2500009536743,15.0520505905151,15.1860008239746,11.7190504074097,-1.79505014419556,-1.81905007362366,-3.88995027542114,-6.77100038528442,-13.2619504928589,-20.7250518798828,-33.8839530944824,-58.8490524291992,-78.8080520629883,-31.1610012054443,-8.44395065307617,-9.63900089263916,-8.59005069732666,0.83505004644394,1.87905013561249,9.73200035095215,9.74205017089844,8.73600006103516,8.91600036621094,11.2170009613037,16.9750499725342,16.3999500274658,12.9259510040283,11.9800510406494,-1.23000001907349,-10.4530506134033,2.71200013160706,6.72000026702881,2.79795002937317,2.73900008201599,SWING_LEFT
-1.8492374420166,-2.45162487030029,-1.1895124912262,0.62218749523163,2.02592492103577,2.68564987182617,4.60253763198853,4.81153726577759,6.0454626083374,6.67218732833862,3.30261254310608,1.04623746871948,2.04558753967285,-0.3783999979496,-0.95617496967316,1.16531252861023,1.01378750801086,0.64363747835159,-0.50847500562668,-2.06126260757446,-2.5231249332428,0.33082500100136,0.52758747339249,0.10972499847412,0.16596250236034,0.62411248683929,1.12255001068115,-0.28366249799728,1.50851249694824,0.59839999675751,-3.04136252403259,-3.2124125957489,-2.45740008354187,-1.96748745441437,-1.40662503242493,4.45871257781982,15.6080369949341,19.4088115692139,15.847562789917,8.83616256713867,8.87521266937256,6.79827499389648,1.92486250400543,-2.42192506790161,-1.64862501621246,-2.50395011901855,-5.1670503616333,-7.36200046539307,-6.41895008087158,-7.51800012588501,-23.7130508422852,-7.6690502166748,2.32605004310608,45.2080535888672,21.5310001373291,17.2690505981445,19.6590003967285,36.4860000610352,11.5230007171631,-0.46695002913475,-3.74700021743774,-6.37800025939941,-8.41800022125244,-12.9070510864258,-22.2450008392334,-27.1030521392822,-47.3659515380859,-59.8090515136719,-44.0350532531738,-18.8020515441895,-15.4039506912231,-10.9530000686646,-2.06100010871887,-1.69995009899139,-2.18295001983643,7.30005025863647,10.4220008850098,11.8920001983643,10.2880506515503,9.35205078125,16.348051071167,15.2989511489868,12.3300008773804,3.39900016784668,-3.44295024871826,-7.73805046081543,3.9019501209259,0.8929500579834,3.76995015144348,9.36795043945313,SWING_LEFT
-0.86336249113083,-1.23598754405975,-1.88347494602203,-2.21333742141724,-1.75766253471375,-0.41745001077652,1.9514000415802,2.26421236991882,3.66313743591309,6.7222375869751,6.4351372718811,3.84271240234375,3.65447497367859,3.54213738441467,1.08528745174408,0.54958748817444,1.01131248474121,1.46588754653931,1.56117498874664,1.47798752784729,-0.59399998188019,-1.98302495479584,0.50558751821518,-2.72469997406006,-3.22437500953674,-0.14313749969006,0.35158750414848,0.41387498378754,-0.13089999556541,0.88302499055862,-2.9973623752594,-3.64485001564026,-4.26676225662231,-5.11334991455078,-5.14387512207031,-2.85078740119934,6.09702491760254,15.9636125564575,23.2181129455566,17.1425380706787,11.2160120010376,10.2423753738403,6.97551250457764,2.33172488212585,0.17792500555515,0.48000001907349,-0.72105002403259,-1.24995005130768,-3.11295008659363,-7.01805019378662,-15.2920503616333,-27.6370506286621,-9.41700077056885,3.8490002155304,42.2179527282715,23.7360019683838,23.941951751709,24.5020503997803,19.5480003356934,11.6260509490967,1.52505004405975,0.30105000734329,-2.32905006408691,-8.14500045776367,-15.4639511108398,-23.9040012359619,-30.7690505981445,-53.5960540771484,-78.8080520629883,-60.4909515380859,-29.4420013427734,-24.631950378418,-15.3109502792358,-6.75600051879883,-3.40200018882751,9.73905086517334,8.28795051574707,7.97505044937134,8.24100017547607,9.31605052947998,13.2450008392334,12.4930505752563,11.1709508895874,11.5230007171631,0.70095002651215,-1.39095008373261,-0.34905001521111,5.87295007705688,0.56700003147125,0.61995005607605,SWING_LEFT
-2.34533739089966,-1.11017501354218,-0.74483752250671,-1.09793746471405,-1.09298753738403,0.44027498364449,3.33932495117188,5.98798751831055,8.11497497558594,7.90968751907349,6.11998748779297,2.51102495193481,2.32649993896484,1.4444375038147,0.7431874871254,1.97161245346069,-0.70028752088547,0.07424999773502,0.42363750934601,0.08277499675751,-0.54628747701645,-1.50906252861023,-1.37472498416901,-0.30071249604225,0.39434999227524,0.98449999094009,1.60751247406006,0.26482498645782,0.59592497348785,0.61421251296997,-5.06206226348877,-2.72373747825623,-0.60403752326965,-0.46351251006126,-0.40974998474121,2.59929990768433,9.31136226654053,20.2603492736816,22.5779132843018,13.6093378067017,11.6081628799438,10.1213750839233,3.47160005569458,2.45396256446838,1.36908745765686,-3.13395023345947,-11.4520502090454,-6.01905012130737,-4.3840503692627,-5.70105028152466,-9.95805072784424,-22.9759502410889,3.61695027351379,30.4879512786865,42.1480522155762,25.9750518798828,27.4710006713867,16.5559501647949,12.8470506668091,8.83395004272461,-6.31800031661987,-2.78400015830994,-6.08100032806396,-8.37705039978027,-13.1440505981445,-26.0809516906738,-38.425952911377,-72.2140502929688,-78.8080520629883,-45.8839530944824,-30.4000511169434,-25.5199508666992,-8.87805080413818,-5.81505012512207,-2.59500002861023,8.59305000305176,13.6920003890991,10.0150508880615,9.58395004272461,10.8930006027222,14.8800010681152,18.4210510253906,16.8670501708984,9.07395076751709,-4.28295040130615,-9.61500072479248,2.21895003318787,0.94305002689362,3.20505023002625,7.56105041503906,SWING_LEFT
-2.38067507743835,-2.87306237220764,-2.35633754730225,-0.85112500190735,0.66742497682571,-0.06063750013709,-0.43573749065399,2.46950006484985,7.53348731994629,4.15415000915527,5.98922491073608,5.46507501602173,2.3900249004364,-0.03987500071526,0.93623751401901,0.55068749189377,1.09560000896454,1.55375003814697,1.30336248874664,-0.71252501010895,-0.28366249799728,0.44811248779297,-4.16872501373291,-4.77344989776611,1.18236243724823,-0.9813374876976,-0.56471252441406,1.26912498474121,0.85868752002716,-0.44494998455048,-4.92401266098022,-5.00953769683838,-4.93253755569458,-4.14576244354248,-2.49892497062683,1.4166624546051,10.6833372116089,23.7092628479004,22.8822002410889,10.2434749603271,11.4945878982544,6.21678733825684,2.14610004425049,1.30680000782013,0.63717502355576,-3.48600006103516,-4.45305013656616,-6.4960503578186,-10.1590509414673,-10.8700504302979,-14.9380502700806,-26.1409511566162,-10.9129505157471,48.5620536804199,30.0349521636963,26.4630012512207,29.2600517272949,17.1970500946045,12.4849510192871,10.5940504074097,-0.41100001335144,-4.53900003433228,-9.67500019073486,-13.0720510482788,-20.3629512786865,-28.6450519561768,-40.6210517883301,-78.8080520629883,-78.8080520629883,-29.1000022888184,-30.295051574707,-15.2200508117676,-6.9810004234314,-6.41400051116943,-3.03795003890991,7.86195039749146,8.6089506149292,11.1280508041382,11.5180501937866,11.6070003509521,6.98400020599365,13.7089509963989,18.0209999084473,-11.7940502166748,5.84400033950806,3.70800018310547,-2.20005011558533,-3.8539502620697,5.32395029067993,7.24200057983398,SWING_LEFT
-0.35997501015663,-1.73195004463196,-3.35568737983704,-3.65502500534058,-1.70871245861053,-1.1944625377655,0.77123749256134,3.11327505111694,6.48890018463135,5.82065010070801,5.4625997543335,0.84700000286102,0.05169999971986,1.04128754138947,0.99247497320175,-0.07837499678135,0.2880625128746,0.76340001821518,1.33869993686676,-0.82733750343323,-1.47853744029999,-0.81881248950958,-1.03620004653931,-6.21623754501343,0.38458749651909,-0.45966249704361,1.83603751659393,0.22577500343323,-1.51387500762939,-1.39782500267029,-4.09447479248047,-5.02782487869263,-6.19698762893677,-6.83223724365234,-4.60762500762939,-0.34141248464584,9.56917476654053,20.1785373687744,24.3702239990234,14.3826370239258,7.61076259613037,3.35060000419617,1.09656250476837,1.82105004787445,1.85776245594025,-0.30405002832413,-2.05395007133484,-0.03299999982119,-5.06595039367676,-10.5349502563477,-15.9409503936768,-25.5280513763428,-5.62905025482178,15.3940505981445,45.0859527587891,30.928050994873,22.1460018157959,11.0010004043579,7.91895055770874,9.24105072021484,3.50205016136169,0.78000003099442,-5.66205024719238,-9.8830509185791,-12.3640508651733,-21.6660003662109,-32.428050994873,-63.9409523010254,-78.8080520629883,-36.3589515686035,-16.8360004425049,-9.9330005645752,-9.60495090484619,-7.45500040054321,-3.39000010490417,5.69505023956299,5.80305004119873,6.36600017547607,9.83295059204102,14.3029508590698,13.2370510101318,16.4580001831055,17.1499500274658,-4.40505027770996,4.38795042037964,-8.18595027923584,-1.43400001525879,9.42795085906982,8.19300079345703,6.47400045394897,SWING_LEFT
-1.11746251583099,-1.00993752479553,-1.47661244869232,-2.01052498817444,-2.01300001144409,-1.14441251754761,1.80977499485016,5.19626235961914,4.05157518386841,7.13157510757446,2.87141251564026,-1.37527501583099,-2.78506255149841,-1.54879999160767,-1.04170000553131,-0.46818751096725,0.12553749978542,1.18359994888306,1.85308754444122,2.50057506561279,1.9679000377655,0.87449997663498,0.1402499973774,-4.76368761062622,-1.93668746948242,6.95983743667603,3.06253743171692,1.69427502155304,-1.52006244659424,-0.4974749982357,-4.60872507095337,-5.17192506790161,-5.26240015029907,-5.16587495803833,-5.31244993209839,-4.70524978637695,0.6153125166893,17.4393997192383,24.8551864624023,19.651912689209,11.0829124450684,1.42037498950958,-0.49403750896454,-1.55938744544983,-3.37246251106262,1.04505002498627,1.49100005626678,-1.77195012569427,-1.88700008392334,-2.800950050354,-7.68600034713745,-36.8029518127441,-39.6799507141113,-5.45400047302246,20.1520500183105,46.8670539855957,24.4830017089844,13.6230010986328,8.14905071258545,8.50605010986328,-0.29595002532005,-1.32405006885529,-1.25400006771088,-2.97795009613037,-6.92595052719116,-10.5060005187988,-12.0930004119873,-48.3090019226074,-78.8080520629883,-46.816951751709,-18.4879512786865,-8.99295043945313,-8.72895050048828,-3.35205006599426,-2.62095022201538,11.0830507278442,9.56205081939697,9.69600009918213,9.57405090332031,9.77505016326904,10.9630508422852,18.5380516052246,15.318000793457,7.5319504737854,-1.27605009078979,-6.52905035018921,0.04500000178814,5.24505043029785,9.73695087432861,8.61405086517334,SWING_LEFT
-1.03441250324249,-2.10581254959106,-1.9849499464035,-1.1394624710083,-1.73195004463196,-0.67154997587204,3.76076245307922,4.93116235733032,4.20667505264282,7.00328731536865,9.04103755950928,3.517662525177,0.7871875166893,-0.99288749694824,-1.11622500419617,1.10783743858337,0.66316246986389,0.38334998488426,0.21106250584126,0.47740000486374,-0.36547499895096,-1.69592499732971,2.2257125377655,-2.20783758163452,-4.12472486495972,-2.36307501792908,2.77186250686646,1.04307496547699,0.63139998912811,0.7401624917984,-1.35176253318787,-0.42570000886917,-0.61256247758865,-3.19646239280701,-4.3338623046875,-4.01871252059937,4.29137516021729,17.2573490142822,24.6096115112305,20.2420616149902,11.9172620773315,6.22778749465942,1.89076244831085,-0.91918748617172,-2.2875874042511,-5.61195039749146,-6.35400009155273,-2.86605024337769,-1.13700008392334,-3.35205006599426,-8.34899997711182,-33.715950012207,-19.2810001373291,4.37295007705688,31.7470512390137,35.8699531555176,30.6649513244629,20.6929512023926,16.5580501556396,7.55505037307739,0.74205005168915,0.69900006055832,-0.87105005979538,-4.83105039596558,-11.9299507141113,-22.771951675415,-27.3730506896973,-54.8290519714355,-78.8080520629883,-69.9150009155273,-35.623950958252,-18.553050994873,-10.4320507049561,-6.25800037384033,-5.47995042800903,7.23495054244995,10.2349500656128,12.5550003051758,8.90100002288818,8.47305011749268,14.4559507369995,18.105001449585,11.7049503326416,7.40700054168701,8.00594997406006,-11.9809503555298,-7.63995027542114,0.2080500125885,2.47005009651184,10.0549507141113,SWING_LEFT
-1.73566246032715,-1.92376244068146,-2.20852494239807,-1.78323745727539,-1.7491375207901,0.73947501182556,4.20433759689331,3.90376257896423,1.91729998588562,4.12238740921021,7.06433725357056,3.09622502326965,1.16104996204376,-0.40521249175072,-0.58726251125336,-0.02351249940693,0.38087499141693,1.4719375371933,1.22512495517731,1.1310750246048,-1.06672501564026,-2.87251257896423,2.36376237869263,-1.40401244163513,-5.38670015335083,-3.81562495231628,2.16094994544983,1.88113749027252,0.25753748416901,-0.68928748369217,-3.94047498703003,-3.8891875743866,-3.85618758201599,-3.86842489242554,-3.85866236686707,-2.75907492637634,7.66699981689453,19.2304744720459,26.9906997680664,16.9397239685059,8.34130001068115,3.71222496032715,0.2230249941349,-0.40493750572205,0.14849999547005,-0.98205006122589,-1.42200005054474,-2.6380500793457,-3.79695010185242,-4.63995027542114,-12.8050508499146,-28.6120510101318,-13.0489501953125,6.23895025253296,43.4410514831543,30.0739517211914,28.4980506896973,16.7260513305664,4.63905000686646,5.28795003890991,-1.08405005931854,-1.64205002784729,-4.68795013427734,-8.90895080566406,-11.8900508880615,-26.253002166748,-32.4640502929688,-54.7639541625977,-78.8080520629883,-47.6670036315918,-21.3450012207031,-10.4839506149292,-7.06995010375977,-2.69595003128052,-2.63100004196167,10.5100507736206,10.570050239563,10.9200000762939,9.10305023193359,8.3700008392334,12.1980009078979,13.3240509033203,6.66300010681152,6.74400043487549,7.69905042648315,-6.30105018615723,-3.37605023384094,1.08600008487701,6.48105049133301,8.33895015716553,SWING_LEFT
-0.862124979496,-0.49445000290871,-0.28792500495911,-0.96593749523163,-1.99347496032715,-2.55914998054504,1.21233749389648,7.88040018081665,3.08398747444153,5.59336233139038,3.74618744850159,-0.74360001087189,-3.59259986877441,-0.33563750982285,-0.14863750338554,-0.17613749206066,-0.64652502536774,0.3271124958992,0.81097501516342,1.12378752231598,1.68822503089905,-0.75033748149872,-1.78639996051788,-2.14678740501404,-0.17613749206066,5.1224250793457,2.18171238899231,-0.34347498416901,-1.92816245555878,-1.29896247386932,-3.59727501869202,-3.40422487258911,-3.27346253395081,-3.78537487983704,-4.52209997177124,-4.7577748298645,0.04839999973774,18.1944122314453,22.337287902832,20.3593502044678,13.6483869552612,1.97010004520416,-1.26376247406006,-1.6632000207901,-3.34303736686707,2.16795015335083,0.88005006313324,1.0639500617981,0.07605000585318,-1.49205005168915,-4.67805004119873,-43.5090026855469,-28.4680519104004,-5.32695007324219,9.70305061340332,43.47705078125,26.8080005645752,9.55695056915283,8.32395076751709,9.88500022888184,3.05205011367798,3.5310001373291,2.58300018310547,1.65105009078979,-2.53995013237,-9.87405014038086,-11.6770505905151,-58.1740531921387,-67.8799514770508,-51.0910530090332,-25.8100509643555,-9.51705074310303,-10.4700002670288,-5.87805032730103,-2.99700021743774,12.0310506820679,12.0550508499146,9.68895053863525,8.51595020294189,7.49805021286011,9.56700038909912,30.3280506134033,12.2890510559082,8.65694999694824,7.17495012283325,-2.39595007896423,-2.79795002937317,13.2850503921509,10.8460502624512,7.41495037078857,SWING_LEFT
0.33274999260902,-0.40397500991821,-2.37943744659424,-4.0422248840332,-2.91953754425049,1.04857504367828,5.96969985961914,5.31354999542236,5.89641237258911,7.30620002746582,8.78693771362305,2.94470000267029,0.54656249284744,-0.31116250157356,-1.19198751449585,0.46887499094009,0.63992500305176,0.67787498235703,1.75408744812012,1.4999874830246,-2.85656237602234,-2.26283740997314,0.79997497797012,-3.6507625579834,-3.31842494010925,-1.89626252651215,1.30693745613098,-0.00756249995902,-0.0930875018239,-0.89938747882843,-2.50016260147095,-3.51532506942749,-4.08223724365234,-4.98134994506836,-5.0448751449585,-1.36881244182587,8.75421237945557,19.1375255584717,25.2570991516113,16.860387802124,11.176962852478,4.46242475509644,1.1698499917984,-0.11288750171661,-1.54357504844666,2.92995023727417,0.09195000678301,-2.10900020599365,-3.13905024528503,-10.8100509643555,-22.0270519256592,-27.8740520477295,-9.75900077819824,9.14505004882813,47.6479530334473,42.8880004882813,25.7350521087646,20.8800010681152,18.9190502166748,8.47005081176758,2.11094999313354,1.22295010089874,-0.93795001506805,-9.27495002746582,-15.8380508422852,-22.4820003509521,-36.3160514831543,-62.1409530639648,-78.8080520629883,-52.6309509277344,-34.6710014343262,-15.5430011749268,-9.30600070953369,-6.54300022125244,-4.56795024871826,7.48905038833618,5.27205038070679,4.21095037460327,5.40300035476685,11.6670007705688,19.6110000610352,12.4210510253906,10.5079507827759,-0.78000003099442,1.58205008506775,-3.24600005149841,-4.53404998779297,-0.02805000171065,2.25495004653931,7.77105045318604,SWING_LEFT
-1.85666251182556,-1.75766253471375,-1.59513747692108,-1.57561254501343,-1.10274994373322,0.90076249837875,2.70888757705688,1.86353743076324,3.90871238708496,8.78088760375977,5.34173727035522,3.25379991531372,0.41208750009537,-2.40019989013672,-1.51579999923706,1.53793752193451,1.21288752555847,0.71939998865128,1.85061252117157,1.05407500267029,-2.00626254081726,-0.15661250054836,-0.4131875038147,-2.98127508163452,-4.85045003890991,0.92454999685287,1.08831250667572,0.85250002145767,0.88921248912811,0.88054996728897,-3.74866247177124,-3.35403752326965,-4.87272500991821,-6.44985008239746,-5.68878746032715,0.88893747329712,11.304012298584,20.3128757476807,22.978588104248,16.0931377410889,10.8531503677368,4.7470498085022,0.05444999784231,-2.69073748588562,-2.77626252174377,-0.71100002527237,1.80705010890961,2.32905006408691,-4.11300039291382,-14.0880002975464,-30.3160514831543,-25.056001663208,-11.5050001144409,14.7259502410889,31.9909515380859,38.4109535217285,32.4700508117676,23.4250507354736,12.6889505386353,3.91095018386841,0.50700002908707,-1.50300002098084,-6.01395034790039,-14.3989505767822,-21.9910507202148,-25.5679512023926,-41.1139526367188,-68.1550521850586,-78.8080520629883,-52.162052154541,-33.0720024108887,-15.2419509887695,-7.53900051116943,-6.28200006484985,-3.56205010414124,8.77500057220459,9.68895053863525,8.43195056915283,7.89600038528442,9.30795001983643,14.3320503234863,9.7470006942749,9.86400032043457,16.7830505371094,-5.82000017166138,-9.23400020599365,-2.90595006942749,-4.675950050354,6.45705032348633,10.7689504623413,SWING_LEFT
-0.36616250872612,-0.76312500238419,-1.46685004234314,-3.1186375617981,-2.61896252632141,-0.0276375003159,4.02228736877441,4.8200626373291,6.88228750228882,7.13514995574951,4.5439624786377,2.84941244125366,2.92998743057251,1.20133745670319,0.02722499892116,1.2421749830246,1.54893743991852,0.69739997386932,1.43522500991821,1.13588750362396,-1.71311247348785,-1.4137749671936,-1.29277503490448,-4.77716255187988,-0.94709998369217,1.10536253452301,-0.14685000479221,-1.27077496051788,-0.65752500295639,-0.07713750004768,-2.85807490348816,-4.12128734588623,-6.09922504425049,-3.60579991340637,-2.11887502670288,-1.92225003242493,6.77998733520508,20.65744972229,23.8398876190186,13.5507621765137,9.74146270751953,7.05608749389648,2.87168741226196,0.02639999985695,-0.64927500486374,-0.23895001411438,2.68500018119812,-5.75595045089722,-14.2339506149292,-10.7239503860474,-7.49400043487549,-40.6620025634766,-13.4490003585815,25.9050006866455,37.6609535217285,21.2869510650635,22.3690509796143,19.1029510498047,12.8490009307861,10.5000009536743,-0.2080500125885,-1.932000041008,-4.55400037765503,-5.78895044326782,-8.43495082855225,-24.984001159668,-35.6650505065918,-68.6320495605469,-78.8080520629883,-41.8110008239746,-23.7490520477295,-19.3309516906738,-10.4869508743286,-5.85105037689209,-4.63305044174194,8.27595043182373,7.69005060195923,4.23495006561279,9.00705051422119,12.0090007781982,14.989951133728,16.2610511779785,9.76605033874512,3.63405013084412,-3.33000016212463,-5.514000415802,1.80195009708405,1.48605012893677,-0.09300000220537,0.94500005245209,SWING_LEFT
-0.81083750724792,-0.47973749041557,-1.25069999694824,-2.46262502670288,-2.17552495002747,-0.95012497901917,3.48342490196228,5.27697515487671,6.00269985198975,7.65929985046387,3.70589995384216,1.48596251010895,1.208624958992,-0.28187498450279,-1.02946245670319,1.10660004615784,1.06026244163513,0.95397502183914,1.30460000038147,0.81097501516342,0.06201250106096,0.68873751163483,-1.35629999637604,-1.94397497177124,-2.42659997940063,2.70338749885559,1.35836243629456,-0.30442500114441,-0.32037499547005,-0.06737499684095,-3.24541258811951,-3.45303750038147,-3.98076248168945,-4.95082473754883,-5.78531265258789,-5.17316246032715,12.9043750762939,22.3678131103516,24.7121868133545,11.5238752365112,7.76957511901855,4.69700002670288,1.32013750076294,-0.54532498121262,-1.10123753547668,-2.51595020294189,-2.12805008888245,-1.98705005645752,-3.31800007820129,-5.88795042037964,-15.2730007171631,-26.2650012969971,-2.30595016479492,10.1200504302979,41.1280517578125,25.6849517822266,23.3860511779785,17.1109504699707,12.1069507598877,8.07299995422363,1.53195011615753,0.97905004024506,-1.5940500497818,-8.37495040893555,-21.0120010375977,-26.4180011749268,-46.7310028076172,-77.8879547119141,-78.8080520629883,-32.1019515991211,-17.8900508880615,-11.8060503005981,-7.04595041275024,-5.32395029067993,-3.54795026779175,10.2130508422852,10.0840501785278,7.71405029296875,8.19705009460449,10.9390506744385,15.3559503555298,14.5950002670288,11.6740503311157,8.7649507522583,-4.14195013046265,-8.1739501953125,3.49500012397766,2.73900008201599,3.55305027961731,6.81795024871826,SWING_LEFT
-1.46561253070831,-0.76436251401901,0.9179499745369,-1.2725625038147,-3.48026251792908,0.15070000290871,7.27320003509521,5.66060018539429,3.74495005607605,6.03803730010986,5.21221256256104,2.82369995117188,2.17621254920959,0.60266250371933,-0.68983751535416,1.22265005111694,1.17136251926422,-0.42294999957085,-1.01791250705719,-0.26537498831749,-2.66846251487732,-0.7039999961853,3.60139989852905,-1.27820003032684,-2.79798746109009,-0.06256250292063,-0.54628747701645,-1.12667500972748,-0.51452499628067,-0.21285000443459,-3.32103753089905,-3.30027508735657,-2.3095874786377,-2.72978758811951,-3.48727488517761,0.60788750648499,15.1976003646851,24.5302753448486,21.5320873260498,10.4622373580933,9.48365020751953,5.29320001602173,1.4777125120163,-1.69015002250671,-3.08288741111755,-3.46905016899109,-8.39895057678223,-7.55205059051514,-3.73305010795593,-4.95105028152466,-28.0390510559082,-16.8610515594482,6.088050365448,48.0720024108887,28.3000507354736,25.3759517669678,23.2240505218506,20.7139511108398,16.1530513763428,8.38905048370361,0.91395002603531,0.23400001227856,-2.14005017280579,-7.07205057144165,-20.6890506744385,-29.4349517822266,-54.4429512023926,-78.8080520629883,-75.5370025634766,-29.0350513458252,-25.5250511169434,-15.3450002670288,-7.33995056152344,-2.800950050354,-2.6140501499176,8.69295024871826,12.0790510177612,9.82800006866455,5.07300043106079,10.675950050354,29.8470020294189,16.5869998931885,7.86195039749146,6.29595041275024,-1.6560001373291,-5.50200033187866,4.4239501953125,0.26805001497269,2.13000011444092,3.57195019721985,SWING_LEFT
0.00164999999106,-0.49568748474121,-0.31721249222755,-0.16458749771118,-3.27373743057251,-5.28591251373291,-1.12241244316101,3.0327000617981,7.64706230163574,6.29213762283325,4.67101240158081,2.54278755187988,1.31862497329712,-0.11563749611378,-1.01612496376038,0.20253749191761,0.91121250391006,1.43646252155304,3.47187495231628,2.63257503509521,0.38458749651909,-4.76863765716553,-6.50952482223511,-0.81386250257492,1.73827493190765,0.89045000076294,0.17077499628067,-0.3936625123024,-0.25808748602867,-0.73081248998642,-2.62226247787476,-3.28075003623962,-5.54578733444214,-5.95760011672974,-5.20134973526001,4.75928735733032,14.6429252624512,18.1676006317139,20.6317367553711,8.90944957733154,6.45136260986328,3.92122507095337,1.95662498474121,1.06974995136261,0.29521250724792,-0.99405002593994,-1.18305003643036,-1.1779500246048,-8.39400005340576,-20.1529502868652,-35.5240516662598,-9.56505012512207,-6.6109504699707,47.8300514221191,38.0659523010254,22.711051940918,18.5550003051758,13.6009502410889,10.1410503387451,9.85395050048828,2.26200008392334,1.58895003795624,-6.58095026016235,-11.4130506515503,-18.984001159668,-29.1120014190674,-51.7159538269043,-61.0300521850586,-68.4739532470703,-25.8079509735107,-17.9850006103516,-10.1940002441406,-4.89600038528442,-1.35705006122589,-0.70095002651215,8.96805000305176,9.63900089263916,12.0670509338379,6.046950340271,2.44905018806458,13.6399507522583,23.9970016479492,18.8640003204346,-4.22100019454956,0.87300002574921,-1.54095005989075,1.34295010566711,1.5289500951767,3.25800013542175,4.82205009460449,SWING_LEFT
-1.09917497634888,-1.53890001773834,-2.22186255455017,-2.589674949646,-1.96652495861053,-2.33310008049011,-0.06682500243187,3.97457504272461,5.67159986495972,5.9782247543335,4.97887516021729,3.87199997901917,2.503737449646,0.39132499694824,-1.00017499923706,1.16159999370575,1.3301750421524,1.79451251029968,2.93796253204346,1.22512495517731,-1.31353747844696,-2.90303754806519,2.08037495613098,-2.36665010452271,-2.29088759422302,0.36629998683929,-0.17984999716282,-0.57076251506805,0.51411247253418,0.19896249473095,-3.96866250038147,-4.17752504348755,-4.88606262207031,-5.79507493972778,-7.27209997177124,-7.13528728485107,4.02132511138916,19.6055755615234,22.967586517334,15.3502244949341,10.651575088501,6.55888748168945,3.74164986610413,1.41308748722076,0.1717374920845,2.21399998664856,-0.71100002527237,-3.30900025367737,-6.20100021362305,-9.46905040740967,-12.3760509490967,-46.7869529724121,-11.9860506057739,16.2660007476807,34.9939498901367,28.5220508575439,24.4879512786865,19.4530506134033,17.1330013275146,13.1320505142212,4.33995008468628,4.28295040130615,2.7529501914978,-2.58300018310547,-12.445050239563,-27.7810516357422,-29.3200511932373,-73.5949554443359,-78.8080520629883,-47.9569511413574,-26.4850521087646,-16.3840503692627,-10.1590509414673,-6.44700050354004,-5.14695024490356,7.13895034790039,7.26795053482056,7.32105016708374,7.44300031661987,10.090950012207,9.45195007324219,26.6430015563965,20.5090503692627,5.87700033187866,-1.58700013160706,-1.74000012874603,-0.53295004367828,-0.98400002717972,0.42105001211166,3.92595028877258,SWING_LEFT
0.30098751187325,-0.18892499804497,-1.28480005264282,-3.16387486457825,-3.19921255111694,-0.82059997320175,0.48661249876022,1.11086249351501,4.35214996337891,7.48948764801025,6.06127500534058,3.90871238708496,0.65394997596741,-0.46502500772476,0.37180000543594,-0.88357502222061,-0.47918748855591,1.4609375,3.2433500289917,3.49635004997253,-1.91468751430511,-3.21337509155273,1.13836252689362,-4.4936375617981,-3.43942499160767,0.04619999974966,0.91355001926422,1.93132495880127,1.58551251888275,0.04867500066757,-2.01877498626709,-2.66502499580383,-3.79142498970032,-6.027174949646,-6.60866260528564,-5.02535009384155,-0.1385999917984,20.3531627655029,23.2669258117676,15.2403621673584,8.50135040283203,2.69953751564026,0.61641252040863,0.60183751583099,0.13392500579357,0.78900003433228,2.89605021476746,1.55505001544952,-5.33700037002563,-12.0190505981445,-24.691951751709,-41.9569511413574,-11.121000289917,17.5950012207031,34.9960517883301,34.7140502929688,25.9080009460449,14.3260507583618,10.0099506378174,9.48795032501221,4.52505016326904,4.45005035400391,2.50095009803772,-4.63695001602173,-15.0049505233765,-24.2080516815186,-25.7620506286621,-75.5350570678711,-78.8080520629883,-52.3870506286621,-23.4250507354736,-11.1040506362915,-5.38395023345947,-1.51800012588501,0.2119500041008,10.3279504776001,8.74095058441162,6.66000032424927,2.9320502281189,9.11205005645752,13.9170007705688,17.3340015411377,16.1820011138916,12.8419504165649,0.81300002336502,-3.12195014953613,-6.95700025558472,-2.47995018959045,7.56795024871826,7.39095020294189,SWING_LEFT
-1.55856251716614,-0.3587374985218,0.28627499938011,-0.16816249489784,-2.29033756256104,-4.27556228637695,1.38820004463196,3.90747499465942,4.66853761672974,7.72777509689331,4.48043727874756,1.30638754367828,0.15798750519753,0.75171250104904,0.87395000457764,1.25207495689392,1.04678750038147,0.69739997386932,0.70345002412796,0.64116251468658,-0.49142500758171,-0.33989998698235,2.10237503051758,0.85978752374649,-3.06789994239807,0.61311250925064,-0.13584999740124,0.54463750123978,0.82926249504089,0.46887499094009,-3.57637500762939,-2.55268740653992,-1.88072502613068,-2.9546000957489,-5.65207481384277,-5.42726230621338,6.12878751754761,15.7790870666504,23.8167877197266,11.7974996566772,7.82581233978271,4.85457515716553,2.65677499771118,1.11003744602203,0.42460000514984,-0.46695002913475,-2.7769501209259,-3.44505023956299,0.27000001072884,-4.39095020294189,-11.623950958252,-51.5539512634277,-28.4179515838623,12.6700506210327,39.1069526672363,25.1530513763428,20.7580509185791,17.568000793457,13.7110509872437,9.8899507522583,-1.28505003452301,1.10805010795593,1.98900008201599,-0.79695004224777,-9.40005016326904,-25.2040519714355,-28.6350021362305,-54.0769538879395,-78.8080520629883,-36.6610527038574,-18.5359516143799,-11.4829502105713,-9.41595077514648,-6.41595029830933,-2.98800015449524,11.6550006866455,11.8609504699707,9.6340503692627,7.69905042648315,4.50104999542236,15.4549503326416,31.5900020599365,27.4450511932373,15.8539505004883,-3.93300008773804,-10.2900009155273,-4.10595035552979,4.30200004577637,8.05905055999756,5.80800008773804,SWING_LEFT
-0.18287499248981,-1.33003747463226,-3.31897497177124,-4.65189981460571,-3.7563624382019,0.74690002202988,2.59778738021851,3.26232504844666,7.15714979171753,7.30014991760254,5.38807487487793,3.60813736915588,2.00887489318848,-0.21711249649525,-0.59826248884201,-0.63552498817444,0.16472500562668,1.45241248607636,2.29528737068176,1.20683753490448,-2.45588755607605,-1.79011249542236,0.26001250743866,-5.02507495880127,-1.72411251068115,0.54463750123978,-1.9904500246048,-0.11384999752045,1.36441254615784,1.35093748569489,-5.16587495803833,-5.60449981689453,-6.01493740081787,-7.0558123588562,-5.88788747787476,-0.72380000352859,6.41354990005493,23.7825508117676,21.4637489318848,12.4902248382568,11.2197246551514,5.68039989471436,1.43742501735687,-0.77756249904633,-1.59843754768372,0.46605002880096,-1.98000013828278,-2.89200019836426,-6.92700052261353,-15.2470502853394,-30.4650020599365,-38.287052154541,1.91895008087158,29.9659519195557,27.7060508728027,23.439001083374,24.6460514068604,19.828950881958,13.5630006790161,8.53500080108643,4.8070502281189,2.34300017356873,-1.58505010604858,-9.36105060577393,-20.8110008239746,-31.1659507751465,-37.219051361084,-78.8080520629883,-78.5850067138672,-36.7879524230957,-28.3810520172119,-13.8000001907349,-7.39995050430298,-4.36199998855591,-3.46200013160706,7.97505044937134,4.91505002975464,5.5420503616333,5.6569504737854,15.7800006866455,22.242000579834,17.4829502105713,16.6639499664307,2.4060001373291,-9.31800079345703,-7.65900039672852,0.42105001211166,-4.00005006790161,2.46795010566711,6.39495038986206,SWING_LEFT
0.15922500193119,-1.84071254730225,-4.11551237106323,-5.06728744506836,-4.05446243286133,0.29122498631477,2.13592505455017,2.13111257553101,7.20843744277954,7.92068767547607,4.20557498931885,2.19945001602173,1.33567500114441,1.01681244373322,-0.30263748764992,-2.37407493591309,1.46574997901917,3.71250009536743,2.6643373966217,1.10412502288818,-2.16878747940063,0.09143749624491,-1.41006255149841,-6.16866254806519,-0.83833748102188,0.94407498836517,0.66439998149872,1.14688754081726,0.83544999361038,-0.15180000662804,-6.94471263885498,-7.52015018463135,-8.09916210174561,-8.85788726806641,-6.05041265487671,0.23168750107288,13.2294244766235,21.753324508667,22.9835376739502,11.8732624053955,7.06227493286133,4.82776260375977,2.36719989776611,1.4276624917984,1.14427495002747,5.17995023727417,-1.74795007705688,-4.12095022201538,-8.20995044708252,-18.6040515899658,-27.8580017089844,-22.1830501556396,4.21095037460327,24.0619506835938,43.7089538574219,24.7219505310059,20.0340003967285,14.7930011749268,11.9419507980347,5.02905035018921,2.90595006942749,2.17095017433167,-5.7199501991272,-15.7800006866455,-19.5919513702393,-29.416051864624,-50.3950538635254,-78.7740020751953,-78.8080520629883,-39.1080017089844,-19.7500514984131,-14.2699508666992,-7.58700037002563,-6.54795026779175,-3.07095003128052,3.6889500617981,3.25605010986328,5.66400003433228,8.71200084686279,16.9530010223389,22.1560516357422,15.7420511245728,18.2820014953613,3.60300016403198,-9.07605075836182,-7.2180004119873,-0.40905001759529,3.8490002155304,4.36905002593994,6.23400020599365,SWING_LEFT
-0.55302500724792,-0.43944999575615,-1.277512550354,-2.59943747520447,-3.69036245346069,-3.4875500202179,2.50731253623962,-0.96112501621246,1.65096247196198,8.64888763427734,4.63196229934692,1.84277498722076,1.87687504291534,-0.78636246919632,-1.67942500114441,0.2050125002861,-0.13584999740124,0.62768751382828,2.20976257324219,2.64591240882874,2.35647487640381,-0.07356250286102,4.16336250305176,-1.53958749771118,-6.70009994506836,1.33869993686676,2.96601247787476,0.07796250283718,0.35034999251366,0.07424999773502,-1.98825001716614,-2.21058750152588,-3.01207494735718,-4.43162488937378,-7.09004974365234,-8.82736206054688,11.1194877624512,20.5792121887207,22.2199993133545,17.6409740447998,9.34560012817383,5.5668249130249,2.14362502098084,-1.16476249694824,-1.71338748931885,-0.00705000013113,0.54704999923706,0.60000002384186,-1.33605003356934,-0.550950050354,-1.60395002365112,-39.574951171875,10.7950506210327,12.3100509643555,39.025951385498,33.1120529174805,24.2910003662109,25.9960517883301,15.9310503005981,5.07705020904541,3.22005009651184,3.03495025634766,1.45005011558533,-3.23400020599365,-18.9769515991211,-33.0859527587891,-39.5839500427246,-67.3030548095703,-71.2990570068359,-51.9199523925781,-20.2620010375977,-10.6129503250122,-4.30005025863647,-1.60095012187958,-1.86495006084442,10.921950340271,10.2610502243042,8.37495040893555,7.03905010223389,7.5730504989624,12.2130002975464,15.9910507202148,15.5929508209229,21.760950088501,-4.66395044326782,-9.34395027160645,2.90400004386902,-0.79695004224777,2.06805014610291,8.62604999542236,SWING_LEFT
0.3962749838829,-0.25011250376701,-1.25179994106293,-2.71796250343323,-4.32079982757568,-5.7965874671936,-5.84911251068115,2.42797493934631,7.02528762817383,7.06062507629395,4.88730001449585,3.8732373714447,3.00341248512268,1.77925002574921,1.40896248817444,0.779212474823,1.37170004844666,2.79262495040894,4.26593732833862,4.49927520751953,1.93737494945526,-0.76381248235703,-4.46311235427856,-1.92321252822876,0.2563000023365,-2.39483737945557,0.5324000120163,1.72232496738434,0.98683750629425,0.52263748645782,-2.24358749389648,-3.76818752288818,-5.31492519378662,-7.34057474136353,-9.38808727264404,-7.79501247406006,-3.21722507476807,21.6066131591797,21.0728378295898,17.9440250396729,14.5866870880127,8.67611217498779,4.3573751449585,2.34148740768433,1.11003744602203,5.63505029678345,2.74305009841919,-0.01005000062287,-3.12495017051697,-6.81195020675659,-19.2859516143799,-29.6479511260986,-13.4629507064819,27.1410007476807,30.7080020904541,29.5609512329102,31.7350521087646,20.4750003814697,14.4409503936768,10.756950378418,6.61005020141602,6.00900030136108,2.02500009536743,-6.16005039215088,-21.469051361084,-28.0800018310547,-26.2030506134033,-77.086051940918,-78.8080520629883,-69.961051940918,-44.521053314209,-23.3989505767822,-14.4589509963989,-8.82705020904541,-6.07395029067993,6.35100030899048,6.60495042800903,6.00900030136108,3.7110002040863,3.02805018424988,8.30295085906982,16.5919513702393,18.8950500488281,9.12600040435791,5.07300043106079,-3.18900012969971,0.96195006370544,3.00195002555847,5.06100034713745,6.63195037841797,SWING_LEFT
0.1922249943018,0.98271250724792,-1.08941245079041,-2.22309994697571,-3.79912495613098,-6.1594500541687,-3.85164999961853,2.84817504882813,6.21527481079102,7.95616245269775,7.98187494277954,4.30938768386841,3.53608751296997,1.25510001182556,-0.2756874859333,0.0449624992907,-0.13103750348091,-0.83352500200272,-0.23237499594688,1.47551250457764,2.6313374042511,-3.53828740119934,2.08037495613098,-0.41923749446869,-2.56822490692139,-1.55911254882813,3.20924997329712,-0.08084999769926,1.17383754253387,2.01189994812012,-3.64485001564026,-5.17206239700317,-6.21651268005371,-6.2409873008728,-7.09499979019165,-9.83523750305176,-4.03342485427856,11.4688749313354,21.1901245117188,20.2871627807617,15.0277872085571,9.30888748168945,5.9577374458313,2.60535001754761,1.03303754329681,3.04500007629395,2.19495010375977,-3.99600028991699,-3.91500020027161,-4.14705038070679,-1.65000009536743,-42.4170036315918,-33.0769500732422,0.64305001497269,33.4470024108887,40.276050567627,25.9030513763428,24.2290515899658,18.2820014953613,12.8230504989624,8.91105079650879,6.37995052337646,6.06195020675659,3.43500018119812,-3.92895007133484,-27.177001953125,-19.5010509490967,-44.8330535888672,-78.7960510253906,-73.2940521240234,-46.7170524597168,-21.5340003967285,-16.6210498809814,-11.8750505447388,-10.4269504547119,8.25705051422119,4.73295021057129,3.52395009994507,5.18295001983643,5.23095035552979,3.1690502166748,35.7340507507324,30.3300018310547,20.4970512390137,5.49900007247925,-2.17605018615723,0.96405005455017,-1.45095002651215,-1.1340000629425,4.16505002975464,SWING_LEFT
-0.76436251401901,0.6210874915123,0.39008748531342,-1.38874995708466,-2.51515007019043,-2.97082495689392,3.24032497406006,5.2720251083374,5.86698770523071,6.55737495422363,3.42608737945557,2.33502507209778,1.00581252574921,0.72971248626709,0.56732499599457,0.19030000269413,0.0937749966979,1.0260249376297,0.79997497797012,1.67103743553162,-0.71733748912811,-1.08996248245239,-0.07232499867678,-2.97756242752075,0.15977500379086,2.09742498397827,0.21725000441074,0.4493499994278,0.41758748888969,0.44082498550415,-1.37609994411469,-0.87161248922348,-0.70784997940063,-2.34244990348816,-4.22757482528687,-3.48603749275208,13.7791500091553,25.2730503082275,24.1124114990234,12.0467872619629,7.73176240921021,4.19980001449585,1.52294993400574,0.48578751087189,0.50160002708435,-1.06800007820129,-2.30295014381409,-2.7940502166748,-0.71100002527237,-4.125,-25.2450008392334,-42.0100517272949,7.20600032806396,22.5870018005371,33.832950592041,26.2360515594482,20.7100505828857,14.6809511184692,10.9170007705688,9.94500064849854,0.79005002975464,0.05400000140071,-1.0480500459671,-6.61500024795532,-15.8089504241943,-26.1450004577637,-49.5660018920898,-78.8080520629883,-78.8080520629883,-36.2520027160645,-20.5780506134033,-14.2480506896973,-9.64905071258545,-8.44395065307617,-6.77505016326904,13.9720506668091,10.6440000534058,7.01700019836426,6.02595043182373,5.38395023345947,19.8910503387451,25.4029502868652,15.4309511184692,5.56905031204224,-7.73805046081543,1.67295002937317,2.37705016136169,4.44795036315918,5.49705028533936,4.91505002975464,SWING_LEFT
-0.91341251134872,-1.27503752708435,-0.79131251573563,-1.3252249956131,-2.9915874004364,-3.76612496376038,0.61737501621246,9.94028759002686,6.95309972763062,4.92635011672974,5.54083728790283,3.80723738670349,3.01922488212585,1.32962501049042,1.37362504005432,1.65027499198914,1.64051246643066,1.68932497501373,0.96126252412796,1.00526249408722,0.91850000619888,-1.10096251964569,-3.64100003242493,-1.9354499578476,-0.63552498817444,-0.52071249485016,-0.27637499570847,0.28311249613762,0.33082500100136,0.25025001168251,-3.9869499206543,-3.76708745956421,-3.50803756713867,-3.09017491340637,-4.19099998474121,-4.8017749786377,5.04033756256104,24.681661605835,24.1319370269775,17.0827255249023,11.5739250183105,7.22961235046387,4.87052488327026,0.92317497730255,-0.21917499601841,-2.85900020599365,-5.6980504989624,-7.59000015258789,-8.13105010986328,-4.04595041275024,-8.80605030059814,-55.6290016174316,-20.9569511413574,40.7520027160645,45.7159538269043,28.4070014953613,28.0600509643555,24.4039516448975,13.5750007629395,10.4359502792358,2.82195019721985,1.04295003414154,-2.91600012779236,-4.69500017166138,-13.6710004806519,-26.9740505218506,-31.6930522918701,-78.8080520629883,-78.8080520629883,-63.2929534912109,-32.2290000915527,-19.1370010375977,-14.2549505233765,-9.10995006561279,-7.01205015182495,8.10599994659424,8.72700023651123,8.55705070495605,7.74705028533936,5.33400011062622,11.3389501571655,33.0670509338379,15.9670505523682,-14.28600025177,-0.01605000160635,-3.75600028038025,-1.1869500875473,-0.29595002532005,6.30600023269653,5.12100028991699,SWING_LEFT
-0.02406249940395,1.07057499885559,-1.44251251220703,-6.10816240310669,-4.51632499694824,-0.0386375002563,0.93747496604919,0.96799999475479,3.25751256942749,5.89393758773804,2.45355010032654,2.33997488021851,1.03881251811981,0.8262374997139,0.42308750748634,-0.19208750128746,-0.84328746795654,0.48358750343323,1.49022495746613,-0.3619000017643,-2.28236246109009,0.98202496767044,-0.40342500805855,-4.09915018081665,0.76450002193451,1.70280003547668,-0.71252501010895,0.53734999895096,0.50311249494553,-0.06256250292063,-3.49208736419678,-6.3179874420166,-8.57202529907227,-8.45968723297119,-3.61432504653931,4.86310005187988,15.0753622055054,24.4385623931885,26.020637512207,13.3515253067017,9.77680015563965,5.91263723373413,3.05868744850159,1.61823749542236,0.92193746566772,0.5950500369072,0.39195001125336,-2.42295002937317,-11.8300504684448,-21.6850509643555,-22.4659519195557,-12.502950668335,2.16600012779236,20.8920001983643,29.5609512329102,26.2690505981445,21.1140003204346,14.9850006103516,12.7009506225586,9.46605014801025,3.24600005149841,-0.34695002436638,-8.57805061340332,-17.7919502258301,-22.678050994873,-34.7689514160156,-55.4680519104004,-78.8080520629883,-78.8080520629883,-39.9960021972656,-25.5060005187988,-16.54905128479,-10.3500003814697,-7.66605043411255,-3.88095021247864,10.042950630188,7.8120002746582,0.0430500023067,6.06900024414063,21.1309509277344,19.54905128479,15.1600503921509,18.0949516296387,16.3090515136719,-9.83295059204102,3.63600015640259,2.0419499874115,3.92595028877258,6.46605014801025,5.32200002670288,SWING_LEFT
-0.21711249649525,-0.73631250858307,-0.4809750020504,-0.67883747816086,-1.33251249790192,0.3950375020504,3.08646249771118,3.05827498435974,5.61164999008179,5.37102508544922,4.99358749389648,4.06628751754761,0.7236624956131,-0.81454998254776,-0.13034999370575,3.38992500305176,3.61349987983704,1.93984997272491,-2.40088748931885,-4.22372484207153,-3.28171253204346,-0.43395000696182,0.13296249508858,-3.71428751945496,-1.10838747024536,1.45722496509552,-0.73081248998642,0.37606251239777,0.26124998927116,-0.56594997644424,-4.82872486114502,-4.81401252746582,-5.62278747558594,-6.23727512359619,-4.27886247634888,1.28837502002716,12.4816999435425,21.9169502258301,23.353687286377,12.9520874023438,8.94368743896484,3.05745005607605,0.52607500553131,-0.36093750596046,-0.12759999930859,-3.05505013465881,-6.84000015258789,-8.56905078887939,-11.377950668335,-12.6850509643555,-24.6490516662598,-17.6670017242432,5.07495021820068,28.8649520874023,48.2320518493652,27.4540519714355,26.2279510498047,14.8650007247925,7.45695018768311,4.18200016021729,0.57900005578995,-0.84495002031326,-6.3400502204895,-11.8300504684448,-20.9710502624512,-29.2770023345947,-41.2770004272461,-74.1750030517578,-78.8080520629883,-38.3629531860352,-23.3989505767822,-12.117000579834,-5.25000047683716,-1.1539500951767,0.61500000953674,4.57500028610229,3.08595013618469,3.69405007362366,4.92000007629395,7.83105039596558,19.5889511108398,14.8920011520386,15.9379510879517,5.69505023956299,-0.53295004367828,3.93795013427734,-2.81505012512207,-0.98595005273819,8.41499996185303,8.78595066070557,SWING_LEFT
