gyro_x_0,gyro_y_0,gyro_z_0,acc_x_0,acc_y_0,acc_z_0,gyro_x_1,gyro_y_1,gyro_z_1,acc_x_1,acc_y_1,acc_z_1,gyro_x_2,gyro_y_2,gyro_z_2,acc_x_2,acc_y_2,acc_z_2,gyro_x_3,gyro_y_3,gyro_z_3,acc_x_3,acc_y_3,acc_z_3,gyro_x_4,gyro_y_4,gyro_z_4,acc_x_4,acc_y_4,acc_z_4,gyro_x_5,gyro_y_5,gyro_z_5,acc_x_5,acc_y_5,acc_z_5,gyro_x_6,gyro_y_6,gyro_z_6,acc_x_6,acc_y_6,acc_z_6,gyro_x_7,gyro_y_7,gyro_z_7,acc_x_7,acc_y_7,acc_z_7,gyro_x_8,gyro_y_8,gyro_z_8,acc_x_8,acc_y_8,acc_z_8,gyro_x_9,gyro_y_9,gyro_z_9,acc_x_9,acc_y_9,acc_z_9,gyro_x_10,gyro_y_10,gyro_z_10,acc_x_10,acc_y_10,acc_z_10,gyro_x_11,gyro_y_11,gyro_z_11,acc_x_11,acc_y_11,acc_z_11,gyro_x_12,gyro_y_12,gyro_z_12,acc_x_12,acc_y_12,acc_z_12,gyro_x_13,gyro_y_13,gyro_z_13,acc_x_13,acc_y_13,acc_z_13,gyro_x_14,gyro_y_14,gyro_z_14,acc_x_14,acc_y_14,acc_z_14,motion_type
0.03299999982119,0.29287499189377,0.63043749332428,0.8816499710083,-0.52483749389648,0.20556250214577,-0.82857501506805,-1.70885002613068,-3.11794996261597,-5.15817499160767,-5.35727500915527,-2.16507506370544,5.1544623374939,9.0457124710083,6.92642498016357,-0.44577500224113,-0.55082499980927,-0.83393746614456,-1.26596248149872,0.33398750424385,5.08296251296997,11.4907369613647,7.54215002059937,-0.37881249189377,5.78201246261597,7.50887489318848,2.81558752059937,11.0995502471924,21.3503131866455,8.28657531738281,1.7879124879837,1.21522498130798,1.47083747386932,3.1556248664856,2.38260006904602,-26.7954502105713,-33.7094993591309,-10.2095127105713,-10.19411277771,-16.2042369842529,-14.8922128677368,-6.98156261444092,1.24148750305176,-0.8955374956131,-3.33602499961853,0.26700001955032,1.68495011329651,4.25699996948242,3.05895018577576,-19.3620014190674,-56.1640510559082,-21.4380016326904,15.7120504379272,58.6140022277832,42.8620529174805,3.60795021057129,-12.703950881958,-5.10900020599365,2.78205013275146,9.91200065612793,3.5220000743866,3.87600016593933,4.54200029373169,3.40200018882751,-2.8050000667572,-36.8190002441406,-62.2660522460938,-49.5889511108398,-30.726001739502,-17.1169509887695,-6.89595031738281,-0.64695000648499,-0.91005003452301,-0.20595000684261,-0.96300005912781,9.36900043487549,9.6109504699707,10.1620502471924,11.6569509506226,29.6530513763428,2.99100017547607,11.3550004959106,27.4369506835938,-20.6299514770508,11.9680509567261,9.33600044250488,7.70700025558472,13.8600006103516,10.9050006866455,8.20800018310547,SWING_LEFT
0.80616247653961,2.27356243133545,1.97972500324249,0.73892498016357,0.05211250111461,-0.30827498435974,-0.56760001182556,-1.94136250019073,1.78474998474121,2.2236499786377,-9.90275001525879,-15.5601873397827,4.16157484054565,16.0076122283936,8.89666271209717,4.23348760604858,-0.66728746891022,-3.2627375125885,-3.95862507820129,-3.40216255187988,-2.66818737983704,-2.7083375453949,-0.76188749074936,11.7004251480103,17.3086376190186,-2.00034999847412,-17.67067527771,-24.7325382232666,-19.2524757385254,1.51731252670288,2.35069990158081,-4.45431232452393,-3.73587489128113,-1.14482498168945,-0.38637501001358,-0.56883752346039,-0.22866250574589,-0.45374998450279,-22.9465503692627,-28.9636878967285,-7.73932504653931,-9.82849979400635,-14.8361120223999,-9.06097507476807,-1.19570004940033,-1.56405007839203,-0.38595002889633,1.3900500535965,1.85700011253357,3.05205011367798,5.55000019073486,7.13805055618286,-26.1060009002686,-62.6730041503906,-15.457950592041,49.1179504394531,55.7380523681641,23.0959510803223,-6.98700046539307,-14.3299503326416,3.17505025863647,3.27300024032593,3.55800008773804,3.53595018386841,3.8860502243042,4.40100002288818,1.94295012950897,-6.01200008392334,-42.7780532836914,-53.9839515686035,-43.9489517211914,-19.8930015563965,-8.52195072174072,-8.56995010375977,-1.6030501127243,8.98095035552979,9.22800064086914,10.1380500793457,10.2049503326416,10.9189500808716,13.5610504150391,13.6710004806519,23.2099514007568,-10.8439502716064,29.6719512939453,-23.2930507659912,12.4969501495361,15.3550510406494,12.1930503845215,11.7160501480103,SWING_LEFT
-0.45031249523163,-0.33934998512268,-0.19937500357628,-0.17723749577999,0.1370874941349,1.36413753032684,1.24409997463226,-9.5875997543335,-19.8607749938965,-19.078125,-14.2990369796753,-2.97838759422302,13.2697124481201,15.18274974823,7.13322496414185,0.38953748345375,1.07965004444122,0.54848748445511,-0.77206248044968,-2.30793738365173,-3.95051240921021,-5.44224977493286,-1.20120000839233,22.4984378814697,18.413724899292,-5.27051258087158,-10.336012840271,-17.8069381713867,-10.3174495697021,5.86973762512207,-1.23763751983643,-2.32141256332397,-2.66323757171631,-1.81788754463196,-0.40026250481606,0.47863748669624,1.95002496242523,-1.47468745708466,-2.92957496643066,1.51731252670288,-0.90461248159409,-15.7222995758057,-16.7112007141113,-3.77011251449585,0.29438748955727,2.35095000267029,3.01200008392334,3.66795015335083,6.23805046081543,12.28005027771,22.207950592041,20.521951675415,-57.4159545898438,-46.183952331543,9.75104999542236,41.7490501403809,27.6520519256592,12.9820508956909,-0.39105001091957,-4.37805032730103,2.39100003242493,2.32395005226135,2.44200015068054,3.00000023841858,5.50695037841797,8.19195079803467,-11.1829509735107,-12.1620006561279,-40.5739517211914,-27.2700004577637,-17.9730014801025,-9.33405017852783,-3.68595027923584,-2.65395021438599,0.08505000174046,9.03194999694824,9.43605041503906,10.1119508743286,11.7019510269165,11.3170509338379,10.9960508346558,10.2840003967285,21.4620018005371,-16.5010509490967,21.5220012664795,-2.47800016403198,13.864951133728,14.7559509277344,9.81195068359375,10.9020004272461,SWING_LEFT
-1.7575249671936,-1.32398748397827,-1.11938750743866,-1.33251249790192,-1.65412497520447,-1.72658753395081,-0.99343746900558,5.5815372467041,4.85457515716553,2.48971247673035,10.9481620788574,17.2891120910645,17.6177368164063,19.4565258026123,15.7781248092651,-0.62053751945496,-0.71885001659393,-0.86927497386932,-1.28933751583099,-2.25527501106262,-4.20749998092651,-4.91631269454956,4.38033723831177,24.7290992736816,22.2916374206543,13.7387247085571,28.4095630645752,8.84784984588623,-17.0758495330811,-4.99867486953735,-5.55073738098145,-6.0583872795105,-6.15147495269775,-6.09592485427856,-6.24016237258911,-6.20743751525879,-3.38304996490479,13.3215503692627,12.0161247253418,-6.21087503433228,-9.58141231536865,-13.5280752182007,-14.6759252548218,-7.84767484664917,-1.23364996910095,2.17305016517639,1.42605006694794,1.11195003986359,2.99205017089844,7.61700057983398,13.9710006713867,6.84600019454956,-58.0960540771484,-55.6129531860352,-8.16000080108643,37.7680511474609,37.6870536804199,22.8690013885498,7.00395011901855,1.15995001792908,3.35400009155273,2.87295007705688,2.5729501247406,3.39195013046265,3.45000004768372,5.84505033493042,3.17505025863647,-14.2960510253906,-45.691951751709,-45.609001159668,-34.0139999389648,-19.3090515136719,-8.02605056762695,-5.21205043792725,-2.15805006027222,9.50295066833496,10.3870506286621,10.9620008468628,13.3360509872437,15.4770011901855,18.8389511108398,14.4709510803223,20.53005027771,-15.8520011901855,24.5970020294189,-16.3759498596191,18.4699516296387,10.6270503997803,8.09805011749268,10.687050819397,SWING_LEFT
0.3121249973774,0.03423750028014,-0.0591249987483,-0.07933750003576,0.45883750915527,0.83022499084473,6.71316242218018,17.8226127624512,13.085599899292,11.0848379135132,21.9313869476318,20.3916625976563,18.6190128326416,16.4113121032715,9.50111198425293,-0.61489999294281,-0.26179999113083,-0.13461250066757,-0.4100250005722,-1.32921254634857,-2.56134986877441,-2.07666254043579,1.01337504386902,21.6136245727539,30.289737701416,16.3202877044678,14.9407501220703,1.00705003738403,-10.5835123062134,-0.59111249446869,-0.75129997730255,-0.91258752346039,-0.87436246871948,-0.62438750267029,-0.21367499232292,1.8683500289917,10.4467000961304,21.8949489593506,23.9596500396729,7.89098739624023,-4.60556268692017,-13.7361125946045,-21.1338882446289,-9.72455024719238,-0.42047500610352,2.74605011940002,3.39195013046265,3.63900017738342,5.82300043106079,10.7860507965088,18.8929500579834,20.377950668335,-40.7440528869629,-55.6129531860352,-3.42300009727478,21.7879505157471,22.7490005493164,18.0949516296387,12.2160005569458,6.21405029296875,2.47005009651184,2.74305009841919,1.94595015048981,4.69095039367676,4.35495042800903,1.32300007343292,-1.30995011329651,-10.0690507888794,-22.5850505828857,-15.5509510040283,-13.0030508041382,-11.3260507583618,-5.54505014419556,-2.30895018577576,-1.48995006084442,10.0540504455566,10.4970006942749,10.6789503097534,12.8610010147095,15.187050819397,14.6959505081177,11.1700506210327,12.6940507888794,-22.560001373291,12.8659505844116,-3.7590000629425,8.24595069885254,11.9800510406494,10.9789505004883,7.85295057296753,SWING_LEFT
-2.13949990272522,-2.42467498779297,-2.85491251945496,-1.98220002651215,0.2404875010252,1.69303750991821,0.97473746538162,-0.90901249647141,-2.63010001182556,-10.2678127288818,-20.0160121917725,-12.321925163269,9.33391284942627,16.1441497802734,9.69429969787598,-3.40972495079041,-2.47953748703003,-0.07851249724627,0.85346251726151,-4.00716257095337,-5.95168733596802,-2.60645008087158,3.44946241378784,11.485237121582,4.96773767471313,-13.729100227356,-15.5035371780396,-15.9927625656128,-17.0905628204346,-1.9186749458313,-10.3413753509521,-8.12006282806396,-8.45033740997314,-13.3557872772217,-35.5291748046875,-32.690486907959,-9.80773735046387,-9.58223724365234,-11.267162322998,-7.67346239089966,-2.6061749458313,-9.72331237792969,-12.0328998565674,-4.60143756866455,-1.76426243782043,2.45100021362305,1.23900008201599,-1.90005004405975,-0.33795002102852,1.26300001144409,-0.79305005073547,-7.09395027160645,-47.1780014038086,-38.4550514221191,-4.61595010757446,43.5139503479004,49.8049507141113,22.1140518188477,-1.46595001220703,-8.05695056915283,2.0749499797821,0.85905003547668,2.02005004882813,2.89905023574829,3.61800026893616,3.14595007896423,1.5289500951767,-10.9339504241943,-40.8829536437988,-35.3869514465332,-38.5240516662598,-15.3550510406494,-5.82495021820068,-3.67905020713806,-1.89495003223419,9.28605079650879,10.0159502029419,11.2300500869751,11.2060508728027,11.7570009231567,13.5199508666992,13.9680004119873,24.4750518798828,-18.738000869751,34.6180534362793,3.95895028114319,3.94200015068054,6.9859504699707,10.8810005187988,13.642050743103,SWING_LEFT
0.40094998478889,0.16046249866486,-0.24144999682903,-0.05101250112057,0.20143750309944,0.50875002145767,0.2771999835968,-2.08174991607666,-9.56560039520264,-6.97179985046387,15.2050247192383,31.7091503143311,20.6232128143311,10.2309627532959,13.6633749008179,0.55742502212524,0.01718750037253,0.4101625084877,1.08033752441406,-0.00123749999329,-3.88506245613098,-7.03752517700195,-5.65303754806519,8.75641250610352,32.4325370788574,34.2850761413574,26.3271255493164,19.0980625152588,-0.07672499865294,-9.32470035552979,0.31693750619888,0.32821249961853,0.0559624992311,-0.4130499958992,-0.46007499098778,-0.03973750025034,0.61379998922348,3.30605006217957,-3.93896245956421,-16.9373874664307,-12.9199123382568,-9.35453701019287,-19.2651252746582,-18.4174365997314,-5.9577374458313,1.65795004367828,0.95700001716614,0.08205000311136,1.49100005626678,6.89895009994507,20.3830509185791,23.6140518188477,-3.32505011558533,-63.555004119873,-33.9109497070313,2.65500020980835,22.969051361084,19.1950511932373,18.6370506286621,13.6450510025024,1.96500015258789,1.45695006847382,2.28405022621155,2.39100003242493,3.5550000667572,6.91800022125244,-4.67505025863647,-20.6500511169434,-11.1990003585815,-40.384952545166,-15.1390504837036,-16.8850517272949,-8.59095001220703,-4.02600002288818,-2.31405019760132,9.61395072937012,9.50100040435791,9.40500068664551,11.7070503234863,12.6840009689331,19.2220516204834,15.5920505523682,9.65895080566406,22.0579509735107,-22.9380016326904,20.5470008850098,0.30195000767708,6.40395021438599,11.3620510101318,11.1700506210327,SWING_LEFT
-0.08524999767542,-0.3269749879837,-0.2403499931097,-0.1515250056982,0.03575000166893,0.53693747520447,2.41243743896484,4.57352495193481,-7.50089979171753,7.37921237945557,18.2375869750977,1.99718749523163,6.98761224746704,10.37024974823,9.67656230926514,-0.0954250022769,-0.2579500079155,-0.43078750371933,-0.64569997787476,-0.95878750085831,-2.24991250038147,-2.82864999771118,1.41817498207092,14.6550245285034,24.5100631713867,11.5651245117188,-2.40212488174438,-8.90821266174316,-11.2585000991821,-2.06992506980896,0.84700000286102,0.53377497196198,0.26427498459816,0.12581250071526,0.09556250274181,0.41525000333786,4.38363742828369,11.8905878067017,24.1746997833252,14.6434745788574,-4.74718761444092,-13.0664873123169,-17.2528133392334,-8.62125015258789,-0.07438749819994,3.09300017356873,3.26295018196106,4.39305019378662,5.47605037689209,9.17400074005127,11.7559509277344,3.08595013618469,-37.6020011901855,-55.0639533996582,-14.8810510635376,30.388952255249,25.8030014038086,14.5960502624512,5.16495037078857,0.70800000429153,0.28905001282692,0.45600003004074,0.54000002145767,0.42705002427101,1.42905008792877,0.33600002527237,-4.98405027389526,-4.48095035552979,-20.2309513092041,-36.9910507202148,-23.3850002288818,-14.4760503768921,-6.18900012969971,-2.67795014381409,-1.6030501127243,10.6459503173828,10.5570001602173,12.4609508514404,13.6759510040283,13.4310007095337,13.2660007476807,7.16100025177002,14.4040508270264,-18.0739517211914,13.0150508880615,12.44700050354,7.47495031356812,12.1909503936768,8.778000831604,13.8310508728027,SWING_LEFT
-0.28215000033379,0.10793749988079,0.50393748283386,0.60004997253418,0.39861249923706,0.16994999349117,1.35451245307922,4.21203756332397,0.85855001211166,12.4855499267578,24.9669742584229,11.8036870956421,10.8325252532959,14.1132745742798,7.54654979705811,0.57749998569489,1.48266243934631,1.92981243133545,1.26568746566772,0.39710000157356,-0.95782500505447,-2.92421245574951,-1.99842500686646,13.8923120498657,26.7656116485596,17.890811920166,5.47978734970093,-8.7401876449585,-11.8087749481201,0.36506250500679,-0.23485000431538,0.07136250287294,0.00371249997988,-0.5047624707222,-1.0032000541687,-0.20212499797344,7.35611248016357,17.6093502044678,26.3546257019043,8.96348762512207,-10.8449001312256,-16.6985492706299,-19.7395000457764,-8.57312488555908,-1.53518748283386,0.25500002503395,-0.62505000829697,-0.72105002403259,-0.29700002074242,0.11805000901222,7.49295043945313,11.028000831604,-27.6490516662598,-61.0020027160645,-5.00805044174194,33.8880004882813,31.3279514312744,17.2810516357422,6.22800016403198,-1.34205007553101,0.36300000548363,0.49500003457069,0.62595003843307,1.03305006027222,0.77700001001358,2.08004999160767,1.60605013370514,-6.7020001411438,-21.5509510040283,-32.661003112793,-19.1170501708984,-11.5369501113892,-3.60195016860962,-2.01705002784729,-0.44595003128052,9.62595081329346,10.4899501800537,10.372950553894,11.5939502716064,15.831000328064,22.5780010223389,11.4670505523682,12.5380506515503,-17.2789516448975,12.0280504226685,4.4089503288269,7.6230001449585,13.1100006103516,7.12800025939941,8.06205081939697,SWING_LEFT
1.2311749458313,0.8427374958992,0.3605250120163,0.04509999975562,0.05706249922514,-0.62411248683929,-2.64879989624023,-4.56733751296997,3.47874999046326,8.4970874786377,1.66306245326996,-15.4885501861572,-10.6503372192383,16.1493740081787,17.564525604248,-0.9120374917984,-1.67406249046326,-1.86202502250671,-1.89832496643066,-2.64343738555908,-4.85306262969971,-6.8540997505188,-0.21106250584126,15.375937461853,21.5228748321533,8.84290027618408,-20.103874206543,-22.8773880004883,-15.6215124130249,-10.9232749938965,-6.70450019836426,-6.13373756408691,-5.44609975814819,-5.0391001701355,-5.15583753585815,-4.84701251983643,-4.03095006942749,-4.54066228866577,-28.1095371246338,-31.1399002075195,-8.75008773803711,-6.80666255950928,-11.9932994842529,-11.5637502670288,-4.83078765869141,-0.56100004911423,-0.48405003547668,-0.09600000083447,0.14699999988079,5.33895015716553,11.9980506896973,5.85405015945435,-41.6449508666992,-58.0459518432617,-27.2650508880615,31.6849517822266,32.3980522155762,28.3920021057129,12.8959503173828,4.0489501953125,2.83395004272461,2.5489501953125,2.37900018692017,2.91105008125305,2.86995005607605,2.13300013542175,-1.8469500541687,-7.83000040054321,-37.2330017089844,-59.3539543151855,-42.3660011291504,-14.9020509719849,-5.47305011749268,-4.05495023727417,-2.19900012016296,9.84105014801025,10.5430507659912,9.16800022125244,10.3110008239746,12.6720008850098,14.8180503845215,18.6019515991211,29.1550521850586,-18.9220504760742,14.8680009841919,4.94295024871826,-1.92495012283325,13.9489507675171,6.23895025253296,8.6650505065918,SWING_LEFT
0.02392499893904,0.12003749608994,0.12251249700785,-0.87711250782013,-3.78949999809265,-7.85344982147217,-7.91559982299805,-4.59442520141602,1.66498744487762,4.70139980316162,8.42091274261475,7.73932504653931,6.99256229400635,11.5230503082275,11.0336875915527,0.12099999934435,-0.73988747596741,-1.32618749141693,-1.44746243953705,-2.69898748397827,-5.34682512283325,-5.8998498916626,-1.36358749866486,19.2966117858887,25.1098365783691,9.15268707275391,4.10190010070801,-4.43107509613037,-11.5845127105713,-2.87856245040894,-0.53638750314713,-0.46860000491142,-0.88261246681213,-3.14709997177124,-10.0849370956421,-17.4151992797852,-12.5244626998901,-2.62569999694824,-19.1224002838135,-24.5839004516602,-9.94386291503906,-15.6347122192383,-19.2248382568359,-10.2481498718262,-1.67309999465942,3.7110002040863,4.48905038833618,3.99300026893616,4.51800012588501,8.06700038909912,11.6260509490967,6.18495035171509,-26.3530521392822,-67.5180053710938,-13.8340511322021,36.3690032958984,31.267951965332,17.2860012054443,5.39205026626587,2.27895021438599,1.84800004959106,2.47305011749268,2.39895009994507,2.87505006790161,2.4580500125885,0.925950050354,-2.9389500617981,0.13305000960827,-22.6620006561279,-39.726001739502,-21.9000015258789,-11.7810001373291,-4.13205003738403,-1.38900005817413,-0.12495000660419,10.5880508422852,10.2360000610352,10.5979509353638,12.4729509353638,11.917950630188,12.7579507827759,7.10100030899048,17.0719509124756,-13.0279502868652,26.3880004882813,6.64605045318604,1.29105007648468,11.5390501022339,8.27505016326904,9.56100082397461,SWING_LEFT
-0.16871249675751,-0.72476249933243,-1.12928748130798,-0.54738748073578,-0.41194999217987,-1.46272504329681,-0.33550000190735,8.86957454681396,9.18073749542236,1.88223743438721,5.38037490844727,19.8813991546631,19.152925491333,7.92426252365112,8.02353763580322,-0.44371250271797,0.40438750386238,1.86986243724823,1.15541243553162,-4.70153760910034,-7.51918745040894,-4.92786264419556,-3.68431258201599,15.1075372695923,21.3963756561279,6.14349985122681,17.5382633209229,-0.09515000134706,-23.8629875183105,-9.00322532653809,0.3631374835968,0.25011250376701,-0.35640001296997,-0.47973749041557,0.8234875202179,1.5662624835968,3.89537501335144,14.202787399292,25.8421630859375,14.699987411499,-3.86045002937317,-11.8217000961304,-10.9201126098633,-5.7101001739502,-3.74123740196228,1.00905001163483,-1.32195007801056,-0.84600001573563,10.8150005340576,23.3500518798828,21.973051071167,0.3649500310421,-28.8870010375977,-78.0850524902344,-38.5309524536133,23.3790016174316,34.4560508728027,29.5819511413574,14.5219507217407,0.82500004768372,2.32905006408691,0.87300002574921,1.26600003242493,3.45705008506775,-0.45495003461838,-9.66900062561035,-2.38995003700256,-12.5290508270264,-23.8039512634277,-67.9399566650391,-54.1060523986816,-26.941951751709,-13.3170003890991,-7.75305032730103,-4.6710000038147,11.202000617981,7.92495059967041,8.425950050354,19.396951675415,26.7739505767822,15.2370004653931,2.84100008010864,13.371000289917,-26.2459506988525,21.8089504241943,18.3340511322021,15.8380508422852,8.69895076751709,11.7280502319336,10.4089508056641,SWING_LEFT
-0.07548750191927,-0.10463749617338,-0.23264999687672,-0.19758750498295,-0.3089624941349,-2.82480001449585,-6.2881498336792,-3.98736238479614,-0.16335000097752,3.80998754501343,9.5804500579834,9.7260627746582,5.11073732376099,5.55417490005493,8.57573699951172,-0.56072497367859,-0.65092498064041,-0.83407497406006,-1.21783745288849,-2.59036254882813,-7.47174978256226,-12.1211748123169,-8.8858003616333,8.42586231231689,22.1219615936279,13.5577745437622,6.84557485580444,-2.42357492446899,-14.0971870422363,-7.57982492446899,-2.07528758049011,-1.96198749542236,-1.86188745498657,-3.17377495765686,-7.34112501144409,-20.703649520874,-24.964225769043,-9.29087448120117,-5.32798767089844,-17.4851875305176,-17.3414993286133,-15.1214246749878,-19.4972248077393,-13.9324626922607,-6.49660015106201,0.01500000059605,0.7219500541687,0.78195005655289,1.3090500831604,3.46395015716553,12.1129503250122,20.6479511260986,-11.7190504074097,-76.8019561767578,-29.6989517211914,21.5710506439209,34.9969520568848,25.7310009002686,14.3710508346558,4.29795026779175,2.30505013465881,2.68095016479492,2.65005016326904,2.82705020904541,3.91695022583008,5.30805015563965,-1.78500008583069,7.53300046920776,-8.11695003509521,-48.7890014648438,-36.0960006713867,-22.7389507293701,-9.04095077514648,-2.96805024147034,-1.15694999694824,10.7749509811401,11.4649505615234,10.0180501937866,10.8349504470825,13.7089509963989,19.2010517120361,5.58495044708252,14.8609504699707,10.1260509490967,8.75895023345947,13.8889503479004,-2.83500003814697,1.97595012187958,10.6099500656128,10.9090509414673,SWING_LEFT
-0.13062499463558,-0.03355000168085,-0.00673749996349,-0.10037499666214,-0.1409374922514,0.80245000123978,-2.69197487831116,-16.8663005828857,-29.0386257171631,-31.0886116027832,-28.1712741851807,-13.7447748184204,-3.06473755836487,-0.37303748726845,3.22409987449646,0.19291250407696,0.04344999790192,-0.14396250247955,-0.42294999957085,-1.2167375087738,-4.17065000534058,-7.75554990768433,-4.89114999771118,5.53574991226196,1.00512504577637,-16.4834995269775,-12.7017002105713,10.2012624740601,10.7251377105713,0.32188749313354,-1.47014999389648,-1.39425003528595,-1.53697502613068,-1.88897502422333,-2.23808741569519,-1.6134250164032,-3.4925000667572,-8.83822536468506,16.0507869720459,20.6868743896484,-1.98274993896484,-11.8592376708984,-23.5107116699219,-15.2339000701904,-2.2595374584198,1.55100011825562,1.08105003833771,1.26105010509491,1.89795005321503,8.80695056915283,20.3899517059326,14.0550003051758,-50.0989532470703,-58.3909530639648,4.52295017242432,23.062952041626,28.8490505218506,17.0539512634277,6.91500043869019,1.76895010471344,1.73505008220673,1.62300002574921,1.74900007247925,1.89600014686584,4.60905027389526,6.98505020141602,-15.1270503997803,-17.0359516143799,-28.3330516815186,-39.5590515136719,-19.9510517120361,-12.1549501419067,-6.21795034408569,-5.13795042037964,-3.03705024719238,10.0519504547119,9.88905048370361,9.66195011138916,10.8259506225586,15.6970510482788,17.848051071167,4.87395000457764,7.66605043411255,-11.1859502792358,11.5339508056641,18.3480014801025,7.82895040512085,12.2149505615234,6.78795051574707,10.701000213623,SWING_LEFT
-0.31322500109673,-0.54202497005463,-0.55715000629425,-0.89141249656677,-2.92022490501404,-4.5342001914978,-4.91136264801025,-4.34334993362427,1.35354995727539,-5.32413768768311,-21.3262500762939,-15.5494623184204,-6.33476257324219,-4.20433759689331,2.73281240463257,-0.28077501058578,-0.3797749876976,-0.97748750448227,-1.42106246948242,-1.58413743972778,-3.62174987792969,-7.10352516174316,-1.36125004291534,14.804762840271,10.3604869842529,-14.3275003433228,-14.5019874572754,6.52588748931885,7.01731252670288,2.80101251602173,-0.67691248655319,-1.0729124546051,-1.6241500377655,-3.14778757095337,-8.70292472839355,-17.2035865783691,-16.3429756164551,-11.6869497299194,-25.2986240386963,-23.002649307251,-3.78083753585815,-9.59186267852783,-20.0371875762939,-13.9936494827271,-3.40312504768372,2.92305016517639,3.62700009346008,4.42905044555664,3.29400014877319,3.2989501953125,13.6240510940552,2.98800015449524,-59.7730522155762,-47.0910034179688,-0.97305005788803,39.9619522094727,31.476001739502,19.875,5.79495048522949,-3.58305025100708,1.33005011081696,1.6470000743866,1.95300006866455,1.12395000457764,4.57605028152466,6.73095035552979,4.24305009841919,-4.92705011367798,-57.6870040893555,-38.4360008239746,-29.9839515686035,-12.6340503692627,-6.29700040817261,-3.70995020866394,-1.70595002174377,10.1689500808716,9.63300037384033,11.0410509109497,9.77895069122314,13.3860006332397,13.3330507278442,10.0020008087158,21.6750011444092,-20.6539516448975,41.5870513916016,-2.51895022392273,4.94805002212524,10.2049503326416,9.04395008087158,10.267050743103,SWING_LEFT
-0.31432500481606,-0.28751251101494,-0.15867500007153,0.083599999547,0.42473748326302,0.94916248321533,2.77640008926392,13.336537361145,12.08899974823,2.04668760299683,-5.67572498321533,-13.6985750198364,-5.51938724517822,0.98463749885559,2.78740000724792,-0.36272498965263,-0.21298749744892,-0.18521249294281,-0.38527500629425,-0.942287504673,-2.14293742179871,-2.65086245536804,2.20219993591309,18.6250629425049,23.9008007049561,2.06593751907349,-6.50113725662231,9.77528762817383,7.2557373046875,0.44082498550415,0.02474999986589,-0.01526249945164,-0.09432499855757,-0.1095874980092,0.10573749989271,0.86707496643066,5.81363725662231,25.8915252685547,20.4263114929199,-6.30217504501343,-7.90143728256226,-8.58577537536621,-17.515438079834,-15.3547620773315,-5.32028770446777,1.82805013656616,1.30605006217957,1.82595014572144,3.18195009231567,5.51205015182495,9.35595035552979,8.41499996185303,-19.9770011901855,-67.399055480957,-21.5920505523682,17.4060001373291,34.2949523925781,21.2520008087158,7.50195026397705,0.30000001192093,1.27500009536743,1.28505003452301,1.53900003433228,2.11395001411438,2.19495010375977,3.25095009803772,-1.54500007629395,0.93795001506805,-12.4060506820679,-56.9659538269043,-32.0890502929688,-19.0770015716553,-10.0330505371094,-5.62605047225952,-4.9699501991272,10.5619506835938,11.0719509124756,10.7560501098633,12.1069507598877,11.2879505157471,14.356050491333,10.1569509506226,11.7379503250122,-4.42694997787476,9.26595020294189,7.08495044708252,6.43095016479492,4.75395011901855,13.7910003662109,12.2239503860474,SWING_LEFT
-0.10601250082254,-0.17022499442101,-0.19855000078678,-0.41236248612404,-0.15867500007153,0.35543748736382,-3.06913757324219,-9.53892517089844,-14.5694999694824,-9.88061237335205,9.86837482452393,18.7857990264893,10.0010623931885,4.83532476425171,4.49569988250732,0.36794999241829,0.47561249136925,0.36355000734329,0.79928749799728,0.4115374982357,-3.81741237640381,-7.22919988632202,-1.0922999382019,19.6255130767822,20.870849609375,10.6585874557495,17.0457382202148,14.0012121200562,3.27648758888245,0.29521250724792,-0.45196250081062,-0.55701249837875,-0.67732501029968,-1.03606247901917,-1.59994995594025,-1.12186253070831,-2.68867492675781,-7.00699996948242,1.76756250858307,6.46992492675781,-2.34080004692078,-11.8540124893188,-19.9617004394531,-13.9271001815796,-3.27579998970032,1.52205002307892,1.66095006465912,0.14699999988079,0.1950000077486,10.5990009307861,22.3920001983643,9.64305019378662,-51.6300010681152,-58.3309516906738,-19.3930511474609,25.302001953125,31.5120010375977,19.3380012512207,6.93705034255981,3.62205028533936,0.70500004291534,0.63795000314713,0.57405000925064,0.08700000494719,4.24500036239624,-0.67800003290176,-9.69495010375977,-6.03300046920776,-32.1150016784668,-43.2019538879395,-30.5370006561279,-16.0399513244629,-10.150050163269,-6.83100032806396,-2.9610002040863,9.48900032043457,9.70005035400391,11.296950340271,9.73800086975098,19.0930500030518,19.0480518341064,13.0740003585815,8.8210506439209,-24.0400505065918,13.7190008163452,5.99205017089844,18.8509502410889,12.2100009918213,10.2910509109497,12.6700506210327,SWING_LEFT
0.18713749945164,0.30786249041557,0.26702499389648,0.2428250014782,0.07521250098944,-0.88384997844696,-1.43137502670288,0.1868624985218,7.62671232223511,12.8027620315552,7.14642477035522,3.10516238212585,1.54384994506836,0.10298749804497,2.59957504272461,0.44893750548363,0.35997501015663,0.12072499841452,-0.3768875002861,-1.95153748989105,-4.83559989929199,-5.20423746109009,-1.36386251449585,16.8071746826172,17.2215995788574,0.44838750362396,-0.99096250534058,0.24296249449253,0.79117500782013,1.28782498836517,-0.50421249866486,-0.56760001182556,-0.56732499599457,-0.5324000120163,-0.08923749625683,1.10962498188019,1.71311247348785,2.14170002937317,-8.35147476196289,-12.8807249069214,-7.24982500076294,-15.1086378097534,-20.3743381500244,-12.5767126083374,-4.10080003738403,3.28500008583069,3.30600023269653,4.09905004501343,9.15705013275146,21.6450004577637,18.6870002746582,0.33600002527237,-54.880054473877,-64.5940551757813,-8.25104999542236,25.0360507965088,30.961051940918,20.8620014190674,11.8470001220703,2.81805014610291,1.3090500831604,1.57500004768372,1.76895010471344,3.11505007743835,-0.4120500087738,-7.26900053024292,3.40200018882751,1.82595014572144,-31.2649517059326,-36.211051940918,-31.1980514526367,-20.7480010986328,-12.5209503173828,-5.84700012207031,-2.51700019836426,9.64695072174072,10.6819505691528,11.8429508209229,18.4870510101318,17.9580001831055,3.95895028114319,7.84605026245117,-4.02300024032593,-0.00405000010505,17.0790004730225,7.99200057983398,6.53805017471313,10.6200008392334,11.3209505081177,12.1759510040283,SWING_LEFT
0.04702499881387,0.18246249854565,0.13763749599457,0.02639999985695,0.16224999725819,0.91561251878738,1.78034996986389,5.44156265258789,0.73094999790192,-6.09427499771118,-5.49312496185303,-3.73944997787476,0.73163747787476,2.04641246795654,3.50748753547668,0.6151750087738,0.27994999289513,-0.13406249880791,-0.40645000338554,-1.14042496681213,-3.9444625377655,-6.41849994659424,-1.19404995441437,19.1866130828857,20.703649520874,1.04114997386932,-3.39253759384155,-1.44801247119904,-1.80949997901917,1.76742494106293,-0.85497498512268,-0.83558750152588,-0.53363752365112,-0.19923749566078,0.25258749723434,1.6883624792099,4.87671232223511,11.0342378616333,20.7893123626709,11.2320995330811,-4.42681264877319,-12.2761373519897,-18.3653240203857,-11.9717121124268,-3.53856253623962,2.1780002117157,1.60095012187958,1.65405011177063,3.33705019950867,9.26505088806152,24.7219505310059,15.328950881958,-64.2349548339844,-57.7249526977539,-8.9239501953125,37.9380035400391,30.5929508209229,18.7440013885498,6.04605007171631,2.65005016326904,2.63595008850098,2.39895009994507,2.52105021476746,2.66400003433228,5.07405042648315,3.20100021362305,-8.9239501953125,-8.56005001068115,-42.9169502258301,-49.3860015869141,-29.6790008544922,-14.7370510101318,-8.6220006942749,-4.78800010681152,-2.08200001716614,10.0729503631592,9.97800064086914,9.97305011749268,10.3300504684448,14.8639507293701,14.3820009231567,11.1300001144409,30.1200008392334,-22.5430507659912,38.0470504760742,-9.85905075073242,11.9010009765625,5.72400045394897,10.5139503479004,10.4710502624512,SWING_LEFT
-0.16472500562668,-0.22769999504089,-0.2428250014782,0.01663750037551,0.13103750348091,-0.23526249825954,-0.95864999294281,0.46805000305176,-1.69922494888306,-4.34926271438599,-3.33272504806519,-2.45121240615845,1.28919994831085,2.89341259002686,3.04961252212524,-0.04798749834299,0.47533750534058,0.58148747682571,-0.26730000972748,-1.92926251888275,-3.51628756523132,-4.59689998626709,-1.14262497425079,16.7025375366211,20.3325366973877,3.07683753967285,-2.97274994850159,-2.18377494812012,-2.0934374332428,-0.34375,-0.23457500338554,-0.41717499494553,-0.48716250061989,-0.434087485075,0.17916250228882,1.22993743419647,3.2687873840332,4.83463764190674,21.0259494781494,17.2558364868164,-4.13998746871948,-11.1297998428345,-18.5002117156982,-14.7379369735718,-5.67641258239746,3.96195030212402,3.53805017471313,4.77405023574829,7.95195055007935,12.6540002822876,21.2089519500732,6.53205013275146,-29.2890014648438,-74.3800506591797,-23.8069515228271,27.8620510101318,36.3049507141113,26.2140007019043,12.4960508346558,3.85500025749207,2.13495016098022,2.06595015525818,2.800950050354,2.83695006370544,2.89200019836426,-3.79395008087158,-3.03705024719238,-2.51700019836426,-27.6510009765625,-47.1889533996582,-35.4319534301758,-21.0520515441895,-9.97605037689209,-4.54800033569336,-1.69095003604889,9.73095035552979,10.2220506668091,11.131950378418,10.417950630188,14.9020509719849,11.5339508056641,6.21000051498413,14.988000869751,-9.35595035552979,17.9580001831055,9.28095054626465,8.73705005645752,12.1909503936768,11.2930507659912,5.67900037765503,SWING_LEFT
0.55563747882843,0.05321250110865,-0.41359999775887,-0.21958750486374,1.15403747558594,5.37061262130737,11.2334747314453,3.2155749797821,-5.62787485122681,-4.72889995574951,-5.20547485351563,-0.56347501277924,-0.63868749141693,-3.01839995384216,0.39379999041557,-0.02406249940395,-0.53707498311996,-0.92922496795654,-1.3194500207901,-3.61652493476868,-3.69201254844666,3.03572487831116,21.1883373260498,22.9809246063232,3.42072486877441,-8.72519969940186,-11.4633750915527,-2.49411249160767,4.39381265640259,6.34136247634888,-1.79987502098084,0.38225001096725,2.55227494239807,3.01771259307861,4.12637519836426,10.2756500244141,18.9367752075195,14.3877248764038,0.90406250953674,-6.4560375213623,-10.3388996124268,-13.417387008667,-15.1298122406006,-9.77886199951172,-1.01956248283386,0.60900002717972,2.76495003700256,1.88595008850098,10.6590003967285,19.3219509124756,-1.50195002555847,-27.4140014648438,-73.2330017089844,-34.8580513000488,29.3470516204834,41.6460037231445,30.7579517364502,13.5520505905151,0.4609500169754,-4.28295040130615,2.19495010375977,1.28505003452301,2.86995005607605,5.8690505027771,-1.15905010700226,0.46305000782013,-4.65105009078979,-22.4269504547119,-78.6550521850586,-54.8340034484863,-22.9110012054443,-11.6299505233765,-8.05005073547363,-4.62705039978027,-1.0639500617981,10.7059507369995,10.5670509338379,16.4370002746582,19.0840511322021,8.38304996490479,15.4290008544922,13.9819507598877,-26.5050010681152,11.5369501113892,22.0530014038086,1.58100008964539,14.7100505828857,9.68505001068115,8.49495029449463,9.28095054626465,SWING_LEFT
-0.10463749617338,-0.07411249727011,-0.07864999771118,-0.00481249997392,0.64226251840591,1.05971252918243,1.59156250953674,4.22674989700317,1.32632493972778,-0.11110000312328,1.34255003929138,-0.98353749513626,1.31436252593994,2.18913745880127,1.7632999420166,0.46612501144409,0.48042500019073,0.00646249996498,-0.70028752088547,-2.10801243782043,-4.08540010452271,-4.95233726501465,-3.46417498588562,12.8562498092651,14.3613252639771,-1.39919996261597,-6.02483749389648,-4.61807489395142,-1.4777125120163,1.23942494392395,-1.49228751659393,-1.79093754291534,-1.63693749904633,-1.22526252269745,0.10339999943972,3.75265002250671,8.74843788146973,12.344612121582,26.5403881072998,17.1870880126953,-6.47638750076294,-11.6045875549316,-15.612850189209,-11.5871248245239,-4.49583768844604,1.90500009059906,2.4300000667572,3.12900018692017,5.69895029067993,17.9329509735107,19.2210006713867,-1.61505007743835,-49.5700531005859,-61.6410026550293,-32.1010513305664,22.4830513000488,45.3820533752441,30.0610523223877,1.6750500202179,-10.81605052948,3.28200006484985,3.51195025444031,3.73695015907288,5.89500045776367,7.14795017242432,-7.82205057144165,-5.12100028991699,4.12305021286011,-44.4090003967285,-59.2000541687012,-49.3690528869629,-29.6460018157959,-10.1380500793457,-9.60195064544678,-4.18695020675659,9.53205013275146,10.1190004348755,10.4929504394531,12.997950553894,17.5000514984131,5.8560004234314,1.46100008487701,-7.28205013275146,0.76905006170273,-2.88705015182495,18.0700511932373,10.1089506149292,9.31395053863525,11.7000007629395,11.368950843811,SWING_LEFT
0.82499998807907,0.12319999933243,-0.66192501783371,-0.33027499914169,-0.05513750016689,1.78901243209839,10.2789497375488,9.3890495300293,2.3619749546051,-0.95273751020432,-4.97447490692139,-1.1785124540329,1.64614999294281,0.47231251001358,1.00883746147156,-0.6122875213623,-1.22347497940063,-0.90598750114441,-1.22993743419647,-3.72501254081726,-6.26807498931885,-5.41571235656738,16.6384620666504,22.3962745666504,2.48545002937317,-7.25119972229004,-7.42733764648438,1.47867500782013,2.57358741760254,3.43090009689331,-1.80840003490448,-0.88192498683929,-0.38348749279976,-0.10161250084639,2.31605005264282,10.2195501327515,19.7309741973877,24.2739753723145,12.4020872116089,-5.56448745727539,-11.6151752471924,-13.882550239563,-16.2689990997314,-11.5516500473022,-1.31752502918243,1.93605005741119,1.33995008468628,3.51705026626587,12.0000009536743,20.9380512237549,0.76695001125336,-32.8579521179199,-54.2740516662598,-44.6959533691406,3.04500007629395,37.677001953125,33.1600532531738,14.0449504852295,-1.51905012130737,-3.98100018501282,1.96695005893707,2.02305006980896,2.932950258255,5.25300025939941,-10.3830003738403,-8.38800048828125,13.4320507049561,-16.8439502716064,-53.9740524291992,-58.1299514770508,-25.6290016174316,-10.6819505691528,-9.24300003051758,-7.07805013656616,-2.73495006561279,10.4020500183105,11.2849502563477,13.7620506286621,24.5080509185791,9.30495071411133,3.08205008506775,2.87400007247925,-9.69405078887939,0.35505002737045,19.5750007629395,12.4540510177612,17.6299514770508,7.36500024795532,8.56905078887939,11.9730005264282,SWING_LEFT
0.05898749828339,0.01622499898076,-0.09047500044107,0.06008749827743,0.07864999771118,-0.66921252012253,1.71668744087219,15.5207252502441,14.9767751693726,1.29635000228882,-5.45503759384155,-5.37927484512329,-0.42734998464584,0.05417500063777,1.37720000743866,-0.37922498583794,-0.2374625056982,0.01663750037551,-0.90337496995926,-3.14503741264343,-4.42186260223389,-3.51807498931885,1.54632496833801,23.7678375244141,22.543399810791,-2.05369997024536,-7.14202499389648,3.00162506103516,7.1003623008728,1.39411246776581,-0.18947499990463,-0.35447499155998,-0.44398748874664,-0.02681249938905,1.07483744621277,3.35170006752014,6.36006259918213,22.1203117370605,23.5877132415771,1.64450001716614,-8.2022876739502,-12.2604627609253,-17.6367130279541,-14.9333248138428,-5.39165019989014,2.24505019187927,2.16795015335083,3.3400502204895,10.885950088501,17.3959503173828,12.1440010070801,-3.03495025634766,-38.590950012207,-65.5399551391602,-23.29905128479,28.2019519805908,36.3430519104004,23.6089515686035,7.4040002822876,-2.89095020294189,1.65405011177063,1.6560001373291,1.92000007629395,2.92095017433167,-1.73205006122589,-8.57400035858154,10.863000869751,-8.09805011749268,-35.4919509887695,-66.4240493774414,-39.7459526062012,-25.5289516448975,-12.2080507278442,-8.42805004119873,-4.63200044631958,10.2049503326416,10.1790008544922,11.7600002288818,14.8110008239746,19.8570003509521,6.67500019073486,10.5840005874634,5.08200025558472,-3.71595025062561,1.10400009155273,19.5870018005371,10.300950050354,9.1560001373291,8.82299995422363,10.3060503005981,SWING_LEFT
-0.25808748602867,-0.47066250443459,-0.65119999647141,-0.23182499408722,0.73053747415543,0.59028750658035,-0.70179998874664,0.34209999442101,0.56292498111725,0.37111249566078,0.30937498807907,-1.91345000267029,0.39448750019073,-0.15248750150204,-0.71761250495911,-1.06369996070862,-0.17379999160767,0.7039999961853,0.55769997835159,-0.63387501239777,-3.89606237411499,-4.99303770065308,-0.35282498598099,13.5016746520996,18.9886131286621,5.76482486724854,-3.91187500953674,-1.94204998016357,1.23186254501343,2.77997493743896,-0.11412499845028,-0.13103750348091,-0.38238748908043,-1.01021254062653,-1.80620002746582,-0.61325001716614,2.12024998664856,2.86013746261597,19.2662258148193,15.2363748550415,-5.91566228866577,-10.3191003799438,-17.6129245758057,-16.9310626983643,-7.93361234664917,2.54505014419556,2.47500014305115,2.80800008773804,3.64905023574829,12.6060009002686,22.8640518188477,2.09205007553101,-28.4940013885498,-61.6480522155762,-31.0039520263672,23.5270519256592,36.1900520324707,25.5199508666992,9.55995082855225,-1.05900001525879,0.45900002121925,0.11100000888109,1.04505002498627,2.16600012779236,3.84795022010803,-7.87305021286011,3.03600025177002,-6.09795045852661,-34.9680023193359,-47.8429527282715,-32.7330017089844,-17.1799507141113,-8.45895004272461,-5.19000005722046,-3.03705024719238,10.653000831604,10.1790008544922,10.1980504989624,12.8640003204346,19.3230018615723,16.2960014343262,9.43200016021729,13.7809505462646,-13.3579502105713,16.4779510498047,8.75895023345947,7.80300045013428,8.6650505065918,13.1730003356934,12.1330509185791,SWING_LEFT
0.04344999790192,-0.23759999871254,-2.57977509498596,-3.7175874710083,-1.14785003662109,0.81454998254776,1.48252499103546,0.71142500638962,-3.67317509651184,-23.425874710083,-23.674337387085,-6.97523736953735,-2.66942501068115,-5.00018739700317,-4.91108751296997,-0.76312500238419,-1.02121245861053,-4.07398748397827,-5.8049750328064,-2.65842509269714,-2.23519992828369,-5.62636232376099,-6.08588743209839,2.17813754081726,13.4446125030518,8.30788707733154,-2.71548748016357,4.92992496490479,19.6679992675781,13.2004127502441,-0.02859999984503,-1.6438125371933,-17.723611831665,-29.9706001281738,-17.6716365814209,-7.00218725204468,-5.58126258850098,-4.56279993057251,-9.72675037384033,1.92307496070862,6.58542490005493,-7.45854997634888,-14.1582374572754,-19.369213104248,-12.4283494949341,2.03895020484924,1.21305000782013,-0.34500002861023,-0.60405004024506,1.78005003929138,5.94300031661987,12.9169502258301,-7.29105043411255,-72.3799514770508,-48.3679504394531,1.52400004863739,36.4819526672363,42.8220024108887,17.941951751709,-5.84895038604736,2.47005009651184,2.62395024299622,2.47800016403198,2.85600018501282,4.51095008850098,7.38705015182495,11.4040508270264,7.27500057220459,-20.193000793457,-55.9860038757324,-61.3699531555176,-45.3600006103516,-20.7199516296387,-11.8290004730225,-7.86105060577393,10.818000793457,10.207950592041,9.82695007324219,9.93000030517578,12.2220001220703,14.0779504776001,15.5010004043579,17.2969512939453,7.70700025558472,8.46195030212402,23.3280010223389,1.31505000591278,5.76495027542114,13.242000579834,10.9170007705688,SWING_LEFT
-0.54491251707077,-0.4989874958992,-0.47478750348091,-0.44110000133514,0.17201249301434,3.12358736991882,9.2247371673584,12.3782997131348,-3.77231240272522,-13.1323499679565,-3.51628756523132,0.48908749222755,1.73140001296997,2.10017490386963,3.35926246643066,0.08208750188351,0.03135000169277,0.17586250603199,0.0614624992013,-1.38916254043579,-5.01806259155273,-4.31942510604858,0.29136249423027,19.796012878418,20.1403121948242,0.54752498865128,-0.2923249900341,1.95868754386902,1.08253753185272,0.94696247577667,-0.4794625043869,-0.92798751592636,-1.8463499546051,-3.24554991722107,-3.1024124622345,2.76457500457764,9.50303745269775,11.5520620346069,20.0250873565674,13.0011749267578,-3.5341625213623,-9.58058738708496,-15.5975875854492,-13.3038120269775,-6.11393737792969,3.15000009536743,2.35500001907349,1.95300006866455,3.31605005264282,17.8630504608154,28.2220516204834,12.0930004119873,-46.6819534301758,-65.2240524291992,-21.9360008239746,32.9539527893066,34.1059532165527,28.0489521026611,14.377950668335,5.10495042800903,1.94805014133453,2.12805008888245,2.10195016860962,2.84400010108948,9.34200000762939,5.67300033569336,-1.20705008506775,-28.4029521942139,-53.8669509887695,-61.279052734375,-43.2520523071289,-20.8009510040283,-11.4840002059937,-5.81295013427734,-3.68400025367737,10.3699502944946,10.0570507049561,9.37905025482178,10.252950668335,19.359001159668,13.8150005340576,-0.03495000302792,26.1820507049561,-17.9899501800537,26.6089515686035,2.18400001525879,9.74505043029785,14.0680503845215,12.6240005493164,9.76905059814453,SWING_LEFT
-0.98944997787476,0.08332499861717,2.21374988555908,3.30110001564026,1.7051374912262,-0.18975000083447,-5.15019989013672,-9.39716243743896,-0.90392500162125,-2.7887749671936,-18.6756629943848,-13.2045373916626,2.41669988632202,4.15538740158081,4.42777490615845,1.07923746109009,2.07336258888245,2.1646625995636,-0.19648750126362,-4.38996267318726,-7.27155017852783,-9.13549995422363,-5.98991250991821,10.3010873794556,15.1897621154785,-6.37064981460571,-10.1473627090454,2.55543756484985,0.73094999790192,0.90997499227524,-2.06401252746582,-3.84601259231567,-5.78517484664917,-5.35823726654053,-2.76168751716614,-1.798912525177,-12.5244626998901,-22.9509506225586,-36.2141990661621,-28.9179000854492,-6.87032508850098,-10.616512298584,-17.7934627532959,-13.782862663269,-3.27566242218018,-4.40505027770996,-4.33305025100708,-1.32195007801056,0.30000001192093,6.05100011825562,10.9800004959106,4.00500011444092,-35.6430015563965,-72.8020553588867,-22.617000579834,32.2810516357422,35.0190010070801,21.8719501495361,3.45000004768372,-3.84195017814636,1.97700011730194,2.77905011177063,2.39100003242493,2.69805002212524,3.65100026130676,4.53000020980835,3.78795027732849,-3.80595016479492,-35.4990005493164,-65.7439498901367,-31.5280513763428,-17.3910007476807,-9.20400047302246,-6.01905012130737,-1.67895007133484,10.5379505157471,8.51895046234131,8.40900039672852,12.7420501708984,15.82200050354,14.064001083374,12.8640003204346,17.5459499359131,-18.7710018157959,19.7779502868652,1.38900005817413,13.8550510406494,14.7940511703491,10.1170501708984,9.93000030517578,SWING_LEFT
-0.08566249907017,-0.22013749182224,-0.2065249979496,0.24021250009537,1.28438746929169,1.65467500686646,-0.25877499580383,-3.57637500762939,-6.47267484664917,-1.52432501316071,3.35816240310669,2.10980010032654,0.77728748321533,0.82871252298355,3.71497488021851,1.76549994945526,2.12465000152588,1.33704996109009,-0.60623747110367,-3.02678751945496,-5.52956247329712,-5.13864994049072,0.43518748879433,21.5239753723145,23.1328620910645,4.63361263275146,2.58568739891052,4.62137508392334,1.99870002269745,0.73122501373291,-1.52212500572205,-2.20357489585876,-2.26833748817444,-1.56873750686646,-0.70289999246597,0.41098749637604,1.17631244659424,-0.27362498641014,-17.2573490142822,-20.0452995300293,-7.39598751068115,-11.8483753204346,-17.1081619262695,-13.7450494766235,-5.87743759155273,1.62495005130768,2.29305005073547,3.74700021743774,6.97095012664795,16.5390014648438,19.6110000610352,1.08405005931854,-44.944953918457,-58.5730514526367,-21.1360511779785,35.4160499572754,39.8419532775879,32.017951965332,10.771050453186,-2.32800006866455,1.78800010681152,2.4060001373291,2.57805013656616,5.87400007247925,8.76900005340576,2.60700011253357,0.26205000281334,-19.7280006408691,-59.428050994873,-59.6479530334473,-44.7610511779785,-20.9520015716553,-6.98400020599365,-5.06295013427734,-4.06695032119751,10.1959505081177,10.0999507904053,10.6390504837036,12.9000005722046,14.5450506210327,9.85095024108887,6.71805047988892,18.6169509887695,-6.32205009460449,24.5320510864258,5.42205047607422,9.65895080566406,10.8490505218506,13.3500003814697,10.2240009307861,SWING_LEFT
-0.54752498865128,-0.60857498645782,-0.11055000126362,0.34471249580383,0.94462502002716,0.76725000143051,-2.54113745689392,-11.554949760437,-7.36202478408813,6.83608722686768,4.84838724136353,2.54567503929138,1.65756249427795,1.10921251773834,3.90183758735657,-0.18452499806881,0.49431249499321,0.0937749966979,-0.80245000123978,-2.99021244049072,-5.80469989776611,-5.78819990158081,7.87201261520386,28.708625793457,20.9990005493164,3.19783759117126,2.94442486763,2.59668755531311,1.55003750324249,3.15919995307922,-1.15444993972778,-1.54879999160767,-1.17287504673004,-0.5515124797821,0.64143747091293,1.32371246814728,-1.04665005207062,-13.0498495101929,-18.5623626708984,-10.0988245010376,-8.12941265106201,-13.508825302124,-16.5169124603271,-10.691312789917,-2.78492498397827,0.69300001859665,1.10699999332428,1.69695007801056,5.46900033950806,17.2789516448975,15.2239503860474,-4.64205026626587,-78.235954284668,-37.5780029296875,11.5309505462646,36.6280517578125,34.8799514770508,21.7600517272949,3.94095015525818,-2.24505019187927,2.51805019378662,2.800950050354,2.97300004959106,4.77405023574829,6.72195053100586,3.61995005607605,-4.0290002822876,-26.2279510498047,-78.6550521850586,-56.5159530639648,-28.0870513916016,-14.8279504776001,-6.3400502204895,-4.50795030593872,-2.69205021858215,11.1820507049561,10.7029504776001,10.6000509262085,14.076000213623,15.3589506149292,11.0220003128052,7.96095037460327,-4.06305027008057,3.26400017738342,25.6000518798828,3.35295009613037,16.8079509735107,10.1689500808716,12.0610504150391,9.16605091094971,SWING_LEFT
-0.41057500243187,-0.43972501158714,-0.022824998945,0.607337474823,1.38269996643066,2.11901259422302,0.6736124753952,-4.291100025177,-12.6831378936768,-10.827712059021,0.59179997444153,3.36943745613098,1.30432498455048,0.19580000638962,2.08724999427795,0.46062499284744,0.4476999938488,-0.21463750302792,-1.07194995880127,-2.13991260528564,-3.6730375289917,-3.89152503013611,-2.14018750190735,14.3214502334595,21.2343997955322,7.53788757324219,4.19086265563965,7.5344500541687,3.50020003318787,0.29919999837875,-3.02321243286133,-3.45551252365112,-2.33502507209778,-0.08126249909401,2.27232503890991,4.23032474517822,3.94968748092651,-3.07821249961853,-21.9480247497559,-21.5740242004395,-8.18207454681396,-12.0998620986938,-17.4818878173828,-15.1974620819092,-7.17818737030029,0.58995002508163,1.53900003433228,2.49705004692078,4.87995004653931,12.6709508895874,22.2600002288818,3.42795014381409,-28.5160522460938,-69.0799560546875,-30.2929515838623,35.9809532165527,40.0770034790039,33.412052154541,11.1790504455566,-7.26900053024292,3.73695015907288,3.82605028152466,4.32405042648315,5.01600027084351,10.4550008773804,4.69500017166138,5.36805009841919,-5.33595037460327,-49.873950958252,-61.0420532226563,-51.2299537658691,-23.4810009002686,-7.8919506072998,-3.96195030212402,-3.28905010223389,8.79900074005127,9.03194999694824,8.74395084381104,9.73305034637451,13.2799510955811,13.9129505157471,7.75500059127808,24.7050018310547,-20.6989517211914,32.1079521179199,10.7749509811401,5.47305011749268,11.4120006561279,12.2170505523682,9.28605079650879,SWING_LEFT
-1.36152493953705,-0.55852502584457,1.00553750991821,1.25730001926422,0.79117500782013,0.36849999427795,-0.32161250710487,-8.36797523498535,-10.0375003814697,-1.90382504463196,1.25565004348755,2.78286242485046,2.19312500953674,2.36142492294312,3.5320999622345,1.00883746147156,0.46543750166893,-0.93307501077652,-1.3556125164032,-1.93847501277924,-2.9305374622345,-1.99416244029999,3.27772498130798,17.7137126922607,16.6688499450684,5.14456224441528,4.92868757247925,3.62628746032715,0.8204625248909,1.90244996547699,-0.98285001516342,-0.37963750958443,0.39050000905991,0.73301249742508,1.22099995613098,2.33158755302429,0.24461250007153,-17.916524887085,-29.0798740386963,-16.5808506011963,-8.98810005187988,-12.4884376525879,-15.584662437439,-11.9538373947144,-4.76918745040894,4.0770001411438,5.13795042037964,5.11200046539307,10.9530000686646,19.5679512023926,11.0830507278442,-6.97695016860962,-62.4979515075684,-55.4550018310547,-13.9489507675171,44.5510520935059,45.8899536132813,30.517951965332,3.64605021476746,-5.31300020217896,3.36105012893677,3.80205011367798,3.91200017929077,6.16800022125244,5.5770001411438,2.31000018119812,9.36795043945313,-25.0570507049561,-62.3640022277832,-69.3700561523438,-50.0149536132813,-22.4010009765625,-7.41795015335083,-7.00305032730103,-3.82500028610229,8.3230504989624,7.03695011138916,10.8019504547119,12.6289510726929,13.4890508651733,7.9200005531311,14.0160007476807,19.3279514312744,-9.07605075836182,15.5959510803223,12.4759502410889,8.19600009918213,13.957950592041,14.2720508575439,8.69400024414063,SWING_LEFT
-0.168850004673,0.15702499449253,0.06531249731779,-0.08689999580383,0.41662499308586,1.63061249256134,2.96106243133545,0.00659999996424,-9.73486232757568,-16.7212371826172,-8.49351215362549,2.39634990692139,2.42577505111694,0.32793748378754,2.51583743095398,0.58533751964569,0.8038250207901,0.67223751544952,-0.12815000116825,-1.61672496795654,-3.08618760108948,-4.25204992294312,-4.52911233901978,6.41960000991821,15.9454622268677,7.55603742599487,6.40818738937378,12.8369998931885,5.09547519683838,-0.23952500522137,-1.94741249084473,-2.91348743438721,-3.08701252937317,-1.67818748950958,1.38173747062683,3.65639996528625,3.44877505302429,-0.12677499651909,-18.3631248474121,-21.2352256774902,-7.57638740539551,-11.8344869613647,-19.1735496520996,-16.3339004516602,-7.79418754577637,-0.33300000429153,0.18300001323223,0.35805001854897,2.68305015563965,7.36995029449463,10.0030508041382,16.4569511413574,-18.4110012054443,-73.2520523071289,-32.8000526428223,24.0400505065918,46.9630508422852,32.5470008850098,9.43305015563965,-9.68100070953369,2.89905023574829,2.62800002098084,3.02595019340515,3.62700009346008,5.51895046234131,8.0440502166748,5.33505010604858,4.79805040359497,-33.6289520263672,-58.7860527038574,-48.4420509338379,-27.3990020751953,-6.03105020523071,-3.91095018386841,-4.04505014419556,9.50595092773438,9.25200080871582,10.3489503860474,11.2110004425049,11.7690010070801,12.8040008544922,8.24400043487549,18.4150505065918,-2.40405011177063,25.1860504150391,9.75300025939941,3.307950258255,5.6569504737854,13.7140502929688,10.4950504302979,SWING_LEFT
-0.00027499999851,-0.12540000677109,-0.54257500171661,-0.85621249675751,-1.12626254558563,-0.36231249570847,0.57254999876022,-2.3203125,-10.2581872940063,-12.1166372299194,-2.88351249694824,1.84318745136261,-3.51202487945557,-3.19604992866516,1.95098745822906,-0.52387499809265,0.06902500241995,0.6017000079155,0.47973749041557,-0.13365000486374,-1.43274998664856,-4.79930019378662,-5.38450002670288,11.4196500778198,13.2857999801636,2.15462493896484,4.24682474136353,2.68647503852844,0.35420000553131,5.06110000610352,-0.9981124997139,-1.6637499332428,-2.4206874370575,-3.11368751525879,-3.94377493858337,-6.00104999542236,-9.23340034484863,-12.992787361145,-12.9215621948242,-9.14512538909912,-8.76369953155518,-16.7847633361816,-20.2358741760254,-11.8291254043579,-4.10107517242432,2.84400010108948,2.31900000572205,2.48205018043518,2.45100021362305,2.16105008125305,7.93605041503906,4.94895029067993,-51.2419509887695,-45.7140007019043,4.23105001449585,33.2220001220703,32.2740020751953,20.7060012817383,5.87805032730103,-0.6690000295639,2.32905006408691,2.82705020904541,2.72895002365112,2.12100005149841,4.32405042648315,11.2030506134033,13.1110506057739,-25.6009521484375,-51.6540031433105,-36.1000518798828,-26.203950881958,-10.5769500732422,-6.29700040817261,-3.54495024681091,-1.40895009040833,8.26005077362061,10.1790008544922,10.2649507522583,10.3489503860474,12.2890510559082,15.4980010986328,12.7920007705688,18.0229511260986,12.7339506149292,30.1489505767822,-2.22405004501343,-4.03905010223389,10.0279502868652,16.2889499664307,15.4290008544922,SWING_LEFT
-1.61493754386902,-1.19721245765686,-0.4448125064373,0.69657498598099,2.61703753471375,4.4215874671936,3.51381254196167,0.06077500060201,-1.45351254940033,2.52463746070862,16.1480007171631,26.1113872528076,12.4829378128052,-0.42597499489784,3.03462505340576,0.44866248965263,0.66605001688004,0.66343748569489,0.55096250772476,-0.28558748960495,-2.03293752670288,-2.68867492675781,-3.80957508087158,2.1958749294281,11.0390501022339,19.5775241851807,42.4484481811523,36.7632369995117,7.97183752059937,2.72841238975525,-4.01981258392334,-5.09671258926392,-5.29746246337891,-5.66445016860962,-4.00248765945435,0.61971247196198,2.6003999710083,-13.4047374725342,-25.9048614501953,-18.9046001434326,-15.3786878585815,-18.5457248687744,-20.6263751983643,-14.1282625198364,-3.54200005531311,1.04295003414154,-0.67605000734329,-2.43900012969971,-0.30900001525879,3.17400026321411,5.07405042648315,-6.91500043869019,-48.1500015258789,-30.7069511413574,-21.631950378418,27.8599510192871,27.9460506439209,13.4659509658813,3.61305022239685,1.25595009326935,1.72995007038116,1.09995007514954,2.91795015335083,4.00995016098022,6.93195009231567,11.1190509796143,11.6070003509521,-7.25205039978027,-45.0840034484863,-30.3040523529053,-31.4950523376465,-16.7820014953613,-10.581000328064,-4.40700006484985,-1.88295006752014,10.5859508514404,10.6410007476807,10.2289505004883,8.87100028991699,9.33600044250488,12.8569507598877,20.3959503173828,31.4250011444092,-27.5350513458252,24.5590515136719,5.38200044631958,5.44905042648315,6.70095014572144,14.028000831604,12.4279508590698,SWING_LEFT
-0.13529999554157,0.57791250944138,0.40878748893738,0.05018749833107,-0.15743750333786,0.60238748788834,3.10144996643066,2.41546249389648,-3.96687507629395,-14.1717128753662,-21.8893127441406,-10.6459369659424,2.16053748130798,-5.19351243972778,-7.11356258392334,0.43285000324249,-0.97116249799728,-2.26806259155273,-1.89543747901917,-1.4609375,-1.59912502765656,-4.14507484436035,-7.01634979248047,-1.2557874917984,13.9606494903564,10.1058378219604,2.0905499458313,7.81536245346069,17.2629871368408,14.1021375656128,-6.20812511444092,-3.3041250705719,-0.71445000171661,-0.68722498416901,-1.51800000667572,-1.64023745059967,0.67347496747971,-0.79722499847412,-7.71058750152588,-9.56546211242676,-2.27631258964539,-4.60143756866455,-15.3004503250122,-22.3498001098633,-18.2968502044678,0.13995000720024,0.93300002813339,0.53505003452301,1.24905002117157,0.40305000543594,8.91495037078857,18.598051071167,-2.95305013656616,-58.714054107666,-36.6750030517578,-10.1670007705688,29.9340019226074,30.7909507751465,28.324951171875,12.553050994873,3.52905011177063,3.00000023841858,3.54105019569397,3.54795026779175,4.00800037384033,9.65805053710938,12.4860010147095,10.2660007476807,-9.26205062866211,-58.1920509338379,-52.4220008850098,-25.0590019226074,-16.8229503631592,-6.54600048065186,-2.65605020523071,9.95100021362305,10.3270502090454,10.5550508499146,10.0399503707886,9.85305023193359,17.4649505615234,5.61405038833618,20.8270511627197,37.3740005493164,-3.7110002040863,37.336051940918,-0.1950000077486,8.10000038146973,11.7520503997803,11.1730508804321,SWING_LEFT
-0.13310000300407,-0.05335000157356,0.04537500068545,0.0,-0.05637500062585,0.79763752222061,1.48486244678497,0.65202498435974,-9.03526210784912,-16.7402114868164,-5.12050008773804,10.7215623855591,11.876012802124,3.28652501106262,1.49476253986359,-0.59042501449585,-1.04293751716614,-0.84988749027252,-0.47134998440742,-0.56718748807907,-1.77113747596741,-4.73426246643066,-6.17402505874634,5.60780000686646,23.6150741577148,16.4652118682861,11.4060373306274,16.3073616027832,5.62704992294312,-0.07397499680519,-1.49338746070862,-0.61971247196198,-0.24213749170303,-0.23100000619888,-0.21573749184608,0.01498750038445,1.8492374420166,3.99808740615845,-6.44228744506836,-11.3944873809814,-5.92886257171631,-12.0122747421265,-20.6002502441406,-21.5976753234863,-12.4845876693726,2.7480001449585,2.68095016479492,3.05505013465881,2.73105001449585,6.28605031967163,15.2760009765625,20.6200504302979,-6.64905023574829,-70.3849563598633,-37.2649536132813,4.49895000457764,28.9330520629883,29.2750511169434,16.9170017242432,6.68100023269653,4.02195024490356,4.36695003509521,4.05795001983643,4.08900022506714,6.93195009231567,13.195050239563,-3.89205026626587,2.47305011749268,-17.2279510498047,-51.8239517211914,-33.0799522399902,-13.9459505081177,-6.78495025634766,-2.83605003356934,-0.72600001096725,9.18495082855225,9.58305072784424,9.46305084228516,9.8700008392334,11.0839509963989,15.9079504013062,-2.91105008125305,20.7769508361816,14.3029508590698,10.5499505996704,20.8080005645752,6.7350001335144,10.3150501251221,12.7440004348755,11.0940008163452,SWING_LEFT
0.00206249998882,0.40383750200272,0.45512500405312,0.27046251296997,0.11852499842644,0.2396624982357,0.29411250352859,-1.00223743915558,-9.10318756103516,-7.1346001625061,3.50226259231567,7.29822492599487,5.52557516098022,1.83920001983643,3.89083743095398,0.65051251649857,0.22137500345707,-0.34058749675751,-0.97363752126694,-2.08614993095398,-4.02985000610352,-6.20688724517822,-5.43661260604858,13.4337501525879,23.2995128631592,10.0945625305176,9.06840038299561,13.2615995407104,5.38491249084473,0.12223749607801,-1.02795004844666,-1.74020004272461,-1.59967494010925,-1.17974996566772,-0.66206252574921,-0.11797499656677,-0.25616249442101,-2.02523756027222,-14.2878999710083,-19.0221614837646,-9.65703773498535,-11.7772874832153,-20.9417991638184,-17.633825302124,-6.17264986038208,1.52205002307892,1.61505007743835,2.14005017280579,3.35895013809204,10.2970504760742,18.6030006408691,9.91605091094971,-15.3210010528564,-67.9710006713867,-30.2040023803711,21.8509502410889,40.9099502563477,24.4710006713867,12.3469505310059,1.61805009841919,4.35495042800903,4.03695011138916,4.41795015335083,4.59195041656494,9.78194999694824,11.1190509796143,12.8890504837036,-10.5070505142212,-38.4330024719238,-45.1990509033203,-33.5740509033203,-17.8720512390137,-9.0799503326416,-3.01095008850098,-1.33005011081696,8.54805088043213,8.70795059204102,9.14205074310303,9.97500038146973,14.7199506759644,12.0229501724243,5.95395040512085,14.5950002670288,-5.13600015640259,20.6590518951416,10.4230508804321,10.7850008010864,11.7400503158569,14.8110008239746,11.7640504837036,SWING_LEFT
-1.59348750114441,0.06379999965429,1.05655002593994,0.99247497320175,1.04101252555847,1.71242499351501,0.84452497959137,-0.62301248311996,5.70501232147217,5.53863763809204,0.6347000002861,2.26091241836548,2.03857493400574,3.65062499046326,6.05646228790283,0.64776247739792,0.11646249890327,-1.00993752479553,-2.2005500793457,-3.73422503471375,-6.10321235656738,-7.15701246261597,-2.68111252784729,8.54452514648438,11.559624671936,5.13053750991821,4.07770013809204,2.60424995422363,-1.06754994392395,1.81486248970032,-8.2794246673584,-9.55913734436035,-7.14834976196289,-4.12403726577759,-2.00626254081726,-1.57465004920959,-3.9114625453949,-5.46094989776611,-21.5275497436523,-24.9658756256104,-9.66597461700439,-13.5993003845215,-18.5136871337891,-11.7130746841431,-3.47077488899231,-1.46595001220703,-0.60405004024506,0.16395001113415,2.5969500541687,8.9800500869751,12.2059507369995,3.35595011711121,-41.4250526428223,-58.9039535522461,-11.532000541687,34.4269523620605,32.226001739502,19.9710006713867,8.31704998016357,-1.66305005550385,2.41995000839233,2.76495003700256,2.87295007705688,4.45305013656616,7.02105045318604,10.443000793457,14.683051109314,-9.46995067596436,-50.7270011901855,-39.4530029296875,-34.6129531860352,-16.3990516662598,-6.60105037689209,-2.89605021476746,-3.07800006866455,10.0639505386353,10.5289506912231,10.4470500946045,12.0660009384155,12.1519508361816,12.5640001296997,11.1820507049561,25.2649517059326,-7.08105039596558,21.8020515441895,3.27195024490356,11.3170509338379,14.4469509124756,15.223051071167,9.95400047302246,SWING_LEFT
-0.06256250292063,-0.75267499685287,-0.92619997262955,-0.26785001158714,0.31955000758171,1.1782374382019,-0.2239875048399,-12.2284250259399,-11.05348777771,0.8065750002861,-1.36166250705719,-2.14926242828369,1.8489625453949,4.12018728256226,4.4407000541687,-0.15125000476837,-1.17328751087189,-1.57162499427795,-1.48183751106262,-2.22997498512268,-4.33908748626709,-5.25992488861084,-6.36019992828369,9.60946273803711,16.4121379852295,1.57478749752045,-2.31082487106323,-3.59672498703003,-3.02775001525879,2.47376251220703,-0.75652498006821,0.78264999389648,1.16517496109009,0.26331248879433,0.34952500462532,0.86968749761581,-2.0064001083374,-24.0722618103027,-35.2435874938965,-19.1387615203857,-9.24371242523193,-13.9995622634888,-18.3580379486084,-10.7102870941162,-3.37576246261597,1.58400011062622,0.2119500041008,1.59795010089874,4.42005014419556,9.84195041656494,16.3810501098633,-1.33200001716614,-57.7680015563965,-48.8610038757324,1.56705009937286,32.5300521850586,26.4300003051758,19.7359504699707,10.4959506988525,2.23095011711121,0.78900003433228,2.16900014877319,2.29305005073547,2.72205018997192,3.6889500617981,7.96200037002563,7.39500045776367,-11.9899501800537,-49.8330039978027,-36.2419509887695,-21.9430503845215,-12.4140005111694,-5.58300018310547,-1.86600005626678,-0.65205001831055,10.3939504623413,11.7480001449585,10.9759502410889,12.0090007781982,14.7049503326416,14.6550006866455,11.7930002212524,21.0499515533447,0.87195003032684,18.9160499572754,-0.03000000119209,9.76905059814453,12.6480007171631,10.6939506530762,11.2879505157471,SWING_LEFT
-0.16637499630451,-0.2939749956131,-0.50050002336502,-0.85318750143051,-1.07208752632141,0.66054999828339,1.49297499656677,3.44574999809265,3.0639123916626,2.75206255912781,3.39514994621277,1.51579999923706,4.033287525177,4.89692497253418,3.30371236801147,-0.01663750037551,0.07466249912977,-0.04771250113845,-0.98257499933243,-3.10653758049011,-5.44554996490479,-6.60522508621216,-1.99581253528595,20.632287979126,21.7150993347168,1.71146249771118,-3.09856247901917,-6.50402498245239,-5.95553731918335,0.90048748254776,-1.0975250005722,-1.45117497444153,-2.54457497596741,-5.12476253509521,-8.44497489929199,-4.66908740997314,2.36362504959106,8.99057483673096,26.5392875671387,14.3771371841431,-7.44644975662231,-10.9461002349854,-18.2939624786377,-12.8530874252319,-4.04965019226074,1.17000007629395,0.74595004320145,0.56100004911423,0.8320500254631,5.85705041885376,17.6620502471924,11.871000289917,-37.1380500793457,-60.0460510253906,-13.0990505218506,23.1799507141113,32.965950012207,21.9469509124756,10.4359502792358,0.18795001506805,3.70095014572144,3.54795026779175,3.33300018310547,3.39000010490417,5.66100025177002,12.2470502853394,-6.88800048828125,-5.02305030822754,-39.8220024108887,-46.2940521240234,-18.7170009613037,-14.1400508880615,-6.80895042419434,-2.86500024795532,-1.87095010280609,9.07695007324219,9.05805015563965,9.30000019073486,9.70200061798096,12.8710508346558,12.6820507049561,7.97505044937134,-3.86700010299683,-10.1440505981445,36.5740509033203,-7.92900037765503,11.1109504699707,10.9240503311157,11.7910509109497,8.6650505065918,SWING_LEFT
-0.4853749871254,-0.15661250054836,-0.36657500267029,-0.73149996995926,-0.35777500271797,1.17617499828339,1.14097499847412,-0.00618749996647,-4.61161231994629,-16.5837383270264,1.03743743896484,14.5589122772217,3.58338737487793,1.19583749771118,1.73442494869232,-1.88925004005432,-1.02492499351501,-1.35300004482269,-1.7627500295639,-1.07690000534058,-0.90859997272491,-3.32763743400574,-2.47554993629456,10.066237449646,19.5084991455078,16.0520248413086,8.41733741760254,4.72491264343262,2.64728736877441,-0.95273751020432,-3.50597500801086,-1.63514995574951,-2.07638740539551,-2.4785749912262,-0.81482499837875,2.23712491989136,1.63776254653931,-2.73020005226135,-6.51158761978149,-3.74921250343323,-6.90222501754761,-13.9589996337891,-17.0959243774414,-16.0088500976563,-7.18849992752075,1.11195003986359,1.07205009460449,1.27305006980896,1.68195009231567,4.11105012893677,10.1700000762939,4.47705030441284,-14.5120506286621,-72.0520553588867,-33.2239532470703,5.57895040512085,32.623950958252,26.752950668335,11.952000617981,6.0799503326416,5.10000038146973,5.20605039596558,4.79100036621094,5.01900005340576,7.32000017166138,11.4210004806519,11.7270002365112,9.39000034332275,-29.6290512084961,-45.9700508117676,-35.8729515075684,-31.0249519348145,-20.0110511779785,-6.67995023727417,-1.14300000667572,7.93200016021729,8.4330005645752,8.36595058441162,8.99100017547607,8.45205020904541,11.2420501708984,11.8579502105713,15.6630010604858,5.72700023651123,7.90095043182373,15.7620010375977,11.5459508895874,7.39605045318604,10.4400005340576,11.6809501647949,SWING_LEFT
-0.11384999752045,-0.04647500067949,-0.14382499456406,0.693274974823,3.05263757705688,3.83322501182556,-3.10351252555847,-8.61258792877197,-9.49671268463135,-8.4321870803833,-5.03483724594116,-1.23035001754761,0.30813750624657,1.79121243953705,5.46562480926514,1.1837375164032,1.67832493782043,0.66577500104904,-0.91258752346039,-3.94033741950989,-7.47065019607544,-19.5450744628906,-16.1550121307373,9.59901237487793,9.71918773651123,-3.19756245613098,-4.20351266860962,-1.72370004653931,-0.40149998664856,1.18758749961853,-1.72204995155334,-2.71534991264343,-2.59393739700317,-3.29064989089966,-5.65551233291626,-5.57081270217896,-15.8408250808716,-22.6303005218506,-19.4378242492676,-15.141637802124,-8.18221282958984,-12.1192502975464,-16.0290622711182,-10.2198247909546,-3.22877502441406,-1.1380500793457,0.11100000888109,-0.24705001711845,0.13500000536442,7.33695030212402,6.31905031204224,-6.838050365448,-53.7330017089844,-35.8200035095215,1.02600002288818,35.3610000610352,28.9639511108398,19.3000507354736,8.53200054168701,-0.22995001077652,3.90495014190674,2.64495015144348,3.96195030212402,8.80305004119873,12.3190507888794,12.7110004425049,10.3500003814697,-25.3350009918213,-62.2420539855957,-36.235050201416,-30.8580017089844,-12.9810009002686,-5.36805009841919,-1.37295007705688,-1.6030501127243,10.8090009689331,9.70905017852783,9.59205055236816,10.1170501708984,10.3300504684448,11.3880004882813,11.0550003051758,11.4409503936768,6.02805042266846,18.1969509124756,9.18000030517578,10.336950302124,10.9020004272461,12.1810503005981,9.35295009613037,SWING_LEFT
-0.23058749735355,-0.24461250007153,-0.09707500040531,0.38582500815392,1.22746253013611,2.40776252746582,1.80963754653931,-0.79970002174377,-7.47023725509644,-13.4487371444702,-6.78576231002808,0.09844999760389,2.19903755187988,2.33612489700317,3.39088749885559,0.39765000343323,-0.1885125041008,-0.71898752450943,-1.27242493629456,-2.40240001678467,-4.09639978408813,-4.98327493667603,-2.01396250724792,12.7162752151489,19.6974258422852,6.93219995498657,-0.03272499889135,1.39823746681213,-1.02162504196167,-1.54343748092651,-1.55031251907349,-1.2115124464035,-0.52552497386932,0.08662500232458,0.598812520504,1.24836254119873,3.41371250152588,4.39230012893677,20.5936508178711,21.1589126586914,0.25176250934601,-8.53104972839355,-17.0724124908447,-15.9000873565674,-6.29502487182617,0.8029500246048,1.23000001907349,1.95495009422302,4.17300033569336,8.77395057678223,17.6689510345459,15.8509511947632,-12.3540010452271,-76.1760025024414,-17.7670516967773,18.9460506439209,35.3920516967773,23.1660003662109,12.7429504394531,5.06895017623901,4.675950050354,4.83195018768311,5.29905033111572,6.47205018997192,10.711950302124,10.5610504150391,-0.91995006799698,-6.088050365448,-32.5320014953613,-55.4040031433105,-27.5020503997803,-17.0599498748779,-7.7029504776001,-3.77205014228821,0.02505000121891,9.21405029296875,8.95695018768311,9.04095077514648,9.14895057678223,9.42000007629395,9.21105003356934,10.8420009613037,19.6009502410889,-4.47000026702881,18.9760513305664,18.9540004730225,7.69995021820068,10.1530504226685,12.0109510421753,12.0349502563477,SWING_LEFT
0.56086248159409,0.40342500805855,0.1190750002861,0.12966249883175,0.5460125207901,0.4130499958992,-0.58038747310638,-0.61063748598099,-4.63264989852905,-5.9991250038147,-1.10838747024536,1.52281248569489,1.33319997787476,1.38228750228882,5.03538751602173,-0.96579998731613,-0.85098749399185,-0.65353751182556,-0.74497497081757,-1.82723748683929,-3.52577495574951,-3.53732490539551,-0.17091250419617,16.0733375549316,20.040075302124,4.46311235427856,-0.52978748083115,0.96346247196198,-2.51143741607666,-4.8017749786377,-0.11357499659061,0.03561250120401,0.03052499890327,-0.30428749322891,-0.53776252269745,0.36574998497963,1.80083751678467,1.41047501564026,11.0860748291016,6.89424991607666,-6.70821237564087,-10.0219621658325,-18.2289257049561,-15.891562461853,-6.30478763580322,3.58200025558472,3.92895007133484,4.35300016403198,6.57300043106079,13.5690002441406,17.0250015258789,3.63405013084412,-19.2990016937256,-60.5149536132813,-27.2460021972656,21.1560001373291,39.0949516296387,49.0729522705078,15.5299510955811,0.22395001351833,4.00995016098022,4.40295028686523,4.76205015182495,7.21695041656494,8.46000003814697,3.21300005912781,1.4719500541687,-0.26895001530647,-37.3870506286621,-47.8980026245117,-28.3500022888184,-22.7310009002686,-8.87100028991699,-4.8600001335144,0.4420500099659,9.37395000457764,8.9170503616333,9.39795017242432,11.451000213623,12.3319501876831,10.9210500717163,5.85105037689209,8.78700065612793,8.06400012969971,19.4980506896973,19.5630016326904,5.08200025558472,1.77705013751984,4.41600036621094,12.211950302124,SWING_LEFT
-1.14358747005463,-0.45388749241829,-0.19744999706745,0.03052499890327,0.54216247797012,1.09064996242523,1.54536247253418,-3.62711238861084,-13.327187538147,-12.2462997436523,-3.11244988441467,0.16898749768734,1.29263746738434,1.35093748569489,3.25270009040833,0.13557499647141,0.02254999987781,-0.27390000224113,-0.73988747596741,-2.26751255989075,-4.27171230316162,-5.49518728256226,-8.04443740844727,3.02472496032715,14.0867376327515,5.32441234588623,0.2231625020504,4.38019990921021,2.42261242866516,0.34787499904633,-0.79131251573563,-1.90891253948212,-2.77090001106262,-2.74491238594055,-1.10109996795654,1.05118751525879,-0.46653750538826,-7.72475004196167,-25.5528621673584,-25.7225379943848,-10.2227125167847,-10.8198747634888,-18.1211242675781,-15.7022247314453,-6.60164976119995,0.35100001096725,1.09305000305176,1.46400010585785,4.24995040893555,10.1029500961304,14.0479507446289,10.1989507675171,-21.117000579834,-71.3170547485352,-25.4620513916016,23.0479507446289,38.0839500427246,24.6190509796143,11.635950088501,3.67995023727417,3.85005021095276,2.68395018577576,2.28405022621155,4.63800001144409,6.64995050430298,9.28695011138916,9.8899507522583,-0.51300001144409,-39.1009521484375,-49.3330535888672,-38.287052154541,-18.9469509124756,-8.46900081634521,-3.51405024528503,-1.33005011081696,10.3150501251221,10.3920001983643,10.0999507904053,12.1549501419067,15.6060009002686,11.1559505462646,3.74595022201538,17.2060508728027,-5.78505039215088,23.7730503082275,11.6710510253906,7.19895029067993,11.5219507217407,13.1440505981445,11.6329507827759,SWING_LEFT
-0.91602498292923,-0.80808746814728,-0.46364998817444,-0.27211248874664,0.2261874973774,1.6938624382019,0.13681249320507,-14.0452127456665,-17.6994132995605,-4.64488744735718,-6.31138753890991,-9.40871238708496,-3.40862488746643,-2.84047508239746,-1.01241254806519,-0.595787525177,-0.0054999999702,-0.13818749785423,-0.36904999613762,-1.31917500495911,-4.2728123664856,-6.91734981536865,-10.0784749984741,8.08431243896484,20.2298240661621,2.87388753890991,-8.11923789978027,-1.56640005111694,6.83732509613037,4.04071235656738,-1.02038753032684,-2.13207507133484,-2.78355002403259,-3.28734993934631,-3.08756256103516,-0.67168748378754,2.41436243057251,-12.5955495834351,-27.3915119171143,-19.0122623443604,-8.12652492523193,-7.81934976577759,-17.6670989990234,-18.6614990234375,-9.4905252456665,0.91605001688004,1.29195010662079,0.18495000898838,1.66800010204315,7.45905017852783,23.4720020294189,6.59700012207031,-22.9300518035889,-67.8270034790039,-25.9840507507324,8.79104995727539,32.0100021362305,23.9680519104004,16.6319999694824,5.21295022964478,3.09300017356873,3.43995022773743,3.28200006484985,4.11105012893677,8.06295013427734,7.40205049514771,9.0930004119873,2.55405020713806,-26.2110004425049,-37.0900535583496,-35.077953338623,-24.5659503936768,-11.6380500793457,-4.35195016860962,-3.83700013160706,9.66900062561035,9.84600067138672,10.4710502624512,10.900050163269,15.2640008926392,9.8700008392334,12.8040008544922,5.17305040359497,-2.23395013809204,25.7269515991211,4.33695030212402,11.7739505767822,8.12400054931641,14.4610509872437,10.6339502334595,SWING_LEFT
-0.28696250915527,-0.02103750035167,0.65326249599457,1.64903748035431,1.0731874704361,-1.29690003395081,-6.16715002059937,-7.00562477111816,-6.1665997505188,-9.50826263427734,1.62249994277954,13.2947378158569,9.0158748626709,6.00283765792847,6.7253999710083,-1.74886250495911,-1.52184998989105,-1.4695999622345,-1.66691243648529,-0.9590625166893,0.06352499872446,-0.81688749790192,-0.52621251344681,14.9333248138428,20.2505874633789,10.6944751739502,13.7946872711182,13.1748371124268,1.7994624376297,-1.62332499027252,-3.09141254425049,-1.65783751010895,-0.05321250110865,0.90158748626709,1.31229996681213,0.00756249995902,-7.28488731384277,-14.0490627288818,-13.3843870162964,-10.9239625930786,-9.5613374710083,-11.2727994918823,-16.5380878448486,-14.6525497436523,-4.98519992828369,4.5130500793457,5.46405029296875,6.95400047302246,8.36400032043457,8.06295013427734,5.83800029754639,4.95405006408691,-19.828950881958,-73.4269561767578,-41.6910018920898,28.0060520172119,38.5560035705566,27.1990509033203,11.0830507278442,-3.88995027542114,3.65100026130676,3.8860502243042,5.54100036621094,5.44305038452148,3.88095021247864,3.93600010871887,5.31105041503906,4.16805028915405,-39.0460510253906,-68.7250518798828,-45.669002532959,-22.6860008239746,-10.5580501556396,-6.86700010299683,-6.35700035095215,8.62005043029785,7.82205057144165,6.55500030517578,11.7739505767822,10.3540506362915,16.1689510345459,10.0260000228882,10.6789503097534,-27.7549514770508,23.3470516204834,6.43305015563965,14.428050994873,17.6989517211914,13.4310007095337,8.76600074768066,SWING_LEFT
-1.4860999584198,-0.79846251010895,0.26510000228882,0.88013750314713,1.02849996089935,1.73634994029999,3.04768753051758,-3.48865008354187,-6.15546226501465,-0.63085001707077,0.61366248130798,2.43237495422363,0.89333748817444,2.03128743171692,5.41433763504028,0.54670000076294,-0.33109998703003,-0.79640001058578,-1.14400005340576,-1.9071249961853,-2.46565008163452,-2.31769990921021,-0.78168749809265,13.8271369934082,11.8167495727539,-2.66062498092651,2.35509991645813,3.47737503051758,-1.06809997558594,1.67048752307892,-0.02117500081658,-0.12636250257492,-0.35254999995232,-0.32216250896454,0.09858749806881,0.46818751096725,-0.26455000042915,-14.1718502044678,-29.2219123840332,-19.0862369537354,-7.5714373588562,-15.0492372512817,-19.6974258422852,-10.956000328064,-2.74504995346069,4.21905040740967,4.99500036239624,7.2940502166748,11.5110006332397,13.9159507751465,8.66595077514648,-0.94605004787445,-65.965950012207,-34.2829513549805,5.83995008468628,32.8579521179199,34.185001373291,22.3920001983643,5.1259503364563,-1.1380500793457,2.76495003700256,3.01605010032654,4.125,6.15405035018921,6.36900043487549,8.39595031738281,4.2330002784729,-25.5769519805908,-63.058952331543,-33.2809524536133,-21.2700004577637,-9.99000072479248,-2.99400019645691,-1.78200006484985,-2.54400014877319,11.8980007171631,12.6190509796143,13.8240003585815,17.7210006713867,14.0089502334595,4.45500040054321,2.47605013847351,2.72100019454956,2.2870500087738,26.2060508728027,6.6820502281189,6.38505029678345,11.881950378418,12.1980009078979,9.81705093383789,SWING_LEFT
-1.06356251239777,-1.07772505283356,-1.7158625125885,-1.82544994354248,-1.04554998874664,-0.770412504673,-2.12561249732971,-5.63392496109009,-10.0531749725342,-7.55411243438721,-4.53310012817383,-3.95752501487732,-2.8610999584198,-2.6996750831604,3.04699993133545,-1.53216254711151,-2.16988754272461,-1.75119996070862,-1.11017501354218,-0.48894998431206,-0.22412499785423,-1.34502494335175,-3.62642502784729,7.77782487869263,14.0357246398926,1.96487498283386,-5.04872512817383,0.13543750345707,2.10718750953674,-1.6828625202179,-2.10718750953674,-0.99137496948242,-0.60926252603531,-0.97583746910095,-2.3792998790741,-4.31475019454956,-7.95148754119873,-13.0442123413086,-20.2501754760742,-17.9500751495361,-8.23515033721924,-8.18661212921143,-15.9427127838135,-15.8657121658325,-7.61818742752075,8.37600040435791,11.4709501266479,11.076000213623,5.93805027008057,5.86200046539307,5.07405042648315,7.67505025863647,-16.3729515075684,-72.9930038452148,-24.5850009918213,23.2350006103516,37.2150001525879,29.8290004730225,16.4910011291504,2.20905017852783,2.02305006980896,2.80995011329651,0.95400005578995,4.69095039367676,3.706050157547,8.13495063781738,7.94295024871826,-4.92705011367798,-31.5640506744385,-45.6250534057617,-51.6490516662598,-25.4040012359619,-11.7450008392334,-2.31600022315979,-2.74005007743835,8.76600074768066,11.5780506134033,10.243950843811,7.08000040054321,5.33595037460327,13.371000289917,12.5599508285522,14.9950504302979,4.40700006484985,37.6810531616211,16.348051071167,7.25700044631958,5.11305046081543,11.6089506149292,12.6859502792358,SWING_LEFT
-0.54092502593994,-0.06696250289679,0.66261249780655,1.04114997386932,1.1672375202179,1.42312502861023,2.27713751792908,0.15647499263287,-0.6014249920845,-6.45191240310669,-10.9900999069214,-0.44714999198914,5.88224983215332,5.71821260452271,7.09596252441406,0.79887497425079,0.81551247835159,-0.07548750191927,-1.35973751544952,-2.02207493782043,-1.91551244258881,-1.96941244602203,-3.83253741264343,1.76247501373291,8.4397497177124,2.83057498931885,2.73116254806519,10.9132375717163,4.18481254577637,-4.05542516708374,-4.39394998550415,-6.48999977111816,-7.34538745880127,-3.65213751792908,1.75999999046326,3.14723753929138,2.67066240310669,-4.13297510147095,-21.6129379272461,-23.5944499969482,-10.5983619689941,-10.6521253585815,-18.7332744598389,-16.5815372467041,-6.54610013961792,-1.53105008602142,-0.63000005483627,0.3529500067234,2.18295001983643,3.22500014305115,5.60805034637451,8.00295066833496,-20.5570507049561,-63.9790534973145,-21.6660003662109,-1.65795004367828,35.3509521484375,30.3700523376465,11.1790504455566,-4.2199501991272,2.42700004577637,2.44905018806458,3.5220000743866,3.88800024986267,5.46705007553101,8.65904998779297,5.94795036315918,9.51405048370361,-14.8879508972168,-56.628002166748,-32.2399520874023,-24.4489517211914,-8.35200023651123,-3.66900014877319,-4.04295015335083,8.36295032501221,7.55595016479492,8.60295009613037,8.9239501953125,11.0580005645752,11.6250009536743,8.58105087280273,8.27700042724609,12.4830007553101,2.3929500579834,18.7030506134033,13.4380502700806,7.01505041122437,18.1330509185791,11.7120008468628,SWING_LEFT
-0.76711249351501,-0.78677499294281,-0.75556248426437,-0.36629998683929,1.00154995918274,3.46348738670349,3.67468738555908,-0.35708749294281,-9.24357509613037,-6.46483755111694,3.25338745117188,6.06718730926514,4.302649974823,1.47331249713898,3.65323758125305,-0.12526249885559,0.11439999938011,0.25134998559952,0.07535000145435,-1.48307502269745,-4.92181253433228,-6.9858250617981,-2.42357492446899,20.7427005767822,23.2755870819092,4.3663125038147,6.17058753967285,9.20906257629395,2.5278000831604,-0.58891248703003,-2.61910009384155,-2.48517489433289,-2.13097500801086,-2.50071239471436,-2.74023747444153,-1.8495124578476,0.18645000457764,0.24516250193119,-16.9613132476807,-19.7454128265381,-6.21403741836548,-13.7524747848511,-21.5348377227783,-13.8843374252319,-3.40972495079041,0.9709500670433,1.02404999732971,0.56100004911423,2.49405002593994,11.2600507736206,18.4120502471924,9.34905052185059,-49.0909538269043,-49.0339508056641,-6.69405031204224,26.4439506530762,30.3750019073486,20.814001083374,11.4780006408691,3.30405020713806,1.40505003929138,1.07895004749298,1.64205002784729,3.24405026435852,9.73695087432861,11.2189502716064,4.27905035018921,-27.7440013885498,-46.6549530029297,-37.1160011291504,-24.1560020446777,-14.2360506057739,-6.8430004119873,-3.75300025939941,-2.68005013465881,10.9480504989624,10.4470500946045,10.9360504150391,12.72705078125,16.0969505310059,10.9020004272461,7.77705049514771,10.0159502029419,-8.43405055999756,17.4859504699707,16.4800510406494,10.6819505691528,11.1199502944946,12.318000793457,8.91900062561035,SWING_LEFT
-0.82183748483658,-1.22017502784729,-0.09363749623299,1.95951247215271,3.47874999046326,3.91806244850159,3.95120000839233,-2.74298739433289,-10.849024772644,-7.08138751983643,-0.35461249947548,3.49566245079041,3.27043747901917,3.17336249351501,5.85667514801025,0.23237499594688,0.05981250107288,-0.85084998607635,-2.05796241760254,-3.21090006828308,-3.07917499542236,-1.79767501354218,-0.71128749847412,10.7672128677368,11.5835494995117,0.60004997253418,3.2357873916626,4.87973737716675,-1.36716246604919,-2.97989988327026,-3.75182509422302,-3.94074988365173,-3.92768740653992,-3.27676248550415,-0.98944997787476,2.01148748397827,1.71737504005432,-4.39793729782104,-25.7749252319336,-25.3574752807617,-7.0882625579834,-11.8695497512817,-18.6085624694824,-13.4646873474121,-4.13283729553223,1.95300006866455,2.48700022697449,3.80400013923645,6.30000019073486,15.5899505615234,10.1730003356934,2.41305017471313,-49.4890518188477,-50.4949531555176,-19.7089500427246,28.2360019683838,33.6060028076172,33.3109512329102,5.38695049285889,-8.79300022125244,2.42700004577637,3.81195020675659,6.57300043106079,10.0960502624512,10.9890003204346,15.7750511169434,6.66600036621094,-23.7439517974854,-51.8620529174805,-44.3920516967773,-42.0780029296875,-17.5410003662109,-5.35095024108887,-7.17300033569336,-5.30505037307739,10.8829507827759,8.93595027923584,9.01005077362061,10.2390003204346,13.9849510192871,3.43395018577576,8.73495006561279,14.1589508056641,2.29005002975464,19.1550006866455,18.9570007324219,8.02095031738281,10.9399509429932,10.8379507064819,4.87905025482178,SWING_LEFT
-0.20790000259876,-0.51810002326965,-0.68131250143051,-0.40590000152588,-0.08703749626875,-0.1913999915123,-1.41391253471375,-2.45561242103577,1.22952497005463,-2.03568744659424,-8.98108768463135,-5.9666748046875,-3.20210003852844,-4.56335020065308,-0.42570000886917,-0.49046251177788,-0.57034999132156,-0.54821246862411,-0.79131251573563,-1.84098744392395,-3.66464996337891,-5.16257476806641,-2.78616237640381,10.6838874816895,13.6206121444702,0.73809999227524,-6.35717487335205,8.61024951934814,17.0779132843018,3.26466250419617,-0.521399974823,-0.81496250629425,-1.79355001449585,-3.14682507514954,-3.5127124786377,-2.46372509002686,-0.89182502031326,-6.03391265869141,-19.5761489868164,-20.8245124816895,-10.1745872497559,-9.21126270294189,-21.0275993347168,-22.1381874084473,-10.105975151062,2.77905011177063,2.21895003318787,2.58000016212463,3.85695028305054,7.85895013809204,14.8170003890991,2.90400004386902,-23.5870513916016,-52.3890037536621,-21.7999515533447,0.16095000505447,29.5440006256104,25.2349510192871,19.6570510864258,4.63305044174194,2.58795022964478,2.88195013999939,3.79500007629395,4.54200029373169,5.73705005645752,4.78605031967163,8.48400020599365,11.506950378418,-23.6530513763428,-31.1980514526367,-39.6379508972168,-27.4380016326904,-14.1720008850098,-5.13300037384033,-5.18295001983643,9.8100004196167,9.5179500579834,9.45105075836182,11.403000831604,13.0720510482788,9.81195068359375,11.60205078125,2.45700001716614,-6.52500009536743,42.4039535522461,9.54195022583008,10.0399503707886,3.94005012512207,17.7780017852783,11.053050994873,SWING_LEFT
-0.32161250710487,-0.71197497844696,-0.97762501239777,-0.78828752040863,-0.40149998664856,-1.71050000190735,-2.58004999160767,-2.8136625289917,-8.39684963226318,-3.67193746566772,4.24380016326904,5.21083736419678,3.21694993972778,2.46303749084473,5.50068759918213,0.16307500004768,0.38953748345375,0.12691250443459,-0.9179499745369,-3.01675009727478,-4.97914981842041,-3.69201254844666,4.26483726501465,18.7166366577148,15.6073503494263,3.40642499923706,10.0562000274658,15.0764627456665,6.30451250076294,1.74171245098114,-1.21206247806549,-1.56461250782013,-2.13647508621216,-3.81699991226196,-6.42840003967285,-9.23697471618652,-10.8872499465942,-11.408787727356,-12.2086248397827,-12.2016124725342,-10.2683620452881,-13.7332248687744,-19.6376132965088,-13.3677501678467,-1.64573752880096,3.89805006980896,3.5029501914978,4.22805023193359,5.18400001525879,8.19705009460449,1.54800009727478,-7.3840503692627,-40.3110008239746,-57.234001159668,-5.29095029830933,38.0869522094727,30.4939517974854,18.1000499725342,3.59805011749268,-1.67205011844635,1.39305007457733,1.83300006389618,2.43195009231567,6.4680004119873,4.32405042648315,7.78500032424927,6.78105020523071,-18.9930000305176,-59.6119537353516,-66.3090057373047,-30.4480514526367,-12.0379505157471,-8.7610502243042,-5.06295013427734,-2.60400009155273,10.8760509490967,11.0650501251221,11.1109504699707,11.331000328064,8.12595081329346,11.7930002212524,10.6789503097534,-2.12805008888245,3.13500022888184,16.7820014953613,16.4680500030518,17.4570007324219,14.0800504684448,14.2140007019043,8.41604995727539,SWING_LEFT
0.22769999504089,0.40961250662804,0.17476250231266,-0.04716249927878,0.32436248660088,-0.11701250076294,-0.78196251392365,-2.01561260223389,-6.33820009231567,-4.40054988861084,2.39896249771118,6.24126243591309,5.10826253890991,3.73285007476807,6.3353123664856,0.57818752527237,0.3799124956131,-0.34883749485016,-0.60816252231598,-0.7566624879837,-1.74982500076294,-2.24427509307861,0.5154874920845,16.0393753051758,18.2325000762939,5.72604990005493,12.4079999923706,18.237174987793,6.92518758773804,1.26238751411438,-2.94951248168945,-2.51941251754761,-1.10151255130768,-0.25561249256134,-1.08185005187988,-3.00712490081787,-6.77778768539429,-10.2465000152588,-14.959587097168,-14.093337059021,-8.53792476654053,-12.1207628250122,-18.0694255828857,-13.1147499084473,-1.8156875371933,2.29305005073547,4.0339503288269,3.28200006484985,3.92205023765564,6.11805009841919,3.12900018692017,-1.30995011329651,-37.2619514465332,-53.7930030822754,-22.3750514984131,34.9399528503418,36.5610008239746,18.1819515228271,1.10295009613037,-5.17800045013428,2.0419499874115,2.62800002098084,2.51595020294189,3.10500025749207,4.90905046463013,6.82500028610229,6.58305025100708,-17.8860015869141,-55.9020042419434,-61.2600021362305,-41.4799537658691,-16.4400005340576,-9.56595039367676,-7.05600023269653,-4.27800035476685,10.5240001678467,11.5420503616333,10.1140508651733,11.0959501266479,11.6179504394531,13.6039505004883,10.3900508880615,11.6110506057739,-16.4839515686035,16.4869499206543,13.7449502944946,18.2689514160156,17.8120517730713,13.1530504226685,8.6050500869751,SWING_LEFT
0.31075000762939,-0.0536249987781,-0.26633748412132,-0.19882500171661,0.24144999682903,0.22907499969006,-0.24158750474453,-1.11787497997284,6.36294984817505,8.06519985198975,2.71576237678528,6.48944997787476,4.88138771057129,3.68225002288818,6.65829992294312,-0.690249979496,-0.57337498664856,-1.12255001068115,-2.0905499458313,-3.17281246185303,-3.12015008926392,-0.80795001983643,10.8413248062134,21.559175491333,12.6864376068115,2.85780000686646,13.0882120132446,14.5220623016357,1.52666246891022,-0.82211250066757,-0.65834999084473,-0.65078747272491,-0.1868624985218,0.59785002470016,0.86858749389648,-0.45045000314713,-3.09182500839233,-14.2533874511719,-21.8860130310059,-13.0608501434326,-7.81384992599487,-15.3329000473022,-18.4113864898682,-10.3153877258301,-2.06731247901917,1.4719500541687,3.85200023651123,4.94700002670288,8.97300052642822,10.2589502334595,5.13600015640259,-7.91400051116943,-66.9340515136719,-56.805004119873,-2.4100501537323,31.045051574707,35.8930511474609,22.488000869751,7.4850001335144,-2.0310001373291,1.35900008678436,1.48605012893677,0.98505002260208,2.28795003890991,2.08695006370544,3.92700028419495,2.61195015907288,-21.760950088501,-47.5009536743164,-52.7509536743164,-36.7609519958496,-20.6500511169434,-8.89800071716309,-6.85200023651123,-5.47305011749268,11.8240509033203,12.6889505386353,12.8950510025024,13.0459508895874,12.3700504302979,10.2480001449585,11.451000213623,-13.3440008163452,19.2319507598877,-7.79505014419556,16.8130512237549,11.1150007247925,13.8169507980347,11.2210502624512,5.42700004577637,SWING_LEFT
0.56416249275208,0.56031250953674,0.31075000762939,0.11027500033379,0.45622500777245,0.05747500061989,-1.36839997768402,-1.03207504749298,5.74722480773926,7.29478740692139,2.30821251869202,5.3816123008728,6.58033752441406,3.91366243362427,5.07856225967407,0.8787624835968,0.21477499604225,-1.02355003356934,-1.24643754959106,-0.28737500309944,0.56746250391006,2.12630009651184,5.61921262741089,15.2194623947144,14.3554124832153,3.94432497024536,4.76313734054565,10.8416004180908,5.77719974517822,-2.43966245651245,-0.72916251420975,-0.6931374669075,-0.53102499246597,-0.64184999465942,-1.17383754253387,-1.94796252250671,-4.3752498626709,-14.029125213623,-23.1301116943359,-15.7601127624512,-6.7783374786377,-10.633150100708,-18.9319629669189,-16.5790615081787,-5.86176252365112,3.98205018043518,4.76700019836426,5.95995044708252,3.97395014762878,4.58505010604858,0.82005006074905,-6.29700040817261,-32.544002532959,-53.2660522460938,-30.7500019073486,9.86805057525635,28.8829517364502,29.8170013427734,17.0149517059326,5.58600044250488,0.8029500246048,2.17095017433167,0.25005000829697,3.05505013465881,2.92995023727417,0.20205001533031,2.30505013465881,-3.48705005645752,-31.7770519256592,-35.1880531311035,-35.0269508361816,-25.5000019073486,-15.8389511108398,-7.97295045852661,-4.921950340271,10.6669502258301,11.4940509796143,11.7640504837036,10.9429502487183,12.1429510116577,12.7369508743286,10.0639505386353,3.19005012512207,-0.94695001840591,9.19005012512207,9.29805088043213,13.0620002746582,12.8230504989624,12.6409502029419,10.8420009613037,SWING_LEFT
0.30827498435974,-0.08662500232458,-0.55206251144409,-0.28036248683929,0.30030000209808,0.70083749294281,0.41538751125336,-0.26317501068115,0.90406250953674,-0.55054998397827,-3.62202501296997,-2.6195125579834,-3.59301257133484,-2.21017503738403,4.58218765258789,0.11646249890327,-1.10440003871918,-1.01639997959137,-0.62809997797012,0.01636249944568,0.63634997606277,0.92908751964569,2.05741238594055,10.772162437439,12.1215877532959,1.49077498912811,-1.41624999046326,20.8822631835938,19.2402381896973,-2.51405000686646,-1.74638748168945,-1.12117505073547,-1.1640750169754,-1.15953743457794,-0.67553746700287,-0.97391247749329,-4.94092512130737,-13.5090999603271,-19.4422245025635,-13.6633749008179,-5.95650005340576,-10.3314752578735,-22.1737995147705,-18.3915882110596,-4.43341255187988,3.19095015525818,2.79105019569397,3.77100014686584,1.89105010032654,1.33695006370544,0.66195005178452,-2.83605003356934,-35.048999786377,-54.9109535217285,-23.1720008850098,16.230001449585,37.0519523620605,27.9679508209229,8.9800500869751,-1.31295001506805,0.82695001363754,1.64205002784729,1.80195009708405,1.71600008010864,1.76895010471344,3.8209502696991,3.26595020294189,-12.1429510116577,-36.6580505371094,-39.0850524902344,-38.626953125,-28.1659507751465,-16.4710502624512,-7.64505052566528,-3.10200023651123,12.598051071167,13.6249504089355,10.9860000610352,9.91305065155029,10.0780506134033,11.1870002746582,11.6760005950928,24.8170509338379,1.02795004844666,21.610050201416,10.0710000991821,6.62700033187866,10.4380502700806,11.2060508728027,9.25395011901855,SWING_LEFT
-1.39163744449615,-0.88440001010895,-0.96318751573563,-0.65656250715256,-2.33832502365112,-5.19777488708496,-3.78290009498596,-4.49377489089966,-10.342887878418,-9.52311229705811,-5.60615015029907,-3.099524974823,-7.84973764419556,0.21532499790192,13.2362995147705,-5.38078737258911,-1.75023746490479,-2.02482509613037,-2.71370005607605,-6.8451623916626,-11.8541498184204,-7.85785007476807,4.82831239700317,17.6567878723145,11.8567628860474,-0.77371251583099,-2.16974997520447,13.8210878372192,9.21978759765625,-6.3090500831604,-17.9573631286621,-3.91393756866455,-2.97000002861023,-4.50532484054565,-13.6147003173828,-19.5952625274658,-10.277850151062,-6.28182506561279,-7.78634977340698,-6.04724979400635,-6.24277496337891,-11.6237001419067,-20.1401748657227,-14.307149887085,-3.23331236839294,1.20600008964539,1.68900012969971,2.45295000076294,3.99300026893616,9.62700080871582,11.6650505065918,-4.21605014801025,-62.6590538024902,-38.0020523071289,-6.18195009231567,24.6649513244629,32.3530502319336,25.3879508972168,14.3350505828857,6.49905014038086,2.5729501247406,2.69295001029968,3.60795021057129,4.5130500793457,7.08105039596558,6.58500051498413,4.6210503578186,-15.9490509033203,-59.5140037536621,-36.730052947998,-30.8149509429932,-18.4969501495361,-8.2369499206543,-3.07305026054382,-1.55505001544952,9.80805015563965,11.0650501251221,10.57200050354,10.6720504760742,11.2330503463745,10.5289506912231,17.998950958252,27.9430503845215,4.8120002746582,27.3270015716553,-1.54395008087158,5.79600048065186,7.86000061035156,9.32400035858154,8.39895057678223,SWING_LEFT
-0.03519999980927,-0.40328750014305,-0.01031249947846,0.14176249504089,-0.34457498788834,-0.98326247930527,-0.10807500034571,-0.67526251077652,-7.74922513961792,-7.78868722915649,-2.3347499370575,-1.82105004787445,-1.41707503795624,15.0239372253418,18.7452373504639,-0.72888749837875,0.07479999959469,0.64913749694824,0.22769999504089,-0.512875020504,-2.00392508506775,-3.86704993247986,0.4808374941349,16.7859992980957,15.5157747268677,0.78251248598099,-4.68407487869263,-8.88923740386963,-20.0582256317139,-14.4735250473022,-2.17593741416931,-2.98210000991821,-3.82332491874695,-3.42223739624023,-2.14018750190735,-1.95236253738403,-3.27566242218018,-3.70878744125366,-3.74508738517761,-5.92185020446777,-6.71164989471436,-10.2672624588013,-12.2515249252319,-5.3237247467041,-2.17318749427795,2.65905022621155,0.87300002574921,2.4100501537323,2.77005004882813,3.8209502696991,8.11305046081543,3.57000017166138,-39.8029518127441,-47.5150527954102,-13.6260004043579,19.3240509033203,25.9770011901855,25.7520008087158,12.8569507598877,1.91205012798309,3.49995017051697,4.67895030975342,4.27605009078979,4.23795032501221,5.4810004234314,8.87505054473877,9.46395015716553,-17.8309516906738,-29.6310005187988,-24.5350513458252,-30.7429523468018,-16.5310516357422,-7.26405048370361,-5.26005029678345,-4.764000415802,9.07695007324219,8.50500011444092,8.33700084686279,11.4480009078979,14.2050008773804,9.52500057220459,13.5340509414673,14.5399503707886,7.60395050048828,30.5770511627197,6.17400026321411,0.81900006532669,5.68095016479492,9.93000030517578,10.9090509414673,SWING_LEFT
-1.03509998321533,0.05623750016093,1.23227500915527,0.89319998025894,-0.28036248683929,-1.40373754501343,-2.73405003547668,-2.61731243133545,-3.05277490615845,-10.1501121520996,-9.44954967498779,-3.15397500991821,-2.27548742294312,2.43814992904663,7.6452751159668,1.48224997520447,0.85497498512268,-0.02474999986589,-1.28163754940033,-3.06789994239807,-5.24919986724854,-6.40241241455078,-2.94016242027283,12.3340253829956,22.227424621582,11.1597747802734,-0.36533749103546,-28.1601371765137,-28.9546127319336,-2.65292501449585,3.17831254005432,2.02221250534058,0.69451248645782,-0.5185124874115,-1.83424997329712,-3.63412499427795,-5.4064998626709,-6.38453769683838,-6.90786266326904,-6.4288125038147,-6.94374990463257,-9.76414966583252,-11.77769947052,-12.9120750427246,-8.23831272125244,0.31695002317429,0.23805001378059,1.78500008583069,4.32405042648315,8.08200073242188,13.6099510192871,7.62195014953613,-15.151050567627,-67.678955078125,-39.5299530029297,10.7470502853394,37.3270530700684,32.6569519042969,17.6119499206543,5.19300031661987,2.42700004577637,2.78400015830994,2.47005009651184,2.70300006866455,3.28695011138916,4.02195024490356,4.79100036621094,9.87795066833496,-21.5940017700195,-55.2940521240234,-47.1340522766113,-22.2790508270264,-12.2440509796143,-6.8860502243042,-4.56795024871826,9.6040506362915,11.5819501876831,9.91500091552734,11.6250009536743,13.0939502716064,12.0090007781982,12.1690502166748,13.3500003814697,-2.09205007553101,9.13500022888184,-1.01700007915497,9.26595020294189,10.0639505386353,13.7760009765625,9.66405010223389,SWING_LEFT
-0.73548752069473,-0.82279998064041,-0.77866250276566,-1.09298753738403,-1.97188746929169,-1.83521246910095,0.13255000114441,0.345124989748,-8.925537109375,-9.60808753967285,-3.29436254501343,-5.07457494735718,3.10502505302429,11.4687376022339,18.5032367706299,-0.20927499234676,-0.11852499842644,-0.66605001688004,-2.49301242828369,-4.51357507705688,-4.71226263046265,-2.46028757095337,7.69463729858398,22.3680877685547,15.2838125228882,-0.5711749792099,-13.4142246246338,-28.6921253204346,-20.1056632995605,-6.16412496566772,-1.40332496166229,-1.9629499912262,-2.78079986572266,-4.05102491378784,-4.7933874130249,-4.19718742370605,-3.49002504348755,-2.9383749961853,-2.58816242218018,-4.48470020294189,-6.33366250991821,-9.26736259460449,-9.55735015869141,-5.62897491455078,0.50819998979568,2.7480001449585,2.83905005455017,4.63305044174194,8.24205017089844,11.3749504089355,9.01800060272217,-1.46595001220703,-55.1359519958496,-50.428050994873,-2.32395005226135,26.767951965332,29.8090515136719,21.7429504394531,10.3429508209229,1.98900008201599,2.22405004501343,2.43900012969971,2.50395011901855,3.61005020141602,4.27095031738281,7.23900032043457,7.57395029067993,-18.2050514221191,-38.3710517883301,-30.9510021209717,-23.6629505157471,-16.0920009613037,-7.38705015182495,-2.00999999046326,-0.21600000560284,9.5440502166748,9.06300067901611,9.46500015258789,10.5499505996704,13.5390005111694,8.96505069732666,6.12600040435791,14.8560009002686,13.3159503936768,12.9120006561279,2.3779501914978,6.23400020599365,8.08095073699951,8.41095066070557,10.5409507751465,SWING_LEFT
-0.68392497301102,-0.80327498912811,-0.59702497720718,-0.04509999975562,0.79172497987747,2.01410007476807,2.73294997215271,1.37555003166199,-10.4538497924805,-14.2870750427246,-6.09427499771118,-5.74158763885498,0.25258749723434,7.33796262741089,9.58815002441406,-0.13131250441074,0.58300000429153,0.46750000119209,0.02474999986589,-1.39342498779297,-5.40718746185303,-6.91157484054565,-2.19505000114441,19.5489253997803,21.9282245635986,1.8709625005722,-13.9433250427246,-31.6912746429443,-21.147912979126,-1.86175000667572,-0.72916251420975,-1.9186749458313,-3.90513753890991,-4.99523735046387,-4.77207517623901,-3.45166254043579,-0.69148749113083,0.90846252441406,-1.06424999237061,-4.48937511444092,-5.25964975357056,-7.39914989471436,-8.82983779907227,-6.98169994354248,-2.6831750869751,1.99095010757446,1.24905002117157,1.0069500207901,1.37595009803772,8.42400074005127,20.2770004272461,14.7540006637573,-43.9900512695313,-61.7320518493652,-14.2909507751465,28.3170013427734,32.0340003967285,22.4730014801025,10.4650506973267,1.98900008201599,1.98900008201599,2.73105001449585,2.89005017280579,4.00305032730103,8.25195026397705,12.1320009231567,13.0990505218506,-23.7250518798828,-44.0950508117676,-39.1039505004883,-30.5220012664795,-15.3859510421753,-8.12700080871582,-3.83895015716553,-2.43600010871887,10.1290502548218,10.3680000305176,10.0570507049561,9.8700008392334,13.0669507980347,12.9019508361816,9.5710506439209,26.5939521789551,-6.68805027008057,21.5310001373291,1.21695005893707,8.79705047607422,11.2570505142212,10.0140008926392,9.83205032348633,SWING_LEFT
-1.65302503108978,-2.43581247329712,-2.78189992904663,-2.57248759269714,-1.63102495670319,-0.70276248455048,-0.65752500295639,-0.78237497806549,-9.74146270751953,-8.87576198577881,-5.44596242904663,-18.4020366668701,-12.418999671936,6.00435018539429,11.1027126312256,-0.35832500457764,-0.48743748664856,-0.72503751516342,-0.68296247720718,-0.96731251478195,-2.22928738594055,-3.01248741149902,2.95501255989075,23.3704624176025,20.3937244415283,-0.31624999642372,-21.1303119659424,-23.6453247070313,-6.14377498626709,-4.05432510375977,-4.07591247558594,-5.47208738327026,-6.51433753967285,-6.4306001663208,-5.53079986572266,-4.38831233978271,-2.60136246681213,-0.88261246681213,1.99127495288849,-0.99866247177124,-5.95870018005371,-8.9923620223999,-15.0786628723145,-12.4975128173828,-3.15576243400574,4.30695009231567,4.36695003509521,3.90495014190674,4.65705013275146,7.96200037002563,11.2579507827759,3.4740002155304,-38.9460029602051,-54.9090042114258,-20.2890014648438,10.2400503158569,27.810001373291,59.5200042724609,12.3780002593994,-3.57105016708374,1.71405005455017,1.61295008659363,2.0460000038147,2.581050157547,4.49700021743774,4.15904998779297,0.85605001449585,-5.00595045089722,-50.2140007019043,-27.4380016326904,-35.8660507202148,-23.3299503326416,-18.1429500579834,-8.64600086212158,-2.09595012664795,9.39300060272217,10.5690002441406,10.0930500030518,10.6099500656128,10.782000541687,13.8000001907349,12.5479507446289,1.62900006771088,-8.61105060577393,-8.60700035095215,5.37000036239624,13.6039505004883,20.4199504852295,10.4260501861572,9.8700008392334,SWING_LEFT
-0.47973749041557,-0.58410000801086,-0.89952498674393,-1.11801254749298,-0.80148750543594,0.35268750786781,1.42738747596741,1.63625001907349,-10.333812713623,-9.39028739929199,2.08037495613098,-2.94978737831116,-1.56529998779297,5.01214981079102,9.32593727111816,0.89581251144409,-0.71307498216629,-1.43439996242523,-1.03014993667603,-0.9256500005722,-3.20842504501343,-4.06587505340576,1.29992496967316,23.6185131072998,23.2397003173828,2.71026253700256,-16.6060123443604,-33.5355606079102,-18.2316741943359,-2.27246260643005,-3.78675007820129,-4.90517520904541,-5.06440019607544,-4.29426240921021,-3.54392504692078,-3.77423739433289,-3.26067495346069,-1.9013500213623,-0.48441249132156,-3.61047506332397,-7.14216232299805,-6.70037508010864,-7.69175004959106,-7.97335004806519,-2.86934995651245,3.33000016212463,3.2989501953125,2.82495021820068,3.06900024414063,9.01800060272217,12.3090009689331,2.91795015335083,-40.8930015563965,-48.555004119873,-14.2459506988525,20.6320514678955,26.9950504302979,24.6220512390137,14.8500003814697,4.4370002746582,1.53405010700226,1.58700013160706,1.37295007705688,1.70895004272461,6.05805015563965,7.65300035476685,7.36800050735474,-15.621000289917,-45.1030540466309,-35.521053314209,-25.6530017852783,-15.9940509796143,-11.1280508041382,-3.93495011329651,-3.65505027770996,10.6150503158569,9.89100074768066,9.75495052337646,10.3969507217407,13.6320009231567,15.4690504074097,7.78605031967163,4.86705017089844,-5.98695039749146,17.8930511474609,3.11400008201599,7.389000415802,10.9240503311157,15.1560010910034,8.94795036315918,SWING_LEFT
-0.05115000158548,0.22673749923706,-0.06022499874234,-0.56581246852875,0.46708750724792,3.35073757171631,2.6166250705719,-1.50342500209808,-11.5321245193481,-12.4250497817993,-3.94597506523132,-0.11233749985695,13.6027374267578,18.1292381286621,10.4368000030518,0.86116248369217,1.05132496356964,0.76697498559952,0.3436124920845,-0.05541250109673,-2.31233739852905,-6.01534986495972,-2.04723739624023,16.5801620483398,17.9892616271973,2.24963760375977,-5.17220020294189,-29.9254989624023,-29.2230129241943,-4.52911233901978,-0.6681125164032,-0.52703750133514,-0.85318750143051,-1.75381243228912,-3.5011625289917,-4.88276243209839,-3.24472498893738,-3.00561237335205,-8.31599998474121,-8.17080020904541,-5.4617748260498,-10.6090869903564,-2.14486241340637,3.99891257286072,-0.09844999760389,2.3860502243042,2.13000011444092,2.43195009231567,1.53105008602142,3.83505010604858,12.2560501098633,5.62905025482178,-41.6550025939941,-51.0000038146973,-4.84305000305176,18.5410499572754,30.5020523071289,33.6199531555176,10.6369504928589,0.45795002579689,2.47500014305115,1.45695006847382,1.732950091362,3.25800013542175,11.0230503082275,11.0850009918213,2.57805013656616,-12.3150005340576,-37.2090034484863,-32.0940017700195,-24.9559516906738,-12.2440509796143,-8.96505069732666,-4.54605007171631,-1.87095010280609,8.93595027923584,10.8060007095337,10.7250003814697,11.7240009307861,12.8470506668091,10.6360502243042,10.7059507369995,11.6179504394531,-4.72695016860962,10.8259506225586,18.9610500335693,11.8980007171631,14.63805103302,10.9690504074097,8.25300025939941,SWING_LEFT
-0.66206252574921,-1.07882499694824,-0.62796247005463,0.91299998760223,2.39098739624023,3.15878748893738,3.39707493782043,1.60269999504089,-9.51912498474121,-15.3448619842529,-6.76472473144531,-1.10137498378754,8.25508785247803,22.9079132080078,22.9077739715576,0.48551249504089,0.52607500553131,0.68351250886917,0.89705002307892,-0.63318747282028,-3.31361246109009,-4.02489995956421,-0.85332500934601,12.7855749130249,14.6911878585815,2.31618738174438,-4.10767507553101,-17.5382633209229,-26.910400390625,-14.8858871459961,-2.5694625377655,-2.51391243934631,-2.22090005874634,-1.90836250782013,-1.71668744087219,-1.47647500038147,-1.7048624753952,-4.11798763275146,-9.3373498916626,-9.64974975585938,-6.33338737487793,-8.72753715515137,-8.77690029144287,1.17122495174408,5.67888736724854,1.53105008602142,0.75105005502701,-0.01005000062287,1.39995002746582,6.81195020675659,6.61800050735474,-0.11505000293255,-25.606050491333,-47.920051574707,-13.278000831604,14.0929508209229,29.8050022125244,28.2670516967773,15.399001121521,5.98395013809204,0.33195000886917,0.93495005369186,2.51805019378662,5.05005025863647,6.30000019073486,12.3499507904053,10.2900009155273,-9.82200050354004,-37.1689529418945,-30.6109523773193,-22.1280002593994,-13.3909502029419,-6.7900505065918,-1.36305010318756,-0.89400005340576,9.98700046539307,10.4659509658813,10.8139505386353,11.1580505371094,13.6879510879517,9.01005077362061,11.2879505157471,13.7550010681152,-2.77500009536743,14.3610010147095,12.2410507202148,10.8810005187988,9.5779504776001,11.8290004730225,10.7509508132935,SWING_LEFT
-0.12526249885559,-0.28998750448227,-0.18424999713898,0.28159999847412,1.99663746356964,3.60634994506836,2.13179993629456,-2.25568747520447,-11.8328371047974,-17.5693378448486,-5.91181230545044,7.08193731307983,5.66843748092651,2.29432487487793,6.40887498855591,0.29809999465942,0.37028750777245,0.03327500075102,-0.7206375002861,-1.90836250782013,-3.5593249797821,-4.07109975814819,-1.18153750896454,14.3749370574951,19.0102005004883,7.87173748016357,9.07431221008301,19.321361541748,11.7844371795654,-1.44691252708435,-0.02268750034273,-0.10642500221729,-0.04633750021458,0.01237499993294,-0.14794999361038,0.06751249730587,1.17727494239807,-1.69661247730255,-5.7239875793457,-2.84143757820129,-3.09264993667603,-9.97053718566895,-20.5313625335693,-20.4649505615234,-6.99888753890991,1.81605005264282,2.06595015525818,2.68800020217896,4.98705005645752,10.3090505599976,20.8159503936768,4.05600023269653,-25.1890506744385,-53.3490028381348,-31.3819522857666,14.3760004043579,35.8710021972656,34.639949798584,17.3170509338379,0.15195000171661,1.25100004673004,1.46895003318787,1.9080001115799,4.26405000686646,11.671950340271,8.07000064849854,4.05600023269653,-7.67595052719116,-36.3090019226074,-45.6829528808594,-33.1860008239746,-15.2539510726929,-9.05100059509277,-4.36395025253296,-3.28605008125305,9.94695091247559,10.2169504165649,10.5190505981445,11.9419507980347,11.7000007629395,17.6560516357422,10.9309501647949,18.6790504455566,-12.6330003738403,12.9520502090454,10.9170007705688,8.53800010681152,11.0080509185791,13.7160005569458,11.1660003662109,SWING_LEFT
-0.13695000112057,-0.08456250280142,-0.0369874984026,-0.02323750033975,0.29287499189377,1.12323749065399,1.02740001678467,-0.79626250267029,-9.71959972381592,-16.0655002593994,-4.72353744506836,2.68826246261597,-0.33536249399185,-11.2223377227783,-5.87798738479614,0.63414996862411,0.46213749051094,-0.06366249918938,-0.56732499599457,-1.79836249351501,-4.07852506637573,-4.70621252059937,-0.01347499992698,18.4344882965088,21.3767127990723,6.63712501525879,1.53367495536804,-0.1220999956131,18.9565753936768,16.8254623413086,-0.68199998140335,-0.7148625254631,-0.66233748197556,-0.60390001535416,-0.74236249923706,-1.11966252326965,-1.80647504329681,-3.12688755989075,0.95136249065399,2.80816245079041,-3.68348741531372,-9.56518745422363,-16.0484504699707,-19.7198371887207,-11.3415498733521,2.68095016479492,3.14100003242493,3.12600016593933,5.34195041656494,11.2480506896973,13.9570503234863,5.38005018234253,-26.8960514068604,-53.7330017089844,-31.8540019989014,2.27895021438599,31.3420505523682,32.5009498596191,18.8070011138916,3.39705014228821,1.66605007648468,1.93395006656647,1.74195003509521,2.66895008087158,4.85805034637451,7.84695053100586,5.37600040435791,-6.63705015182495,-24.166051864624,-36.6990013122559,-35.7169532775879,-30.6799507141113,-16.068000793457,-7.99005031585693,-5.07495021820068,9.89895057678223,9.68805027008057,9.88695049285889,10.6440000534058,12.3870010375977,10.2319507598877,10.6200008392334,14.4679508209229,-2.06295013427734,17.0839500427246,4.921950340271,1.08495008945465,9.91800022125244,9.77895069122314,11.0239505767822,SWING_LEFT
-0.1545500010252,-0.52593749761581,-0.72792500257492,-0.35365000367165,0.65766251087189,0.09253749996424,-4.56554985046387,-8.75476264953613,-16.6490497589111,-13.2489500045776,2.63106250762939,7.77589988708496,4.49088764190674,4.50724983215332,8.98067474365234,-0.80134999752045,-0.29452499747276,-0.25712499022484,-1.27393746376038,-3.70933747291565,-5.4051251411438,-3.46994996070862,6.80707502365112,21.4620990753174,14.9208126068115,3.87763738632202,4.17614984512329,11.5570125579834,7.28186225891113,-4.21836233139038,0.04317500069737,-0.03684999793768,-0.41703748703003,-0.84768748283386,-1.33127498626709,-1.44746243953705,-3.40422487258911,-5.29498767852783,4.05982494354248,5.2542872428894,-4.99537515640259,-11.2935628890991,-19.3044490814209,-15.0261373519897,-2.74862504005432,3.1360502243042,3.81405019760132,5.35095024108887,11.4060001373291,15.7309503555298,10.7640008926392,-6.04800033569336,-40.2529525756836,-48.6619529724121,-23.8570518493652,15.2860507965088,32.0419502258301,28.1089515686035,14.0290508270264,-5.34105014801025,1.82895004749298,2.0749499797821,2.47500014305115,4.51800012588501,7.2460503578186,0.06105000153184,-0.50295001268387,-11.5039501190186,-31.4010009765625,-32.661003112793,-30.1390514373779,-22.2240009307861,-10.6579504013062,-3.07305026054382,-0.61800003051758,9.95595073699951,10.1170501708984,13.1460008621216,9.85995006561279,12.4729509353638,11.0820007324219,11.2930507659912,1.98600006103516,2.44800019264221,11.6299505233765,7.48905038833618,16.4950504302979,18.8110504150391,7.96605014801025,9.84105014801025,SWING_LEFT
-0.04289999976754,0.14836250245571,0.10064999759197,-0.1127500012517,-0.83242499828339,-1.28053748607636,-1.95552504062653,-2.24152493476868,-8.5479621887207,-10.25901222229,-2.92462491989136,-2.96504998207092,-6.59876251220703,0.56209999322891,12.5654373168945,-0.73796248435974,-1.79313743114471,-2.6108500957489,-2.89684987068176,-2.64715003967285,-1.47839999198914,1.66773748397827,9.82973766326904,17.5355129241943,12.3323745727539,2.92558741569519,-5.09808731079102,-29.2939624786377,-29.1622371673584,-9.13990020751953,0.10491249710321,0.00288749998435,-0.72146248817444,-2.0092875957489,-3.0552499294281,-3.90774989128113,-4.76602506637573,-5.32248735427856,-3.23895001411438,-2.27301239967346,-4.81745004653931,-7.60003757476807,-5.4033374786377,-4.76203727722168,-1.86669993400574,5.04705047607422,7.15005016326904,7.3560004234314,7.71300029754639,5.53305006027222,3.15495014190674,-5.53995037078857,-32.7430534362793,-41.7739524841309,-32.7400512695313,4.37700033187866,29.0770511627197,28.4470520019531,16.0139999389648,-3.09000015258789,1.57200002670288,2.21205019950867,3.19395017623901,2.80995011329651,3.28200006484985,4.00800037384033,2.14200019836426,-7.32900047302246,-23.6890506744385,-30.3070507049561,-34.0139999389648,-25.2270011901855,-13.4200506210327,-8.1739501953125,-4.00200033187866,11.0460004806519,11.8170003890991,10.135950088501,9.10605049133301,8.49795055389404,9.97305011749268,12.5119504928589,7.9200005531311,3.03495025634766,9.52695083618164,9.84105014801025,11.5390501022339,15.2130002975464,14.4130506515503,9.85095024108887,SWING_LEFT
-1.97119998931885,-1.41336250305176,-0.45925000309944,0.69905000925064,1.39479994773865,3.04644989967346,3.75526237487793,0.75762498378754,-7.73148727416992,-13.1231374740601,-8.74073791503906,-4.40577507019043,-3.23853754997253,1.73511254787445,8.65480041503906,-0.21559999883175,0.8760125041008,1.19638752937317,0.3783999979496,-1.36606252193451,-3.04782509803772,-3.40243744850159,1.01076245307922,13.034725189209,16.2050628662109,5.94770002365112,-2.62693738937378,-22.4915618896484,-23.8537750244141,-6.69597482681274,-5.12558746337891,-5.17618751525879,-4.63814973831177,-3.39528751373291,-1.51016247272491,0.46777498722076,1.9267874956131,0.29466250538826,-3.23565006256104,-3.6125373840332,-3.7571873664856,-7.69573736190796,-5.86877489089966,-4.76135015487671,-3.3379499912262,0.60495001077652,-0.39105001091957,-0.04605000093579,1.50000011920929,4.42200040817261,9.72195053100586,4.46805000305176,-26.3460006713867,-47.7240028381348,-25.9909515380859,5.26995038986206,25.7190017700195,20.1769504547119,11.7769508361816,1.05705010890961,1.80495011806488,2.76300024986267,3.36600017547607,3.9190502166748,9.05205059051514,10.2180004119873,6.98505020141602,-3.5310001373291,-26.7220516204834,-27.9259510040283,-30.7930507659912,-21.5839519500732,-12.481050491333,-6.80505037307739,-5.07495021820068,9.16305065155029,9.66600036621094,9.74295043945313,10.9140005111694,9.19200038909912,13.5180006027222,18.4969501495361,21.9550514221191,1.66695010662079,11.9850006103516,11.731050491333,5.96595048904419,13.278000831604,13.3399505615234,10.4419507980347,SWING_LEFT
-1.22979998588562,-1.19267499446869,-0.18906250596046,1.40786254405975,1.77512502670288,-0.20226250588894,-2.43677496910095,-2.6090624332428,-6.6470251083374,-12.9277496337891,-7.66095018386841,0.86322498321533,2.57675004005432,5.57548761367798,9.74256229400635,-0.70166248083115,-0.34319999814034,-0.29713749885559,-1.09917497634888,-2.22323751449585,-1.91358745098114,-0.93211251497269,4.03919982910156,16.0111865997314,13.9720621109009,2.18006253242493,-1.54508745670319,5.10510015487671,1.63129997253418,-5.99238729476929,-3.54378747940063,-4.36961269378662,-5.12366247177124,-5.56283760070801,-4.79517507553101,-3.78069996833801,-4.60198736190796,-6.87293767929077,-5.09327507019043,-3.21749997138977,-5.93931245803833,-10.3241872787476,-17.4282627105713,-14.4894752502441,-3.90527486801147,4.21605014801025,3.507000207901,2.69100022315979,4.83900022506714,5.68695020675659,3.8950502872467,-3.48000025749207,-25.9410018920898,-39.3649520874023,-21.8770503997803,8.3929500579834,30.0730514526367,30.7050018310547,13.4110507965088,-0.06495000422001,0.33600002527237,2.02500009536743,4.61400032043457,4.6210503578186,3.34200024604797,4.99200010299683,4.63995027542114,-2.38800001144409,-24.8149509429932,-27.9090003967285,-29.0110511779785,-20.9689502716064,-9.10395050048828,-3.10905003547668,-4.01894998550415,12.4489507675171,9.83400058746338,8.85195064544678,8.37795066833496,12.7390508651733,13.2250509262085,13.1460008621216,8.84700012207031,-5.79000043869019,19.3810501098633,8.21505069732666,9.87705039978027,9.87900066375732,14.7030010223389,11.7259502410889,SWING_LEFT
0.04042499884963,0.18383750319481,-0.08249999582767,-0.33082500100136,0.41139999032021,0.8093249797821,-1.98989999294281,-4.08828735351563,-0.03258749842644,7.62134981155396,-13.8835124969482,-18.3378257751465,-2.33241248130798,-4.98423767089844,1.86766254901886,-1.09078752994537,-1.76398754119873,-1.16311252117157,-0.8289874792099,-1.56983745098114,-3.69448757171631,-4.91246271133423,-0.42129999399185,16.2109756469727,16.1441497802734,-9.99803733825684,-15.2451753616333,4.73508739471436,9.66941261291504,2.22433757781982,-5.82216262817383,-5.61288738250732,-4.26854991912842,-2.55145001411438,-1.46025002002716,-0.88494998216629,-3.23729991912842,-8.59388732910156,-18.4893493652344,-18.2950630187988,-3.04411244392395,-5.39536237716675,-23.6248378753662,-22.1318626403809,-6.85341262817383,2.80800008773804,1.75200009346008,3.28005003929138,3.88800024986267,8.25405025482178,11.2429504394531,-3.59505009651184,-40.0620002746582,-40.3470001220703,-15.1489505767822,15.6520509719849,26.8680019378662,14.7499504089355,9.68205070495605,2.32695007324219,3.41205024719238,4.81800031661987,4.47000026702881,5.21700048446655,9.8899507522583,5.98605012893677,6.59205007553101,-7.3410005569458,-33.9829521179199,-25.4740505218506,-28.3810520172119,-9.56805038452148,-6.97905015945435,-1.40595006942749,-1.89495003223419,8.45700073242188,10.2630004882813,9.59700012207031,9.50595092773438,10.81605052948,13.5990009307861,7.5799503326416,7.98705053329468,2.31600022315979,25.4730014801025,12.7870502471924,11.3520002365112,11.7480001449585,13.2400503158569,10.5499505996704,SWING_LEFT
