gyro_x_0,gyro_y_0,gyro_z_0,acc_x_0,acc_y_0,acc_z_0,gyro_x_1,gyro_y_1,gyro_z_1,acc_x_1,acc_y_1,acc_z_1,gyro_x_2,gyro_y_2,gyro_z_2,acc_x_2,acc_y_2,acc_z_2,gyro_x_3,gyro_y_3,gyro_z_3,acc_x_3,acc_y_3,acc_z_3,gyro_x_4,gyro_y_4,gyro_z_4,acc_x_4,acc_y_4,acc_z_4,gyro_x_5,gyro_y_5,gyro_z_5,acc_x_5,acc_y_5,acc_z_5,gyro_x_6,gyro_y_6,gyro_z_6,acc_x_6,acc_y_6,acc_z_6,gyro_x_7,gyro_y_7,gyro_z_7,acc_x_7,acc_y_7,acc_z_7,gyro_x_8,gyro_y_8,gyro_z_8,acc_x_8,acc_y_8,acc_z_8,gyro_x_9,gyro_y_9,gyro_z_9,acc_x_9,acc_y_9,acc_z_9,gyro_x_10,gyro_y_10,gyro_z_10,acc_x_10,acc_y_10,acc_z_10,gyro_x_11,gyro_y_11,gyro_z_11,acc_x_11,acc_y_11,acc_z_11,gyro_x_12,gyro_y_12,gyro_z_12,acc_x_12,acc_y_12,acc_z_12,gyro_x_13,gyro_y_13,gyro_z_13,acc_x_13,acc_y_13,acc_z_13,gyro_x_14,gyro_y_14,gyro_z_14,acc_x_14,acc_y_14,acc_z_14,motion_type
-0.02777500078082,-0.26124998927116,-0.5543999671936,-0.34058749675751,0.03203750029206,-0.40411248803139,1.03633749485016,2.41807508468628,0.51947498321533,0.67581248283386,4.17119979858398,7.42087507247925,7.41963768005371,1.69716250896454,-0.82445001602173,0.36616250872612,0.38458749651909,0.15358750522137,-0.06132499873638,-0.37661248445511,-0.9288125038147,-1.00333750247955,-2.78217506408691,1.21770000457764,4.72037506103516,5.93958759307861,2.42604994773865,-1.87316250801086,-2.18954992294312,-0.55123752355576,1.4276624917984,1.30913746356964,1.31889998912811,1.58042502403259,1.59500002861023,1.50961244106293,1.53642499446869,-3.69256258010864,-11.8791751861572,-17.3328380584717,-16.29567527771,-10.7027254104614,-7.30509996414185,-1.5361499786377,4.00180006027222,-0.77295005321503,-1.27095007896423,-1.7980500459671,-1.96995007991791,0.34605002403259,2.34300017356873,19.3540515899658,46.1779518127441,52.0750541687012,37.2469520568848,16.9530010223389,4.60305023193359,-6.45000028610229,-22.1400012969971,-11.7769508361816,0.59295004606247,0.61005002260208,0.2119500041008,0.87300002574921,0.90000003576279,0.7579500079155,3.25800013542175,8.18505001068115,-7.07505035400391,-34.9590034484863,-48.4980010986328,-44.5480537414551,-41.1259536743164,-23.2789516448975,-12.7729501724243,8.55195045471191,8.26005077362061,9.55005073547363,10.8910503387451,10.2709503173828,12.7180509567261,18.7540512084961,19.3170013427734,13.6330509185791,15.0280504226685,9.7300500869751,6.2989501953125,-5.80995035171509,-4.95795011520386,2.52105021476746,SWING_RIGHT
-0.18548749387264,-0.29782500863075,-0.69849997758865,-0.83173751831055,0.00756249995902,2.5414125919342,0.36671251058578,-1.40470004081726,2.82975006103516,3.54928755760193,2.51693749427795,1.79011249542236,0.82981246709824,0.48771250247955,0.07603749632835,-0.07851249724627,0.17201249301434,0.26001250743866,0.31253749132156,-2.17373752593994,-4.20791244506836,-3.66657495498657,-2.08821249008179,0.29906249046326,-1.78639996051788,-1.8463499546051,-2.578125,-0.35089999437332,0.05101250112057,-0.32161250710487,1.65123748779297,1.58042502403259,1.43990004062653,1.43990004062653,0.52978748083115,-3.17322492599487,-13.6885375976563,-17.1324996948242,-18.917387008667,-15.5014753341675,-10.4167251586914,-3.1574125289917,2.56382489204407,3.35678744316101,2.6860625743866,1.05000007152557,2.2540500164032,2.61795020103455,6.84405040740967,20.0440502166748,48.2250022888184,64.125,56.0760040283203,32.310001373291,12.3300008773804,-6.22500038146973,-19.0819511413574,-9.32805061340332,-4.74795007705688,-2.71695017814636,1.39305007457733,1.75395011901855,1.69695007801056,1.87395012378693,4.0770001411438,6.6670503616333,-16.0030498504639,-33.328052520752,-54.9199523925781,-49.7220039367676,-39.8260536193848,-25.4580020904541,-14.7199506759644,-9.46395015716553,0.47295001149178,9.74895000457764,8.74305057525635,9.17400074005127,11.2140007019043,17.9059505462646,15.7159509658813,9.39900016784668,14.5849504470825,20.6860504150391,10.6470003128052,9.2290506362915,8.52105045318604,7.12695026397705,8.18100070953369,8.61600017547607,SWING_RIGHT
0.26661249995232,0.31913748383522,-0.01567500084639,-0.00219999998808,0.37042498588562,0.98009997606277,-1.65027499198914,-3.05648756027222,4.26401233673096,8.74527454376221,6.77462482452393,1.66306245326996,0.61352497339249,1.21343743801117,0.2043250054121,-0.12484999746084,-0.39971250295639,-0.21779999136925,-0.29466250538826,-1.2977249622345,-2.51817488670349,-1.63363754749298,4.41622495651245,4.3489875793457,1.86532497406006,-0.65628749132156,0.05101250112057,-0.00632499996573,-1.34420001506805,-0.7735750079155,0.32945001125336,0.05568749830127,0.01539999991655,0.20116250216961,-0.00041249999776,-0.30098751187325,-10.5242500305176,-17.3732624053955,-17.2437381744385,-15.3280878067017,-12.6049003601074,-7.84753751754761,-2.18363738059998,1.52294993400574,3.09649991989136,0.60495001077652,1.55100011825562,1.43100011348724,4.26300001144409,12.2050504684448,22.6369514465332,58.4119529724121,47.2549514770508,38.5110015869141,31.2109508514404,9.88005065917969,-7.76205015182495,-13.4629507064819,-12.4549503326416,-5.7180004119873,1.00305008888245,1.68495011329651,1.99095010757446,2.54505014419556,6.08100032806396,9.50700092315674,-3.6889500617981,-34.9630508422852,-48.3589515686035,-54.0840034484863,-47.4019508361816,-34.1179504394531,-24.7639503479004,-13.0840501785278,-4.17300033569336,10.1989507675171,9.22005081176758,8.97105026245117,10.7160005569458,13.3639507293701,14.9130010604858,4.71405029296875,26.2219505310059,28.1539516448975,16.4149513244629,3.39000010490417,2.27205014228821,6.57195043563843,4.15605020523071,3.86400008201599,SWING_RIGHT
0.30318748950958,0.12856249511242,-0.26234999299049,-0.60211247205734,-0.23553749918938,0.48042500019073,-1.43893754482269,-2.10718750953674,1.15843749046326,5.43069982528687,7.64445018768311,4.41911268234253,-0.07672499865294,-1.30336248874664,-0.20858749747276,-0.68076246976852,-0.38871249556541,-0.3814249932766,0.16706250607967,-1.53229999542236,-7.31101226806641,0.16224999725819,3.24211239814758,3.03572487831116,3.76021242141724,-1.92197501659393,-3.2181875705719,-3.3429000377655,-0.690524995327,-0.8896250128746,1.49366247653961,1.72218751907349,1.38256251811981,2.43072509765625,5.13315010070801,2.56148743629456,-4.7920126914978,-12.198037147522,-17.1972618103027,-17.3145503997803,-15.824049949646,-10.2456750869751,-3.04246258735657,0.82293748855591,2.18143749237061,1.23000001907349,1.81905007362366,2.73795008659363,-1.19205009937286,8.45595073699951,25.560001373291,54.5599517822266,51.3300018310547,44.0590515136719,30.7750511169434,15.7680006027222,-9.13695049285889,-11.0740509033203,-7.23105049133301,-4.01505041122437,0.56894999742508,1.11000001430511,1.66605007648468,5.08995008468628,3.8209502696991,6.60495042800903,-1.08195006847382,-16.7020511627197,-39.2520027160645,-45.5029525756836,-51.1339530944824,-35.0400009155273,-23.121000289917,-14.3460006713867,-6.81600046157837,8.66400051116943,8.25,8.20499992370605,9.2959508895874,13.8100509643555,3.00195002555847,7.22805023193359,16.1440505981445,18.9600009918213,16.6609516143799,5.72700023651123,3.76800012588501,5.25705003738403,10.6609506607056,10.9750509262085,SWING_RIGHT
1.2060124874115,0.6208124756813,0.42418751120567,1.31601250171661,0.82128751277924,0.93610000610352,0.19085000455379,-3.23125004768372,-1.45598745346069,6.05618762969971,5.80084991455078,1.26348745822906,1.51153743267059,1.14372503757477,-0.81702500581741,-0.10656250268221,0.53858751058578,-0.34347498416901,-1.58482503890991,-2.39717507362366,-3.02032494544983,-4.16253757476807,0.67292499542236,5.34847497940063,2.07171249389648,-0.57805001735687,-2.33255004882813,-1.72287499904633,1.57822501659393,-0.09679999947548,3.33121252059937,2.80953741073608,3.1796875,3.54007506370544,3.76736259460449,0.17916250228882,-7.57872486114502,-16.7866878509521,-19.7346878051758,-17.8068008422852,-14.7196502685547,-9.91100025177002,0.83036249876022,6.72746229171753,2.02276253700256,5.44395017623901,3.88305020332336,4.10805034637451,5.3100004196167,14.532000541687,40.5130500793457,60.6610527038574,60.4090538024902,40.2330017089844,31.2799510955811,8.32605075836182,-18.3570003509521,-28.4440517425537,1.07895004749298,1.32300007343292,-0.39000001549721,0.00405000010505,0.77505004405975,0.45000001788139,2.7940502166748,7.6560001373291,-0.96405005455017,-35.0140533447266,-57.3139533996582,-60.4510536193848,-55.3579521179199,-42.9000015258789,-27.6630020141602,-7.39095020294189,3.4740002155304,8.53500080108643,6.56700038909912,9.30600070953369,6.91695022583008,7.88100051879883,12.8260507583618,10.0510501861572,10.2610502243042,19.1200504302979,13.627950668335,-1.21800005435944,5.44395017623901,9.153000831604,3.6889500617981,5.1060004234314,SWING_RIGHT
-1.58908748626709,-0.30868750810623,-0.03382499888539,-0.18892499804497,-0.44426250457764,1.24286246299744,0.23251250386238,-0.68983751535416,4.22262477874756,5.53836250305176,-0.08387500047684,-1.22374999523163,1.12310004234314,2.40102505683899,1.63872504234314,0.17929999530315,0.52745002508163,-0.10656250268221,-0.38032498955727,-1.14138746261597,-2.65869998931885,0.65326249599457,2.40281248092651,2.55062508583069,-3.13761258125305,-3.56399989128113,-1.25386250019073,0.57997500896454,0.13901250064373,-0.09075000137091,0.3452624976635,1.07703745365143,0.69464999437332,2.63958740234375,2.31220006942749,-2.91912508010864,-12.112512588501,-15.9828624725342,-19.1959629058838,-16.6120624542236,-10.3093376159668,-3.03764986991882,1.36042499542236,2.13262510299683,1.46547496318817,-1.24995005130768,3.71295022964478,0.98805004358292,3.92805027961731,22.1370010375977,49.2880516052246,57.7009544372559,55.7280044555664,41.4820518493652,19.5649509429932,-5.54805040359497,-11.8920001983643,-4.77195024490356,1.0069500207901,1.1050500869751,-0.53595000505447,-0.99105006456375,0.76605004072189,1.89600014686584,5.23305034637451,3.96405029296875,-14.952000617981,-31.0630512237549,-55.2960014343262,-51.9960021972656,-35.5380020141602,-22.945951461792,-12.5839509963989,-4.97700023651123,-0.36600002646446,11.4229507446289,11.5780506134033,10.4700002670288,10.2970504760742,16.9050006866455,20.3130016326904,9.26505088806152,6.13395023345947,11.2960500717163,3.25800013542175,9.23400020599365,16.9560012817383,16.4629516601563,9.38505077362061,5.96595048904419,SWING_RIGHT
-0.50778752565384,-0.41126251220703,-0.25863748788834,0.28022500872612,-0.45897498726845,-1.68190002441406,-0.94036251306534,1.82201254367828,1.41515004634857,-0.40397500991821,3.62395000457764,8.18468761444092,8.19802474975586,0.59166252613068,1.2673374414444,-0.29603749513626,0.17558750510216,-0.00769999995828,-0.61366248130798,-0.09679999947548,-0.43889999389648,-1.59224998950958,-4.87244987487793,-1.51896250247955,1.04665005207062,3.8003625869751,1.21288752555847,0.36987498402596,-0.7627124786377,0.40768748521805,0.91093748807907,0.63593751192093,1.18937504291534,0.88646250963211,1.02203750610352,2.40748739242554,2.2094874382019,0.35254999995232,-8.84455013275146,-13.7948246002197,-17.5467872619629,-16.375150680542,-15.097225189209,-6.46098756790161,2.0153374671936,1.77300012111664,-0.06900000572205,-0.87405002117157,1.8139500617981,-1.42005002498627,-0.02895000204444,10.3039503097534,37.5870018005371,61.4650535583496,57.3760528564453,38.4150009155273,28.4340019226074,20.5609512329102,-22.5330009460449,-18.5650501251221,0.42105001211166,-0.07395000010729,0.24405001103878,0.15000000596046,2.18805003166199,2.05800008773804,3.08595013618469,6.72300052642822,-6.78495025634766,-19.0320014953613,-42.1969528198242,-54.0150032043457,-57.7879524230957,-38.3230514526367,-23.9809513092041,10.3240509033203,9.92100048065186,8.88900089263916,8.90895080566406,6.36795043945313,9.01200008392334,18.1480503082275,24.6510009765625,10.5679502487183,10.0170001983643,22.0410003662109,12.5910005569458,4.36395025253296,6.15795040130615,9.85200023651123,SWING_RIGHT
-0.05582499876618,0.30703750252724,-0.68131250143051,-0.95741248130798,1.27091252803802,3.06322503089905,2.07968759536743,2.12011241912842,0.79323750734329,1.55801248550415,5.65812492370605,1.57767498493195,0.65284997224808,0.93500000238419,0.70894998311996,-1.03386247158051,0.12801249325275,1.1004124879837,-0.53666251897812,-2.16273736953735,-3.44313740730286,-2.49012494087219,-0.83352500200272,1.52556252479553,2.96106243133545,-1.15114998817444,-0.20927499234676,-0.90433746576309,-0.80781251192093,-0.74800002574921,1.80400002002716,1.70128750801086,2.84968757629395,3.37988758087158,1.63418745994568,-1.80620002746582,-8.80165004730225,-16.2371006011963,-19.611349105835,-18.7562370300293,-10.8322496414185,-1.34200000762939,3.07573747634888,4.10313749313354,2.50648736953735,1.20105004310608,-0.17700000107288,0.57600003480911,6.43995046615601,23.7769508361816,34.3140029907227,51.8659515380859,46.5460510253906,38.5039520263672,26.4079513549805,-14.5879507064819,-22.0920009613037,-9.73800086975098,-1.14195001125336,-1.41705012321472,-0.76095002889633,0.57900005578995,0.83700001239777,1.44600009918213,5.5489501953125,6.69105052947998,-1.4389500617981,-29.5639514923096,-53.7060012817383,-58.1020545959473,-47.1570014953613,-29.1000022888184,-15.4210510253906,-4.61295032501221,0.6889500617981,11.1349506378174,8.28404998779297,6.86595010757446,12.1650009155273,19.4959506988525,19.2090015411377,21.1939506530762,18.5839500427246,16.1230506896973,16.711950302124,-0.77805006504059,0.64800000190735,5.14695024490356,6.60000038146973,4.80195045471191,SWING_RIGHT
0.0969374999404,-0.57502502202988,-0.55549997091293,-1.08074998855591,-1.80166244506836,0.39008748531342,-0.80107498168945,0.93128746747971,4.38638734817505,7.41372489929199,5.38078737258911,0.08841250091791,0.05169999971986,1.04252505302429,1.03276252746582,-0.59647500514984,-0.55371248722076,0.39063748717308,-0.18727499246597,-2.10897493362427,-2.76141238212585,0.73273748159409,2.75591254234314,2.34657502174377,3.15534996986389,-0.99728751182556,-0.66618752479553,-1.20491254329681,-0.77604997158051,-0.47918748855591,2.15696239471436,1.88457500934601,0.98175001144409,1.24437499046326,-1.19776248931885,-4.4598126411438,-13.2486753463745,-16.1393375396729,-15.8460502624512,-13.2486753463745,-10.8565874099731,-8.11139965057373,-0.859375,4.33290004730225,4.77757501602173,0.82995003461838,2.45100021362305,-0.07395000010729,7.61295032501221,17.3170509338379,53.7480010986328,51.6630020141602,42.411003112793,44.0010032653809,26.6689510345459,11.0340003967285,-13.7740507125854,-25.7650508880615,-8.26005077362061,-1.66905009746552,0.97395002841949,1.31400001049042,2.35995006561279,4.93605041503906,6.54795026779175,7.21095037460327,-10.9410009384155,-27.8160018920898,-41.2600517272949,-44.449951171875,-42.2130012512207,-33.8640022277832,-21.6850509643555,-13.570050239563,-9.12900066375732,5.9320502281189,7.49595022201538,9.12600040435791,9.12195014953613,13.8409509658813,21.1630516052246,13.4479503631592,27.7879505157471,19.5850505828857,10.2900009155273,-0.66795003414154,2.81505012512207,8.9370002746582,6.47805023193359,6.48105049133301,SWING_RIGHT
-0.15963749587536,-0.38816249370575,-0.26840001344681,-0.43944999575615,-1.00141251087189,-1.04788744449615,-1.58908748626709,-0.79983747005463,0.31927499175072,0.60885000228882,3.61295008659363,3.50184988975525,2.80417490005493,2.12135004997253,0.29122498631477,-0.08332499861717,-0.16279999911785,-0.22756250202656,-0.07851249724627,-0.12375000119209,-0.32532501220703,-1.2476749420166,-3.53718757629395,-3.4016125202179,1.91042494773865,0.8732625246048,2.63614988327026,1.96171247959137,2.28800010681152,0.10230000317097,0.67636251449585,1.03798747062683,1.07456254959106,0.89127498865128,1.3946624994278,1.39218747615814,0.89375001192093,-1.75119996070862,-6.13469982147217,-13.7165870666504,-17.0128746032715,-16.963924407959,-14.6108875274658,-10.741774559021,-2.57468748092651,-0.43605002760887,-0.23505000770092,0.37995001673698,-0.46005001664162,0.75300002098083,3.34905004501343,14.0149507522583,43.0200004577637,57.2629508972168,49.3210525512695,46.4290504455566,39.4810523986816,27.0520515441895,-8.78700065612793,-21.6229515075684,1.25595009326935,0.88995003700256,0.77505004405975,1.41705012321472,2.14200019836426,2.69805002212524,4.70895004272461,7.42905044555664,4.47900009155273,-13.1059503555298,-33.3709526062012,-45.9480018615723,-48.4770011901855,-43.276050567627,-31.0440006256104,8.14500045776367,9.61305046081543,9.74205017089844,8.36295032501221,8.64795017242432,9.8929500579834,11.2720508575439,25.0050010681152,24.6529502868652,18.8689517974854,19.5030002593994,8.14200019836426,5.43900012969971,2.60205006599426,-1.66395008563995,SWING_RIGHT
-0.15592500567436,-0.01911249943078,-0.17558750510216,-0.45526251196861,-0.04482499882579,1.63872504234314,-2.36610007286072,-0.84383749961853,0.04069999977946,4.93858766555786,4.09805011749268,2.61112499237061,0.38156250119209,0.5378999710083,0.22879999876022,-1.19515001773834,-0.37290000915527,0.48716250061989,-0.3619000017643,-2.51941251754761,-5.12655019760132,1.48651254177094,0.98078751564026,2.99530005455017,2.95872497558594,1.76989996433258,0.76573747396469,-0.5879499912262,-1.16462504863739,-1.07181251049042,1.3946624994278,1.00003755092621,0.99646252393723,1.70004999637604,1.92610001564026,-2.38892507553101,-10.244574546814,-16.2859115600586,-17.1105003356934,-15.3085622787476,-11.8498878479004,-9.69594955444336,2.09715008735657,3.42759990692139,2.00433754920959,1.80900013446808,2.35500001907349,0.21000000834465,1.97895014286041,16.2180004119873,50.5180511474609,53.8080024719238,47.7600021362305,44.9899520874023,26.7820510864258,10.2820501327515,-10.1640005111694,-14.5690507888794,1.11195003986359,0.59295004606247,0.2029500156641,-0.50700002908707,0.03495000302792,1.92000007629395,7.37400054931641,12.2509508132935,-3.06195020675659,-27.0979518890381,-36.3640518188477,-46.6909523010254,-51.775951385498,-43.7719535827637,-19.0960502624512,-7.75005054473877,-0.32295000553131,9.45195007324219,9.81405067443848,8.44395065307617,9.56205081939697,14.8660507202148,8.58795070648193,10.4860506057739,20.1859512329102,18.3490505218506,10.2229509353638,-1.74000012874603,-3.39195013046265,2.72895002365112,5.25705003738403,5.86800050735474,SWING_RIGHT
-0.54573750495911,-0.41126251220703,0.45980000495911,1.15128743648529,0.37674999237061,0.0504624992609,-3.37878751754761,-0.74731248617172,6.04670000076294,7.39296245574951,2.59902501106262,-0.2756874859333,0.95328748226166,1.11952495574951,1.44086253643036,-0.49390000104904,-0.22508749365807,-0.70894998311996,-0.99605000019073,-3.84752488136292,-5.97932481765747,-0.82252502441406,3.62326240539551,1.89461243152618,-0.0015124999918,-1.40524995326996,-0.70647501945496,-1.24520003795624,-0.13832500576973,-0.44494998455048,0.31707498431206,0.55536252260208,0.90227496623993,0.97198748588562,1.036749958992,-2.33887505531311,-10.5879125595093,-17.4062633514404,-18.4641876220703,-15.9487619400024,-12.695237159729,-4.67596244812012,0.51012498140335,3.5485999584198,3.20155000686646,0.06599999964237,-0.86700004339218,0.04005000367761,1.64205002784729,17.659049987793,46.8460540771484,55.5490531921387,48.4759521484375,43.8840026855469,31.5700511932373,1.45995008945465,-14.7940511703491,-12.6850509643555,-3.97005009651184,-0.07905000448227,1.13205003738403,1.27305006980896,4.59600019454956,6.10005044937134,10.3240509033203,7.3690505027771,-11.15505027771,-34.1130027770996,-48.9169540405273,-49.6360511779785,-49.5450019836426,-34.7430000305176,-21.1099510192871,-10.7040004730225,-4.33095026016235,10.3020000457764,9.75900077819824,11.6860504150391,8.97105026245117,10.5199508666992,9.06704998016357,11.1760501861572,30.5839519500732,24.4140014648438,12.8470506668091,3.17400026321411,11.193000793457,9.73695087432861,8.22600078582764,7.12995052337646,SWING_RIGHT
-0.16211250424385,-0.71678751707077,-0.26468750834465,0.19593749940395,1.52996253967285,3.22327494621277,1.68025004863739,1.0755250453949,-0.36616250872612,4.96182489395142,5.93298768997192,0.26303750276566,-0.31239998340607,0.4145624935627,0.63690000772476,-0.10656250268221,0.23182499408722,-0.39613750576973,-1.29414999485016,-2.06016254425049,-4.7528247833252,-2.15545010566711,-0.88109999895096,3.1933000087738,1.6110874414444,1.65027499198914,-1.89268743991852,-1.61424994468689,-1.59101247787476,-0.21656249463558,3.43736243247986,3.9395124912262,3.49112486839294,2.0653874874115,-1.50933754444122,-8.57450008392334,-15.0422248840332,-17.4050254821777,-17.7714614868164,-13.6494874954224,-12.6219501495361,-0.55879998207092,3.14778757095337,2.95721244812012,2.24620008468628,-1.39305007457733,0.92295002937317,6.10695028305054,13.570050239563,29.6950511932373,52.9369506835938,53.5470008850098,50.3029518127441,36.748950958252,25.7260513305664,12.2670001983643,-21.4260005950928,-3.79695010185242,-1.49400007724762,1.64400005340576,-3.99300026893616,-3.16695022583008,-0.96900004148483,4.10295009613037,5.58495044708252,-1.38795006275177,-19.1110515594482,-31.7809524536133,-52.1779518127441,-49.4370040893555,-56.1979522705078,-30.4429512023926,-16.7070007324219,-5.87295007705688,-3.35400009155273,8.14004993438721,8.97105026245117,12.0040502548218,11.1280508041382,21.1549510955811,14.5849504470825,14.2810506820679,19.3189506530762,21.3370513916016,12.4999504089355,2.65005016326904,1.75395011901855,10.9630508422852,10.1389503479004,11.8060503005981,SWING_RIGHT
-0.32216250896454,-0.30744999647141,-0.4687374830246,-0.77660000324249,0.70661246776581,-0.2268749922514,-1.20422494411469,2.26792502403259,6.29584980010986,7.63606262207031,6.78452491760254,2.76141238212585,1.23309993743896,1.58372497558594,1.38586246967316,0.13158750534058,-0.15056249499321,-0.17984999716282,-0.21285000443459,-2.28731250762939,-1.91963744163513,2.52367496490479,3.4241623878479,2.67396259307861,1.36798751354218,-0.59771251678467,-0.47671249508858,-0.09803749620914,-0.20061250030994,-0.20184999704361,0.3770250082016,0.67869997024536,0.64569997787476,0.5908374786377,1.22979998588562,-7.0277624130249,-14.2272624969482,-16.03786277771,-15.533374786377,-14.0991125106812,-11.9512252807617,-6.0174126625061,0.46612501144409,3.41412496566772,3.43983745574951,1.41600000858307,1.41600000858307,1.92405009269714,-0.06195000186563,13.5550508499146,44.3320503234863,48.8899536132813,39.3109512329102,38.2669525146484,29.6929512023926,4.47600030899048,-16.7599506378174,-15.4600505828857,-4.48905038833618,-1.44600009918213,0.72495001554489,0.98295003175735,1.59195005893707,2.63295006752014,5.0779504776001,3.32505011558533,-16.4580001831055,-30.0529518127441,-38.076000213623,-40.6570510864258,-43.0320014953613,-33.3930015563965,-21.4620018005371,-9.33705043792725,-4.01999998092651,9.93105030059814,9.52395057678223,8.88195037841797,12.2509508132935,18.0330009460449,10.8580503463745,17.5810508728027,24.892951965332,20.7510013580322,15.6079511642456,7.82895040512085,5.99505043029785,7.24005031585693,5.29095029830933,3.8689501285553,SWING_RIGHT
-0.26840001344681,-0.81688749790192,-1.36056244373322,-1.294562458992,-0.46268749237061,1.62401247024536,2.54760003089905,-2.29886245727539,-3.87241244316101,-0.73012501001358,5.21716260910034,3.69490003585815,-0.27197501063347,0.3755125105381,1.90629994869232,0.33082500100136,-0.1530375033617,0.39544999599457,-0.09075000137091,-1.2696750164032,-4.54753732681274,-6.42894983291626,-1.35396254062653,1.48403751850128,5.01599979400635,1.60008752346039,-0.36066249012947,-1.14386248588562,-1.34667503833771,-0.42418751120567,1.83809995651245,1.16008746623993,1.558424949646,1.09903752803802,1.16737496852875,0.0496375001967,-6.0174126625061,-12.1797494888306,-16.8442993164063,-17.3757381439209,-13.9695873260498,-11.6275501251221,-3.84037494659424,1.81128752231598,2.93645000457764,0.54704999923706,0.78195005655289,0.3529500067234,5.02005004882813,6.51600027084351,29.8560009002686,48.9769515991211,51.3010520935059,50.4370536804199,33.4069519042969,26.9160003662109,-4.80300045013428,-22.3080005645752,-8.71305084228516,-1.24500000476837,-0.55500000715256,-0.65595000982285,-1.53000009059906,-2.40105009078979,0.25095000863075,5.5489501953125,4.23495006561279,-12.3949508666992,-37.5610504150391,-51.1750526428223,-50.3200531005859,-40.5109519958496,-22.9990501403809,-15.2580003738403,-7.04100036621094,7.82400035858154,7.81005048751831,9.10500049591064,12.5770502090454,14.5930509567261,22.3500003814697,5.13300037384033,4.56105041503906,12.9810009002686,16.7310009002686,8.52495002746582,-4.00305032730103,5.84400033950806,10.8769502639771,10.5150003433228,SWING_RIGHT
-0.81331247091293,-1.05270004272461,-0.94765001535416,-1.31174993515015,-1.13698744773865,2.3570249080658,0.86652499437332,-0.56402498483658,-1.76495003700256,-1.56832504272461,3.44808745384216,5.14621257781982,1.38214993476868,0.59042501449585,1.65343749523163,0.10724999755621,0.20253749191761,0.02048750035465,0.48839998245239,-0.67952501773834,-7.19001245498657,-3.02156257629395,-1.59706246852875,-1.07181251049042,3.36668753623962,3.35334992408752,0.22811250388622,-0.90310001373291,-2.11392498016357,-2.47431254386902,1.11979997158051,1.23461246490479,2.0373375415802,3.22602486610413,3.4935998916626,0.77165001630783,-7.31005001068115,-10.3936252593994,-18.6829490661621,-19.9363994598389,-14.3922624588013,-8.78583717346191,-3.83418750762939,0.96951252222061,2.35977506637573,-0.6439500451088,-0.66105002164841,1.3660501241684,2.58495020866394,8.6380500793457,37.6680030822754,51.9220542907715,48.4140014648438,48.7990531921387,29.2930507659912,13.7059507369995,-6.84795045852661,-15.7420511245728,-11.9550008773804,-0.34500002861023,1.59600007534027,1.5529500246048,0.1000500023365,0.35895001888275,0.05400000140071,2.11800003051758,-5.21700048446655,-11.6430006027222,-51.4650039672852,-64.3870544433594,-55.0800018310547,-38.0449523925781,-24.2820014953613,-13.0219507217407,-6.70395040512085,7.9960503578186,8.70300006866455,9.10004997253418,8.70705032348633,13.1629505157471,12.2989501953125,7.03605031967163,7.70400047302246,20.5810508728027,19.7500514984131,17.4199504852295,-0.82305002212524,-0.82095003128052,6.77295017242432,10.2880506515503,SWING_RIGHT
-0.6238374710083,-1.17617499828339,-2.39415001869202,-1.83823752403259,0.22769999504089,-0.60802501440048,1.50438749790192,3.27703738212585,3.50913739204407,4.54272508621216,0.8982874751091,0.5575624704361,1.44691252708435,0.767662525177,0.57090002298355,0.2953499853611,0.95260000228882,0.73631250858307,0.31363749504089,-2.93370008468628,-4.35325002670288,1.03565001487732,0.52373749017715,2.29900002479553,-1.31614995002747,-0.25685000419617,-0.15427500009537,-0.83476251363754,-0.02474999986589,-0.34485000371933,-1.00113749504089,-0.59798747301102,0.08868750184774,-0.20212499797344,-0.23993749916553,-4.74443769454956,-15.3537998199463,-18.9565753936768,-19.6235866546631,-17.8019866943359,-12.4961376190186,-7.93182516098022,2.35001254081726,2.6640625,0.8289874792099,1.01400005817413,-0.18000000715256,1.41600000858307,2.61600017547607,16.4290504455566,46.9560012817383,58.513053894043,51.3090019226074,46.8499526977539,24.2440509796143,-9.15795040130615,-22.7430019378662,-7.9830002784729,0.69300001859665,0.10695000737906,2.24805021286011,1.22295010089874,-0.0430500023067,0.29205000400543,1.95105004310608,-2.67405009269714,-33.0,-54.7020034790039,-62.8660545349121,-65.0260543823242,-52.9369506835938,-41.1169509887695,-14.4900007247925,-3.49500012397766,-0.22005000710487,8.27400016784668,7.31595039367676,7.81005048751831,15.667950630188,16.3210506439209,18.44700050354,22.5439510345459,18.3970508575439,14.8339509963989,8.59005069732666,7.52505016326904,11.4820508956909,6.07095050811768,6.13095045089722,7.83105039596558,SWING_RIGHT
-0.34168750047684,-0.50778752565384,-0.53955000638962,-2.04476237297058,-0.90241247415543,0.07246249914169,-1.25798749923706,0.28874999284744,3.14998745918274,5.84746265411377,2.10045003890991,0.03341250121593,1.23915004730225,1.60696244239807,1.34309995174408,-0.08456250280142,-0.53294998407364,-0.92152500152588,-0.87752497196198,-2.62583756446838,-2.94580006599426,1.87866246700287,2.85477495193481,3.56949996948242,0.25863748788834,-1.51030004024506,0.12430000305176,-0.50613749027252,-0.57090002298355,-0.78100001811981,0.5626500248909,0.37207499146461,0.51631247997284,1.50466251373291,0.19744999706745,-2.3645875453949,-14.5425500869751,-17.9119873046875,-19.0273876190186,-15.8558120727539,-10.5011501312256,-4.19581270217896,0.33907499909401,1.75504994392395,2.26091241836548,1.90695011615753,1.12200009822845,-0.24195000529289,5.21400022506714,23.9629516601563,36.3850517272949,47.9179534912109,50.1810035705566,41.5729522705078,17.2709999084473,-0.87105005979538,-12.8640003204346,-8.22000026702881,-5.84400033950806,-3.73305010795593,1.31100010871887,1.6800000667572,1.64205002784729,-0.00705000013113,1.61805009841919,3.70095014572144,-17.4870014190674,-39.1440010070801,-56.1340522766113,-50.5600509643555,-39.4500007629395,-27.9240016937256,-16.3860015869141,-7.9200005531311,-2.43900012969971,8.68605041503906,8.76705074310303,8.54699993133545,11.0320501327515,16.8649501800537,16.3840503692627,11.60205078125,15.8470506668091,12.2269506454468,7.00305032730103,0.83505004644394,10.276050567627,7.86195039749146,7.45800018310547,6.22200012207031,SWING_RIGHT
0.2080374956131,-0.0276375003159,0.37303748726845,0.46708750724792,-0.40273749828339,-0.93293750286102,-0.52373749017715,-0.01058750040829,-0.79364997148514,-1.43261253833771,1.66072499752045,3.64966249465942,4.17986249923706,0.42061248421669,-1.40951251983643,-0.02969999983907,-0.53294998407364,0.19277499616146,0.29287499189377,0.4809750020504,0.44192498922348,-1.197625041008,-4.42048740386963,-2.12121248245239,1.77856254577637,0.73397499322891,1.11265003681183,-1.75958752632141,-1.86339998245239,-0.06022499874234,2.24620008468628,2.12409996986389,2.17414999008179,1.69771254062653,1.69523751735687,2.09591245651245,2.32072496414185,-0.43051248788834,-6.83347511291504,-14.5156002044678,-16.6438255310059,-16.8441619873047,-14.9786996841431,-10.6831998825073,-4.52457475662231,1.55805003643036,1.30605006217957,2.82405018806458,1.44000005722046,0.48000001907349,0.54495000839233,8.11605072021484,26.8200016021729,59.0640029907227,46.8150024414063,37.7160034179688,36.4260025024414,16.4839515686035,4.46400022506714,-14.0329504013062,0.16695000231266,-0.37800002098083,-1.07504999637604,-0.29595002532005,0.15000000596046,1.182000041008,2.55900001525879,5.05605030059814,-0.97200006246567,-15.4480504989624,-27.4980010986328,-34.2979507446289,-42.6199531555176,-39.7570533752441,-29.1120014190674,10.5150003433228,9.97200012207031,9.95700073242188,6.89295053482056,5.27205038070679,7.38795042037964,10.4839506149292,12.2059507369995,13.6560010910034,15.1459503173828,23.3080501556396,21.6529502868652,6.58905029296875,3.13800024986267,11.2740001678467,SWING_RIGHT
0.12746250629425,-0.14616249501705,-0.07535000145435,-0.34773749113083,-0.70083749294281,-0.2268749922514,-0.49197500944138,-0.79488748311996,5.5725998878479,5.40402507781982,1.14386248588562,0.11398749798536,0.95452499389648,0.02488750033081,-0.49197500944138,0.15111249685287,0.33192500472069,0.18053749203682,0.15234999358654,-1.72535002231598,-3.22561240196228,-0.0527999997139,2.62996244430542,0.83173751831055,-0.58423751592636,-0.85799998044968,-0.33508750796318,-0.1370874941349,0.31982499361038,-0.1567499935627,1.77333748340607,1.68299996852875,1.71971249580383,2.13015007972717,3.09773755073547,2.87292504310608,-11.2891626358032,-17.3842620849609,-19.4574871063232,-16.751350402832,-11.8328371047974,-5.06811237335205,2.39401245117188,4.59194993972778,3.79898738861084,1.64895009994507,1.66305005550385,1.87095010280609,1.73205006122589,11.1880502700806,27.7009506225586,58.0249519348145,46.7980537414551,37.8480033874512,19.6560001373291,1.76400005817413,-21.211051940918,-14.6389503479004,-3.73305010795593,1.46400010585785,0.57405000925064,0.59805005788803,0.34905001521111,1.26105010509491,3.52905011177063,4.08599996566772,-8.66895008087158,-32.2219505310059,-57.9199523925781,-52.3750534057617,-43.675952911377,-32.5240516662598,-19.2229499816895,-7.93200016021729,-1.34295010566711,9.94995021820068,9.95505046844482,10.4239501953125,9.37800025939941,13.3189506530762,15.7729511260986,8.64495086669922,18.5310001373291,23.2140007019043,3.74895024299622,6.77805042266846,11.28600025177,6.44700050354004,5.4340500831604,6.77295017242432,SWING_RIGHT
-0.10339999943972,-0.67883747816086,-0.78512501716614,-0.85236251354218,0.15427500009537,1.63748753070831,0.91052502393723,2.9606499671936,9.02880001068115,10.8686876296997,4.47919988632202,0.54037499427795,0.61984997987747,1.13533747196198,1.01681244373322,-0.19951249659061,-0.12732499837875,-0.06022499874234,-0.67718750238419,-1.89392495155334,0.14258749783039,1.63680005073547,3.33011245727539,2.39428758621216,1.67103743553162,-1.49930000305176,-1.0839124917984,0.16101250052452,0.58121252059937,-0.32532501220703,1.81733751296997,1.92238748073578,1.80400002002716,2.06167507171631,1.64394998550415,-7.53238725662231,-15.8387622833252,-17.5808868408203,-16.3249626159668,-14.822361946106,-10.612250328064,0.17297500371933,4.00551271438599,4.15332508087158,2.41724991798401,0.81300002336502,1.63905012607574,2.18700003623962,4.63395023345947,28.0309505462646,58.1590538024902,41.2890014648438,33.1480522155762,30.6960010528564,25.7760009765625,-17.4139499664307,-22.9180507659912,-6.11700010299683,-0.77595001459122,0.54300004243851,1.05300009250641,0.74205005168915,0.58395004272461,2.08200001716614,7.53705024719238,-2.08004999160767,-25.8220520019531,-45.8770523071289,-55.7509536743164,-54.5010032653809,-45.7710037231445,-29.662052154541,-14.473051071167,-1.84995007514954,3.49305009841919,9.65100002288818,9.09105014801025,8.95395088195801,10.4290504455566,19.0360507965088,23.1430511474609,20.1349506378174,31.6450519561768,21.8380508422852,14.2170009613037,-2.24100017547607,8.01300048828125,8.08305072784424,7.12200021743774,5.5420503616333,SWING_RIGHT
0.26551249623299,-0.42102500796318,-0.50655001401901,-0.88288748264313,-1.00993752479553,-1.57190001010895,2.58431243896484,1.65453743934631,-0.17668749392033,3.61418747901917,4.02104997634888,2.24716258049011,2.94965004920959,2.81888747215271,1.61424994468689,-0.12608750164509,-0.20679999887943,0.16335000097752,0.46268749237061,0.35640001296997,-0.15551249682903,-5.1669750213623,-5.44912481307983,1.69179999828339,0.30634999275208,0.60692501068115,-0.93005001544952,0.09858749806881,1.0063624382019,0.27335000038147,1.33113753795624,1.76604998111725,1.40084993839264,1.60352504253387,2.35743737220764,2.92916250228882,-4.16528749465942,-9.32222461700439,-18.5057125091553,-18.3664245605469,-17.3927879333496,-11.1106872558594,-1.63267493247986,2.95845007896423,1.9713374376297,1.62000012397766,2.50305008888245,3.45195007324219,1.51005005836487,1.02105009555817,25.5840015411377,51.5119514465332,53.7940521240234,43.4460029602051,30.6960010528564,24.9070510864258,-15.8410511016846,-22.9110012054443,-2.90205025672913,2.74500012397766,1.48905003070831,1.36395001411438,1.45995008945465,1.5940500497818,1.40505003929138,1.26405000686646,-0.69900006055832,-6.97905015945435,-45.4909515380859,-55.3000526428223,-57.0630035400391,-42.832950592041,-21.9600009918213,-10.3020000457764,-0.50700002908707,7.86705017089844,8.56605052947998,9.77100086212158,9.7470006942749,9.62895011901855,19.6590003967285,20.4370517730713,13.8379507064819,22.5319519042969,18.7950000762939,10.5679502487183,11.1090002059937,8.88195037841797,4.22294998168945,3.75405025482178,SWING_RIGHT
0.07122500240803,0.28998750448227,0.24227499961853,-0.45897498726845,-0.45168748497963,0.15427500009537,-4.96581268310547,-3.33121252059937,5.89393758773804,6.34479999542236,3.04617500305176,0.9619500041008,0.91299998760223,1.58372497558594,1.29291248321533,-0.04798749834299,-0.03575000166893,0.16830000281334,0.26482498645782,-1.30019998550415,-3.02651238441467,-0.2043250054121,5.53038740158081,1.7491375207901,0.6044499874115,-0.81881248950958,-0.17751249670982,0.45663750171661,-0.27637499570847,-0.71747499704361,0.30373749136925,0.19497500360012,-0.05664999783039,0.30250000953674,-0.02007500082254,-1.42752504348755,-14.5571250915527,-17.976749420166,-17.9327507019043,-16.4606742858887,-12.1712245941162,-6.15546226501465,-0.25464999675751,3.03916239738464,4.1325626373291,1.51905012130737,1.87605011463165,1.56000006198883,2.10600018501282,13.7950506210327,23.9059505462646,55.2280540466309,35.2000503540039,40.7140502929688,25.795051574707,6.35805034637451,-11.6070003509521,-10.7890501022339,-7.44405031204224,-2.11695003509521,1.57200002670288,1.14600002765656,0.79695004224777,0.82995003461838,2.04704999923706,4.11794996261597,-18.2730007171631,-37.1920509338379,-54.1129531860352,-50.7469520568848,-40.381950378418,-30.7090511322021,-21.7540512084961,-11.7960004806519,-3.71595025062561,10.8409509658813,10.1779508590698,7.9680004119873,8.40105056762695,12.1579504013062,13.3039503097534,2.45400023460388,33.7849502563477,20.5519504547119,7.23000049591064,5.06805038452148,8.07495021820068,7.54395055770874,6.5310001373291,3.43305015563965,SWING_RIGHT
0.33398750424385,0.42556250095367,0.0504624992609,-0.41992500424385,-0.53350001573563,-1.00265002250671,-1.78694999217987,-1.33608746528625,4.20433759689331,6.65747499465942,4.44248723983765,1.63020002841949,0.65394997596741,0.6210874915123,0.7627124786377,-0.27761250734329,-0.11027500033379,0.35516250133514,-0.31679999828339,-1.26362502574921,-1.22196245193481,0.68873751163483,1.62084996700287,3.89083743095398,0.50063747167587,0.18906250596046,-0.0662750005722,0.17806249856949,0.11577499657869,-0.10051249712706,2.70311260223389,2.10691237449646,2.10815000534058,1.05503749847412,-0.21188749372959,-3.80737495422363,-9.89642524719238,-12.9922370910645,-16.9993991851807,-15.3158502578735,-12.5878496170044,-8.25687503814697,-3.28075003623962,0.56031250953674,2.41972494125366,1.93095004558563,1.59105002880096,0.68595004081726,8.16405010223389,10.2510004043579,28.3860015869141,38.4780006408691,41.2549514770508,26.3910007476807,20.6500511169434,9.25500011444092,-0.36405003070831,-9.70605087280273,-8.20995044708252,-4.87995004653931,-0.71295005083084,0.25304999947548,1.06005001068115,3.37095022201538,6.27495050430298,7.01205015182495,-10.6519508361816,-24.0739517211914,-40.3219528198242,-37.5400505065918,-33.8119506835938,-29.2189521789551,-23.5210514068604,-16.4239501953125,-8.81295013427734,9.66300010681152,8.64300060272217,7.3759503364563,7.35705041885376,9.73905086517334,10.2330007553101,14.2410011291504,19.4509506225586,19.7670001983643,10.042950630188,8.22900009155273,6.67695045471191,8.17605018615723,7.82205057144165,7.49805021286011,SWING_RIGHT
0.63085001707077,0.0369874984026,-0.64955002069473,-0.32216250896454,-1.3996125459671,-1.50479996204376,-0.49197500944138,-1.65989995002747,-0.54573750495911,4.81511259078979,2.99475002288818,0.4976125061512,-0.21711249649525,0.15427500009537,-0.63126248121262,-0.2238499969244,0.13901250064373,0.56168746948242,-0.35708749294281,-2.27631258964539,-2.70764994621277,-1.08157503604889,3.24211239814758,3.42540001869202,-0.69423747062683,-2.10649991035461,-1.2977249622345,-0.0527999997139,0.36739999055862,0.13034999370575,1.16132497787476,0.45278748869896,0.56760001182556,0.65188747644424,0.76298749446869,-0.39022499322891,-6.90689992904663,-14.9615125656128,-17.4600257873535,-17.4367866516113,-9.95499992370605,-2.65526247024536,0.52731251716614,2.46248745918274,2.37448740005493,4.30605030059814,3.5590500831604,2.36205005645752,4.40700006484985,6.94695043563843,21.7750511169434,44.7889518737793,41.2890014648438,33.7110023498535,9.67905044555664,-20.8210506439209,-6.838050365448,-9.13199996948242,-3.19200015068054,-2.32695007324219,2.80995011329651,2.95905017852783,2.7480001449585,3.91200017929077,4.92000007629395,5.57100009918213,-0.52605003118515,-21.1440010070801,-30.8430023193359,-43.2139511108398,-25.5079517364502,-18.7830009460449,-11.650050163269,-4.83795022964478,0.40605002641678,9.31095027923584,7.18905019760132,10.3090505599976,10.6369504928589,7.66800022125244,14.2069511413574,10.9290008544922,9.41595077514648,13.077000617981,5.41095018386841,8.27400016784668,5.14200019836426,10.407000541687,8.95200061798096,7.85505056381226,SWING_RIGHT
-0.27087500691414,-0.52978748083115,-0.87559998035431,-2.12657499313354,0.29122498631477,0.29356250166893,-0.00206249998882,1.79024994373322,4.88111257553101,3.92576241493225,1.42614996433258,-0.35268750786781,-0.16940000653267,2.20068740844727,1.65577495098114,0.26482498645782,-0.41813749074936,-1.896399974823,-1.95263743400574,-0.55866247415543,-0.98986250162125,2.0239999294281,2.14747500419617,0.66068750619888,-1.27338755130768,-1.55924999713898,-0.2727999985218,-0.02969999983907,0.25382500886917,-0.28008750081062,1.8185750246048,2.29267501831055,2.50882506370544,1.64752495288849,-3.96742486953735,-7.12304973602295,-14.5755500793457,-18.1075115203857,-18.3103256225586,-14.976224899292,-9.85366249084473,-4.63567495346069,-1.73772501945496,3.15878748893738,2.97316241264343,0.18300001323223,1.23000001907349,4.8070502281189,22.7500514984131,35.4029998779297,45.9960021972656,51.328052520752,45.1480522155762,35.4580535888672,12.9330005645752,2.99895024299622,-8.29095077514648,-11.4520502090454,-4.65705013275146,-1.06095004081726,-0.74205005168915,-0.72495001554489,-0.30105000734329,2.45100021362305,3.36795020103455,0.24795001745224,-16.6810512542725,-38.5759506225586,-50.0880012512207,-40.2880516052246,-35.9880027770996,-29.5380020141602,-24.8740520477295,-9.29400062561035,-1.69500005245209,8.43495082855225,9.01905059814453,7.38795042037964,12.832950592041,15.0550508499146,12.3900003433228,9.86895084381104,17.5519504547119,15.0280504226685,11.0470504760742,10.6230001449585,12.1410007476807,13.6110010147095,7.63995027542114,4.35000038146973,SWING_RIGHT
-0.81454998254776,-0.87188750505447,-0.2939749956131,0.00288749998435,0.6601374745369,1.92953753471375,1.45667493343353,0.77494996786118,1.02904999256134,2.05658745765686,-0.34650000929832,-1.7271374464035,1.27957499027252,2.56726241111755,1.66196250915527,0.54216247797012,0.5127375125885,0.2953499853611,-0.00027499999851,-1.79135000705719,-3.03132510185242,-2.18845009803772,-2.6061749458313,-2.05768752098084,-3.87557506561279,-4.00262498855591,-0.27403751015663,1.08336246013641,1.3642749786377,1.04183745384216,1.40566253662109,1.35313749313354,1.20284998416901,1.90286254882813,-0.9094250202179,-5.57273769378662,-12.9482374191284,-15.1289873123169,-19.152099609375,-16.0098133087158,-9.86576271057129,-4.27404975891113,1.48513746261597,4.05803728103638,4.90957498550415,2.19705009460449,3.09195017814636,1.27305006980896,6.68895053863525,22.8409519195557,43.7239532470703,47.6410522460938,47.7000007629395,39.7750511169434,12.7729501724243,5.50800037384033,-7.39395046234131,-7.60695028305054,-4.00800037384033,-1.9080001115799,1.92000007629395,0.7870500087738,0.75105005502701,2.01495003700256,5.88195037841797,7.20405054092407,-8.94000053405762,-18.5550003051758,-49.2810020446777,-41.2480506896973,-35.1640510559082,-29.8560009002686,-21.0049514770508,-11.5830001831055,-4.3090500831604,7.57005023956299,11.7840003967285,11.0730009078979,12.8160009384155,16.0840511322021,14.9490003585815,10.1080503463745,10.921950340271,16.0939502716064,15.2290506362915,15.0210008621216,21.7180519104004,16.8120002746582,8.47305011749268,4.50795030593872,SWING_RIGHT
0.79694998264313,-0.45526251196861,-1.65013754367828,-1.33127498626709,0.39861249923706,2.06758737564087,0.87642496824265,-1.47056245803833,-0.34416249394417,2.412024974823,1.9930624961853,0.78223747014999,0.79199999570847,2.7528874874115,2.67107486724854,-0.70523750782013,-0.19827499985695,0.57873749732971,0.05953750014305,-2.21773743629456,-2.55488753318787,-3.25132489204407,-1.88911247253418,0.00453749997541,-2.21044993400574,-1.57630002498627,-0.09075000137091,0.42239999771118,0.74126249551773,0.6239749789238,2.65182495117188,1.7685250043869,3.01826238632202,2.83263754844666,5.0659122467041,-0.38541248440742,-11.6043128967285,-14.7318878173828,-20.2052116394043,-18.3138999938965,-12.0722246170044,-7.65696239471436,-2.78973746299744,1.88705003261566,3.93580007553101,7.03095054626465,1.8139500617981,3.58305025100708,4.23000001907349,9.28200054168701,52.498950958252,51.1480522155762,50.4780006408691,30.117000579834,10.6939506530762,3.51600027084351,1.3090500831604,-13.9750509262085,-10.627950668335,-5.89905023574829,0.76095002889633,1.28505003452301,0.20100000500679,1.10805010795593,-2.57805013656616,0.14805001020432,-15.5359506607056,-25.5679512023926,-51.9889526367188,-47.0190010070801,-36.5100021362305,-33.0379524230957,-23.0040016174316,-14.952000617981,-7.76700019836426,8.08305072784424,5.28105020523071,7.47405052185059,12.7540502548218,14.7240009307861,16.8820514678955,0.40605002641678,2.19300007820129,15.6370506286621,20.4780006408691,16.3189506530762,12.4069509506226,15.2940006256104,9.5910005569458,4.57695007324219,SWING_RIGHT
-0.37221249938011,-0.38197499513626,-0.13763749599457,-0.17558750510216,-0.72283750772476,-0.56402498483658,0.0614624992013,0.0969374999404,5.50536251068115,5.9684624671936,3.90623736381531,0.5819000005722,0.56484997272491,1.71930003166199,1.57025003433228,1.10288751125336,1.29222500324249,0.85483747720718,1.04059994220734,-0.79199999570847,-2.0344500541687,-1.46272504329681,1.28246247768402,1.3532749414444,-0.44137498736382,-1.47730004787445,-0.89099997282028,0.47121250629425,0.41387498378754,-0.0015124999918,4.99867486953735,5.43125009536743,6.23259973526001,6.5014123916626,4.34266233444214,0.48331248760223,-3.76090002059937,-13.5566749572754,-18.1880874633789,-17.6444129943848,-14.2395000457764,-7.68391227722168,0.77522498369217,4.53942489624023,5.41172504425049,-3.56295013427734,0.67395001649857,1.62495005130768,11.2279500961304,18.8250007629395,38.3890533447266,51.118953704834,49.9080009460449,43.7830505371094,27.9859504699707,11.7960004806519,-15.3690004348755,-12.8239507675171,-5.8759503364563,-1.26900005340576,-5.19300031661987,-5.68095016479492,-4.38600015640259,-4.61295032501221,1.13700008392334,5.72205018997192,6.33195018768311,-11.6689500808716,-45.2059516906738,-48.4429512023926,-49.4899520874023,-40.4320526123047,-29.32200050354,-15.4000511169434,-4.33305025100708,11.9089508056641,12.1840505599976,11.671950340271,8.13000011444092,9.76800060272217,15.0120010375977,16.5679512023926,18.5430011749268,20.1619510650635,11.9659509658813,10.3620004653931,12.4930505752563,12.610050201416,7.54395055770874,3.77805018424988,SWING_RIGHT
-0.35021248459816,-0.11206249892712,0.06270000338554,-0.07782500237226,-0.41126251220703,0.59166252613068,1.52996253967285,-5.55953741073608,4.68558740615845,10.1100997924805,6.93357515335083,2.00887489318848,0.38885000348091,1.46038746833801,1.31738746166229,0.18782499432564,0.03506249934435,-0.02956249937415,0.10601250082254,-0.23361249268055,-3.68004989624023,-4.33619976043701,6.03253746032715,3.09306240081787,2.05218744277954,-0.6209499835968,-2.09439992904663,0.171875,-0.07122500240803,0.07548750191927,0.21449999511242,0.61888748407364,0.62988752126694,1.07098746299744,1.50590002536774,2.55158758163452,-0.94737499952316,-15.2792749404907,-16.3116245269775,-16.8100624084473,-12.8847122192383,-8.69907474517822,-2.74202489852905,1.98714995384216,3.6596999168396,-1.23795008659363,-0.47400003671646,-1.00305008888245,0.29595002532005,0.78000003099442,21.6220512390137,57.6079521179199,41.1109504699707,43.513053894043,28.957950592041,9.57405090332031,-1.05105006694794,-15.271050453186,-9.78495025634766,-5.34600019454956,1.66800010204315,1.41705012321472,1.72995007038116,1.86900007724762,3.29205012321472,10.3879508972168,13.3759508132935,-20.6719512939453,-43.4370002746582,-54.0889511108398,-40.7479515075684,-35.6029510498047,-26.052001953125,-15.8040008544922,-6.6870002746582,8.91600036621094,10.5529508590698,10.0549507141113,9.32805061340332,10.4670009613037,15.9049510955811,12.5569505691528,23.6770515441895,32.8920021057129,11.4390001296997,2.01104998588562,5.5639500617981,12.9739503860474,8.53005027770996,4.68300008773804,SWING_RIGHT
-0.30140000581741,-0.55302500724792,-0.87917500734329,-0.87807500362396,0.29356250166893,0.89347499608994,-2.36238741874695,-0.5517874956131,2.44378757476807,5.88898754119873,1.82201254367828,-1.48761248588562,-0.27197501063347,1.03757500648499,0.96428751945496,-0.06379999965429,0.18411250412464,0.37963750958443,0.3588750064373,-2.23355007171631,-4.32272481918335,0.08153750002384,3.41440010070801,2.63738751411438,1.55732500553131,-0.75295001268387,-0.20184999704361,-0.31308749318123,0.06558749824762,-0.15908749401569,0.84741246700287,1.2529000043869,2.11667490005493,1.41789996623993,-0.49169999361038,-3.18436241149902,-17.2510242462158,-19.0689125061035,-18.1368007659912,-15.097225189209,-8.58055019378662,-3.72556257247925,1.47290003299713,3.49717497825623,3.20278739929199,1.95300006866455,0.40800002217293,4.8880500793457,9.72195053100586,24.1960506439209,39.4860000610352,48.3210029602051,33.2149505615234,31.9939517974854,21.2530517578125,-2.25795006752014,-12.0790510177612,-11.671950340271,-4.83600044250488,-2.59800004959106,1.9080001115799,1.50105011463165,0.41400003433228,3.39900016784668,7.61100053787231,8.61195087432861,-20.5950012207031,-40.2859535217285,-43.7100028991699,-40.2400512695313,-30.5550022125244,-26.3610019683838,-17.7049503326416,-8.65305042266846,-2.97795009613037,9.71505069732666,8.72205066680908,7.90305042266846,10.4269504547119,16.2709503173828,18.3900012969971,5.02305030822754,25.4910011291504,21.2509517669678,10.6879501342773,-0.17895001173019,7.8120002746582,10.0410003662109,6.42600011825562,5.78205013275146,SWING_RIGHT
-0.73878747224808,-0.43202498555183,-0.78512501716614,-1.55113744735718,-2.39786243438721,0.83476251363754,2.25816249847412,-3.46802496910095,-1.60737502574921,3.83171248435974,4.07852506637573,1.57643747329712,1.0144749879837,1.33938753604889,1.72177493572235,-0.77481251955032,-0.52442497014999,0.10848750174046,-0.80547499656677,-1.05462503433228,-4.21396255493164,-5.84622478485107,1.8298499584198,3.94583749771118,1.07717502117157,-1.14743745326996,-1.97587502002716,-1.60325002670288,0.66302502155304,0.79750001430511,3.43007493019104,2.9779748916626,2.94016242027283,3.1160249710083,2.02509999275208,0.62136250734329,-1.77691245079041,-15.8302373886108,-20.1734504699707,-20.3102626800537,-16.9468746185303,-12.1430377960205,-3.68156242370605,3.28707504272461,5.05738735198975,1.57695007324219,2.58000016212463,2.02005004882813,5.96295022964478,12.2029504776001,27.8089504241943,42.1050033569336,53.6119537353516,43.873950958252,27.9330005645752,15.5310010910034,-6.12195014953613,-20.6170501708984,-10.7959508895874,-3.45495009422302,-1.51995003223419,-0.92400002479553,-0.10695000737906,0.56400001049042,-0.52200001478195,-2.07795000076294,-2.11094999313354,-31.4700012207031,-55.4680519104004,-62.3010025024414,-53.8639526367188,-43.9729537963867,-29.2819519042969,-17.2189502716064,-7.11495018005371,8.83695030212402,9.37800025939941,7.06005048751831,6.51705026626587,12.8209505081177,19.348051071167,13.8120002746582,1.27605009078979,14.4270009994507,16.7239513397217,5.75100040435791,11.0320501327515,11.8630504608154,9.11895084381104,7.41495037078857,SWING_RIGHT
1.35162496566772,1.28686249256134,0.02241249941289,0.4976125061512,-0.04853750020266,0.11522500216961,-1.01612496376038,-4.15703725814819,-5.66582489013672,1.31986248493195,0.7236624956131,1.15005004405975,2.10045003890991,2.4670250415802,0.74813747406006,-0.59166252613068,-0.78347498178482,0.05582499876618,-0.34608748555183,-1.74982500076294,-4.60487508773804,-5.47965002059937,-0.66742497682571,5.27628755569458,-1.46396243572235,-1.75587499141693,0.02901249937713,0.86583751440048,0.57873749732971,0.50063747167587,2.36596250534058,2.16191244125366,3.25655007362366,3.4288375377655,2.0373375415802,-4.26057481765747,-12.7417125701904,-18.7024745941162,-23.8202247619629,-19.1740989685059,-5.58002519607544,1.18937504291534,3.64264988899231,3.70246243476868,2.18762493133545,2.5969500541687,1.59600007534027,-0.03600000217557,4.56494998931885,19.606050491333,46.4239540100098,46.7089538574219,44.6910018920898,24.2599506378174,-16.1179504394531,-30.5940017700195,-7.5319504737854,-5.58600044250488,1.34700012207031,-0.25605002045631,1.27800011634827,1.63200008869171,-0.27300000190735,-0.25800001621246,0.97905004024506,0.35895001888275,-19.3650016784668,-41.9140510559082,-78.8080520629883,-56.7850532531738,-31.0060520172119,-22.19700050354,-8.00594997406006,0.31500002741814,3.67200016975403,10.2330007553101,7.46205043792725,10.5300006866455,9.47399997711182,9.13094997406006,13.3879508972168,4.82595014572144,5.23800039291382,-8.57805061340332,18.8419513702393,7.00305032730103,12.5550003051758,9.21705055236816,5.22105026245117,3.23895025253296,SWING_RIGHT
0.10670000314713,0.22522500157356,0.37908750772476,-0.72778749465942,-0.69107496738434,0.35351249575615,-1.53161251544952,-3.5755500793457,-3.1296374797821,1.63996243476868,-0.96841251850128,-0.56773751974106,1.39314997196198,2.82617497444153,1.3113374710083,-0.01869999989867,-0.2398000061512,-0.87023746967316,-0.77852499485016,-1.82916247844696,-1.90492498874664,-1.53848743438721,0.93431252241135,5.95306253433228,-2.26902508735657,-0.58671247959137,-0.87752497196198,0.48716250061989,-0.15056249499321,-0.1567499935627,1.77705001831055,1.9016250371933,1.60118746757507,2.13262510299683,2.76292490959167,-1.59857499599457,-9.2024621963501,-17.7641754150391,-22.5263500213623,-19.0811500549316,-10.038049697876,-2.71521258354187,0.66659998893738,2.64934992790222,2.40129995346069,0.20505000650883,1.18395006656647,2.20395016670227,1.30605006217957,10.9240503311157,37.6560020446777,46.7910003662109,44.2170028686523,23.4439506530762,0.08505000174046,-19.6909503936768,-3.63195013999939,-7.37895011901855,-1.58295011520386,1.24200010299683,0.78195005655289,0.77805006504059,1.51995003223419,0.91395002603531,0.86400002241135,3.58395028114319,-8.0440502166748,-35.284049987793,-67.9399566650391,-50.055004119873,-28.8700504302979,-24.5910015106201,-15.9000005722046,-6.73200035095215,-0.24405001103878,9.87795066833496,9.76800060272217,7.67805051803589,8.2669506072998,11.5039501190186,8.66400051116943,3.62400007247925,2.23800015449524,-1.06995010375977,10.4530506134033,8.9370002746582,10.2690000534058,12.6510009765625,6.62205028533936,4.09800004959106,SWING_RIGHT
-0.21463750302792,-0.10587500035763,-0.02653750032187,-0.07658749818802,-0.23168750107288,-0.38926249742508,-1.52789998054504,-0.34540000557899,4.18357515335083,-1.15170001983643,-1.75518751144409,2.45849990844727,3.54708743095398,2.53659987449646,0.56113749742508,0.54821246862411,0.26963749527931,0.27087500691414,0.29906249046326,0.28311249613762,0.43340000510216,0.6239749789238,-3.38318753242493,-5.55183744430542,1.78942501544952,1.68203747272491,-2.31426239013672,0.02406249940395,0.853600025177,0.49197500944138,0.54188752174377,0.71912497282028,0.77165001630783,0.85346251726151,1.19679999351501,1.63047504425049,3.43488740921021,4.04208755493164,-7.71320009231567,-15.1277494430542,-17.7886505126953,-13.5052499771118,-4.8347749710083,-2.3706374168396,1.38489997386932,0.8850000500679,0.80400002002716,0.43500003218651,0.15000000596046,-0.35205000638962,-1.68600010871887,-3.37395024299622,25.0410003662109,46.5490531921387,36.9640502929688,16.7899513244629,-12.2920503616333,-12.7159509658813,-5.60700035095215,-5.70795011520386,0.57600003480911,0.32700002193451,0.18405000865459,-0.08805000782013,-0.46200001239777,-0.31305000185966,0.39900001883507,1.38105010986328,3.61695027351379,-15.5359506607056,-36.0169525146484,-27.6730518341064,-16.6090507507324,-14.7700510025024,-6.45000028610229,9.91200065612793,9.99105072021484,9.66300010681152,9.2920503616333,9.45195007324219,8.52795028686523,8.96805000305176,25.2970504760742,15.1740007400513,-0.88995003700256,15.2749509811401,16.8910503387451,5.77905035018921,4.39499998092651,7.18905019760132,SWING_RIGHT
-0.79254996776581,-0.88660001754761,-0.79254996776581,-0.41868749260902,-0.51754999160767,-0.99412500858307,-1.09793746471405,-1.66113746166229,-0.98188751935959,-0.16816249489784,3.05098748207092,7.59453725814819,7.73987483978271,4.9825873374939,0.24227499961853,0.91960000991821,1.44003748893738,1.12612497806549,-0.12498749792576,-1.3307249546051,-1.84016251564026,-2.17249989509583,-0.37290000915527,1.60132503509521,5.12847518920898,6.90964984893799,3.37892508506775,-1.18910002708435,-0.84328746795654,-0.54518747329712,0.67017501592636,1.37266254425049,1.8796249628067,1.4386625289917,1.4997124671936,1.90904998779297,1.82957494258881,1.03180003166199,-4.37786245346069,-13.468674659729,-15.7374248504639,-16.1551494598389,-13.3819122314453,-9.82918739318848,-0.63456249237061,0.49695003032684,-1.63005006313324,-0.25605002045631,-0.14805001020432,-0.81900006532669,1.34505009651184,5.95395040512085,19.7179508209229,48.4909515380859,39.730052947998,29.6910018920898,22.6249504089355,-4.71705007553101,-11.9740505218506,-11.6550006866455,1.01895010471344,0.79395002126694,0.06195000186563,0.37095001339912,0.36300000548363,-0.22905001044273,0.07395000010729,2.18505001068115,1.27305006980896,-17.7030010223389,-29.6220016479492,-41.7889518737793,-38.2909507751465,-30.1840515136719,-17.60205078125,9.21300029754639,9.26505088806152,10.0530004501343,9.9859504699707,8.5489501953125,8.79795074462891,11.7000007629395,13.5030002593994,21.1860008239746,13.1850004196167,11.2690505981445,7.59705018997192,0.46395000815392,-1.93905007839203,7.25400018692017,SWING_RIGHT
0.34856250882149,0.09198749810457,-0.11811249703169,-0.77288746833801,-0.38926249742508,1.20257496833801,-0.83283752202988,-0.2073500007391,3.61418747901917,4.63196229934692,3.94047498703003,4.07852506637573,2.58555006980896,0.82994997501373,0.3240875005722,0.28187498450279,0.17806249856949,-0.38885000348091,-0.02722499892116,-2.39249992370605,-3.58599996566772,-0.03203750029206,2.68619990348816,4.68861246109009,4.39903736114502,3.56345009803772,0.53473746776581,-2.20068740844727,-2.13702487945557,-1.89268743991852,0.33426249027252,0.79970002174377,0.22921249270439,0.62865000963211,-0.30717501044273,-4.35586261749268,-12.988525390625,-16.6352996826172,-16.2908630371094,-13.8510627746582,-10.2628622055054,-6.4840874671936,-1.80867493152618,3.48617506027222,5.75987482070923,1.70895004272461,0.41595003008842,0.08805000782013,0.75300002098083,17.0269508361816,42.5890502929688,52.2499542236328,36.9400520324707,35.7070503234863,24.5620517730713,7.78995037078857,-8.77695083618164,-19.7650508880615,-14.2750511169434,-2.62395024299622,2.44605016708374,0.58395004272461,0.55995005369186,1.06695008277893,6.28005027770996,12.3589506149292,-7.04595041275024,-26.5140018463135,-40.8799514770508,-43.9279518127441,-39.373950958252,-34.3500022888184,-25.6230010986328,-15.6990003585815,-8.29095077514648,9.38700008392334,9.38700008392334,7.64400053024292,9.12195014953613,16.8259506225586,13.0909509658813,12.7560005187988,20.1430511474609,16.9099502563477,4.75695037841797,4.38600015640259,0.2029500156641,-2.37195014953613,1.42395007610321,4.43595027923584,SWING_RIGHT
-0.62755000591278,-0.25863748788834,0.05898749828339,0.66866248846054,-0.40149998664856,0.49403750896454,1.724249958992,1.74006247520447,1.28438746929169,1.32962501049042,-0.76188749074936,-3.35197496414185,-1.91894996166229,2.17621254920959,0.98628747463226,-0.3814249932766,-0.78581249713898,-0.86652499437332,0.03506249934435,0.06201250106096,-0.81276249885559,-4.64887475967407,-3.69352507591248,-3.12785005569458,-3.85605001449585,-5.63969993591309,-1.75958752632141,0.83531248569489,1.12364995479584,1.16393744945526,1.92238748073578,2.19738745689392,2.3561999797821,2.3452000617981,2.35743737220764,0.69464999437332,-5.13287496566772,-12.3250875473022,-16.0525741577148,-17.1496868133545,-14.1809253692627,-9.19393730163574,-5.42492485046387,2.05438756942749,3.31526255607605,-2.44500017166138,-1.774050116539,-1.68795013427734,0.44400003552437,10.1989507675171,18.1879501342773,46.4749526977539,48.4879531860352,42.4470024108887,29.7120018005371,15.4800004959106,-3.31605005264282,-13.6140003204346,-5.6050500869751,-2.32500004768372,1.16295003890991,-0.49800002574921,-0.94800007343292,0.21705001592636,4.92000007629395,8.00594997406006,11.367000579834,-7.921950340271,-25.0650005340576,-34.7650527954102,-40.0200004577637,-36.8479499816895,-30.984001159668,-13.5870008468628,-3.81795024871826,9.43095016479492,10.090950012207,10.6800003051758,9.45000076293945,12.0160503387451,15.997950553894,16.0410003662109,13.0530004501343,16.113000869751,16.2450008392334,15.6840009689331,19.873950958252,22.6690502166748,8.15700054168701,4.08599996566772,SWING_RIGHT
-0.1876875013113,-0.32463750243187,-0.52249997854233,-0.32339999079704,0.19593749940395,1.01199996471405,-1.77347493171692,-3.40821242332459,0.10051249712706,2.88117504119873,3.00464987754822,1.3833874464035,-1.48156249523163,-0.06063750013709,1.52872502803802,-0.00893750041723,-0.3753750026226,-0.23251250386238,-0.21051250398159,-1.15967500209808,-3.2878999710083,-0.8592374920845,1.90671253204346,2.26352500915527,1.63308751583099,-0.69423747062683,-1.19267499446869,-0.47918748855591,0.10230000317097,0.01801249943674,1.83700001239777,1.86133754253387,1.71105003356934,2.79111242294312,2.37448740005493,-0.31941249966621,-6.44998741149902,-14.8381748199463,-17.760461807251,-17.0176868438721,-14.2114496231079,-12.4876127243042,-6.41327476501465,1.05503749847412,4.18137502670288,-1.48695003986359,0.47805002331734,-0.19605000317097,4.41195011138916,10.8070507049561,26.4180011749268,54.1789512634277,47.1760520935059,41.8750534057617,34.7209510803223,19.840051651001,8.09400081634521,-14.824951171875,-11.9980506896973,-1.40805006027222,0.35400000214577,-0.11895000934601,0.42600002884865,3.38505005836487,5.23095035552979,13.113000869751,4.48905038833618,-21.0360012054443,-40.5400505065918,-48.0979537963867,-47.0449523925781,-43.480052947998,-32.9309997558594,-23.1379508972168,-12.7420501708984,8.17605018615723,8.84895038604736,10.5799503326416,13.4340009689331,14.7580509185791,3.72705006599426,-0.81405001878738,11.4820508956909,19.8700504302979,12.7780504226685,4.70205020904541,1.92705011367798,9.86205005645752,12.1429510116577,7.80195045471191,SWING_RIGHT
-0.45526251196861,-0.64831250905991,-0.93912500143051,-0.40645000338554,0.27156248688698,1.73648750782013,3.69723749160767,4.03205013275146,4.00881242752075,2.927649974823,1.93682503700256,1.5361499786377,1.82201254367828,2.13716244697571,1.3663375377655,-0.0614624992013,-2.68812489509583,-3.73504996299744,-1.17067503929138,0.32835000753403,2.34286260604858,1.73332500457764,1.18964993953705,-0.3631374835968,-0.85552501678467,0.67773747444153,0.01801249943674,-0.59289997816086,-0.66247498989105,-1.03881251811981,1.75023746490479,2.24125003814697,2.02386260032654,-0.62975001335144,-4.84219980239868,-12.4839000701904,-16.0940990447998,-17.0836868286133,-15.6249494552612,-11.3990249633789,-6.4377498626709,-3.15136241912842,0.12416250258684,1.4386625289917,2.88763737678528,-1.85595011711121,1.97400009632111,13.0170001983643,24.4849510192871,44.3800506591797,51.9690017700195,39.610050201416,35.2909507751465,21.0880508422852,4.03605031967163,-2.16000008583069,-6.55995035171509,-8.67405033111572,-6.79305028915405,-2.6100001335144,1.732950091362,-1.06500005722046,-2.61900019645691,-1.05494999885559,-4.14705038070679,-16.7520008087158,-27.6109504699707,-41.2579536437988,-50.2129516601563,-39.433952331543,-26.6860504150391,-19.666051864624,-12.7440004348755,-9.80700016021729,-2.00595021247864,7.86000061035156,8.49405002593994,12.046950340271,14.4420003890991,14.7270002365112,12.5569505691528,20.0440502166748,17.6620502471924,17.7990016937256,11.1619501113892,8.42505073547363,6.61005020141602,7.16805028915405,6.12405014038086,3.82995009422302,SWING_RIGHT
0.21175000071526,0.31679999828339,0.15551249682903,-0.90364998579025,-1.92252504825592,-0.19511249661446,1.41143751144409,-0.73383748531342,2.33873748779297,5.9782247543335,5.38697481155396,3.30879998207092,1.7742999792099,0.2923249900341,0.92400002479553,-0.03575000166893,0.4492124915123,0.72531247138977,0.64473748207092,0.60073751211166,-2.61964988708496,-1.10591244697571,3.4241623878479,1.97766244411469,1.29593753814697,-0.29356250166893,-1.35025000572205,-1.18291246891022,0.20006249845028,0.09253749996424,2.23519992828369,1.98481249809265,1.88209998607636,2.56877493858337,3.73546242713928,1.73181247711182,-9.38574981689453,-15.6652374267578,-18.5534248352051,-17.8154621124268,-14.7685995101929,-10.16881275177,-7.12304973602295,2.2681999206543,3.88575005531311,0.88305002450943,1.40400004386902,0.71505004167557,-1.19700002670288,5.24700021743774,37.7689514160156,56.722053527832,43.8220520019531,40.7209510803223,30.351001739502,18.6859512329102,-1.10895001888275,-10.4269504547119,-10.7809505462646,-1.09395003318787,-0.22005000710487,-0.12600000202656,-0.11700000613928,0.01395000051707,0.57405000925064,5.88000011444092,-5.79900026321411,-23.3059501647949,-45.7620010375977,-50.9640007019043,-45.0409507751465,-38.6749534606934,-34.068000793457,-17.6719512939453,-8.78894996643066,8.41499996185303,8.32695007324219,7.45800018310547,6.4350004196167,9.95205020904541,24.2130012512207,12.0190505981445,13.0440006256104,21.0640506744385,14.8900508880615,9.41895008087158,8.05905055999756,8.20005035400391,10.5870008468628,7.87395048141479,SWING_RIGHT
1.25757503509521,1.37967503070831,-1.23969995975494,-1.78090000152588,0.57708752155304,0.19098749756813,-2.07652497291565,0.08841250091791,4.78953742980957,3.83171248435974,-1.50837504863739,-2.74601244926453,-0.61654996871948,0.49637499451637,0.66261249780655,-3.71304988861084,-2.58788752555847,0.92812502384186,0.45045000314713,-0.05527500063181,-2.28126239776611,-0.81400001049042,2.66543745994568,1.0784125328064,-1.76687502861023,-2.92627501487732,-0.59771251678467,0.70578747987747,0.49568748474121,0.03382499888539,2.93645000457764,2.82892489433289,2.58582496643066,2.29143738746643,-2.0237250328064,-8.2678747177124,-14.1784496307373,-17.661600112915,-17.4477882385254,-14.4265003204346,-10.0502872467041,-2.72978758811951,1.27366244792938,2.25967502593994,1.9713374376297,3.96900010108948,3.78195023536682,8.6089506149292,13.0810508728027,39.7200012207031,42.0280532836914,50.7409515380859,39.0430526733398,31.828950881958,16.4809513092041,-1.55400002002716,-12.4549503326416,-5.12400007247925,-1.39095008373261,-0.10095000267029,-1.732950091362,-0.58905005455017,0.04500000178814,2.75505018234253,3.48795008659363,0.68205004930496,-21.7830009460449,-39.2520027160645,-48.0430526733398,-38.7889518737793,-33.3619499206543,-23.3029518127441,-13.9969511032104,-6.09105014801025,-1.03605008125305,11.2930507659912,4.43805027008057,5.800950050354,15.3349504470825,17.6909999847412,9.80205059051514,10.443000793457,17.0080509185791,13.1250009536743,-0.06405000388622,4.32105016708374,14.4319505691528,11.7409505844116,8.8540506362915,8.63595008850098,SWING_RIGHT
-0.14382499456406,-0.41868749260902,0.07122500240803,0.74442499876022,-0.05706249922514,-0.18535000085831,-0.31597501039505,-0.41621249914169,0.92028748989105,3.6594250202179,4.02104997634888,-0.82788747549057,-1.81994998455048,0.72847497463226,2.2092125415802,-0.05527500063181,-0.20927499234676,-0.85304999351501,-0.7345250248909,-2.83951258659363,-3.86828756332397,-1.53229999542236,-0.4461874961853,1.0063624382019,-0.64666247367859,-1.84016251564026,-1.39548754692078,-0.60500001907349,-0.5489000082016,-0.77976250648499,1.90052497386932,2.03609991073608,3.34454989433289,4.3694748878479,3.66588759422302,-0.40122500061989,-8.80659961700439,-16.9969253540039,-19.9804000854492,-17.6701240539551,-13.6494874954224,-6.51708745956421,-0.21559999883175,2.87168741226196,3.9455623626709,-0.70605003833771,-2.39205002784729,-1.932000041008,3.41595005989075,16.4170513153076,35.9400024414063,53.9470520019531,45.388053894043,37.7980499267578,19.873950958252,4.15995025634766,-16.3939514160156,-10.4680509567261,-5.52405023574829,-0.63705003261566,0.14505000412464,0.88995003700256,0.91905003786087,0.4570500254631,2.05395007133484,3.80895018577576,-4.19204998016357,-30.2970008850098,-50.7919540405273,-49.1350517272949,-46.1419525146484,-26.5879516601563,-21.0090007781982,-12.1360502243042,-4.86495018005371,8.90100002288818,8.8609504699707,10.6999502182007,9.17895030975342,11.1190509796143,12.5290508270264,15.7300510406494,15.1390504837036,16.3810501098633,15.8520011901855,5.43900012969971,5.3430004119873,11.6740503311157,11.9730005264282,7.65405035018921,SWING_RIGHT
1.11952495574951,-0.53597497940063,-0.26963749527931,-0.68983751535416,0.43656250834465,0.49032500386238,0.96305000782013,-0.65560001134872,1.24409997463226,3.96728754043579,3.89028739929199,1.07799994945526,0.79199999570847,1.11581254005432,0.7566624879837,-0.24461250007153,0.60568749904633,0.40163749456406,-0.33632498979568,-0.97033751010895,-2.08697509765625,-2.2372624874115,-0.40713748335838,0.90859997272491,0.51768749952316,-0.26303750276566,-1.09738755226135,-0.81881248950958,-0.16527499258518,-0.21161249279976,1.92486250400543,1.87109994888306,1.45818746089935,1.85776245594025,0.65560001134872,-2.24729990959167,-4.66991233825684,-15.7935247421265,-17.7898864746094,-16.6780624389648,-13.0910997390747,-5.46150016784668,-0.43793749809265,3.41288757324219,2.56877493858337,1.07595002651215,2.2590000629425,3.08805012702942,3.74595022201538,16.8330001831055,29.1259517669678,42.4260025024414,43.9320030212402,36.4039535522461,25.3110008239746,7.6080002784729,-27.0649509429932,-20.2720508575439,-1.50795006752014,-1.18995010852814,1.21995007991791,1.24905002117157,1.78305006027222,2.45595002174377,5.64495038986206,8.47305011749268,8.27895069122314,-17.6670017242432,-35.7150001525879,-46.2640533447266,-53.1259536743164,-34.0750503540039,-28.0650005340576,-6.71805047988892,-0.13395000994205,8.671950340271,8.52495002746582,8.26005077362061,9.1360502243042,12.6940507888794,13.6249504089355,16.6470012664795,14.6980504989624,22.2640514373779,16.9170017242432,6.04995012283325,7.83105039596558,7.1700005531311,6.36795043945313,5.17095041275024,SWING_RIGHT
0.06393750011921,0.48661249876022,-0.51644998788834,-1.24698746204376,-0.72036248445511,1.7022500038147,0.56361252069473,-0.74236249923706,-0.17558750510216,4.90806245803833,6.10046243667603,-0.52621251344681,-0.21463750302792,0.3950375020504,1.07676243782043,-0.94476246833801,-0.61599999666214,0.05706249922514,-1.03881251811981,-2.10526251792908,-2.84074997901917,-1.52872502803802,1.41075003147125,2.67038750648499,1.61727499961853,-1.90244996547699,-1.55924999713898,-0.66123747825623,0.14630000293255,-0.29837501049042,2.8021125793457,2.93287491798401,3.70741248130798,5.13796234130859,7.5312876701355,4.30485010147095,-4.79820013046265,-12.4973745346069,-19.4232501983643,-18.7928123474121,-17.2167873382568,-13.5334377288818,1.25056254863739,1.92362499237061,2.48448753356934,-0.64905005693436,-1.34805011749268,-1.33395004272461,-0.65400004386902,7.66800022125244,37.6039505004883,45.6820526123047,54.0739517211914,38.8060531616211,13.6320009231567,11.4199504852295,-12.5959501266479,-8.7319507598877,-0.85695004463196,-5.67705011367798,0.50894999504089,0.12405000627041,-0.69195002317429,-1.30395007133484,-4.75005006790161,-0.72495001554489,-0.90705001354218,-15.8040008544922,-44.9860534667969,-48.2590522766113,-49.4869537353516,-42.867000579834,-18.2749500274658,-9.73995018005371,-2.86605024337769,10.0699501037598,8.22405052185059,7.59900045394897,9.6870002746582,12.6940507888794,13.3999509811401,5.19000005722046,7.66395044326782,8.83200073242188,15.117000579834,8.92500019073486,-0.76605004072189,10.0579500198364,6.98805046081543,9.02400016784668,SWING_RIGHT
0.88123750686646,0.88742500543594,0.6516125202179,0.04441250115633,0.58437502384186,-0.03382499888539,-2.72896242141724,-2.23038744926453,2.13716244697571,1.87206244468689,-2.56891250610352,-1.59032499790192,1.43962502479553,2.24221253395081,1.53243744373322,-0.33756250143051,-0.07851249724627,0.66178750991821,-0.58066248893738,-3.85976243019104,-0.81400001049042,0.15234999358654,3.05758738517761,1.59885001182556,-1.15733754634857,0.40892499685287,-0.98986250162125,-0.8897625207901,-0.55742502212524,-0.45113748311996,3.9175124168396,4.01884984970093,4.21561241149902,4.86310005187988,3.65117502212524,-3.73656249046326,-13.0055751800537,-18.6474742889404,-19.7483005523682,-15.3891372680664,-9.04241275787354,-2.41945004463196,4.50147485733032,6.34507513046265,5.21248769760132,0.64995002746582,1.41600000858307,3.90405011177063,7.9699501991272,32.451000213623,50.4160537719727,49.6830024719238,41.5900535583496,28.8570022583008,10.4599504470825,-9.39000034332275,-17.6200504302979,-11.2909507751465,3.67905020713806,4.37805032730103,-2.76000022888184,-2.27700018882751,-0.84705001115799,0.50700002908707,5.25195026397705,5.94000005722046,-12.9100503921509,-38.7940521240234,-52.4269523620605,-46.5570030212402,-37.4250030517578,-31.0099506378174,-19.6930503845215,-9.97395038604736,-1.04595005512238,10.2450008392334,10.570050239563,8.99205017089844,8.5420503616333,6.91395044326782,4.04595041275024,3.92100024223328,7.87395048141479,10.8840007781982,-0.7180500626564,6.69900035858154,13.1779508590698,10.7470502853394,7.00305032730103,5.60205030441284,SWING_RIGHT
0.9092875123024,-0.36368748545647,-0.49802500009537,-0.15716250240803,-1.14317500591278,-2.73624992370605,-1.56461250782013,2.42673754692078,4.97392511367798,5.37954998016357,0.82871252298355,-1.66361248493195,-0.73012501001358,0.06998749822378,1.00347495079041,0.5543999671936,-0.77247500419617,-0.41566249728203,-0.15180000662804,0.37235000729561,-0.48042500019073,2.41381239891052,3.11506247520447,3.97265005111694,0.58726251125336,-0.1530375033617,-0.12608750164509,-1.28919994831085,-1.52501249313354,-0.72971248626709,2.23519992828369,2.02509999275208,1.97986245155334,1.54247498512268,-0.57351249456406,-4.85443735122681,-12.2517995834351,-15.2902746200562,-14.4900245666504,-12.9555253982544,-9.12298774719238,-3.27964997291565,0.18645000457764,1.27489995956421,1.69400000572205,0.95700001716614,1.5940500497818,7.27500057220459,10.9270505905151,21.8230514526367,40.5730514526367,39.3420028686523,35.0350532531738,32.1040496826172,19.9840507507324,-4.78095006942749,-10.4610004425049,-7.78605031967163,-4.57800006866455,0.10905000567436,-2.19495010375977,0.14805001020432,3.20100021362305,6.20100021362305,13.2730503082275,11.9059505462646,-6.28200006484985,-25.4940013885498,-35.8090515136719,-38.8159523010254,-29.7940521240234,-21.9859504699707,-14.2720508575439,-11.0659503936768,-5.29305028915405,7.09095048904419,8.449049949646,11.8609504699707,11.320050239563,6.20505046844482,15.1000509262085,22.0630512237549,21.9690017700195,11.2429504394531,2.382000207901,-2.45400023460388,4.41000032424927,8.7049503326416,8.6980504989624,8.82000064849854,SWING_RIGHT
0.38761249184608,0.31679999828339,0.01264999993145,-0.22439999878407,-0.7900750041008,-0.97693747282028,-1.07098746299744,-0.7070249915123,1.35162496566772,1.26486253738403,3.23908758163452,1.455437541008,4.17257499694824,5.07539987564087,1.68519997596741,0.56650000810623,0.65450000762939,0.33687499165535,-0.09198749810457,-0.22879999876022,-0.7627124786377,-0.82857501506805,-0.26179999113083,-1.98687493801117,-0.09927500039339,-0.22151249647141,2.25128746032715,2.34052491188049,0.66673749685287,0.31006249785423,2.01286244392395,1.77705001831055,1.64752495288849,1.04527497291565,1.00732505321503,1.21879994869232,-0.99494999647141,-1.53986251354218,-8.29097461700439,-12.6098499298096,-16.8869247436523,-16.466724395752,-10.2836246490479,-5.67531251907349,-0.34622499346733,0.59805005788803,-0.5460000038147,0.56400001049042,1.5700501203537,2.33595013618469,5.59395027160645,10.2610502243042,22.0530014038086,54.5770530700684,49.0459518432617,34.8139533996582,21.6220512390137,2.88900017738342,-5.16000032424927,-13.7550010681152,0.15705001354218,0.79695004224777,0.91200006008148,1.74705004692078,3.62895011901855,3.91395020484924,4.11794996261597,7.16100025177002,-0.25095000863075,-8.77005004882813,-31.4920520782471,-46.1490020751953,-43.0320014953613,-35.253002166748,-19.8529510498047,9.27000045776367,8.05395030975342,7.95600032806396,8.41095066070557,8.53500080108643,9.87105083465576,9.68400001525879,16.0440006256104,18.469051361084,10.3189506530762,19.1110515594482,18.3919506072998,17.9370002746582,0.54300004243851,2.48505020141602,SWING_RIGHT
-0.37716248631477,-0.82183748483658,-1.96404993534088,-3.13816237449646,-3.013587474823,1.19281244277954,3.52261257171631,1.76824998855591,1.88553750514984,3.75471258163452,4.21162509918213,2.57207489013672,0.87752497196198,0.36079999804497,1.04128754138947,0.28311249613762,-0.12608750164509,0.16706250607967,0.8817874789238,-0.43037500977516,-3.9232873916626,-2.62088751792908,0.67897498607635,3.64155006408691,3.28239989280701,2.56286239624023,1.00759994983673,-1.17438745498657,-0.55123752355576,-1.10467493534088,1.01722502708435,1.31766247749329,1.14785003662109,0.85469996929169,-0.04207500070333,-0.65780001878738,-4.50010013580322,-12.1187000274658,-16.167387008667,-16.3787250518799,-13.8693494796753,-11.5163125991821,-3.2905125617981,1.982337474823,3.33478736877441,-1.18305003643036,-1.02705001831055,0.90195006132126,2.19195008277893,3.51405024528503,15.5070009231567,39.8590507507324,45.001953125,42.2200508117676,34.066951751709,23.6860504150391,-7.61595058441162,-21.8070011138916,-10.113000869751,-2.47095012664795,1.63695013523102,1.61100006103516,0.43305000662804,-0.30105000734329,0.57900005578995,3.67905020713806,4.4239501953125,-11.6839504241943,-34.1400032043457,-42.631950378418,-43.7770538330078,-41.7510032653809,-26.2860012054443,-16.0099506378174,-7.13505029678345,7.52205038070679,7.69200038909912,4.94400024414063,5.10900020599365,21.1030502319336,29.6929512023926,19.9410018920898,12.1240501403809,13.3570508956909,7.06005048751831,2.32905006408691,0.66495001316071,3.8730001449585,6.55695009231567,7.08705043792725,SWING_RIGHT
0.39256250858307,-0.1876875013113,-0.29644998908043,-0.16940000653267,0.02846249938011,0.19346250593662,-0.2744500041008,0.37784999608994,2.67231249809265,5.60683727264404,5.2720251083374,0.24722500145435,-0.85483747720718,-0.33563750982285,0.74813747406006,-0.1530375033617,0.0082499999553,-0.62947499752045,-0.77728748321533,-0.70028752088547,-2.00268745422363,-0.54395002126694,0.98931246995926,2.98924994468689,0.95136249065399,-0.86033749580383,-0.04551250115037,-0.31679999828339,-0.74923747777939,-0.74923747777939,1.26513743400574,1.81376254558563,1.26032495498657,0.95974999666214,1.39094996452332,-1.55457496643066,-3.9722375869751,-10.7674875259399,-15.9132871627808,-16.8845882415771,-15.6957626342773,-10.2433376312256,-4.82625007629395,0.13144999742508,2.93397498130798,-0.32295000553131,-0.60105001926422,2.01705002784729,2.52495002746582,5.98995018005371,25.0240516662598,35.485050201416,47.4439506530762,37.8139533996582,20.7889518737793,12.9880504608154,-4.88895034790039,-14.2870502471924,-13.0900506973267,-8.05395030975342,0.40395000576973,0.79395002126694,0.98295003175735,1.71105003356934,2.80995011329651,8.32905006408691,3.17895007133484,-17.8440017700195,-42.3760528564453,-48.0430526733398,-43.9470024108887,-33.2590522766113,-24.7060508728027,-17.1880512237549,-9.25800037384033,8.4820499420166,8.37900066375732,10.6249504089355,11.5159502029419,10.5679502487183,14.7340507507324,16.7980499267578,16.9630508422852,15.913950920105,7.98405027389526,4.37400007247925,3.8449501991272,8.24505043029785,9.16499996185303,8.83005046844482,SWING_RIGHT
-0.11082500219345,-0.09487500041723,-0.53350001573563,-0.06435000151396,-0.34773749113083,0.98023748397827,1.97587502002716,1.61672496795654,1.18428754806519,-0.65931248664856,-0.95617496967316,2.34850001335144,2.67588758468628,0.60637497901917,0.14327499270439,-0.3301374912262,-0.03327500075102,-0.43161249160767,-0.18961249291897,0.09748750180006,-1.21343743801117,-1.88416254520416,-2.76017498970032,-2.69665002822876,-0.07975000143051,0.68997502326965,1.14317500591278,0.32835000753403,0.49816250801086,-1.82311248779297,1.23584997653961,1.2615624666214,1.68423748016357,1.39590001106262,2.04586243629456,0.75941246747971,-0.69080001115799,-0.97789996862411,-8.76136207580566,-14.3140249252319,-15.9400997161865,-14.1979751586914,-11.7961254119873,-8.101637840271,-1.56681251525879,0.35595002770424,-1.54200005531311,-0.44505003094673,0.61695003509521,0.75105005502701,9.25800037384033,9.93795013427734,16.4239501953125,46.9320030212402,44.2980003356934,37.4119529724121,23.6260509490967,13.1200504302979,-10.6470003128052,-16.465051651001,0.48495003581047,0.92100006341934,-0.04005000367761,0.24600000679493,0.33705002069473,3.10500025749207,8.33595085144043,11.8180503845215,6.03495025634766,-13.7160005569458,-23.7580509185791,-34.1830520629883,-38.827953338623,-31.5040512084961,-22.1869506835938,10.0170001983643,8.97795009613037,9.86895084381104,9.9790506362915,9.70305061340332,16.3210506439209,10.0939502716064,11.6809501647949,11.5830001831055,11.2890005111694,14.1589508056641,15.2629508972168,2.92005014419556,4.45500040054321,7.25205039978027,SWING_RIGHT
0.21422499418259,-0.26111251115799,-0.29521250724792,0.03093750029802,0.75913751125336,0.33027499914169,1.20009994506836,-1.16627502441406,-0.57254999876022,2.72359991073608,3.18656253814697,-0.22563749551773,-0.0472999997437,2.20440006256104,2.68936252593994,-0.09075000137091,1.06507503986359,0.28558748960495,-0.49994999170303,-2.22254991531372,-3.96838736534119,-2.79069995880127,-0.84081250429153,2.89520001411438,-0.06751249730587,-2.11516237258911,-2.13592505455017,0.02653750032187,0.93678748607635,0.6484500169754,1.90286254882813,1.94081246852875,2.52230000495911,1.93586254119873,0.45031249523163,-2.97412490844727,-6.08588743209839,-14.9517498016357,-17.8301753997803,-18.200325012207,-16.0122871398926,-8.617262840271,-0.55879998207092,2.08367490768433,2.79235005378723,0.28200000524521,-1.46295011043549,2.18700003623962,6.06105041503906,18.1189517974854,24.0109519958496,47.9809532165527,47.1570014953613,40.3039512634277,24.5670013427734,11.2260007858276,-12.702000617981,-7.06095027923584,-4.85805034637451,-2.69595003128052,-1.25400006771088,0.04500000178814,0.32295000553131,1.16295003890991,2.68095016479492,3.83505010604858,-2.06595015525818,-22.7449512481689,-39.4909515380859,-44.4520530700684,-49.044002532959,-37.4440536499023,-26.2549514770508,-12.5940008163452,-2.05605006217957,8.10900020599365,8.65500068664551,10.9009504318237,12.4660501480103,13.1899509429932,14.9470510482788,13.957950592041,7.98195028305054,10.2300004959106,12.5719509124756,6.89700031280518,12.5719509124756,13.0030508041382,10.735050201416,4.17300033569336,SWING_RIGHT
-0.19868749380112,-0.69478750228882,-0.25011250376701,-0.44192498922348,-1.69537496566772,0.76394999027252,1.2196249961853,-0.97693747282028,-4.06546258926392,-1.4473249912262,0.83599996566772,0.98381251096725,1.0925749540329,0.95700001716614,-0.06806249916553,0.28558748960495,0.12925000488758,-1.45901250839233,-1.75711250305176,-2.63560009002686,-0.04675000160933,-3.85976243019104,-5.09726238250732,-0.79199999570847,1.13093745708466,-0.70647501945496,-0.49018749594688,-0.66123747825623,-1.27215003967285,-1.46272504329681,3.19673752784729,3.64017486572266,3.62312507629395,3.16249990463257,1.17603754997253,-3.99423742294312,-11.5445003509521,-17.6713619232178,-19.8973503112793,-16.5082492828369,-10.5474872589111,-4.36562490463257,0.6873624920845,3.75869989395142,3.54241251945496,-2.2630500793457,-1.06095004081726,7.70100021362305,16.6849498748779,40.7280006408691,45.2320518493652,49.150951385498,41.9280014038086,25.2109508514404,5.62095022201538,-11.9640007019043,-16.7430000305176,-14.062050819397,-6.85500049591064,4.20600032806396,-1.28505003452301,-1.35495007038116,-0.56894999742508,0.74400001764297,-1.44105005264282,-9.04995059967041,-23.6479511260986,-51.7660522460938,-71.5360565185547,-62.344051361084,-38.3490028381348,-23.8399505615234,-12.7780504226685,-5.48295021057129,-4.06305027008057,9.58095073699951,9.91200065612793,12.0000009536743,6.37995052337646,12.03600025177,16.9200000762939,8.87295055389404,14.4660005569458,15.8299503326416,18.0070514678955,10.9249505996704,7.52895021438599,7.04595041275024,5.20905017852783,6.88095045089722,SWING_RIGHT
0.1104125007987,0.00646249996498,-0.09363749623299,-0.38073748350143,-1.10164999961853,-1.84676253795624,-3.89193749427795,-1.93723750114441,5.7876501083374,3.93181252479553,0.75047498941422,-0.7790749669075,1.83906245231628,1.70706248283386,0.24227499961853,0.57144999504089,-0.03203750029206,-0.16775000095367,-0.34732499718666,-1.32591247558594,-2.48655009269714,0.78154999017715,4.21217489242554,0.33082500100136,-4.24819993972778,-3.9232873916626,-1.27696251869202,-0.03822499886155,-0.05156249925494,-0.62947499752045,1.93586254119873,1.7795250415802,1.86504995822906,1.8992874622345,1.036749958992,-3.67537498474121,-9.8426628112793,-17.8496990203857,-19.216724395752,-18.1343250274658,-15.4881372451782,-3.20512509346008,0.28407499194145,1.87357497215271,2.60053753852844,1.85700011253357,2.31900000572205,3.5310001373291,6.94500017166138,21.3750019073486,43.3759536743164,56.9950523376465,47.2770004272461,36.8160018920898,15.9090003967285,2.85105013847351,-6.81405019760132,-4.39800024032593,-5.03505039215088,-3.41205024719238,1.02900004386902,2.34105014801025,3.79395008087158,5.08995008468628,6.04500007629395,-2.25,-12.0019502639771,-43.1470527648926,-57.5560531616211,-60.3330039978027,-49.5949516296387,-25.8910503387451,-15.2730007171631,-5.5090503692627,-0.54795002937317,8.42505073547363,7.95600032806396,8.89395046234131,7.74705028533936,8.10599994659424,5.02005004882813,10.0240507125854,20.3680515289307,13.8720006942749,3.7390501499176,3.72300028800964,17.1520500183105,11.7750005722046,5.34105014801025,5.72700023651123,SWING_RIGHT
-0.43092501163483,-0.8486499786377,-0.59455001354218,0.53432500362396,0.56484997272491,2.18968749046326,1.46038746833801,0.86776250600815,2.02839994430542,1.89282500743866,0.64542502164841,1.15857493877411,0.77742499113083,1.62043750286102,2.13111257553101,1.38874995708466,0.7375500202179,-0.02103750035167,-1.0558625459671,0.16101250052452,-1.96487498283386,-2.44736242294312,0.85978752374649,-0.40218749642372,-0.15908749401569,-0.47313749790192,-1.43701243400574,-1.0925749540329,-1.06081247329712,-0.97528749704361,3.52412509918213,4.01884984970093,3.99079990386963,1.97504997253418,0.07521250098944,-5.19282484054565,-10.5769128799438,-15.9242877960205,-16.6768245697021,-16.1906242370605,-10.8090124130249,-6.17622518539429,-4.49391269683838,1.06974995136261,2.29501247406006,0.08505000174046,-2.77995014190674,0.03495000302792,4.82100009918213,15.3780002593994,33.9640502929688,44.9490013122559,39.6889533996582,30.7510509490967,26.8609504699707,-3.12495017051697,-3.25605010986328,-5.67000007629395,-5.65800046920776,-2.13600015640259,-1.39305007457733,-2.49000000953674,-3.08805012702942,-1.56300008296967,-0.30600002408028,2.6380500793457,0.68700003623962,-19.771951675415,-34.7770500183105,-38.5639533996582,-30.6130523681641,-23.941951751709,-21.3040504455566,-11.917950630188,-5.64795017242432,9.13800048828125,11.3479509353638,11.9899501800537,10.2349500656128,11.8420505523682,19.0099506378174,11.3629503250122,15.949951171875,11.9400005340576,7.54605054855347,8.56095027923584,7.90305042266846,8.05395030975342,9.66795063018799,7.764000415802,SWING_RIGHT
-0.72159999608994,0.85318750143051,1.02300000190735,-0.07535000145435,-1.90176248550415,0.38032498955727,0.67718750238419,2.75412487983704,2.70764994621277,1.41391253471375,0.77494996786118,0.19951249659061,0.01017499994487,0.97281247377396,1.93806254863739,-0.37042498588562,-1.43824994564056,-1.71558749675751,-1.04114997386932,0.80107498168945,-0.59523749351501,-2.12244987487793,-0.49266248941422,-1.52006244659424,-0.59894996881485,-2.17868757247925,-0.91409999132156,-1.19391250610352,-0.81152498722076,-1.3136750459671,4.50999975204468,4.69328737258911,4.57847499847412,4.63100004196167,3.32502508163452,-1.92953753471375,-5.70583724975586,-15.0250377655029,-18.885763168335,-17.668888092041,-14.5803623199463,-7.33933734893799,0.94379997253418,2.46482491493225,2.78492498397827,-0.15105000138283,3.24300026893616,2.26605010032654,4.16295003890991,14.5780506134033,36.4159507751465,48.6720008850098,45.847053527832,39.2700004577637,20.8150501251221,6.10005044937134,-23.0020503997803,-9.24900054931641,-0.85005003213882,-2.2150502204895,-1.04100000858307,-2.10195016860962,-0.55305004119873,-1.21800005435944,-0.42105001211166,-2.65005016326904,-2.24805021286011,-22.3500003814697,-45.892951965332,-48.2920532226563,-51.2899513244629,-32.4180030822754,-21.3349514007568,-11.5980005264282,-4.89795017242432,10.4670009613037,10.4700002670288,4.06305027008057,2.9610002040863,11.2000503540039,16.1419506072998,21.8430004119873,13.032000541687,12.28005027771,10.2400503158569,10.3759508132935,8.6050500869751,9.17700004577637,10.3879508972168,8.20005035400391,SWING_RIGHT
-0.80836248397827,-0.58354997634888,0.67842501401901,0.40108749270439,-0.37221249938011,0.26303750276566,-1.05888748168945,-1.80523753166199,1.50672495365143,3.73642492294312,2.77983736991882,1.69248747825623,1.20257496833801,1.42120003700256,1.53972494602203,0.31735000014305,-0.19703750312328,-1.28548753261566,-0.03822499886155,-0.10779999941587,-3.20732498168945,-1.09133744239807,1.52927494049072,1.82613754272461,1.43027496337891,1.76632499694824,-0.97886252403259,-1.65577495098114,-1.07181251049042,-0.8982874751091,2.61758756637573,3.53760004043579,2.44406247138977,0.30731248855591,-0.85566252470016,-5.38821268081665,-11.9989376068115,-16.262674331665,-17.0066871643066,-14.8259372711182,-11.2927370071411,-4.31557512283325,0.77288746833801,2.14114999771118,2.18638753890991,-3.86400008201599,-1.06095004081726,6.90705013275146,11.8320007324219,12.856050491333,38.3269500732422,49.900951385498,45.5700035095215,40.6920013427734,27.5050506591797,0.38505002856255,-16.1760005950928,-7.30305051803589,-2.84700012207031,-3.16995024681091,0.12600000202656,-1.3860000371933,0.67005002498627,2.6620500087738,4.10805034637451,4.69905042648315,-6.73695039749146,-24.7920017242432,-39.3229522705078,-45.7999534606934,-47.2510528564453,-29.4229507446289,-17.2669506072998,-6.30105018615723,-2.39895009994507,10.2180004119873,11.5540504455566,10.1389503479004,6.27000045776367,7.0770001411438,10.3279504776001,7.54605054855347,19.3519515991211,18.8400001525879,11.4490509033203,8.09205055236816,8.62800025939941,7.94400024414063,7.8120002746582,7.23000049591064,SWING_RIGHT
0.58561247587204,0.04564999789,-0.14987500011921,-0.31721249222755,-0.55054998397827,-0.71555000543594,-0.58726251125336,-1.24698746204376,-0.11316250264645,1.48348748683929,3.73876237869263,1.16104996204376,-0.27692499756813,1.68148744106293,2.23245000839233,-0.08579999953508,-0.22137500345707,-0.23732499778271,-0.37908750772476,0.05224999785423,1.29841244220734,-3.60676240921021,-1.66677498817444,0.93059998750687,2.44681239128113,0.61421251296997,-0.21285000443459,0.49692499637604,-0.11632499843836,-0.19085000455379,-0.12017499655485,-0.26812499761581,-0.00659999996424,1.58042502403259,3.15397500991821,1.25413751602173,-5.6643123626709,-10.0955247879028,-18.8368129730225,-19.6675872802734,-18.5009002685547,-13.9365873336792,-6.50127506256104,-0.54780000448227,0.79722499847412,5.338050365448,2.45595002174377,0.19305001199245,-1.50105011463165,-1.47495007514954,26.9950504302979,26.7430515289307,43.5889511108398,42.35400390625,30.3589515686035,25.431001663208,2.37900018692017,-17.0329513549805,-9.08205032348633,-7.60905027389526,4.8550500869751,3.17400026321411,1.7980500459671,2.65500020980835,1.67100012302399,3.74205017089844,-4.32795000076294,-14.8609504699707,-44.5140037536621,-47.8810539245605,-54.4429512023926,-45.6780014038086,-30.295051574707,-23.6839504241943,-18.1650009155273,9.23205089569092,9.34200000762939,8.52300071716309,7.74705028533936,6.51195049285889,16.9369506835938,10.3879508972168,20.9659519195557,9.2959508895874,16.40505027771,6.28005027770996,1.95600008964539,10.5370502471924,9.09495067596436,7.4170503616333,SWING_RIGHT
-0.23663750290871,-0.0496375001967,0.38651248812675,0.80918747186661,0.22646249830723,-0.7375500202179,2.27644991874695,3.20980000495911,2.54154992103577,4.26662492752075,4.24091243743896,2.11034989356995,1.27709996700287,1.61177504062653,0.90076249837875,0.09624999761581,0.01924999989569,-0.60390001535416,-1.66306245326996,-0.60390001535416,1.55608749389648,-1.30143749713898,-0.56471252441406,-1.42601251602173,-3.50294995307922,-4.46682500839233,0.04372499883175,0.64968746900558,0.14877499639988,0.37468749284744,2.19120001792908,2.39043760299683,2.50401258468628,1.82476246356964,-0.33398750424385,-5.94164991378784,-11.6115999221802,-17.0201625823975,-18.3151378631592,-15.6994752883911,-8.69659996032715,-0.17888750135899,1.74281251430511,2.11310005187988,2.18872499465942,1.3900500535965,3.76500010490417,3.96900010108948,8.81205081939697,18.7200012207031,32.5950012207031,35.3790016174316,35.6119499206543,19.0810508728027,3.96600008010864,-22.1809501647949,-4.01999998092651,-0.95505005121231,-1.57305002212524,-2.89500021934509,0.26295000314713,-0.2029500156641,0.15495000779629,2.88705015182495,3.72300028800964,-2.66700005531311,-10.8460502624512,-32.0640029907227,-46.0800018310547,-48.903003692627,-26.7409515380859,-15.2010011672974,-7.98705053329468,-2.581050157547,1.00005006790161,9.24105072021484,11.0299501419067,10.7689504623413,8.94195079803467,7.83600044250488,10.9249505996704,29.0899505615234,14.3359508514404,20.5950012207031,22.0290012359619,15.9810009002686,9.22005081176758,10.7640008926392,6.74400043487549,4.12200021743774,SWING_RIGHT
0.14217500388622,0.58313751220703,0.04193750023842,-0.73383748531342,-0.97693747282028,-1.25922501087189,0.78595000505447,1.95029997825623,0.05898749828339,-1.55608749389648,4.42048740386963,4.65753746032715,0.05417500063777,-1.11251246929169,1.02781248092651,0.0937749966979,0.44811248779297,-0.24832500517368,-0.87505000829697,-0.02722499892116,-0.19456249475479,-0.99728751182556,-2.31907486915588,-1.95992493629456,3.54145002365112,0.70826250314713,-1.59348750114441,-1.94521248340607,-0.12732499837875,0.6569749712944,1.85886251926422,2.34272503852844,2.90592503547668,2.44901251792908,1.12956249713898,0.59565001726151,-0.06655000150204,-4.00290012359619,-13.5822496414185,-18.8245754241943,-18.1037998199463,-16.4141998291016,-9.99405002593994,-2.06524991989136,2.13386249542236,1.35405004024506,-0.19605000317097,0.66000002622604,5.42700004577637,5.06295013427734,7.80195045471191,16.4910011291504,40.6110000610352,59.0089530944824,32.2620010375977,34.0050010681152,9.92805004119873,-4.69005012512207,-11.8060503005981,-5.06595039367676,-2.24295020103455,-0.71505004167557,0.24795001745224,-0.01200000010431,-0.10695000737906,0.18900001049042,0.02805000171065,2.81700015068054,-12.6340503692627,-29.976001739502,-43.8610534667969,-41.1310501098633,-35.6890525817871,-24.7180519104004,-14.2500009536743,8.99505043029785,7.99395036697388,5.97300004959106,8.36505031585693,8.23799991607666,14.3839502334595,16.5030002593994,15.5890502929688,6.70305013656616,15.2890510559082,14.0610008239746,4.44600009918213,6.03795051574707,14.473051071167,9.82095050811768,SWING_RIGHT
0.12375000119209,0.52579998970032,0.47203749418259,-0.10835000127554,-0.17916250228882,-0.56031250953674,0.9092875123024,-0.03753750026226,-2.21086239814758,-2.95982503890991,3.39061236381531,2.91170001029968,1.62648749351501,1.10233747959137,2.16645002365112,0.52992498874664,-0.02227500081062,-0.12251249700785,-0.49142500758171,-0.45966249704361,-1.66182494163513,-2.13949990272522,-1.54577493667603,1.54027497768402,3.3264000415802,2.56410002708435,1.19693744182587,0.49445000290871,-0.14932499825954,0.11577499657869,2.7531623840332,2.22296237945557,1.60352504253387,1.49366247653961,0.71293747425079,1.55471253395081,-1.18318748474121,-6.59779977798462,-12.971474647522,-16.8698749542236,-16.2406749725342,-13.6042499542236,-12.0234127044678,0.03121249936521,3.66341257095337,0.966000020504,4.2940502166748,2.0749499797821,3.37500023841858,3.78405022621155,8.30205059051514,28.0740013122559,40.6110000610352,50.9779510498047,42.5569534301758,27.1140022277832,20.3770503997803,12.0420007705688,-16.7410507202148,-2.79900002479553,0.66300004720688,0.96705007553101,2.30295014381409,2.99505019187927,2.34300017356873,3.13095021247864,3.26505017280579,2.99895024299622,-10.1779508590698,-25.1230506896973,-38.1790504455566,-41.0400009155273,-45.5629539489746,-25.7790012359619,-13.6830005645752,10.0459508895874,10.2660007476807,8.61900043487549,9.53805065155029,9.90195083618164,14.5830011367798,14.7990007400513,8.81505012512207,3.96000027656555,5.44905042648315,9.52605056762695,0.3199500143528,0.80895006656647,9.8569507598877,5.67900037765503,SWING_RIGHT
0.28256249427795,-0.44673749804497,-0.92193746566772,-0.64102500677109,0.31803750991821,-0.08635000139475,1.61301243305206,2.62212491035461,1.36867499351501,0.5293750166893,0.77990001440048,0.72613751888275,1.52143752574921,1.18786251544952,0.97652500867844,-0.47189998626709,-0.20556250214577,0.43340000510216,-0.60266250371933,-2.31302499771118,-1.18786251544952,-0.99233746528625,-0.74800002574921,0.51768749952316,0.08277499675751,-0.44990000128746,-0.690524995327,-1.23296248912811,-0.7345250248909,-1.91963744163513,2.14114999771118,2.1264374256134,2.52958750724792,2.64453744888306,2.23767495155334,-8.6160249710083,-11.6507873535156,-17.8875122070313,-18.0500373840332,-14.6953125,-8.9299373626709,-2.12877488136292,2.11543750762939,3.56936240196228,3.38359999656677,3.00105023384094,1.75395011901855,2.32905006408691,2.5900502204895,24.9330005645752,45.6750030517578,45.9169540405273,46.185001373291,33.6630020141602,17.920051574707,-8.11695003509521,-14.6869506835938,-8.19300079345703,-3.45000004768372,0.11595000326633,1.35195004940033,1.33500003814697,0.34905001521111,0.24405001103878,0.77505004405975,-1.26105010509491,-2.0419499874115,-31.0009517669678,-46.7790031433105,-50.8660507202148,-35.4450035095215,-23.6410503387451,-13.8910503387451,-6.8299503326416,-2.41500020027161,9.32805061340332,8.45100021362305,9.00705051422119,11.917950630188,12.4350004196167,10.9770002365112,17.4990005493164,14.3599510192871,9.54300022125244,9.62400054931641,6.67695045471191,9.01200008392334,6.66495037078857,6.02100038528442,7.13205051422119,SWING_RIGHT
-0.53350001573563,-0.02529999986291,0.81894999742508,0.89099997282028,0.52085000276566,-1.21522498130798,-0.62507498264313,1.82077503204346,2.97041249275208,-0.10835000127554,-1.94823753833771,-0.40273749828339,1.89887499809265,2.15187501907349,1.96611249446869,-0.20184999704361,-1.19143748283386,-1.20986247062683,-2.29102492332459,-1.18786251544952,1.16036248207092,0.83902502059937,-0.03822499886155,-1.51401245594025,-1.09862494468689,-0.38761249184608,-0.37413749098778,-0.44261249899864,0.19882500171661,-0.45484998822212,1.15156245231628,2.04833745956421,2.32925009727478,2.86439990997314,1.87481248378754,-2.77749991416931,-10.2836246490479,-15.1020374298096,-17.9364624023438,-17.3927879333496,-13.9818248748779,-9.62266254425049,-1.13794994354248,3.04150009155273,3.61212491989136,0.67905002832413,1.20105004310608,1.84005010128021,4.57005023956299,23.0149517059326,29.7889518737793,54.2539520263672,36.142951965332,46.2490539550781,31.6750507354736,20.0080509185791,-6.54600048065186,-12.5290508270264,-3.95100021362305,0.16905000805855,2.50395011901855,2.12100005149841,2.30295014381409,3.1600501537323,0.22200001776218,3.27705025672913,-9.96705055236816,-13.4149503707886,-34.5400505065918,-41.1289520263672,-43.597053527832,-41.110050201416,-28.3000507354736,-15.0670509338379,-6.00000047683716,8.15895080566406,10.5150003433228,7.91700029373169,8.98305034637451,7.06995010375977,11.5330505371094,13.9410009384155,17.4040508270264,9.10305023193359,4.55100011825562,9.56895065307617,14.4300003051758,11.6329507827759,6.23700046539307,4.86495018005371,SWING_RIGHT
1.06933748722076,0.62837499380112,-0.0692999958992,-0.00687499996275,0.28022500872612,1.63253748416901,1.76577496528625,0.76394999027252,-2.68977499008179,2.03087496757507,3.97457504272461,1.86958754062653,0.56361252069473,-0.40397500991821,-0.83036249876022,-1.06438744068146,-0.76752501726151,0.42611250281334,0.17201249301434,-0.75047498941422,-2.33378744125366,-3.03751254081726,-2.45355010032654,1.85308754444122,2.18899989128113,-0.32037499547005,-0.12979999184608,-0.12251249700785,0.38087499141693,0.49087500572205,-0.04688749834895,-0.43298751115799,0.03368749842048,1.17727494239807,1.44718754291534,-4.52938747406006,-10.8933000564575,-14.6316499710083,-18.3653240203857,-14.9041748046875,-10.5511999130249,0.94269996881485,5.7818751335144,5.54358768463135,4.92538738250732,3.61200022697449,2.40795016288757,0.43005001544952,3.29805016517639,9.09495067596436,34.7860527038574,44.9470520019531,47.4060020446777,33.4180526733398,21.6769504547119,-12.2520008087158,-24.7140007019043,-4.36005020141602,-0.10995000600815,0.27405002713203,2.07300019264221,2.01495003700256,2.18295001983643,2.9520001411438,3.706050157547,3.34905004501343,0.68400001525879,-10.8480005264282,-43.8919525146484,-50.3509521484375,-49.0030517578125,-29.8950023651123,-14.7120008468628,-2.27400016784668,0.70095002651215,11.3509502410889,8.82495021820068,9.24900054931641,11.4990005493164,12.9190502166748,12.7369508743286,11.9470500946045,7.5799503326416,14.2770004272461,14.1880502700806,4.71405029296875,4.68705034255981,3.62205028533936,5.27895021438599,7.08900022506714,SWING_RIGHT
-0.16940000653267,-0.39668750762939,-0.34897500276566,-0.52249997854233,-0.68860000371933,2.17497491836548,1.41019999980927,-0.45773750543594,1.8660124540329,6.64289999008179,5.64231252670288,1.26238751411438,4.43272495269775,3.90981245040894,1.80606245994568,0.51644998788834,0.61173748970032,0.68378752470016,-0.1567499935627,-1.18896245956421,-2.59517502784729,-0.22879999876022,4.90723752975464,4.35379981994629,2.11323738098145,-1.52982497215271,0.82183748483658,-0.14932499825954,0.47244998812675,0.19758750498295,1.28961253166199,1.41061246395111,2.40377497673035,2.86316251754761,3.24307489395142,-3.19164991378784,-13.5700120925903,-16.8540630340576,-18.4483757019043,-16.8210620880127,-12.7979497909546,-6.4840874671936,1.61576247215271,2.91816258430481,3.24678754806519,-0.67005002498627,-1.02195000648499,-0.69195002317429,2.00100016593933,3.48495006561279,55.2880516052246,51.153003692627,40.933952331543,36.7060508728027,18.4180507659912,12.3150005340576,-14.1049509048462,-8.34600067138672,-4.06500005722046,-4.40505027770996,1.81695008277893,1.61595010757446,-0.28695002198219,-1.3000500202179,-0.82995003461838,-2.41305017471313,-10.7860507965088,-26.695951461792,-49.3150520324707,-47.4760513305664,-45.987003326416,-34.0660514831543,-22.7599506378174,-9.22500038146973,-1.36005008220673,9.40694999694824,9.43095016479492,9.56700038909912,9.26100063323975,11.9110507965088,22.8769512176514,8.53305053710938,6.72705030441284,9.33195018768311,12.4380006790161,2.70000004768372,13.348051071167,9.05205059051514,2.25,1.77795004844666,SWING_RIGHT
0.02241249941289,0.11646249890327,-0.2073500007391,-0.04111250117421,0.8397125005722,-0.93417501449585,-1.44003748893738,-0.18535000085831,6.98733758926392,5.86946249008179,-1.06122493743896,1.91729998588562,2.88736248016357,1.15610003471375,-0.5517874956131,-0.43642500042915,-0.51218748092651,-1.54206252098084,-1.27338755130768,0.44192498922348,1.23488748073578,2.5946249961853,2.77791237831116,0.96854996681213,-1.02038753032684,-1.33567500114441,-0.33384999632835,0.6679750084877,-0.11879999935627,-0.56223750114441,1.38737499713898,1.52418744564056,1.56200003623962,0.88027501106262,-0.85566252470016,-8.47068786621094,-14.6365995407104,-16.1198120117188,-15.8130502700806,-14.5693626403809,-8.0148754119873,0.66659998893738,2.01286244392395,0.99274998903275,0.1229249984026,0.29805001616478,-0.33495002985001,5.13000011444092,10.8810005187988,36.4540519714355,45.9070510864258,42.4309501647949,33.6150016784668,37.6279525756836,13.4239501953125,-18.0700511932373,-11.7199506759644,-0.62205004692078,-3.00495004653931,-2.72205018997192,-0.48600003123283,0.43500003218651,-0.97200006246567,1.63200008869171,3.95700025558472,0.0259500015527,-15.4260005950928,-21.1390514373779,-42.8020515441895,-46.2739524841309,-34.2400512695313,-20.0470504760742,-6.20805025100708,2.5969500541687,3.72000026702881,10.078950881958,10.3429508209229,9.99795055389404,13.1940002441406,9.79395008087158,6.79200029373169,13.8340511322021,17.8579502105713,14.3599510192871,-2.43495011329651,13.7689504623413,16.6660499572754,5.6980504989624,4.32405042648315,7.13205051422119,SWING_RIGHT
-0.43326249718666,0.05293750017881,0.46213749051094,0.46213749051094,-1.09793746471405,-1.06617498397827,0.44137498736382,-2.68125009536743,-0.27692499756813,6.25308752059937,1.10233747959137,-0.88288748264313,1.27462494373322,2.91665005683899,2.60754990577698,-0.942287504673,-0.77371251583099,-2.86893749237061,-3.61528754234314,-0.35461249947548,1.20546245574951,-0.14451250433922,5.42409992218018,5.57796239852905,-0.96909999847412,-1.58482503890991,-0.85552501678467,0.00329999998212,-0.01127499993891,-0.21779999136925,2.72758746147156,3.16249990463257,4.82528734207153,5.41529989242554,1.31408751010895,-3.00107502937317,-12.0136499404907,-19.6553497314453,-20.2112617492676,-17.2485504150391,-11.6531248092651,-7.26357507705688,0.34773749113083,1.91152501106262,2.7531623840332,-0.34995001554489,-0.70605003833771,0.18105000257492,12.3390007019043,34.2949523925781,45.2850036621094,52.3999519348145,44.2720527648926,37.0530014038086,19.2709503173828,-6.36195039749146,-10.8720006942749,-3.132000207901,-2.85600018501282,-2.1739501953125,-0.43305000662804,0.03299999982119,-0.71295005083084,-1.89795005321503,-0.2080500125885,-2.58495020866394,-14.4180002212524,-49.5640525817871,-55.044002532959,-55.6600532531738,-34.8919525146484,-28.828950881958,-17.6530513763428,-9.32100009918213,-3.7590000629425,10.6399507522583,9.71100044250488,9.22005081176758,5.47305011749268,8.17094993591309,13.2520503997803,10.4100008010864,4.87395000457764,19.2040500640869,2.76495003700256,4.10595035552979,8.95605087280273,12.7609510421753,8.13794994354248,5.84595012664795,SWING_RIGHT
-0.63731247186661,-1.46203744411469,-1.6941374540329,-0.58107501268387,2.1041624546051,2.18487501144409,-4.7960000038147,-3.04782509803772,4.70882511138916,6.49261236190796,0.46337500214577,-3.45221257209778,-0.71802496910095,1.01323747634888,0.77494996786118,0.18535000085831,0.28187498450279,0.33082500100136,-0.54395002126694,-4.37648725509644,-6.00503730773926,2.46510004997253,4.80590009689331,2.99777507781982,-1.17686247825623,-3.01427507400513,-0.2080374956131,-0.17503750324249,0.05472499877214,0.29163751006126,1.25413751602173,1.2725625038147,1.43618750572205,1.42642498016357,-2.06401252746582,-3.65832495689392,-11.5175495147705,-16.7281131744385,-16.7367744445801,-16.2163372039795,-10.5279626846313,-1.83067500591278,0.49431249499321,1.52418744564056,1.38242495059967,1.00005006790161,0.90405005216599,1.34505009651184,7.82805013656616,20.5729503631592,23.860050201416,52.4749526977539,40.0549507141113,38.3170509338379,22.828950881958,-10.3150501251221,-6.9529504776001,-1.43205010890961,-2.35095000267029,-1.00095009803772,0.36300000548363,0.39405003190041,1.26405000686646,2.13495016098022,7.16100025177002,10.7329502105713,-11.2240505218506,-28.8840007781982,-41.4469528198242,-48.457950592041,-29.401050567627,-24.2539520263672,-15.1549510955811,-6.69195032119751,-2.41095018386841,8.1040506362915,8.93505001068115,12.2629508972168,16.7809505462646,16.9990501403809,11.8969507217407,-3.18195009231567,21.6840019226074,9.86895084381104,3.23895025253296,-3.26805019378662,13.5990009307861,14.4130506515503,11.2570505142212,9.76605033874512,SWING_RIGHT
-0.13034999370575,-0.37716248631477,-0.17668749392033,0.28874999284744,2.06139993667603,0.4475624859333,-1.06369996070862,-1.1064624786377,-0.0496375001967,6.83828735351563,5.57507514953613,-2.40514993667603,-2.13152503967285,1.68148744106293,3.29285001754761,-0.0015124999918,-0.1567499935627,-0.31556248664856,-0.90076249837875,-3.7338125705719,-2.5841748714447,-0.73094999790192,0.72049999237061,2.2488124370575,0.91107499599457,-2.60988759994507,-1.208624958992,-0.3753750026226,-0.10051249712706,0.1402499973774,1.54866254329681,1.86257493495941,2.11914992332459,1.93338751792908,-1.67914998531342,-5.38463735580444,-13.2560997009277,-16.5742492675781,-16.3616752624512,-14.6793622970581,-12.2017498016357,-4.95825004577637,0.43202498555183,2.99145007133484,2.80816245079041,-0.61305004358292,0.37500002980232,2.82000017166138,8.11605072021484,19.9909515380859,42.3130531311035,48.7369537353516,39.6289520263672,40.1700019836426,27.4759521484375,3.74400019645691,-11.6670007705688,-9.76395034790039,-0.83805006742477,0.93495005369186,-0.03600000217557,0.30795001983643,1.72605013847351,3.27195024490356,11.2120504379272,10.1370000839233,-8.65694999694824,-21.9910507202148,-33.8449516296387,-39.7540512084961,-37.3579521179199,-28.128002166748,-20.6260509490967,-10.8910503387451,-4.69695043563843,9.12405014038086,9.62895011901855,11.7240009307861,12.8590507507324,10.9320001602173,7.62495040893555,10.2090005874634,13.0270509719849,17.1780014038086,18.2419509887695,-0.6240000128746,9.50700092315674,17.9610004425049,13.8930006027222,9.43305015563965,SWING_RIGHT
-0.48468750715256,-0.76683747768402,-0.47368749976158,-0.0716374963522,-0.05335000157356,0.84823751449585,0.21779999136925,-0.02034999988973,-0.01306249946356,2.04063749313354,3.52261257171631,0.70661246776581,0.00893750041723,1.15733754634857,1.26981246471405,0.07906249910593,0.31487500667572,0.41263750195503,-0.40961250662804,-1.72053754329681,-3.03627490997314,-1.96487498283386,0.16101250052452,0.3979249894619,1.63556253910065,-0.63442498445511,-0.64294999837875,-0.02351249940693,-0.21903750300407,-0.38266250491142,1.69276249408722,2.00062489509583,2.13138747215271,2.52230000495911,3.17226243019104,-0.65174996852875,-7.84025001525879,-15.6261873245239,-17.9706993103027,-17.4050254821777,-13.8473501205444,-9.53837490081787,-0.90708750486374,1.44595003128052,2.02757501602173,0.18795001506805,1.37100005149841,2.35695004463196,5.11800003051758,12.6030006408691,36.9169502258301,47.7670516967773,47.3959541320801,40.9459533691406,22.1320514678955,13.9530010223389,-14.9830503463745,-11.2600507736206,-3.02400016784668,-2.80800008773804,0.96195006370544,0.2119500041008,-0.27300000190735,0.37800002098083,1.86900007724762,5.03895044326782,-0.05505000427365,-20.7370510101318,-33.5220031738281,-44.1769523620605,-44.7319526672363,-32.9470520019531,-21.8910007476807,-12.2580003738403,-4.99395036697388,8.73405075073242,10.1340007781982,12.0790510177612,11.8890008926392,11.2120504379272,13.6609506607056,9.62205028533936,11.356050491333,11.3790006637573,13.2730503082275,6.56700038909912,7.64205026626587,9.78705024719238,8.95200061798096,7.18005037307739,SWING_RIGHT
-0.94393748044968,-0.96236246824265,-0.65450000762939,-0.05458749830723,2.00406241416931,0.43779999017715,-1.82242500782013,-0.98546248674393,1.99787497520447,3.41632509231567,2.87388753890991,0.41208750009537,2.96188759803772,2.82741236686707,0.99371248483658,0.12677499651909,-0.39737498760223,-1.39301252365112,-1.46148753166199,-2.98979997634888,-2.94222497940063,0.13034999370575,1.92637503147125,1.89213752746582,-1.73758745193481,-1.96363747119904,-0.15180000662804,-0.1395625025034,0.14011250436306,-0.1370874941349,0.97446250915527,0.174212500453,0.24021250009537,0.52359998226166,-3.73037505149841,-8.98246288299561,-16.2419128417969,-19.0983371734619,-18.8588123321533,-14.8126001358032,-9.34422492980957,-1.39699995517731,0.58836251497269,0.62012499570847,0.57736247777939,2.94600009918213,3.40800023078918,4.31805038452148,7.38105058670044,31.7140522003174,46.2880516052246,45.4930534362793,44.2410011291504,29.7460517883301,-4.20195007324219,-20.0860500335693,-2.39205002784729,-2.65800023078918,-3.25095009803772,-3.10095024108887,-0.13800001144409,-0.36600002646446,1.12695002555847,1.81200003623962,3.01095008850098,-2.67600011825562,-25.9440021514893,-45.8599510192871,-57.1270523071289,-53.4160537719727,-37.1110534667969,-25.2259521484375,-9.35205078125,-5.86995029449463,-2.06295013427734,8.01600074768066,9.66495037078857,12.9379510879517,14.5830011367798,13.8859510421753,8.79795074462891,7.22805023193359,13.7140502929688,11.1300001144409,11.2600507736206,8.06805038452148,11.1660003662109,9.02805042266846,6.91395044326782,6.39195013046265,SWING_RIGHT
1.76082503795624,0.92895001173019,-0.60073751211166,-1.67461252212524,-1.13093745708466,-0.262212485075,0.02241249941289,-1.64285004138947,-1.69289994239807,2.8445999622345,4.291100025177,2.64412498474121,1.16352498531342,1.05723750591278,1.36510002613068,0.00206249998882,0.4296875,0.69244998693466,0.52016252279282,-2.02344989776611,-4.27996253967285,-3.38813757896423,-1.28438746929169,2.70819997787476,0.02048750035465,-0.83723747730255,-2.00021243095398,-0.30085000395775,0.53968751430511,0.15234999358654,2.70434999465942,1.57795000076294,0.82651251554489,1.09284996986389,2.37077498435974,-1.15252494812012,-7.59838724136353,-16.5864868164063,-19.7738742828369,-18.5264739990234,-17.2167873382568,-13.3159122467041,0.05321250110865,1.52542495727539,2.79839992523193,2.82405018806458,1.96200013160706,1.5289500951767,0.04200000315905,11.3599500656128,32.2309532165527,50.9689521789551,51.0310516357422,37.2520523071289,27.4849510192871,21.9550514221191,-7.06305027008057,-9.9529504776001,-6.19200038909912,-2.50395011901855,1.3000500202179,2.13795018196106,2.06805014610291,1.44600009918213,1.84095013141632,4.59195041656494,-1.53195011615753,-28.302001953125,-47.2579536437988,-48.3589515686035,-48.5220031738281,-39.7140007019043,-19.4749507904053,-13.8150005340576,-4.26900005340576,9.32295036315918,5.73900032043457,5.39400005340576,9.81600093841553,13.6489505767822,14.8780508041382,13.9270505905151,7.27605056762695,14.2930507659912,15.318000793457,9.42600059509277,6.5310001373291,9.36600017547607,8.63295078277588,7.97505044937134,SWING_RIGHT
0.26551249623299,-0.2549250125885,-0.5823125243187,-0.65078747272491,-0.94888746738434,0.2727999985218,-0.30140000581741,-0.85965001583099,2.41945004463196,3.44685006141663,2.21416258811951,-0.55797499418259,-0.65450000762939,1.02904999256134,1.42614996433258,-0.03946249932051,0.31735000014305,0.35034999251366,0.25506249070168,-1.99539995193481,-4.33125019073486,-3.21584987640381,3.48397493362427,3.61954998970032,3.02582502365112,-0.24584999680519,0.3979249894619,0.21463750302792,-0.28737500309944,-0.05403750017285,0.4478375017643,0.4613125026226,0.27926251292229,0.17778749763966,0.71912497282028,-3.66685009002686,-6.25198745727539,-15.0837497711182,-16.1466255187988,-16.0000495910645,-12.8772878646851,-8.78336238861084,-3.56427502632141,1.71476244926453,3.50336241722107,-0.2710500061512,0.30105000734329,1.01205003261566,0.59295004606247,9.6670503616333,31.9890022277832,39.3540000915527,42.4309501647949,38.6449508666992,34.7550010681152,17.2909507751465,3.3030002117157,-11.3659505844116,-8.51399993896484,-1.25895011425018,0.74895006418228,0.5380499958992,0.41595003008842,0.89700001478195,3.42300009727478,7.78305053710938,9.08295059204102,-18.5629501342773,-30.9670505523682,-33.5890502929688,-33.3139533996582,-32.2150497436523,-27.3760509490967,-18.117000579834,-8.26005077362061,9.06900024414063,8.22900009155273,8.66400051116943,8.32395076751709,14.5849504470825,15.0400505065918,13.6399507522583,14.4109506607056,11.9850006103516,9.36105060577393,2.29305005073547,3.35400009155273,8.88495063781738,8.22900009155273,5.90100049972534,SWING_RIGHT
1.3894374370575,0.13351249694824,-0.20239999890327,0.13846249878407,0.70661246776581,0.8787624835968,-1.294562458992,-3.53402495384216,-1.27380001544952,2.50483751296997,3.89881253242493,1.66553747653961,-0.17434999346733,0.18369999527931,-0.47121250629425,-0.3106124997139,0.08277499675751,-0.2398000061512,-0.84081250429153,-1.72411251068115,-3.55066251754761,-2.5500750541687,1.50975000858307,2.1620500087738,1.80785000324249,0.27706250548363,-0.50118750333786,0.38211250305176,-0.06875000149012,0.19511249661446,1.20284998416901,1.45818746089935,1.36784994602203,1.10151255130768,1.05008745193481,-2.56121253967285,-9.11075019836426,-15.7801876068115,-17.6211757659912,-16.425199508667,-13.6030120849609,-8.15058708190918,-0.87532502412796,2.76292490959167,2.6273500919342,0.93795001506805,-0.52395004034042,3.17400026321411,3.93495011329651,6.88695049285889,32.7049522399902,48.036003112793,40.276050567627,34.7310028076172,23.9610004425049,5.86005020141602,-8.3730001449585,-16.3750514984131,-4.05795001983643,-0.81900006532669,0.83700001239777,1.27605009078979,2.00595021247864,2.80305004119873,5.86500024795532,8.92800045013428,-5.19495010375977,-26.4250507354736,-41.2480506896973,-44.347053527832,-40.9470024108887,-30.6390018463135,-18.3280506134033,-11.3130006790161,-4.63995027542114,9.31995010375977,7.13205051422119,10.44105052948,11.2789506912231,11.4469509124756,11.3989505767822,6.6820502281189,10.3069505691528,14.2500009536743,11.1190509796143,3.81105017662048,3.03795003890991,8.33595085144043,6.31095027923584,6.76995038986206,SWING_RIGHT
2.67588758468628,1.57519996166229,-0.68626248836517,-1.35451245307922,-0.70083749294281,-0.75583750009537,-1.88223743438721,-2.331862449646,-1.03441250324249,3.41879987716675,3.56894993782043,0.41827499866486,1.11099994182587,1.15610003471375,-0.00453749997541,-0.96057498455048,-1.67901253700256,-0.42913749814034,0.65944999456406,-1.70334994792938,-4.24943733215332,-1.16338753700256,0.34416249394417,2.95253753662109,0.03877500072122,0.18177500367165,-0.48894998431206,0.37592500448227,0.15234999358654,0.07548750191927,2.90592503547668,1.94686245918274,1.9713374376297,2.80458760261536,2.31467509269714,-2.90936255455017,-12.1332750320435,-16.3249626159668,-20.548412322998,-17.4563121795654,-15.4844245910645,-4.70538759231567,1.01103746891022,2.51858758926392,1.88209998607636,1.85895013809204,0.97800004482269,3.49500012397766,9.38895034790039,25.5510005950928,52.993953704834,56.6070022583008,55.2180023193359,31.6729507446289,22.5030002593994,10.0050001144409,-18.6130504608154,-9.47895050048828,-1.22100007534027,-0.48600003123283,0.22005000710487,1.18500006198883,0.20505000650883,0.21000000834465,3.00405025482178,-3.44700026512146,-17.6050510406494,-32.5240516662598,-61.6789512634277,-61.0249519348145,-53.5330543518066,-26.1139507293701,-14.5980005264282,-5.85105037689209,-0.73905003070831,9.03105068206787,5.61600017547607,7.51695013046265,11.2290000915527,11.1139507293701,11.9370002746582,9.28200054168701,9.72000026702881,14.2960510253906,9.82605075836182,0.8809500336647,9.20100021362305,8.10900020599365,5.10900020599365,5.52300024032593,SWING_RIGHT
-0.24021250009537,-0.55797499418259,0.09198749810457,0.97404998540878,0.29356250166893,-1.21027493476868,-0.69602501392365,0.44508749246597,-0.43450000882149,-1.75271248817444,0.26179999113083,1.13176250457764,1.02657496929169,1.79506254196167,1.21357500553131,0.20858749747276,0.2245374917984,0.63249999284744,0.02529999986291,-0.96305000782013,-1.56777501106262,-0.0417999997735,-2.69169998168945,-2.28497505187988,0.84149998426437,-0.67347496747971,-0.71871250867844,-0.53542500734329,-0.46818751096725,-0.14808750152588,1.9432874917984,1.81499993801117,2.06057500839233,2.87911248207092,1.48623752593994,-2.20934987068176,-8.86641216278076,-17.1875,-20.3297882080078,-19.6285381317139,-14.4680252075195,-6.61732482910156,-1.1171875,2.27425003051758,2.42577505111694,2.36505007743835,3.78405022621155,1.80900013446808,5.68305015563965,18.8490009307861,34.0630531311035,48.0400505065918,47.881950378418,44.0970039367676,23.0700016021729,5.09895038604736,-9.50295066833496,-10.7650508880615,-4.89105033874512,1.94805014133453,1.11000001430511,0.25095000863075,-0.7990500330925,0.48105001449585,2.98695015907288,0.83505004644394,-7.8270001411438,-38.827953338623,-52.537052154541,-52.8439521789551,-44.7319526672363,-31.4250011444092,-19.7959518432617,-9.2629508972168,-3.24105024337769,9.00405025482178,10.7670001983643,13.1440505981445,11.2140007019043,7.66800022125244,9.80595016479492,11.7460508346558,14.5570507049561,7.59195041656494,12.4590005874634,11.6089506149292,10.7790002822876,9.66495037078857,8.87295055389404,7.32405042648315,SWING_RIGHT
