gyro_x_0,gyro_y_0,gyro_z_0,acc_x_0,acc_y_0,acc_z_0,gyro_x_1,gyro_y_1,gyro_z_1,acc_x_1,acc_y_1,acc_z_1,gyro_x_2,gyro_y_2,gyro_z_2,acc_x_2,acc_y_2,acc_z_2,gyro_x_3,gyro_y_3,gyro_z_3,acc_x_3,acc_y_3,acc_z_3,gyro_x_4,gyro_y_4,gyro_z_4,acc_x_4,acc_y_4,acc_z_4,gyro_x_5,gyro_y_5,gyro_z_5,acc_x_5,acc_y_5,acc_z_5,gyro_x_6,gyro_y_6,gyro_z_6,acc_x_6,acc_y_6,acc_z_6,gyro_x_7,gyro_y_7,gyro_z_7,acc_x_7,acc_y_7,acc_z_7,gyro_x_8,gyro_y_8,gyro_z_8,acc_x_8,acc_y_8,acc_z_8,gyro_x_9,gyro_y_9,gyro_z_9,acc_x_9,acc_y_9,acc_z_9,gyro_x_10,gyro_y_10,gyro_z_10,acc_x_10,acc_y_10,acc_z_10,gyro_x_11,gyro_y_11,gyro_z_11,acc_x_11,acc_y_11,acc_z_11,gyro_x_12,gyro_y_12,gyro_z_12,acc_x_12,acc_y_12,acc_z_12,gyro_x_13,gyro_y_13,gyro_z_13,acc_x_13,acc_y_13,acc_z_13,gyro_x_14,gyro_y_14,gyro_z_14,acc_x_14,acc_y_14,acc_z_14,motion_type
-2.93081259727478,-4.08608770370483,-5.14786243438721,-3.72460007667542,-3.04892492294312,-3.35706257820129,-4.01307487487793,-4.12486267089844,-5.25043725967407,-3.8391375541687,-0.10284999758005,3.36916255950928,5.75052499771118,5.20781230926514,4.82776260375977,16.9045257568359,17.2297115325928,4.15964984893799,1.57904994487762,1.18428754806519,2.27466249465942,7.10861253738403,9.94496250152588,3.78372502326965,-3.11987495422363,-5.07581233978271,-6.29530000686646,-6.29131269454956,-2.16452503204346,3.34317493438721,24.7770881652832,31.0981006622314,12.9156503677368,8.29111289978027,6.17622518539429,4.42681264877319,3.45798754692078,0.89911252260208,-4.23596239089966,-7.60608768463135,-9.76469993591309,-10.4468374252319,-7.99699974060059,-3.85041236877441,0.80602496862411,-0.78405004739761,-2.34795022010803,-2.12700009346008,-3.6889500617981,-6.20595026016235,-11.7910509109497,-49.3210525512695,-41.6089515686035,-11.6520004272461,38.8189506530762,35.7060012817383,26.356050491333,10.7209501266479,-1.80900013446808,-4.53900003433228,0.5950500369072,0.32895001769066,-3.40605020523071,-3.99495029449463,-3.39900016784668,-6.39495038986206,-17.3830509185791,-61.1140518188477,-78.6409530639648,-48.4180526733398,-25.5460510253906,-10.8900003433228,-5.32905006408691,-2.93700003623962,-1.24800002574921,14.2669506072998,15.8809509277344,14.2480506896973,11.8980007171631,11.2639503479004,5.88000011444092,6.52200031280518,4.11495018005371,12.8350505828857,24.5899505615234,11.731050491333,15.3400506973267,10.1449508666992,5.47005033493042,8.04495048522949,SWING_LEFT
-1.14716243743896,-0.88632500171661,1.65371251106262,3.2818500995636,2.34313750267029,4.23334980010986,12.1783752441406,10.5983619689941,2.18446254730225,1.45351254940033,3.09306240081787,4.13737487792969,5.86464977264404,7.46102476119995,6.47679996490479,-1.74020004272461,-1.39590001106262,0.01952499896288,1.89021253585815,3.63288736343384,4.79366254806519,4.49913740158081,9.67903709411621,10.3481121063232,2.77241253852844,2.46344995498657,1.84153747558594,-5.00376224517822,-5.17453765869141,-0.43505001068115,-5.46328735351563,-1.95868754386902,9.20810031890869,15.117712020874,8.22841262817383,-9.04626274108887,-27.2207374572754,-22.0831871032715,-10.2539253234863,-9.452712059021,-9.91897487640381,-11.4138746261597,-10.0803995132446,-5.30681228637695,0.62521249055862,3.16500020027161,2.69805002212524,-0.04395000264049,-1.18395006656647,-7.98105049133301,-10.6969509124756,-30.6420021057129,-51.5410537719727,-42.0640525817871,21.2740516662598,27.7710018157959,31.5150012969971,20.1000003814697,0.39405003190041,-5.98305034637451,-0.06495000422001,0.13800001144409,0.4609500169754,2.01300001144409,1.58205008506775,1.37595009803772,-4.39005041122437,-38.8399505615234,-78.6550521850586,-60.9510040283203,-34.2349510192871,-17.9490013122559,-8.80200004577637,-7.23105049133301,-3.52800011634827,11.8459501266479,11.4700508117676,11.0410509109497,11.7790508270264,11.0890502929688,8.60295009613037,2.71395015716553,-13.0570507049561,12.7890005111694,13.0309505462646,18.9469509124756,17.2110004425049,14.1670503616333,8.04705047607422,6.44700050354004,SWING_LEFT
0.04702499881387,-0.12017499655485,0.02241249941289,1.0399124622345,2.53192496299744,2.13015007972717,-8.40537452697754,-14.7883996963501,-4.629075050354,3.10323739051819,4.03672504425049,4.78403759002686,6.8318247795105,8.21273708343506,6.70230007171631,-0.52758747339249,-1.4970999956131,-3.06542491912842,-3.10488748550415,-2.0460000038147,-0.3104749917984,7.35336256027222,14.1702003479004,7.87682485580444,1.27709996700287,1.13671255111694,-3.20938754081726,-7.78538751602173,-3.59039998054504,3.81741237640381,0.86776250600815,1.93242502212524,3.37906241416931,2.90895009040833,2.48806238174438,3.79018759727478,16.7178001403809,15.180962562561,-1.52858746051788,-6.84474992752075,-11.3915996551514,-11.9209747314453,-7.80614995956421,-2.62941241264343,2.22626256942749,2.08905005455017,9.0400505065918,9.7630500793457,10.9099502563477,5.32800006866455,-9.26895046234131,-74.5260009765625,-47.086051940918,-18.9450016021729,41.370002746582,38.2729530334473,28.3960514068604,8.4460506439209,-3.75105023384094,-4.32795000076294,2.14200019836426,3.01395010948181,4.63800001144409,7.7989501953125,0.16200000047684,-11.3410501480103,-21.6970500946045,-64.5870056152344,-76.7770538330078,-55.795051574707,-24.1369514465332,-11.6230506896973,-5.59305047988892,-2.55105018615723,-0.97695004940033,12.5790004730225,19.150951385498,19.6009502410889,14.8159503936768,6.73995018005371,7.85295057296753,-3.04995012283325,-12.187050819397,35.7820510864258,3.82005023956299,23.15505027771,14.1949510574341,9.50100040435791,8.40405082702637,9.37395000457764,SWING_LEFT
-0.26565000414848,-0.52703750133514,-0.49788749217987,0.25382500886917,1.11993753910065,0.89209997653961,-1.44649994373322,6.7355751991272,12.8420877456665,7.11122512817383,4.22757482528687,5.76551246643066,8.36797523498535,9.14704990386963,7.3295750617981,0.43243750929832,0.34691250324249,-0.93940001726151,-3.15603756904602,-3.28941249847412,-0.49706250429153,4.67857503890991,17.4858741760254,23.0856990814209,11.6221876144409,5.84210014343262,3.12688755989075,-7.04769992828369,-7.10214996337891,-0.75831252336502,-1.07305002212524,-1.20106244087219,-0.04083750024438,1.58482503890991,1.53766250610352,0.91561251878738,0.18754999339581,-18.9187622070313,-25.2599868774414,-9.35935020446777,-8.44758701324463,-11.9387121200562,-10.6864995956421,-5.80703735351563,-0.54051250219345,-0.37200000882149,2.35304999351501,5.52600049972534,8.91795063018799,4.26705026626587,-1.67205011844635,-36.6750030517578,-54.0679512023926,-45.003002166748,7.18800020217896,44.4720039367676,34.6450500488281,20.8639507293701,4.86495018005371,-3.61200022697449,2.56905007362366,2.21399998664856,3.60105013847351,5.32305002212524,6.50400018692017,-1.21200001239777,-9.27600002288818,-41.9850006103516,-67.1689529418945,-59.6580009460449,-37.2330017089844,-18.3820514678955,-8.87895011901855,-4.34700012207031,-2.13405013084412,10.8330001831055,11.6160001754761,14.1190509796143,16.7560501098633,17.776050567627,12.8250007629395,19.0810508728027,-21.4609508514404,1.91100013256073,9.78600025177002,24.0649509429932,17.6539516448975,11.9869508743286,7.48395013809204,9.17805004119873,SWING_LEFT
-0.171187505126,0.08703749626875,0.2894375026226,0.43353748321533,-0.25272500514984,-1.25152504444122,-1.51442503929138,3.68884992599487,13.5983371734619,11.4295501708984,4.43973731994629,5.21867513656616,7.62451267242432,8.80220031738281,6.14157485961914,-0.72242498397827,-1.466437458992,-2.06909990310669,-2.83552503585815,-2.02235007286072,0.43779999017715,4.2581000328064,12.2295246124268,19.7993125915527,14.5579500198364,6.62076234817505,3.37218737602234,-4.77702474594116,-7.27430009841919,-2.6921124458313,0.01154999993742,1.26252496242523,1.85817503929138,1.87041246891022,1.08748745918274,-0.25025001168251,-2.38315010070801,-15.4259872436523,-24.5757865905762,-14.8414745330811,-8.63733768463135,-11.1332378387451,-11.153037071228,-7.36106252670288,-2.73515009880066,1.89105010032654,2.77395009994507,6.07005023956299,7.82100057601929,3.45705008506775,-0.96105003356934,-18.4039516448975,-63.8920516967773,-39.784049987793,-7.85100030899048,49.3480529785156,35.6890525817871,26.3370018005371,9.98295021057129,-1.42800009250641,2.85105013847351,2.98095011711121,4.14195013046265,2.25705003738403,3.90000009536743,1.28700006008148,-0.13199999928474,-20.7120018005371,-75.4429550170898,-75.5779571533203,-52.1710510253906,-25.1620502471924,-11.32200050354,-5.70300006866455,-2.61795020103455,10.3110008239746,10.1430006027222,13.5850505828857,13.3309507369995,19.6920013427734,15.8890504837036,12.6840009689331,-5.17905044555664,-25.2229518890381,35.1520500183105,12.8179502487183,16.4830513000488,13.7400007247925,5.36505031585693,7.65900039672852,SWING_LEFT
0.15097500383854,0.46048748493195,0.5324000120163,0.60472500324249,0.82403749227524,-0.11357499659061,-3.00189995765686,5.27821254730225,12.7253503799438,7.67525005340576,4.63402509689331,5.45214986801147,6.91267490386963,6.21073722839355,4.70043754577637,-0.16609999537468,-0.61325001716614,-1.60448753833771,-2.98760008811951,-3.26810002326965,-2.10608744621277,2.73872494697571,17.2287502288818,24.0462741851807,12.4499378204346,4.56761264801025,0.39379999041557,-6.75454998016357,-5.61536264419556,1.05077505111694,-0.52772498130798,-0.20817500352859,0.85208749771118,1.88897502422333,1.26981246471405,0.42487499117851,-0.6404749751091,-19.9524879455566,-25.9989128112793,-9.99872493743896,-9.33405017852783,-12.5878496170044,-10.7698249816895,-6.5045747756958,-0.97240000963211,-0.40005001425743,1.14795005321503,5.0779504776001,7.20300054550171,8.74995040893555,-0.4200000166893,-37.1329536437988,-56.3290519714355,-33.0090026855469,15.2760009765625,33.9480018615723,37.2510032653809,21.7210502624512,-1.15200006961823,-5.49705028533936,3.07395005226135,3.66300010681152,4.98795032501221,6.73095035552979,6.25005006790161,-1.20000004768372,-8.38304996490479,-40.5859527587891,-68.5510559082031,-61.3369522094727,-31.8349514007568,-13.606050491333,-9.85800075531006,-6.0600004196167,-1.62900006771088,9.85095024108887,11.2279500961304,12.0520505905151,17.3230514526367,15.6589508056641,15.3930006027222,21.7639503479004,-19.6000518798828,-3.97695016860962,29.6430015563965,6.24105024337769,16.1659507751465,15.1650009155273,6.82605028152466,5.12505006790161,SWING_LEFT
0.06379999965429,0.07617499679327,-0.03052499890327,-0.72434997558594,-1.45474994182587,-0.93128746747971,-0.01319999992847,2.94580006599426,12.4503498077393,13.3765497207642,7.10545015335083,5.53162479400635,5.56627511978149,8.00236225128174,7.52881240844727,0.08855000138283,-0.38541248440742,-1.65330004692078,-2.67423748970032,-2.22268748283386,-1.56461250782013,-0.09735000133514,7.98379993438721,14.8431253433228,10.0630750656128,5.0346999168396,3.96288752555847,-3.35307502746582,-8.69797515869141,-3.00464987754822,-1.20202493667603,-0.80258750915527,0.45539999008179,1.63212502002716,0.9814749956131,-1.03523755073547,-3.12991237640381,-16.1706867218018,-24.9895248413086,-16.0283756256104,-10.1765127182007,-13.2204875946045,-14.2723627090454,-8.78006267547607,-3.18931245803833,0.38400000333786,2.50605010986328,5.5770001411438,6.01200008392334,4.44405031204224,2.5729501247406,-8.50500011444092,-63.7219543457031,-50.9689521789551,-11.9470500946045,35.590950012207,34.1230506896973,29.1120014190674,7.65495014190674,-4.90800046920776,3.70095014572144,4.85100030899048,3.90300011634827,2.41800022125244,4.60695028305054,4.50900030136108,1.64400005340576,-2.17994999885559,-62.2849540710449,-51.9889526367188,-39.6040534973145,-19.4260501861572,-10.0309505462646,-4.17705011367798,-1.11195003986359,9.02205085754395,11.9220008850098,12.8680505752563,17.9749507904053,9.55605030059814,7.34295034408569,5.95395040512085,4.46400022506714,-10.9729509353638,33.2479515075684,4.57500028610229,11.9820003509521,12.5670003890991,7.39095020294189,12.5140504837036,SWING_LEFT
-0.0015124999918,0.10271249711514,0.24722500145435,0.00357499998063,-0.70358747243881,-1.58124995231628,-2.08835005760193,-2.31893754005432,5.74406242370605,14.6463623046875,21.8444881439209,17.9816989898682,7.25766229629517,13.1876249313354,15.3338623046875,0.93761247396469,-0.13034999370575,-1.31560003757477,-2.52862501144409,-3.33932495117188,-2.25445008277893,0.68873751163483,6.48422479629517,18.6029243469238,19.6527366638184,18.8959369659424,16.638599395752,-1.48142504692078,-12.5731372833252,-6.37615013122559,-1.94452500343323,-1.00347495079041,-0.16376249492168,0.7566624879837,1.46973752975464,0.91753751039505,-0.86570000648499,-3.44561243057251,-12.6330871582031,-16.5776882171631,-14.1638746261597,-18.0258369445801,-16.4009990692139,-6.82192516326904,-0.45608749985695,-0.39300000667572,0.54495000839233,2.88900017738342,5.63895034790039,3.60105013847351,1.88100004196167,-2.92995023727417,-40.5000038146973,-43.5679512023926,-6.73995018005371,24.0570011138916,26.0370006561279,18.5890502929688,8.25405025482178,0.23595000803471,1.96500015258789,1.96995007991791,1.74000012874603,1.3330500125885,-0.68505001068115,0.06300000101328,-0.86700004339218,-9.80805015563965,-33.2839508056641,-36.3300018310547,-27.177001953125,-13.1800508499146,-3.92805027961731,-1.90695011615753,-2.29005002975464,9.64995002746582,9.98505020141602,10.7299509048462,12.7510509490967,9.18705081939697,13.6090507507324,16.6020011901855,14.8639507293701,-9.41595077514648,23.064001083374,8.15505027770996,6.68895053863525,12.4129505157471,9.30900001525879,9.97500038146973,SWING_LEFT
-0.45608749985695,-0.26276248693466,-0.03822499886155,-0.14231249690056,-1.06809997558594,-2.42701244354248,-3.04865002632141,-1.27448749542236,8.89006233215332,16.6401119232178,15.5996503829956,10.0792999267578,7.89098739624023,13.5904998779297,11.7693128585815,0.49994999170303,-0.45347499847412,-1.59458744525909,-2.83167505264282,-2.70050001144409,-0.89416247606277,3.56124997138977,13.5993003845215,20.5570755004883,16.9818000793457,16.2485122680664,12.1703996658325,-3.63247489929199,-10.0832872390747,-1.51896250247955,-3.15878748893738,-3.59177494049072,-3.50996255874634,-2.83648753166199,-2.14912509918213,-2.06923747062683,-3.20718741416931,-8.22593784332275,-15.6004753112793,-15.3620500564575,-13.2631120681763,-17.1434993743896,-14.9301624298096,-5.39330005645752,0.3605250120163,2.09700012207031,2.86500024795532,6.13905048370361,5.14800024032593,3.6889500617981,-0.56805002689362,-10.1980504989624,-53.0809516906738,-28.8390007019043,-0.04605000093579,30.1420516967773,33.8590507507324,21.42405128479,2.37195014953613,-5.83500051498413,1.58205008506775,1.81200003623962,2.43705010414124,1.55505001544952,0.00795000046492,-0.96105003356934,-1.55205011367798,-15.5149507522583,-49.5100517272949,-35.3749504089355,-20.3700008392334,-11.3910007476807,-3.61200022697449,-2.14904999732971,0.15900000929832,11.2140007019043,11.53005027771,9.87705039978027,11.8699502944946,10.4830503463745,9.4819507598877,10.5049505233765,6.93405055999756,-2.10705018043518,18.5659503936768,4.04805040359497,16.0510501861572,9.17100048065186,9.19005012512207,12.6340503692627,SWING_LEFT
-1.2861750125885,-0.47918748855591,0.29741248488426,0.58011251688004,0.1380500048399,-0.65284997224808,-1.466712474823,-2.95899987220764,-1.19996249675751,13.533712387085,22.424186706543,10.0066995620728,6.027174949646,12.7103624343872,11.2255001068115,1.87769997119904,2.26641249656677,0.3573625087738,-1.76316249370575,-2.44323754310608,-1.28727495670319,0.12361250072718,5.83082485198975,17.0043506622314,24.2609119415283,23.0027866363525,12.1015129089355,-4.62137508392334,-10.5527124404907,-0.15070000290871,-2.22199988365173,-3.83556246757507,-4.48291254043579,-3.45853757858276,-2.30395007133484,-2.21292495727539,-2.23272490501404,-2.97659993171692,-9.63311290740967,-16.9068622589111,-17.1014251708984,-17.5638370513916,-16.6229248046875,-9.15172481536865,-1.57533752918243,1.64205002784729,1.62495005130768,3.59595012664795,3.30600023269653,3.60300016403198,3.80400013923645,-2.28299999237061,-41.401050567627,-35.6140518188477,-8.52705001831055,32.4820518493652,32.8680000305176,23.5780506134033,-0.39600002765656,-7.32195043563843,0.74100005626678,1.09095001220703,1.60605013370514,2.25495004653931,0.26895001530647,1.53900003433228,0.00105000007898,-17.1730499267578,-42.118953704834,-29.6310005187988,-24.6310520172119,-7.98495054244995,-3.61395025253296,-3.43005013465881,-1.18305003643036,10.1929502487183,10.8540000915527,9.68505001068115,9.93705081939697,10.9290008544922,12.528000831604,15.2970008850098,23.1840019226074,-10.675950050354,31.2480010986328,-8.44095039367676,12.0709505081177,7.00500011444092,10.8090009689331,10.0540504455566,SWING_LEFT
-0.30992498993874,-0.02213750034571,0.23168750107288,0.33082500100136,0.31116250157356,-0.25231251120567,-2.86577486991882,-6.17924976348877,-1.13038754463196,6.74396228790283,8.90890026092529,13.0798254013062,11.9490251541138,12.5989875793457,18.5410499572754,0.35227498412132,-0.0937749966979,-0.54670000076294,-1.20367503166199,-2.69568753242493,-4.17312479019165,-4.0983247756958,3.1354124546051,24.2504615783691,26.3852882385254,11.0237874984741,21.5283756256104,16.4938125610352,-10.3657121658325,-11.6525745391846,-2.14444994926453,-1.97243750095367,-1.93311250209808,-1.7077499628067,-1.16627502441406,-0.93389999866486,-1.83974993228912,-3.3602249622345,-9.20933723449707,-12.2363996505737,-9.1551628112793,-14.0595121383667,-16.8221626281738,-7.4288501739502,0.51424998044968,0.58095002174377,1.37805008888245,1.55100011825562,5.62905025482178,8.31405067443848,10.3519506454468,-0.93900007009506,-35.0370025634766,-56.0770530700684,-12.5740509033203,28.8250522613525,26.7030010223389,21.1350002288818,13.0830001831055,1.11705005168915,0.73395001888275,0.72000002861023,0.99495005607605,1.69695007801056,1.70400011539459,-0.74505001306534,-3.52305006980896,-7.80600023269653,-47.6920509338379,-54.612003326416,-35.3530502319336,-17.098051071167,-4.90500020980835,-2.71605014801025,-2.5489501953125,10.7779502868652,9.64005088806152,12.7080001831055,12.1000509262085,12.7579507827759,9.82905006408691,9.87195014953613,17.1439514160156,-21.492000579834,30.3349514007568,11.4720001220703,9.61605072021484,7.87995052337646,9.65700054168701,9.26400089263916,SWING_LEFT
-0.58286249637604,-0.6707249879837,-0.55330002307892,0.030387500301,0.93059998750687,1.16613745689392,-0.33439999818802,-2.9053750038147,-2.12066245079041,1.90671253204346,-11.854700088501,-12.4236745834351,5.57988739013672,17.4277114868164,18.2351131439209,0.2744500041008,1.60916244983673,2.07597494125366,1.44608747959137,-0.42336249351501,-2.12231254577637,-0.37578749656677,7.76545000076294,16.8436126708984,14.4780626296997,-14.9315376281738,-18.9296245574951,-3.26534986495972,-15.069037437439,-11.3400373458862,-0.99384999275208,-1.42546248435974,-1.92623746395111,-2.26641249656677,-2.23877501487732,-1.73043751716614,-1.22003746032715,-0.92509996891022,-4.42612504959106,-8.88084983825684,-7.54489994049072,-9.65181255340576,-12.6410627365112,-3.73903751373291,3.39638757705688,-0.13905000686646,-0.13005000352859,-0.45300000905991,0.81105005741119,2.51295018196106,2.61600017547607,-13.0939502716064,-53.7349510192871,-38.5750503540039,-6.75195026397705,26.9590511322021,32.275951385498,27.4290008544922,3.92400026321411,-5.02305030822754,0.28095000982285,0.66195005178452,0.16395001113415,1.9410001039505,3.16695022583008,-0.09405000507832,-2.73105001449585,-12.5359506607056,-59.1499519348145,-51.6030006408691,-39.2400016784668,-19.5030002593994,-12.4159507751465,-7.97295045852661,-2.28795003890991,8.97405052185059,10.5550508499146,12.0900001525879,11.3020505905151,12.7579507827759,17.3110504150391,16.2480010986328,3.57795023918152,-10.0080003738403,14.4250507354736,1.74405002593994,18.7120513916016,14.5309505462646,9.37395000457764,9.55605030059814,SWING_LEFT
-0.03808749839664,0.26303750276566,0.46832498908043,0.18411250412464,-0.65078747272491,-2.7913875579834,-4.72683763504028,-2.91912508010864,3.38002490997314,1.05476248264313,-11.3592872619629,-6.00063753128052,11.193187713623,24.2537631988525,18.8297996520996,0.32491248846054,-0.13969999551773,-0.65862500667572,-2.30903744697571,-3.49978756904602,-3.66135001182556,-0.33921250700951,18.8850746154785,25.3030242919922,4.73659992218018,-21.4757118225098,-23.7744369506836,-15.1624002456665,-20.2005367279053,-10.6057872772217,-1.52803754806519,-1.37486255168915,-1.30666244029999,-1.22017502784729,-1.54467499256134,-3.17624998092651,-3.79362487792969,-0.83160001039505,-2.57001256942749,-7.390625,-8.45281219482422,-9.35632514953613,-4.48236227035522,8.03055000305176,7.6898250579834,0.31500002741814,0.20700001716614,2.91300010681152,6.66405010223389,8.04300022125244,7.82805013656616,-26.4409503936768,-55.828052520752,-28.3570518493652,17.0149517059326,21.5850009918213,17.310001373291,20.0899505615234,8.84295082092285,2.68305015563965,0.86100006103516,1.32300007343292,2.03400015830994,0.15900000929832,0.05895000323653,-7.66200017929077,1.17705011367798,-18.435001373291,-63.8110542297363,-44.6430015563965,-19.8430500030518,-7.97100019454956,-3.64800024032593,-2.32305002212524,-2.88600015640259,9.46305084228516,11.8189506530762,12.5359506607056,12.7870502471924,18.4200000762939,12.9859504699707,1.77495002746582,-18.8310012817383,9.31395053863525,28.7190017700195,12.9040508270264,12.4350004196167,11.767050743103,10.2460508346558,7.20195055007935,SWING_LEFT
-0.17531250417233,-0.1214125007391,-0.10339999943972,-0.27953749895096,-0.71995002031326,-2.08243751525879,-4.88812494277954,-7.09747505187988,-3.22162508964539,1.7352499961853,-0.66453748941422,-14.5817375183105,-11.7420873641968,-12.7246627807617,-13.366512298584,-0.6679750084877,-0.74923747777939,-1.24836254119873,-1.85968744754791,-2.49301242828369,-3.58214998245239,-3.16291236877441,3.5425500869751,21.6152744293213,21.324462890625,3.08976244926453,-18.7992744445801,-17.1752624511719,17.2810001373291,21.1534118652344,-0.32161250710487,-0.56237500905991,-0.90076249837875,-1.34282493591309,-1.83686244487762,-2.49301242828369,-3.88863754272461,-3.80792498588562,-1.12351250648499,-2.61827492713928,-5.43111228942871,-7.31486225128174,-13.8767747879028,-18.7708129882813,-12.2069749832153,2.39595007896423,3.14805006980896,5.43300008773804,6.68100023269653,11.5810508728027,8.98695087432861,0.77895003557205,-41.1730537414551,-60.094051361084,-15.8719511032104,16.873950958252,29.3950519561768,21.5629501342773,8.19000053405762,0.55695003271103,1.23900008201599,1.48800003528595,1.68705010414124,1.79700005054474,1.20105004310608,-2.12895011901855,-2.90100002288818,-8.69400024414063,-25.1070003509521,-43.816951751709,-33.4830017089844,-28.0510520935059,-10.8019504547119,-5.46105003356934,-2.34705018997192,10.135950088501,10.5570001602173,11.5800008773804,12.9589509963989,13.9990510940552,8.08095073699951,8.56695079803467,24.7999515533447,-7.92900037765503,15.3859510421753,3.46605014801025,4.77300024032593,14.0710506439209,13.7280006408691,17.3260517120361,SWING_LEFT
-0.06641250103712,0.46474999189377,-0.38211250305176,-1.30432498455048,-2.11089992523193,-1.59032499790192,-0.78374999761581,-0.88770002126694,-0.0859375,0.25025001168251,-1.3249499797821,-14.3151245117188,-12.2927751541138,-4.35050010681152,-14.5117502212524,-2.40391254425049,-2.40459990501404,-2.15545010566711,-0.74250000715256,1.0702999830246,2.2980375289917,2.4371874332428,5.31148767471313,10.7104253768921,10.9712619781494,5.29278755187988,-20.7803745269775,-23.6220874786377,6.22558736801147,17.3248615264893,-1.29524993896484,-1.15087497234344,-1.38998746871948,-1.89983749389648,-1.84745001792908,-0.93005001544952,0.16664999723434,0.22756250202656,-1.61067497730255,-5.84938764572144,-7.90748739242554,-6.0774998664856,-8.74197483062744,-15.0126628875732,-15.8478374481201,3.20295023918152,2.12805008888245,1.2150000333786,0.7990500330925,-1.07805001735687,-1.06605005264282,-6.11505031585693,-31.7010021209717,-45.5029525756836,-18.400951385498,4.79595041275024,29.4529514312744,22.0999507904053,22.85205078125,8.73795032501221,2.10195016860962,0.78195005655289,0.45405003428459,-0.37605002522469,-0.71595001220703,-0.26895001530647,-0.72600001096725,-5.93805027008057,-25.1580009460449,-47.2710037231445,-36.3259506225586,-32.0910034179688,-13.242000579834,-5.90205049514771,-3.28395009040833,10.2030000686646,11.4430503845215,10.1760005950928,10.4140501022339,11.0890502929688,10.2600002288818,11.6040000915527,19.1749515533447,6.82095050811768,-8.10105037689209,21.691951751709,12.9360008239746,4.88295030593872,13.6039505004883,8.02605056762695,SWING_LEFT
-0.09487500041723,-0.11935000121593,-0.18122500181198,-0.31941249966621,-0.57901251316071,-2.03994989395142,-6.70037508010864,-12.7683877944946,0.20831249654293,-2.00859999656677,-20.74338722229,-9.80608749389648,-3.01606249809265,-8.08747482299805,-1.10921251773834,-0.49651250243187,-0.48592498898506,-0.68131250143051,-1.33691251277924,-2.9363124370575,-4.2554874420166,-3.79596257209778,10.4820375442505,28.4068126678467,8.06987476348877,-19.574499130249,-11.064624786377,5.77926254272461,11.9703378677368,9.2518253326416,-1.1611875295639,-1.21398746967316,-1.29827499389648,-1.34007501602173,-1.23433744907379,-1.35382497310638,-3.06913757324219,1.26252496242523,1.06974995136261,-4.1142749786377,-5.16559982299805,-12.4778499603271,-15.7004375457764,-10.978687286377,-4.45513725280762,2.00595021247864,2.73405003547668,3.6870002746582,7.47600030899048,14.5480508804321,12.939001083374,-3.20700025558472,-78.235954284668,-31.5190505981445,11.3100004196167,34.8199501037598,27.6660003662109,21.0649509429932,5.65995025634766,-1.21200001239777,2.35500001907349,2.4250500202179,2.75505018234253,3.02595019340515,2.9610002040863,-4.93905019760132,-11.5039501190186,-0.24705001711845,-77.1559524536133,-40.795051574707,-32.836051940918,-17.6280002593994,-7.0900502204895,-4.37400007247925,-2.91495013237,10.2199506759644,9.63495063781738,12.8419504165649,13.1250009536743,15.7759504318237,11.8939504623413,0.72600001096725,1.16895008087158,-2.1780002117157,11.4910507202148,1.64805006980896,13.8220510482788,14.3530502319336,13.113000869751,9.95100021362305,SWING_LEFT
-0.39063748717308,-0.3647874891758,-0.44302499294281,-0.6766374707222,-0.91272497177124,-2.04297494888306,-6.68538761138916,-10.8244123458862,-0.57846248149872,5.23861265182495,-7.52991247177124,-16.9762992858887,-5.93188762664795,25.2440376281738,22.143274307251,-0.08552499860525,-0.73479998111725,-1.35946249961853,-1.78103744983673,-2.41216254234314,-3.53553748130798,-2.74312496185303,4.62164974212646,23.3261871337891,21.7412242889404,-2.76031255722046,-17.2908992767334,-14.9848871231079,-20.9463367462158,-14.2180500030518,-1.32192504405975,-1.3330625295639,-1.47977495193481,-1.77320003509521,-2.21842503547668,-2.47059988975525,-3.31760001182556,-3.28020000457764,0.04867500066757,-2.22543740272522,-4.29151248931885,-7.50873756408691,-16.0367622375488,-7.23263740539551,0.46200001239777,2.7769501209259,3.51705026626587,5.21295022964478,6.33105039596558,10.6489505767822,9.85395050048828,-0.24495001137257,-37.396053314209,-61.794002532959,-10.7880001068115,21.4870510101318,28.8589515686035,22.8780002593994,8.86500072479248,1.31595003604889,1.56705009937286,1.56705009937286,1.97895014286041,1.59600007534027,1.91505014896393,-5.98095035552979,-8.32500076293945,-0.50805002450943,-32.3310012817383,-39.6259536743164,-21.8790016174316,-14.6650505065918,-7.17795038223267,-3.0949501991272,-1.27395009994507,10.3800001144409,10.7299509048462,12.7200002670288,11.1370506286621,12.4249505996704,9.63000011444092,5.78400039672852,18.2290515899658,-3.79305028915405,16.9639511108398,6.38295030593872,-1.08195006847382,9.17505073547363,8.79705047607422,9.97305011749268,SWING_LEFT
0.03355000168085,-1.13561248779297,-3.40573740005493,-5.63516235351563,-5.56215000152588,-2.32649993896484,2.17497491836548,4.51879978179932,3.96921253204346,6.15986251831055,15.9051752090454,18.0795993804932,8.37938785552979,17.7350254058838,20.0118865966797,-4.19498729705811,-4.94133758544922,-2.31096243858337,2.35468745231628,7.40932512283325,10.9367504119873,11.2085876464844,9.26529979705811,8.17616271972656,9.7096996307373,17.4701995849609,26.5306243896484,16.8581867218018,-15.308012008667,-18.0060367584229,-1.27077496051788,-0.93334996700287,-1.72301244735718,-3.16456246376038,-4.01843738555908,-4.38556241989136,-3.74935007095337,-2.05259990692139,-2.59421253204346,-7.7655873298645,-11.2385625839233,-13.571662902832,-14.2353744506836,-3.4154999256134,2.2844250202179,11.5930509567261,5.92095041275024,2.37705016136169,-1.17900002002716,-5.31300020217896,-12.9570007324219,-16.9450511932373,-35.0850028991699,-41.5080032348633,-13.0390510559082,18.7180500030518,26.7199516296387,33.5670013427734,12.6349506378174,-1.77795004844666,-0.01905000023544,-1.75800013542175,-2.89095020294189,-3.61905026435852,-4.97700023651123,-0.90600001811981,-3.04905009269714,-7.46100044250488,-42.6270027160645,-51.5389518737793,-49.7070007324219,-26.7979507446289,-16.9429512023926,-11.1490507125854,-5.7480001449585,11.6040000915527,10.1880006790161,10.7059507369995,9.70695018768311,10.03005027771,11.7600002288818,8.94300079345703,10.5790500640869,-4.2810001373291,5.28795003890991,12.5449504852295,3.25005006790161,19.8979511260986,12.6670503616333,8.77305030822754,SWING_LEFT
-0.36574998497963,-0.03024999983609,0.20074999332428,0.2910875082016,0.17393749952316,-1.1611875295639,-5.97272491455078,-12.2182502746582,-5.27064990997314,2.83401250839233,-1.17727494239807,-7.93856239318848,-5.7369122505188,-11.5655374526978,-18.9281120300293,0.66605001688004,0.0677874982357,-0.79681247472763,-2.3339250087738,-3.82964992523193,-4.8214373588562,-3.88190007209778,4.49872493743896,23.418586730957,19.844274520874,1.49077498912811,-13.3427248001099,-16.7983741760254,6.86523723602295,17.9955883026123,-2.8949248790741,-2.90908741950989,-2.53907489776611,-1.72589993476868,-0.93898749351501,-0.74263751506805,-2.56286239624023,-2.23451256752014,2.95088744163513,0.59179997444153,-4.50986242294312,-9.19696235656738,-14.9418497085571,-14.8724126815796,-11.6674251556396,1.40400004386902,1.83105003833771,4.52295017242432,8.03400039672852,10.9890003204346,10.3789501190186,2.83395004272461,-53.4210014343262,-53.0209541320801,-7.46100044250488,18.9340515136719,28.8610515594482,19.2400512695313,12.5719509124756,5.25105047225952,1.59900009632111,1.77300012111664,2.33595013618469,3.42600011825562,1.58700013160706,-3.17400026321411,-8.97000026702881,-7.5450005531311,-41.403003692627,-36.7350006103516,-28.3290004730225,-20.1180000305176,-7.67895030975342,-4.16505002975464,-2.71095013618469,10.2480001449585,10.4470500946045,11.4990005493164,12.8110504150391,9.78600025177002,10.9690504074097,5.38200044631958,21.9310512542725,-9.34395027160645,16.9969501495361,6.21795034408569,2.71605014801025,9.27795028686523,8.9170503616333,10.1239500045776,SWING_LEFT
-0.509850025177,-0.28861248493195,-0.12553749978542,-0.1220999956131,-0.52662497758865,-2.06002497673035,-4.91328763961792,-5.9907374382019,0.45374998450279,6.97551250457764,10.36598777771,10.953800201416,6.90387487411499,12.5784997940063,15.3797874450684,0.66192501783371,0.09858749806881,-1.04472494125366,-2.36665010452271,-3.44547486305237,-3.73725008964539,-0.88233751058578,12.8613376617432,23.6649875640869,15.1815128326416,12.7859878540039,22.9636001586914,10.8633251190186,-10.990650177002,-7.57625007629395,-3.65268754959106,-2.69554996490479,-1.70087504386902,-0.86363750696182,-0.55302500724792,-1.30748748779297,-3.48919987678528,-5.07278728485107,-6.56988763809204,-8.74802494049072,-11.4430246353149,-16.1552867889404,-15.1507120132446,-6.60357475280762,-0.74497497081757,0.82695001363754,2.34300017356873,3.98895025253296,7.11405038833618,8.67600059509277,5.08800029754639,-10.3660507202148,-57.8500518798828,-39.669002532959,0.15900000929832,31.2820510864258,27.646951675415,27.2130012512207,9.32205009460449,-1.65105009078979,1.89600014686584,1.91700005531311,2.44395017623901,2.09700012207031,0.966000020504,-2.0460000038147,-6.96300029754639,-15.3070507049561,-61.2270011901855,-53.3710517883301,-41.3170509338379,-16.1470508575439,-9.84105014801025,-4.4170503616333,-2.7810001373291,9.99900054931641,11.2729501724243,12.2980508804321,11.953950881958,11.4910507202148,10.7580003738403,15.4459505081177,6.58905029296875,-2.69100022315979,27.1860008239746,-1.67805004119873,13.6180505752563,12.1069507598877,11.5390501022339,9.46305084228516,SWING_LEFT
0.4989874958992,0.45773750543594,0.42693749070168,-0.1922249943018,-1.04046249389648,-2.52725005149841,-5.62196254730225,-6.80006265640259,4.01884984970093,11.257399559021,8.76315021514893,10.9968376159668,8.33428764343262,14.7490749359131,19.4915866851807,-1.05682504177094,-2.26847505569458,-2.5645124912262,-2.53797507286072,-2.17827486991882,-1.90492498874664,1.32673752307892,11.8672122955322,25.4036750793457,20.3864364624023,9.19641208648682,20.3053131103516,16.2196369171143,-13.4651002883911,-16.1213245391846,-1.25785005092621,-0.16156250238419,-0.08552499860525,-0.22068749368191,-0.58863747119904,-1.12804996967316,-2.13042497634888,-3.36173748970032,-6.53661251068115,-8.71062469482422,-8.97242450714111,-14.5315494537354,-15.7436122894287,-3.58407497406006,3.86649990081787,2.49705004692078,3.60795021057129,5.67000007629395,5.58105039596558,9.04500007629395,8.42700004577637,-12.2629508972168,-63.3010520935059,-47.5939521789551,-7.72395038604736,28.6260013580322,24.8179512023926,23.2570514678955,10.957950592041,1.9980001449585,1.38795006275177,1.6270500421524,0.98100006580353,0.27195000648499,-0.66405004262924,-7.81500053405762,-12.8950510025024,-11.4889507293701,-60.6660041809082,-65.6860504150391,-45.7189521789551,-20.4370517730713,-9.59700012207031,-6.42600011825562,-4.68000030517578,10.2049503326416,10.5619506835938,10.6789503097534,10.8229503631592,13.3999509811401,17.3689498901367,17.8189506530762,3.02295017242432,-7.05900049209595,29.0490016937256,9.09195041656494,13.7070007324219,13.6800003051758,12.3730506896973,9.1200008392334,SWING_LEFT
-0.43628749251366,-0.76711249351501,-0.51177501678467,-0.01993750035763,-0.00646249996498,-1.20408749580383,-1.08693754673004,-0.75212502479553,-0.00233749998733,1.712975025177,7.05980014801025,12.4928379058838,11.4614496231079,15.1673498153687,14.1385746002197,-1.208624958992,-0.4991250038147,0.20597499608994,0.28462499380112,-0.00852499995381,-3.02238750457764,0.79763752222061,13.1961498260498,18.0114002227783,8.70003700256348,11.5872621536255,27.3112125396729,7.91532516479492,-18.8410739898682,-8.24326229095459,-1.12323749065399,-1.11003744602203,-1.77485001087189,-2.4612500667572,-2.58307504653931,-1.96679997444153,-2.60796236991882,-4.30182504653931,-8.18097496032715,-9.74861240386963,-11.1656875610352,-14.9593124389648,-12.9219751358032,-6.62227487564087,-2.78616237640381,1.80405008792877,1.14795005321503,1.07205009460449,2.14695000648499,4.0290002822876,0.07800000160933,-17.4150009155273,-62.1150016784668,-35.3250007629395,-7.77195024490356,29.0329513549805,36.0270004272461,29.9839515686035,5.25600004196167,-4.20405006408691,1.38795006275177,2.15700006484985,3.07905006408691,1.94295012950897,2.81805014610291,0.39195001125336,3.45195007324219,-11.5780506134033,-54.235954284668,-52.5180015563965,-45.0220527648926,-20.6050510406494,-9.26400089263916,-4.49595022201538,-2.08905005455017,10.8420009613037,9.11805057525635,10.9140005111694,12.9450006484985,13.0980005264282,9.35700035095215,15.517050743103,13.2469511032104,-3.96495008468628,15.4930505752563,2.17200016975403,5.98800039291382,15.7540512084961,7.13505029678345,8.16000080108643,SWING_LEFT
-0.87697499990463,-1.19515001773834,-1.25496244430542,-1.0399124622345,-0.93692499399185,-1.88154995441437,-4.02159976959229,-2.65993738174438,5.64671230316162,7.6377124786377,9.62898731231689,13.308762550354,14.5464000701904,16.3491630554199,9.0723876953125,-0.21064999699593,0.22646249830723,0.5489000082016,0.45388749241829,-0.82541251182556,-2.07074999809265,-0.46928748488426,13.4077625274658,23.843599319458,10.5461120605469,9.17193698883057,22.4217128753662,-3.17074990272522,-21.70973777771,-4.8093376159668,-1.45172500610352,-1.66388750076294,-1.86230003833771,-2.05576252937317,-1.87728750705719,-2.08353757858276,-2.98278737068176,-5.08419990539551,-6.51626253128052,-8.09847450256348,-13.3497371673584,-19.2740631103516,-10.6831998825073,-0.81688749790192,-1.73098754882813,2.34600019454956,1.40895009040833,1.43100011348724,3.89100027084351,5.42295026779175,6.99000024795532,-12.3780002593994,-71.4029998779297,-36.1990509033203,7.27905035018921,23.9029502868652,27.5770511627197,25.3999519348145,5.00700044631958,-3.37500023841858,1.46400010585785,1.07595002651215,0.72405004501343,1.28700006008148,-0.63000005483627,-6.02400016784668,-6.13905048370361,8.14395046234131,-78.376953125,-51.4410018920898,-25.5769519805908,-15.0169506072998,-7.41300058364868,-4.73295021057129,-2.79495024681091,10.3249502182007,10.8660001754761,10.9909505844116,14.3680505752563,14.7730503082275,15.7900505065918,6.49995040893555,-15.4969511032104,13.3069505691528,32.2900505065918,6.78000020980835,7.32900047302246,10.7749509811401,8.0110502243042,7.53495025634766,SWING_LEFT
-0.61971247196198,-0.61311250925064,-0.6678375005722,-0.74414998292923,-0.87931251525879,-1.41748750209808,-4.69713735580444,-12.8323249816895,-0.74827498197556,6.0997748374939,-10.4487628936768,-14.0234870910645,-9.61551284790039,-11.5098495483398,-5.00059986114502,-0.79846251010895,-0.97968751192093,-0.98669999837875,-1.24244999885559,-2.49480009078979,-4.21726226806641,-4.89417505264282,1.43536245822906,30.1680507659912,25.034761428833,-8.18152523040771,-21.1627616882324,-6.51571226119995,20.2201995849609,14.8685626983643,-2.68262505531311,-2.68881249427795,-2.71370005607605,-2.80224990844727,-2.55791258811951,-1.65549993515015,-0.67058748006821,1.15087497234344,9.67518711090088,6.60536241531372,-5.38408756256104,-14.1594753265381,-21.723762512207,-17.276050567627,-4.99674987792969,3.71295022964478,4.31400012969971,5.1340503692627,8.93400001525879,15.178050994873,20.5570507049561,6.90300035476685,-65.0059509277344,-63.7060546875,-0.94905006885529,33.7110023498535,16.8720016479492,8.4820499420166,6.4699501991272,1.02404999732971,0.68595004081726,0.89400005340576,1.04295003414154,1.47405004501343,1.45005011558533,-3.61395025253296,-16.3560009002686,-4.44495010375977,-52.3579521179199,-42.5070037841797,-23.4760513305664,-16.4610004425049,-9.20205020904541,-4.88400030136108,-2.31105017662048,9.82200050354004,10.2720003128052,11.4940509796143,11.5110006332397,15.3210010528564,10.7850008010864,1.8510000705719,-0.15495000779629,-16.1340007781982,13.9009504318237,11.5699501037598,12.8209505081177,16.6770000457764,13.3189506530762,11.5510501861572,SWING_LEFT
-0.96566247940063,-0.60307496786118,-0.41566249728203,-0.4464625120163,0.09817499667406,0.72888749837875,0.43037500977516,-1.64807498455048,-3.03737497329712,-1.31353747844696,-16.1532249450684,-17.7412128448486,8.38090038299561,20.4941005706787,16.0855751037598,2.29844999313354,1.66980004310608,0.48331248760223,-0.49623748660088,-1.35478746891022,-2.12973737716675,-0.64294999837875,8.26306247711182,15.8207502365112,9.9126501083374,-16.4430751800537,-22.2806377410889,-16.8143253326416,-19.2458744049072,-1.44539999961853,-2.97453737258911,-3.44561243057251,-3.30660009384155,-2.24111247062683,-0.93981248140335,-0.83957499265671,-1.40153753757477,-1.59981250762939,-5.46851253509521,-8.14632511138916,-1.46739995479584,-5.69291257858276,-11.5688371658325,-4.25672483444214,2.48517489433289,-0.02700000070035,-0.39600002765656,1.3090500831604,1.05000007152557,3.94800019264221,1.94595015048981,-8.75895023345947,-50.8710021972656,-36.0910530090332,-8.09805011749268,37.0690536499023,52.9570541381836,12.9720010757446,-11.9590501785278,-3.22395014762878,0.70305001735687,0.60705000162125,0.43005001544952,1.25595009326935,2.19300007820129,1.50300002098084,0.03195000067353,-16.5930004119873,-49.6060523986816,-51.8910026550293,-40.933952331543,-13.9080009460449,-8.6650505065918,-6.00705051422119,-2.63205003738403,11.2830009460449,12.247950553894,12.4090509414673,11.3880004882813,12.0589504241943,13.5529508590698,12.5860509872437,19.9360504150391,3.6910502910614,20.2309513092041,-7.50300025939941,15.5149507522583,17.9719505310059,12.6739501953125,9.07200050354004,SWING_LEFT
-0.42129999399185,-0.10903749614954,0.05307500064373,-0.19607499241829,-0.38596248626709,-0.40507498383522,-2.84267497062683,-1.81939995288849,1.91386246681213,1.51222503185272,-11.4812498092651,-13.7608623504639,-7.92178726196289,-12.9298124313354,-2.64288759231567,0.43944999575615,-0.49197500944138,-1.455162525177,-1.14950001239777,-0.6569749712944,-1.97010004520416,-1.16833746433258,15.3835000991821,23.6398258209229,9.34161281585693,-13.0091495513916,-21.9690628051758,3.94611239433289,25.1157493591309,15.3770370483398,-2.55406260490417,-1.83012497425079,-1.07717502117157,-0.86638748645782,-1.15692496299744,-1.48582494258881,-1.64188754558563,-1.6747499704361,-4.41773748397827,-7.00878763198853,-8.48842525482178,-12.6444997787476,-16.5398750305176,-15.6327877044678,-5.95787477493286,3.21000003814697,3.97200012207031,3.82605028152466,4.0339503288269,9.46095085144043,6.50595045089722,-19.1989517211914,-65.0200500488281,-50.2789535522461,2.66400003433228,29.5750522613525,30.2640018463135,21.2980518341064,-3.39405012130737,-1.42500007152557,0.85395002365112,0.64305001497269,0.81795001029968,0.81105005741119,2.62605023384094,-4.20405006408691,3.60795021057129,-6.94800043106079,-59.425952911377,-49.7209510803223,-46.5469512939453,-20.5110015869141,-11.0340003967285,-4.0620002746582,-1.2190500497818,10.372950553894,11.0989503860474,12.1720504760742,14.907000541687,16.0180511474609,4.23705005645752,6.13800048828125,-1.0480500459671,-2.59800004959106,3.22395014762878,9.09195041656494,10.4590501785278,19.4980506896973,14.9670009613037,9.42705059051514,SWING_LEFT
-0.11948750168085,0.03093750029802,0.01251249946654,-0.00384999997914,-0.29067498445511,-3.31196236610413,-6.87156248092651,-0.17916250228882,4.56747484207153,-0.1575749963522,-6.88558769226074,-12.7060995101929,-7.42197513580322,-17.2727508544922,-16.1519870758057,0.21670000255108,0.06792499870062,-0.48647499084473,-1.95497500896454,-4.17298746109009,-5.42080020904541,-0.84768748283386,20.3600368499756,24.2534866333008,5.72178745269775,-5.88183736801147,-21.4589366912842,-14.711950302124,20.4254875183105,22.6604118347168,-1.50988745689392,-1.57299995422363,-1.43426251411438,-1.00485002994537,-0.72613751888275,-0.41676250100136,-1.37252497673035,-3.64127492904663,-2.51336240768433,-4.73261260986328,-8.61671257019043,-8.07991218566895,-11.9105253219604,-16.149787902832,-9.89147472381592,-0.77595001459122,0.23805001378059,2.06295013427734,6.96105051040649,15.4440011978149,2.31000018119812,-19.8600006103516,-56.2830009460449,-37.7820014953613,-18.0589504241943,18.5460014343262,34.3140029907227,33.5790023803711,6.09900045394897,-4.15605020523071,0.62895005941391,0.11100000888109,0.32895001769066,1.38105010986328,-6.17505025863647,-13.6969509124756,6.75705051422119,1.51200008392334,-53.1820526123047,-52.219051361084,-41.0029525756836,-23.2770004272461,-12.9480009078979,-7.85400056838989,-4.85295009613037,9.39300060272217,11.3500509262085,12.8710508346558,17.1889514923096,17.7829513549805,0.38595002889633,9.5080509185791,12.1840505599976,-12.0769510269165,31.0710010528564,1.24800002574921,-0.55905002355576,13.7260503768921,13.3470010757446,12.562050819397,SWING_LEFT
-0.60995000600815,-0.21711249649525,0.02942499890924,0.21766249835491,0.19538749754429,-0.81908750534058,-3.79609990119934,-5.81941223144531,-2.46056246757507,-0.12306249886751,-2.28222489356995,-8.41981220245361,-9.64617538452148,-17.0637493133545,-15.4515628814697,1.27957499027252,1.03977501392365,0.3797749876976,-1.24354994297028,-4.02008724212646,-5.84402513504028,-4.76135015487671,4.45706224441528,22.1575756072998,18.5759754180908,4.11757516860962,-10.4383125305176,-21.776424407959,11.069712638855,23.1895122528076,-4.0199499130249,-4.31172513961792,-4.13888740539551,-3.69352507591248,-2.91334986686707,-2.22007489204407,-2.53783750534058,-4.32162475585938,-5.26281261444092,-5.1727499961853,-5.57823753356934,-7.73231267929077,-10.9836378097534,-13.5867872238159,-11.2222003936768,-0.39105001091957,-0.06000000238419,1.38300001621246,5.94495010375977,11.6190004348755,13.7749509811401,-1.56900012493134,-43.6590003967285,-48.4159507751465,-24.7390518188477,0.65205001831055,27.0340518951416,32.6359519958496,21.6349506378174,1.87605011463165,0.51105004549026,0.61695003509521,0.7990500330925,1.95300006866455,0.56400001049042,-1.7700001001358,-2.91495013237,2.55195021629334,-35.2330513000488,-38.6800537109375,-39.904052734375,-31.488000869751,-14.0059509277344,-8.51504993438721,-6.07605028152466,10.0180501937866,10.9600505828857,11.5390501022339,13.5970506668091,13.3759508132935,12.0970506668091,15.4960508346558,19.6920013427734,-11.5450506210327,23.7319507598877,-0.8320500254631,2.1889500617981,3.60705018043518,15.4789505004883,7.19895029067993,SWING_LEFT
-0.0622874982655,0.20460000634193,0.45058751106262,0.61957502365112,0.47561249136925,-1.89997494220734,-7.04233741760254,-5.59061241149902,0.25066250562668,0.65560001134872,-15.5610122680664,-12.2399749755859,-1.57602500915527,-4.82116270065308,1.1365749835968,0.42322498559952,-0.23485000431538,-1.17246246337891,-2.67382502555847,-5.77362489700317,-6.80679988861084,-0.89017498493195,19.4237995147705,27.1893882751465,9.6815128326416,-19.7202491760254,-18.7823619842529,5.92899990081787,7.20458745956421,5.64561223983765,-2.14720010757446,-2.3289749622345,-2.4149124622345,-2.00034999847412,-1.1032999753952,-0.56801247596741,-1.23420000076294,-5.29925012588501,-7.70976257324219,-5.06440019607544,-5.09341239929199,-10.893162727356,-15.1738128662109,-10.3560876846313,-1.49380004405975,-0.69000005722046,1.02404999732971,1.58700013160706,10.6369504928589,22.488000869751,7.92405033111572,-38.9790000915527,-54.9180030822754,-35.5309524536133,12.6709508895874,24.9480018615723,47.1300010681152,16.4040012359619,-8.5890007019043,-8.72504997253418,1.09800004959106,0.77205002307892,0.74400001764297,3.46005010604858,0.24795001745224,-13.2349510192871,-10.6270503997803,-34.9650001525879,-57.0090026855469,-48.8659515380859,-28.5799522399902,-13.956000328064,-9.05595016479492,-5.34600019454956,-1.69095003604889,10.3870506286621,10.288950920105,9.91995048522949,17.3089504241943,19.6099510192871,11.4150009155273,23.6320514678955,-0.46605002880096,-1.99905014038086,9.87195014953613,7.74795055389404,12.2220001220703,11.8980007171631,6.89295053482056,10.3609504699707,SWING_LEFT
-0.69905000925064,-1.1446875333786,-1.45791244506836,-1.45488750934601,-1.43219995498657,-3.51463747024536,-7.35597515106201,-5.09712505340576,0.94957500696182,5.46823740005493,18.3046875,16.6890621185303,16.6080741882324,18.2582130432129,6.93879985809326,-0.81840002536774,-0.34856250882149,0.40947499871254,-0.49431249499321,-3.26699995994568,-5.52419996261597,-0.46007499098778,20.7003498077393,26.6289367675781,12.402774810791,26.5557880401611,24.2856616973877,-18.2857131958008,-20.7750129699707,0.06875000149012,-1.60874998569489,-2.54375004768372,-3.66286253929138,-4.43354988098145,-4.35916233062744,-3.83680009841919,-4.04208755493164,-6.4987998008728,-7.7477126121521,-7.1550874710083,-9.54813766479492,-12.1691627502441,-6.77407503128052,-2.30340003967285,-1.24973750114441,2.63100004196167,2.7720000743866,3.93105030059814,9.67905044555664,19.1280002593994,9.5910005569458,-38.5080032348633,-51.0450019836426,-45.8410530090332,14.8639507293701,26.976001739502,32.5540504455566,28.7580013275146,4.55595016479492,-6.20100021362305,0.85095006227493,0.43695002794266,1.69905006885529,1.68195009231567,0.7990500330925,-11.6209506988525,-0.98505002260208,-36.3880500793457,-65.1499557495117,-55.6990509033203,-33.3610534667969,-17.7829513549805,-10.4209508895874,-6.47400045394897,-3.77700018882751,9.29805088043213,10.6339502334595,13.2400503158569,14.6790008544922,19.3489513397217,10.9879503250122,20.9010009765625,-20.4310512542725,10.3630504608154,1.21695005893707,8.37105083465576,17.0839500427246,16.1400012969971,10.3200006484985,7.91805028915405,SWING_LEFT
-0.3753750026226,-0.48001250624657,-0.92482501268387,-1.93847501277924,-5.45696258544922,-10.3981628417969,-5.98675012588501,3.77478742599487,4.56403732299805,2.06745004653931,13.1379871368408,12.0880374908447,12.2985496520996,13.663649559021,3.28102493286133,-0.64184999465942,-0.8425999879837,-1.73689997196198,-3.9916250705719,-5.95113754272461,-1.57396245002747,12.8992872238159,22.4662628173828,14.3142995834351,5.39536237716675,21.2856864929199,17.9855499267578,-23.6787376403809,-23.7080249786377,1.3333375453949,-2.26421236991882,-2.54608750343323,-2.88488745689392,-2.97412490844727,-2.76526260375977,-3.94954991340637,-7.72475004196167,-10.0544128417969,-10.0104122161865,-10.2473249435425,-14.7071371078491,-16.0660495758057,-8.57353782653809,-5.11390018463135,-3.29683756828308,3.59400010108948,5.57400035858154,8.5420503616333,14.2180509567261,6.22995042800903,-10.5859508514404,-30.6139507293701,-57.6340522766113,-34.1869506835938,7.61205053329468,28.4950504302979,38.1580505371094,23.7690010070801,-2.74305009841919,-6.08400011062622,2.46300005912781,2.53500008583069,2.39400005340576,-1.36500000953674,-7.79100036621094,5.47095012664795,4.72395038604736,-25.6390514373779,-55.4929542541504,-54.0250511169434,-37.1140518188477,-14.7270002365112,-6.78105020523071,-5.99700021743774,-3.56400012969971,9.9060001373291,12.1759510040283,10.1380500793457,9.17100048065186,4.2460503578186,14.5810508728027,18.9180011749268,0.90795004367828,15.1720504760742,13.4580001831055,2.58405017852783,3.68805027008057,9.80505084991455,6.49305009841919,7.7790002822876,SWING_LEFT
-0.28641250729561,-0.34567499160767,-0.28049999475479,-0.03478749841452,-0.36794999241829,-2.7161750793457,-6.60921239852905,-4.17023754119873,1.42078745365143,3.04754996299744,9.35770034790039,9.29073715209961,10.4897375106812,15.1504373550415,9.29651260375977,0.34375,0.2745875120163,-0.57172501087189,-2.40569996833801,-5.03057479858398,-6.02964973449707,-0.6377249956131,23.7455615997314,26.7832126617432,7.81577491760254,18.6337242126465,18.0195121765137,-5.24644994735718,-9.59035015106201,-1.2418999671936,-2.86838746070862,-3.38456249237061,-3.72611236572266,-3.66024994850159,-2.9606499671936,-2.50978755950928,-2.85408759117126,-5.40869998931885,-7.06406259536743,-6.78136253356934,-8.35243701934814,-11.3453998565674,-8.65012454986572,-2.09453749656677,1.00650000572205,0.5950500369072,1.8139500617981,4.24500036239624,10.3879508972168,15.0540008544922,4.30695009231567,-28.6620006561279,-64.1170501708984,-39.9229507446289,21.3930015563965,29.0770511627197,26.9089508056641,21.4320011138916,4.18305015563965,-3.44895005226135,1.11195003986359,1.22700011730194,2.11094999313354,2.94195008277893,0.29805001616478,-5.59995031356812,-6.26295042037964,-37.9180526733398,-70.8070526123047,-53.9340019226074,-29.2579517364502,-15.3760509490967,-7.72395038604736,-5.76705026626587,-3.85605025291443,10.4140501022339,12.5160007476807,13.0309505462646,13.9150505065918,11.8549509048462,8.78295040130615,9.49605083465576,-10.1010007858276,-2.67405009269714,9.42900085449219,2.94105005264282,20.7889518737793,13.2919502258301,11.2930507659912,7.44900035858154,SWING_LEFT
-0.42556250095367,-0.20322500169277,0.06379999965429,0.33811250329018,-0.70441251993179,-5.12173748016357,-9.52792453765869,-4.05679988861084,5.36126232147217,4.82240009307861,-0.68365001678467,-11.2595996856689,-9.05299949645996,17.7577133178711,20.2263870239258,0.2216500043869,-0.33178749680519,-1.39479994773865,-3.68472504615784,-6.30808734893799,-5.31781244277954,2.54498744010925,20.5906257629395,24.2470245361328,9.10002517700195,1.15486252307892,-24.6998119354248,-27.4726371765137,-24.1265754699707,-21.1062507629395,-3.96041250228882,-3.76351237297058,-3.19440007209778,-2.2537624835968,-1.2639000415802,-0.8486499786377,-0.29975000023842,-1.14826250076294,-2.34973740577698,-4.89637517929077,-7.89593744277954,-5.88596248626709,-7.62822484970093,-4.07866239547729,0.52525001764297,0.56894999742508,1.99095010757446,4.87200021743774,13.9660511016846,10.9369506835938,-0.27795001864433,-17.998950958252,-49.0740013122559,-35.1469497680664,-25.324951171875,12.4189510345459,37.7149505615234,37.9170036315918,14.0839509963989,-6.49305009841919,1.44300007820129,1.92195010185242,2.83005023002625,2.82705020904541,-5.1739501953125,-9.93495082855225,-3.38895010948181,-3.21705007553101,-53.7589530944824,-54.8989524841309,-55.0690536499023,-36.6940536499023,-12.4420509338379,-10.6720504760742,-6.40500020980835,10.7370004653931,11.7400503158569,12.748950958252,12.4950008392334,7.86495018005371,10.5910501480103,9.41205024719238,7.37400054931641,5.61195039749146,7.37895011901855,7.8919506072998,2.00894999504089,27.1480522155762,10.8709506988525,11.0359506607056,SWING_LEFT
0.1385999917984,0.24736249446869,0.06462500244379,-0.23485000431538,-0.47079998254776,-0.90722501277924,-2.99530005455017,-9.36663722991943,-2.93301248550415,5.78077507019043,-0.62067496776581,-14.2964248657227,-11.4639253616333,9.44611263275146,22.1549625396729,0.2239875048399,-1.1504625082016,-1.91991245746613,-2.03197503089905,-2.61648750305176,-4.21437501907349,-5.29704999923706,-2.69183754920959,24.4608383178711,31.2431621551514,3.75416254997253,-21.1751365661621,-24.7394123077393,-19.5172996520996,-21.8241367340088,-4.49968767166138,-4.59882497787476,-3.95463752746582,-3.18298745155334,-2.72552490234375,-2.2092125415802,-1.45956254005432,0.4463250041008,-1.79423749446869,-5.71848726272583,-3.65433740615845,-4.48456239700317,-9.95953750610352,-9.97782516479492,-4.04332494735718,1.74195003509521,2.29800009727478,3.02595019340515,5.48805046081543,10.042950630188,16.8949508666992,12.3949508666992,-38.3730010986328,-60.0270042419434,-32.2780532836914,5.22705030441284,28.1689510345459,31.9219512939453,20.5309505462646,2.5489501953125,1.34700012207031,1.51200008392334,1.6270500421524,2.17605018615723,2.45100021362305,2.0419499874115,-13.4359502792358,-8.26500034332275,-32.8429527282715,-54.0060043334961,-41.1040534973145,-32.4580497741699,-16.3800010681152,-5.43705034255981,-5.10900020599365,9.63000011444092,9.96300029754639,10.2910509109497,12.7420501708984,11.3190002441406,16.303050994873,0.39000001549721,14.4300003051758,-3.40695023536682,17.3260517120361,0.67095005512238,4.18905019760132,7.95405054092407,12.41100025177,12.1879501342773,SWING_LEFT
-0.86281251907349,-0.70069998502731,0.05747500061989,0.76051247119904,0.98505002260208,0.97899997234344,0.17572499811649,-2.17222499847412,-2.09220004081726,-0.22797499597073,-0.6239749789238,-10.5188875198364,-9.40073776245117,9.02371215820313,20.1394882202148,0.96249997615814,2.48971247673035,2.61593747138977,0.7148625254631,-2.20206260681152,-4.99248743057251,-5.34558725357056,0.77934998273849,19.1831741333008,19.307336807251,3.06267499923706,-16.6491870880127,-17.6701240539551,-13.2735624313354,-22.6232872009277,-2.95968747138977,-3.84559988975525,-4.62852478027344,-3.99808740615845,-1.85528743267059,-0.04331250116229,-0.25836250185966,-1.18868744373322,-5.40182495117188,-8.47288703918457,-6.87527513504028,-4.79228734970093,-8.01515007019043,-6.60453748703003,2.18239998817444,-1.69800007343292,-2.21595001220703,-0.81705003976822,1.35405004024506,5.7610502243042,9.90000057220459,1.01205003261566,-43.4650535583496,-60.096004486084,-16.6630516052246,14.1720008850098,23.5699520111084,17.191951751709,13.8730506896973,4.05600023269653,0.12600000202656,0.80805003643036,1.19400000572205,1.38495004177094,2.29995012283325,2.25195002555847,0.03195000067353,-11.2110004425049,-31.0849514007568,-49.8019523620605,-42.670051574707,-27.7510509490967,-14.0950508117676,-7.18095016479492,-4.2199501991272,10.2910509109497,10.452000617981,11.1820507049561,12.5860509872437,11.6110506057739,11.8669509887695,11.2159509658813,18.65505027771,0.7950000166893,18.1570510864258,6.53400039672852,7.60200023651123,9.39795017242432,8.03805065155029,7.79295015335083,SWING_LEFT
-1.85198748111725,-2.39910006523132,-2.14884996414185,-1.05228745937347,0.08758749812841,0.26179999113083,-1.57987499237061,-4.02201271057129,-0.52511250972748,3.79500007629395,3.4820499420166,8.80467510223389,7.23868751525879,10.5956125259399,17.0785999298096,-0.82307499647141,0.13337500393391,1.47014999389648,1.25111246109009,-0.94751250743866,-3.3958375453949,-3.8420250415802,3.20251250267029,19.4752254486084,18.1438121795654,6.13841247558594,16.5209007263184,21.3692874908447,-7.14477491378784,-19.7400493621826,-6.0766749382019,-6.3834376335144,-6.79786252975464,-6.98775005340576,-6.01191234588623,-4.03191232681274,-2.78905010223389,-4.07811260223389,-9.7594747543335,-11.1907119750977,-8.62069988250732,-14.3800249099731,-18.1109504699707,-8.36275005340576,-0.36643749475479,1.84305012226105,-0.45300000905991,0.65505003929138,2.63595008850098,5.52405023574829,7.94505023956299,-0.33300000429153,-39.6139526367188,-56.7169532775879,-23.2579517364502,11.650050163269,27.223051071167,27.1650009155273,17.4889507293701,4.94700002670288,0.58605003356934,0.70305001735687,1.76400005817413,1.86195003986359,2.82705020904541,0.7579500079155,-3.76995015144348,-6.22305011749268,-34.9050025939941,-57.0040512084961,-51.6630020141602,-32.9509506225586,-17.2639503479004,-8.56995010375977,-6.50505018234253,10.4500503540039,10.8610506057739,12.6889505386353,13.0120506286621,12.4399509429932,13.6180505752563,16.2720012664795,3.19995021820068,18.0010509490967,9.29505062103271,13.4239501953125,5.37705039978027,14.0470504760742,10.8019504547119,9.00795078277588,SWING_LEFT
-0.54395002126694,-0.68873751163483,-1.11058747768402,-1.98068749904633,-3.07614994049072,-4.26676225662231,-5.34366226196289,-3.9444625377655,2.18803739547729,6.85602474212646,12.168062210083,20.4084377288818,11.6371746063232,-11.562237739563,-10.2966871261597,-1.08171248435974,-1.22512495517731,-1.54591250419617,-2.10374999046326,-2.60975003242493,-2.9837498664856,-1.0095249414444,11.2386999130249,21.7090492248535,13.6061744689941,11.1421747207642,26.1930618286133,22.766149520874,29.0564994812012,26.1271991729736,-3.05566239356995,-3.59466242790222,-4.16872501373291,-4.36782503128052,-4.35696268081665,-5.13411235809326,-6.99765014648438,-7.5135498046875,-8.74170017242432,-10.0395622253418,-10.9155750274658,-14.6848621368408,-16.028787612915,-17.4541130065918,-12.1782369613647,3.1840500831604,3.4789502620697,5.65995025634766,7.20795011520386,8.78805065155029,4.80795001983643,-6.70605039596558,-51.8050537109375,-57.3370513916016,-20.356050491333,13.4590501785278,22.6600513458252,34.673999786377,14.8980007171631,-3.22905015945435,2.38394999504089,2.69595003128052,2.35095000267029,0.65700000524521,0.97605001926422,0.13500000536442,-1.28895008563995,-4.35900020599365,-43.3690528869629,-49.4929542541504,-47.1490516662598,-33.4710006713867,-17.9389514923096,-10.9770002365112,-8.74905014038086,9.93900012969971,10.4830503463745,13.0960502624512,12.4039506912231,13.4119510650635,7.12995052337646,14.1349506378174,9.19695091247559,0.22305001318455,14.7409505844116,-0.81105005741119,10.6600503921509,20.4370517730713,13.2400503158569,8.86905002593994,SWING_LEFT
-0.40961250662804,-0.21738749742508,0.13474999368191,0.46007499098778,0.45484998822212,0.54229998588562,-0.45265001058578,-2.34451246261597,0.09762500226498,2.58018755912781,10.021824836731,8.46491241455078,-11.2052869796753,-9.92557525634766,3.24967503547668,-0.68818747997284,-0.79750001430511,-1.07153749465942,-1.56529998779297,-1.63473749160767,-1.49600005149841,1.78571248054504,13.3242998123169,16.1686248779297,7.18616247177124,15.3217620849609,21.7262382507324,28.7009239196777,23.0430755615234,6.8095498085022,-2.17992496490479,-1.92445003986359,-1.60146248340607,-1.34571254253387,-1.3585000038147,-1.95923745632172,-3.8567373752594,-7.64774990081787,-11.3269748687744,-10.7811002731323,-12.2156372070313,-15.8177251815796,-16.5521125793457,-10.8436622619629,0.10395000129938,1.23195004463196,1.68495011329651,2.97105002403259,3.78495025634766,3.94995021820068,0.94500005245209,-40.0639533996582,-53.4289512634277,-40.4929504394531,15.0990009307861,36.6709518432617,41.2050018310547,17.0509510040283,-7.34805011749268,-8.67300033569336,2.13300013542175,2.35800004005432,4.13505029678345,3.92205023765564,5.29905033111572,6.59895038604736,-3.82800006866455,-34.6710014343262,-55.8900032043457,-66.892951965332,-39.2070007324219,-16.5499515533447,-14.3580007553101,-9.86100006103516,-5.06595039367676,10.4569501876831,10.453950881958,12.3559503555298,14.8279504776001,12.8230504989624,12.3319501876831,28.7880020141602,-13.3080005645752,24.7530002593994,6.18900012969971,-0.99105006456375,10.5910501480103,20.6830501556396,10.9620008468628,6.19095039367676,SWING_LEFT
0.12471249699593,-0.1717374920845,0.02254999987781,-0.38403749465942,-0.8401250243187,-0.49733749032021,-0.33989998698235,-0.93541246652603,-0.64693748950958,3.84422492980957,21.3027381896973,19.1823501586914,0.40851250290871,-11.3265628814697,-11.1124753952026,-2.11557507514954,-1.07910001277924,-0.24722500145435,0.0591249987483,1.01199996471405,1.36867499351501,2.69018745422363,9.95279979705811,13.143349647522,8.80233764648438,26.183162689209,24.4304504394531,8.05309963226318,27.7668876647949,22.537899017334,-4.16130018234253,-5.03827476501465,-5.11390018463135,-3.3651750087738,-0.02777500078082,1.76027500629425,1.21866250038147,-1.08308744430542,-5.87881231307983,-9.49300003051758,-12.5742378234863,-12.5890874862671,-11.8255500793457,-17.658712387085,-13.7582502365112,-0.24705001711845,-1.53105008602142,0.3790500164032,-3.0090000629425,-3.12405014038086,-3.6499502658844,-15.2020511627197,-56.5230026245117,-41.2230033874512,-11.0130004882813,8.74305057525635,27.9870014190674,41.0610008239746,15.3870010375977,-5.83200025558472,1.43805003166199,1.59105002880096,0.99300003051758,0.61395001411438,1.57695007324219,1.64895009994507,-2.66595005989075,-13.8769502639771,-62.6830520629883,-71.0220031738281,-49.9390525817871,-36.7420501708984,-22.746000289917,-12.2080507278442,-8.33295059204102,10.8210000991821,11.3119506835938,13.1940002441406,15.1840505599976,13.1440505981445,11.0670003890991,8.9209508895874,-2.12295007705688,15.5560503005981,7.70505046844482,17.3040008544922,8.47395038604736,16.9570503234863,5.06295013427734,10.3939504623413,SWING_LEFT
-1.00209999084473,-1.66622495651245,-2.2341001033783,-2.56066250801086,-4.31392478942871,-8.59732532501221,-8.347487449646,-0.23319999873638,4.89307498931885,-2.17676258087158,-16.8304119110107,-11.766562461853,-9.66349983215332,-9.33514976501465,2.60067486763,-1.21288752555847,-1.08459997177124,-1.55333745479584,-2.47321248054504,-3.15026259422302,-1.19198751449585,10.7685871124268,21.6196746826172,15.0825128555298,-0.08497499674559,-21.7757377624512,-12.4973745346069,26.5837001800537,24.2864875793457,6.04174995422363,-2.68743753433228,-4.00056266784668,-5.48075008392334,-6.17292499542236,-6.12012481689453,-7.2320876121521,-5.66981267929077,-3.36489987373352,-6.64620018005371,-8.01033782958984,-6.92752504348755,-10.4285497665405,-16.3835372924805,-12.1162252426147,-1.47372496128082,4.46100044250488,4.9830002784729,6.64500045776367,8.14200019836426,4.99005031585693,-5.97600030899048,-57.4900512695313,-56.6569519042969,-35.3149528503418,21.0750007629395,27.0790519714355,40.3759536743164,14.8530006408691,-7.72395038604736,-6.7950005531311,2.15895009040833,2.86800003051758,2.59305024147034,2.90595006942749,-3.84195017814636,-6.43305015563965,2.85795021057129,-48.7050018310547,-74.172004699707,-59.7340545654297,-38.3569526672363,-19.9960517883301,-9.23100090026855,-7.47300052642822,-3.1690502166748,9.86805057525635,10.8090009689331,9.68505001068115,10.9999504089355,9.17295074462891,11.131950378418,17.2729511260986,-2.62605023384094,16.5450000762939,-9.86205005645752,17.0190010070801,18.1849517822266,12.5790004730225,9.35295009613037,7.15395021438599,SWING_LEFT
-0.58726251125336,-0.72173750400543,-0.74511247873306,-0.6403374671936,-1.15128743648529,-5.56063747406006,-12.8873252868652,-9.74847507476807,1.65536248683929,5.73911237716675,-9.95953750610352,-12.5124998092651,-1.42367494106293,-12.5074119567871,-11.3354997634888,-0.29122498631477,-0.05197500064969,-0.14313749969006,-1.5052125453949,-4.13228750228882,-6.09303760528564,-1.00058746337891,19.1597995758057,26.1049251556396,11.0734252929688,-13.5107498168945,-20.4719619750977,-0.43450000882149,22.164587020874,19.6220741271973,-3.46981239318848,-4.34761238098145,-4.81662511825562,-4.89637517929077,-4.32382488250732,-4.20406246185303,-5.98496246337891,-0.5878124833107,1.97339999675751,-3.00836253166199,-6.66599988937378,-10.8622245788574,-13.5459499359131,-17.6345119476318,-13.2486753463745,1.95795011520386,2.42700004577637,4.50795030593872,7.87800025939941,21.0439510345459,8.80005073547363,-33.2170524597168,-61.1020545959473,-45.6379508972168,-5.32005023956299,22.3780517578125,22.4899501800537,24.9400520324707,16.1479511260986,2.06595015525818,1.54395008087158,1.78095006942749,2.59500002861023,3.53895020484924,-1.90905010700226,-12.8740501403809,-4.12695026397705,-19.3330516815186,-50.1019515991211,-51.5170516967773,-40.5460510253906,-24.961051940918,-13.1899509429932,-5.48205041885376,-5.55000019073486,10.1860504150391,11.532000541687,11.7979507446289,13.3470010757446,18.6960010528564,6.35895013809204,18.8749504089355,-5.52705049514771,0.24195000529289,7.75800037384033,10.5960006713867,10.4299507141113,13.443000793457,13.7470502853394,7.72605037689209,SWING_LEFT
-0.30868750810623,-0.3271124958992,-0.61723750829697,-1.29951250553131,-0.86941248178482,0.54243749380112,0.47038748860359,-2.34286260604858,-3.86361241340637,-0.08153750002384,-1.48706245422363,-8.60805034637451,-6.16687488555908,-10.9298753738403,-10.9967002868652,-0.64322501420975,-0.68942499160767,-0.260837495327,0.04509999975562,0.50558751821518,-0.24873749911785,-1.50727498531342,4.04387474060059,16.7766494750977,15.6205501556396,1.1620124578476,-21.293249130249,-16.1332874298096,13.4809122085571,16.1973628997803,-2.55158758163452,-2.20852494239807,-2.00516247749329,-2.14170002937317,-2.29019999504089,-2.50346255302429,-3.41494989395142,-4.5012001991272,-4.75736236572266,-7.03821229934692,-9.01367473602295,-12.1489496231079,-16.2615756988525,-14.8715877532959,-7.36298751831055,1.26300001144409,0.90405005216599,1.01205003261566,-0.44295001029968,1.71105003356934,4.20195007324219,-4.8550500869751,-55.150951385498,-51.7930526733398,-5.24100017547607,40.3999519348145,21.223051071167,12.867000579834,7.0900502204895,3.45495009422302,2.06805014610291,1.72995007038116,0.51105004549026,0.90900003910065,3.4830002784729,3.40695023536682,-0.52500003576279,-10.2390003204346,-47.2369537353516,-49.9650039672852,-28.9080009460449,-14.4610509872437,-10.6270503997803,-6.43605041503906,-4.32795000076294,9.69300079345703,9.90795040130615,10.8139505386353,11.4990005493164,13.2400503158569,17.1000003814697,12.8490009307861,7.35300016403198,-12.0580501556396,23.4979515075684,-4.7509503364563,11.053050994873,9.13500022888184,13.7160005569458,8.65305042266846,SWING_LEFT
0.48441249132156,0.5324000120163,0.29823750257492,0.49321249127388,0.6404749751091,0.83022499084473,0.88109999895096,-0.38073748350143,-3.83652496337891,-4.00193738937378,-3.82181239128113,-14.7446746826172,-10.2613496780396,-12.6565999984741,-13.7472496032715,-2.58046245574951,-0.68392497301102,-0.27252501249313,-0.95122498273849,-1.8133499622345,-1.54275000095367,-0.0922624990344,5.33348751068115,13.4586372375488,12.8224248886108,2.53618741035461,-19.2187881469727,-13.5422372817993,22.1687126159668,19.9479503631592,-0.52112501859665,-2.40872502326965,-2.94772505760193,-1.68959999084473,0.05499999970198,0.35846251249313,-0.32353749871254,-0.41662499308586,-3.87681245803833,-8.78638744354248,-8.93598747253418,-8.66401290893555,-13.34987449646,-20.3549499511719,-13.8857126235962,-2.81700015068054,-1.81305003166199,0.35505002737045,0.82500004768372,0.11100000888109,0.64500004053116,-4.213050365448,-54.5040016174316,-42.0229530334473,-14.506950378418,13.4059505462646,30.5830516815186,31.5120010375977,12.9130506515503,-0.53895002603531,3.42405009269714,3.66600012779236,2.82000017166138,3.43995022773743,3.65805006027222,5.26995038986206,5.14800024032593,0.77505004405975,-42.0780029296875,-46.0900535583496,-35.521053314209,-24.7189502716064,-10.1910009384155,-7.80105018615723,-5.26500034332275,11.4100503921509,11.5200004577637,10.0110006332397,9.69300079345703,11.7160501480103,14.6290502548218,12.1069507598877,23.2320003509521,-11.9910001754761,10.5499505996704,5.52300024032593,11.3260507583618,17.1940517425537,8.50995063781738,8.76300048828125,SWING_LEFT
0.97679996490479,1.02877497673035,0.84411251544952,0.81138747930527,1.23447501659393,0.44123750925064,-1.75298750400543,-1.7575249671936,2.23822498321533,6.02360010147095,9.65194988250732,10.3983001708984,7.63468742370605,16.9959621429443,19.1254253387451,-0.57227498292923,-1.02189993858337,-1.15225005149841,-1.50534999370575,-2.42893743515015,-2.83813738822937,0.59509998559952,10.8647003173828,17.6743869781494,11.8860502243042,11.9433870315552,19.6663494110107,6.65018749237061,-16.2623996734619,-11.5368003845215,-6.28072500228882,-3.74398756027222,-1.24258744716644,0.11701250076294,0.50847500562668,0.55041247606277,-0.31638750433922,-4.11730003356934,-10.6884250640869,-11.9880752563477,-10.8493003845215,-13.6393127441406,-13.8380002975464,-5.7546501159668,2.13083744049072,-1.38495004177094,-0.70695000886917,0.74100005626678,1.24395000934601,6.89595031738281,-1.76295006275177,-14.0089502334595,-64.7809524536133,-36.3619499206543,-11.6470508575439,25.8600006103516,37.5880508422852,26.4060020446777,0.9250500202179,-6.94605016708374,1.95495009422302,2.28405022621155,3.22500014305115,3.94095015525818,5.45505046844482,0.5059500336647,-0.06495000422001,-9.94200038909912,-71.9800567626953,-53.1979522705078,-39.4699516296387,-20.6050510406494,-8.37795066833496,-7.79100036621094,-3.79200029373169,9.52695083618164,9.84600067138672,11.0149507522583,11.6230506896973,14.3320503234863,17.3089504241943,10.3800001144409,-1.41405010223389,-0.44400003552437,21.9600009918213,-5.95095014572144,17.4649505615234,10.7149505615234,8.5620002746582,9.17100048065186,SWING_LEFT
-0.4614500105381,-0.48991250991821,-2.03775000572205,-6.57483768463135,-10.0390129089355,-3.35940003395081,4.10465002059937,4.96856260299683,5.49862480163574,9.89890003204346,8.5555248260498,14.1139621734619,17.0809383392334,6.85038757324219,10.9801998138428,-2.05754995346069,-4.76451253890991,-6.13923740386963,-3.76048755645752,4.63691234588623,16.378999710083,18.24267578125,10.7582750320435,7.14779996871948,17.2398872375488,22.0750751495361,-11.5233249664307,-21.9060878753662,1.54577493667603,20.2696990966797,-4.58397483825684,-4.5306248664856,-3.66478753089905,-3.85660004615784,-5.77225017547607,-9.04997539520264,-9.74118709564209,-8.42325019836426,-9.7065372467041,-13.9159622192383,-17.1861248016357,-8.45762538909912,-0.09762500226498,4.30141258239746,3.18175005912781,9.18600082397461,10.5150003433228,9.17205047607422,-0.54900002479553,-16.4929504394531,-38.4790534973145,-31.6980018615723,-37.1950531005859,-1.50195002555847,41.7390022277832,48.9619522094727,4.20705032348633,-13.40505027771,-5.10900020599365,-1.17900002002716,4.78200006484985,2.51400017738342,-1.89495003223419,-6.05700016021729,1.96695005893707,-5.42295026779175,-33.7249526977539,-45.3210029602051,-64.2060012817383,-45.5970039367676,-20.896951675415,-16.1520004272461,-6.4980001449585,-1.14495003223419,0.2119500041008,11.7520503997803,8.95305061340332,11.6160001754761,14.1109504699707,17.1480007171631,9.94395065307617,2.95305013656616,23.0659503936768,5.30295038223267,2.71800017356873,24.5710506439209,11.0890502929688,3.77700018882751,6.33705043792725,7.75995016098022,SWING_LEFT
-0.23993749916553,-0.24832500517368,0.1522125005722,0.05211250111461,-0.89168751239777,-1.70458745956421,-1.37032496929169,-0.72874999046326,0.56677502393723,4.46710014343262,17.2389240264893,17.4462757110596,-0.41937500238419,-3.02169990539551,3.30742502212524,-1.44760000705719,-0.94641250371933,-1.00746250152588,-0.37413749098778,2.17841243743896,4.59112501144409,4.79379987716675,7.70343732833862,12.4625873565674,10.8014497756958,26.3832244873047,29.4054756164551,17.9569492340088,12.483624458313,2.67712497711182,-3.72116255760193,-3.71525001525879,-3.48589992523193,-3.1429750919342,-2.77763748168945,-2.46317505836487,-2.78533744812012,-3.64911246299744,-7.27457475662231,-9.42218780517578,-9.22776222229004,-11.3357753753662,-14.3662748336792,-11.3203744888306,-2.56918740272522,1.36395001411438,2.41800022125244,1.83105003833771,-2.97300004959106,-5.42505025863647,-8.05995082855225,-17.6209506988525,-49.9390525817871,-39.493953704834,-3.28200006484985,30.5659523010254,38.7240028381348,27.7740020751953,-0.52695000171661,-9.71505069732666,2.72205018997192,3.62700009346008,3.40395021438599,1.71600008010864,1.63005006313324,0.94200003147125,-3.48705005645752,-20.6260509490967,-54.199951171875,-64.0480499267578,-51.1750526428223,-26.2660503387451,-14.3580007553101,-10.8259506225586,-5.03205013275146,10.1290502548218,12.1210508346558,8.55705070495605,11.3860502243042,14.3820009231567,14.5470008850098,13.2880506515503,-1.29000008106232,-5.43600034713745,12.775050163269,7.91100025177002,25.689001083374,17.965051651001,9.89595031738281,9.00104999542236,SWING_LEFT
0.12031249701977,0.25025001168251,0.01746249943972,-0.08277499675751,-0.1385999917984,-0.64528751373291,-2.26434993743896,-2.8608250617981,-0.17531250417233,3.91682505607605,11.1388750076294,13.5525503158569,5.65056228637695,-13.1972503662109,-11.4761629104614,0.0173249989748,-0.55302500724792,-1.30680000782013,-2.61552500724792,-3.84559988975525,-3.12812495231628,0.90461248159409,11.1395626068115,16.8767490386963,12.0664501190186,15.3190126419067,26.8768501281738,19.7445869445801,25.7343616485596,24.1018257141113,-3.51367497444153,-2.51047492027283,-1.18676245212555,-0.46117499470711,-0.5820375084877,-1.80372500419617,-3.99396252632141,-7.04769992828369,-10.3536128997803,-11.6538124084473,-12.3208246231079,-14.2808876037598,-14.4388751983643,-13.7057247161865,-9.15296268463135,0.1489500105381,1.72500002384186,3.26295018196106,6.57495021820068,6.3550500869751,2.40795016288757,-16.3849506378174,-53.1340522766113,-36.2920532226563,-9.57300090789795,17.9520015716553,17.109001159668,23.3449516296387,20.0040016174316,7.34700012207031,2.51805019378662,2.65995001792908,3.01200008392334,3.64200019836426,4.389000415802,1.60605013370514,-0.56295001506805,-8.79195022583008,-55.1340026855469,-39.5419502258301,-32.7829513549805,-21.2179508209229,-14.076000213623,-6.92700052261353,-6.25800037384033,9.13500022888184,9.53205013275146,12.1120510101318,10.8690004348755,13.8000001907349,13.0390510559082,15.9799509048462,14.0299510955811,-3.550950050354,16.5880508422852,-5.90505027770996,6.01605033874512,9.81705093383789,11.7160501480103,10.8109502792358,SWING_LEFT
0.08813749998808,-0.3797749876976,-0.88398748636246,-1.01048743724823,-0.9843624830246,-1.71036243438721,-2.66323757171631,0.64459997415543,2.68413758277893,0.39462500810623,-11.7903499603271,-16.7971382141113,-3.01427507400513,-5.94728755950928,-6.17471265792847,-1.14331245422363,-0.99384999275208,-1.00732505321503,-1.27778744697571,-2.25582504272461,-3.89331245422363,-0.0844250023365,14.1635999679565,17.7135753631592,7.50626230239868,-10.775050163269,-22.7433242797852,-10.1558876037598,16.035249710083,16.9867496490479,-1.48953747749329,-1.76013743877411,-2.17717504501343,-2.65746259689331,-3.05896258354187,-3.73504996299744,-5.45380020141602,-7.11878728866577,-8.82021236419678,-9.79879951477051,-8.71529960632324,-9.15365028381348,-11.7463502883911,-15.7557125091553,-11.3029127120972,0.74805003404617,1.6750500202179,1.35705006122589,2.94000005722046,8.20200061798096,1.27800011634827,-24.3120002746582,-51.3139533996582,-41.3070030212402,-15.4410009384155,10.7260503768921,31.2610511779785,30.5689506530762,13.0440006256104,-4.71405029296875,2.62605023384094,2.97795009613037,2.27205014228821,2.30295014381409,3.42105007171631,-0.6280500292778,6.08400011062622,-3.76800012588501,-51.7710037231445,-49.243953704834,-41.544002532959,-33.7699508666992,-13.3690509796143,-5.90205049514771,-2.99400019645691,9.38595008850098,12.1360502243042,10.7440509796143,9.42405033111572,15.6199502944946,9.76500034332275,7.10805034637451,7.63800048828125,-0.73200005292892,2.4019501209259,9.36705017089844,16.5469512939453,11.9059505462646,12.1570501327515,10.2169504165649,SWING_LEFT
-0.60376250743866,-0.35846251249313,0.21793749928474,0.62287497520447,-0.02089999988675,-1.76948750019073,-2.41188740730286,-1.78914999961853,-2.17731237411499,-2.36156249046326,-1.91180002689362,-13.2023372650146,-14.0926494598389,-14.6319246292114,-15.3327627182007,0.28201249241829,-0.19552500545979,-1.46368753910065,-3.31966257095337,-4.22042512893677,-3.27277493476868,0.74882501363754,4.43203735351563,10.7045125961304,14.4247121810913,6.50237512588501,-15.2714376449585,-21.2862377166748,14.2073249816895,24.6335372924805,-2.06868743896484,-2.1513249874115,-1.49572503566742,-0.67058748006821,-0.73356246948242,-2.44846248626709,-5.06797504425049,-6.56232500076294,-6.58501243591309,-9.04722499847412,-9.34381198883057,-4.72546243667603,-7.88700008392334,-16.585111618042,-14.458812713623,-0.09600000083447,1.8550500869751,3.93600010871887,5.0110502243042,6.44100046157837,-0.88200002908707,-0.71895003318787,-19.5730514526367,-57.2490043640137,-29.6460018157959,-0.21105000376701,25.3000507354736,32.779052734375,22.9759502410889,0.02700000070035,2.92305016517639,3.40005016326904,3.76605010032654,2.69595003128052,2.62095022201538,4.69995021820068,2.44395017623901,1.38495004177094,-19.326000213623,-52.161003112793,-41.7310523986816,-32.1150016784668,-15.493950843811,-5.11800003051758,-6.14595031738281,10.2720003128052,10.1839504241943,9.10095024108887,9.17505073547363,9.36705017089844,11.3839502334595,14.4060010910034,15.8770503997803,9.31695079803467,3.07305026054382,13.3810510635376,-6.01005029678345,6.2989501953125,20.2069511413574,10.5120000839233,SWING_LEFT
0.43381249904633,0.86404997110367,0.69547498226166,0.42570000886917,0.39063748717308,0.03409999981523,-0.56773751974106,-0.86652499437332,0.37221249938011,6.79635000228882,21.2129497528076,19.9386005401611,9.476637840271,8.84358787536621,5.70322513580322,-1.67873752117157,-2.01231241226196,-1.49022495746613,-0.60857498645782,-0.33825001120567,-0.81276249885559,-1.19432497024536,2.26215004920959,13.2944622039795,15.1815128326416,17.5957374572754,18.7292881011963,-9.38465023040771,-20.6753253936768,-4.44372510910034,-0.73479998111725,-0.23870000243187,-0.34196248650551,-0.88563752174377,-1.33210003376007,-1.58248746395111,-2.51789999008179,-5.53354978561401,-13.1153001785278,-16.1273746490479,-14.9536752700806,-16.8547496795654,-11.1621122360229,-5.4675498008728,-3.86237502098084,1.8139500617981,1.65105009078979,0.94905006885529,2.28299999237061,3.12900018692017,3.8620502948761,-1.70595002174377,-48.6409530639648,-51.0739517211914,-27.892951965332,19.8030014038086,42.0460510253906,30.1260013580322,5.06595039367676,-7.56600046157837,3.12900018692017,3.89805006980896,3.48105025291443,5.99595022201538,6.43200016021729,8.03400039672852,5.37600040435791,-4.07400035858154,-44.8420524597168,-52.5090026855469,-52.4250030517578,-35.0869522094727,-15.7429504394531,-8.37600040435791,-2.08200001716614,9.33600044250488,9.92700004577637,9.56595039367676,11.6209506988525,17.4409503936768,19.7899513244629,13.0410003662109,4.60605001449585,12.5790004730225,6.3400502204895,11.4720001220703,10.0279502868652,15.0930004119873,8.12895011901855,7.80795049667358,SWING_LEFT
0.61778748035431,0.56045001745224,0.69231247901917,1.06727504730225,0.12264999747276,-2.88034987449646,-4.3267126083374,-2.54017496109009,3.73078751564026,9.22762489318848,19.2073745727539,16.8482875823975,10.754150390625,11.4004001617432,5.91208744049072,-1.74226248264313,-2.16562509536743,-3.05167508125305,-3.93731236457825,-3.13376259803772,1.06012499332428,5.93697500228882,13.4453001022339,16.7440624237061,12.1082496643066,25.6914615631104,21.6808624267578,-10.4829998016357,-8.25055027008057,13.9416751861572,0.24502499401569,0.57887500524521,0.80107498168945,0.97886252403259,0.50531250238419,-2.39401245117188,-7.1889123916626,-10.7494745254517,-12.4543371200562,-11.5758495330811,-14.2697496414185,-18.3148632049561,-9.48131275177002,-0.35199999809265,0.09569999575615,2.11800003051758,4.85805034637451,6.96105051040649,9.35805034637451,1.85700011253357,-5.31495046615601,-27.0930004119873,-56.4250526428223,-45.1489524841309,17.803050994873,43.5900039672852,31.9000511169434,-6.98400020599365,-12.877950668335,0.29295000433922,3.49500012397766,4.43400001525879,5.32500028610229,4.99200010299683,2.68605017662048,3.07605004310608,-4.62000036239624,-29.1019515991211,-53.9860534667969,-50.4679527282715,-28.5730514526367,-14.7150011062622,-7.21395015716553,-1.27395009994507,-0.53700000047684,10.1860504150391,10.900050163269,9.30000019073486,9.48705005645752,18.9640502929688,19.4239501953125,14.5500011444092,8.44500064849854,7.9200005531311,0.28305000066757,14.4079504013062,18.4990501403809,12.3750009536743,11.367000579834,11.3239507675171,SWING_LEFT
-1.16902494430542,-0.85263746976852,0.78237497806549,1.6414749622345,0.80024999380112,-0.58574998378754,-1.89750003814697,-4.43300008773804,-3.55671238899231,7.65613746643066,23.1426258087158,19.893913269043,5.57851266860962,15.6560249328613,18.2980880737305,0.96002501249313,2.98210000991821,2.39965009689331,-1.01653754711151,-4.07921266555786,-3.34523749351501,-0.66879999637604,7.36285018920898,19.5923748016357,19.744312286377,25.7966499328613,23.0170879364014,4.15401268005371,-18.9029502868652,-20.3962001800537,-3.20361256599426,-5.08488750457764,-6.18007516860962,-5.45930004119873,-3.2242374420166,-2.02812504768372,-3.31471252441406,-7.43806266784668,-9.44913768768311,-8.37718772888184,-7.86871242523193,-9.72344970703125,-11.8241748809814,-2.1455500125885,3.5572624206543,-1.64595007896423,-1.46100008487701,0.8440500497818,4.12995004653931,4.75005006790161,1.60095012187958,-8.95995044708252,-53.7109527587891,-50.2890014648438,-3.79695010185242,16.9189510345459,19.2979507446289,29.1769504547119,19.1470508575439,2.70000004768372,1.57905006408691,2.62095022201538,3.33000016212463,3.94605016708374,4.17105007171631,2.98800015449524,-10.0669507980347,-21.8910007476807,-54.0250511169434,-56.2999534606934,-39.0300025939941,-27.3490505218506,-17.9080505371094,-9.7669506072998,-8.93805027008057,11.2279500961304,9.83595085144043,11.9460000991821,15.35205078125,18.0300006866455,19.0690517425537,22.3930511474609,-13.2550506591797,4.12905025482178,4.90005016326904,5.38905048370361,17.9290504455566,13.2679510116577,14.4040508270264,9.6040506362915,SWING_LEFT
-0.18603749573231,-0.03959999978542,-0.18177500367165,-0.39833748340607,-0.06324999779463,-0.02846249938011,-0.78966248035431,-1.56351244449615,-2.5396249294281,-2.6255624294281,-0.04166249930859,-7.50901222229004,-6.89452505111694,15.5409374237061,20.1741371154785,-1.41129994392395,-0.75349998474121,-0.29644998908043,-0.38046249747276,-1.15348744392395,-2.17978739738464,-1.84841251373291,0.66866248846054,10.9577875137329,17.3947124481201,8.71749973297119,-10.1051502227783,-13.436224937439,-18.6547622680664,-15.0551500320435,-1.10151255130768,-1.08061254024506,-1.02657496929169,-0.69685000181198,-0.50558751821518,-0.64611250162125,-1.20133745670319,-3.02279996871948,-5.86368751525879,-8.54768753051758,-8.63582515716553,-6.28966236114502,-11.0734252929688,-10.1862745285034,-2.18790006637573,1.25100004673004,1.56000006198883,1.09305000305176,2.94900012016296,4.78095006942749,6.26205015182495,2.6140501499176,-19.5370502471924,-54.5539512634277,-33.0229530334473,14.6800508499146,29.9080505371094,23.998950958252,11.6890506744385,-2.51505017280579,1.75905013084412,1.82895004749298,1.17000007629395,2.27205014228821,2.75505018234253,1.41195011138916,2.06595015525818,0.60195004940033,-25.5529518127441,-43.5490531921387,-33.411003112793,-25.078950881958,-10.4569501876831,-4.24200010299683,-4.07205009460449,9.74805068969727,9.4819507598877,9.93900012969971,9.91500091552734,11.7430505752563,15.9100503921509,13.2130508422852,23.4259510040283,9.91800022125244,10.2289505004883,-5.83800029754639,5.3430004119873,11.9370002746582,15.5680503845215,12.0919504165649,SWING_LEFT
-0.1522125005722,-0.18741250038147,0.01567500084639,0.58588749170303,0.78127497434616,-0.66563749313354,-3.77519989013672,-3.68898749351501,0.86721247434616,6.90511226654053,17.9922866821289,14.9247999191284,14.2279500961304,15.9117746353149,6.92656230926514,-0.29081249237061,-0.38554999232292,-1.20546245574951,-3.38208746910095,-5.65317487716675,-3.74783754348755,4.09461259841919,14.7472877502441,17.2365875244141,12.2243003845215,22.1742115020752,20.4170989990234,-17.0271739959717,-21.579662322998,2.36376237869263,-0.16238750517368,-0.21422499418259,-0.260837495327,0.07053750008345,0.3103374838829,-1.12378752231598,-4.50862503051758,-8.93846225738525,-11.624662399292,-11.0376749038696,-13.9708251953125,-16.6799869537354,-9.27547454833984,-3.90898752212524,-1.15101253986359,0.41805002093315,1.43595004081726,4.84095001220703,11.1469507217407,8.76900005340576,-1.22895002365112,-37.4320526123047,-42.6870002746582,-38.9509506225586,-1.88505005836487,29.3299522399902,42.2320518493652,21.9300003051758,-6.82095050811768,-7.66005039215088,2.46105003356934,2.7769501209259,3.62205028533936,4.59705018997192,4.58505010604858,1.932000041008,1.57500004768372,-25.2889518737793,-45.8599510192871,-55.3969535827637,-40.0570526123047,-15.3600006103516,-11.5540504455566,-8.39205074310303,-0.18000000715256,10.2790508270264,10.617000579834,10.6410007476807,10.3990507125854,13.3470010757446,20.2519512176514,23.7319507598877,-4.18095016479492,11.2639503479004,11.2639503479004,5.28600025177002,7.62600040435791,17.1840000152588,13.7830505371094,9.4480504989624,SWING_LEFT
-0.50957500934601,-0.24474999308586,0.30813750624657,0.82128751277924,0.48908749222755,-0.38898751139641,-0.87491250038147,-1.99292504787445,4.81909990310669,13.8006000518799,16.4878997802734,11.5411996841431,15.7892627716064,17.154224395752,6.12906265258789,0.73191249370575,-0.14217500388622,-1.76660001277924,-2.88323760032654,-1.87343752384186,1.64683747291565,7.49732494354248,13.9346628189087,15.6666126251221,12.8016624450684,19.3799381256104,17.6445503234863,-14.1846370697021,-18.8964881896973,1.73909997940063,-1.97408747673035,-1.84593749046326,-1.5662624835968,-1.54426252841949,-2.16988754272461,-3.37177491188049,-4.13627481460571,-7.19014978408813,-11.2660627365112,-11.9234495162964,-14.2705745697021,-17.2305374145508,-6.79524993896484,0.67031252384186,-0.68722498416901,1.33005011081696,3.16995024681091,5.17905044555664,5.23395013809204,0.13500000536442,-10.7490005493164,-32.5459518432617,-41.7649536132813,-23.320951461792,10.4029502868652,18.832950592041,27.5869522094727,17.7840003967285,-2.45295000076294,-6.10305023193359,1.49295008182526,2.37705016136169,3.34500026702881,4.99500036239624,3.71595025062561,6.48405027389526,-11.1730508804321,-29.7700519561768,-45.4840507507324,-34.8049507141113,-22.9249515533447,-12.7369508743286,-6.55095052719116,-4.19204998016357,-1.20000004768372,10.6360502243042,11.3260507583618,10.2960004806519,14.3250007629395,16.6429500579834,15.9510011672974,12.1909503936768,-11.2890005111694,27.0690021514893,7.22100019454956,8.20305061340332,12.646050453186,12.4780502319336,7.56795024871826,8.59800052642822,SWING_LEFT
-0.32147499918938,0.40424999594688,1.08693754673004,1.34282493591309,0.89347499608994,-0.07039999961853,-2.2699875831604,-5.14456224441528,-0.72036248445511,9.85050010681152,17.9339866638184,1.47097504138947,1.0341374874115,0.54986250400543,0.20638750493526,0.00536249997094,-0.66591250896454,-1.9959499835968,-2.73721241950989,-1.46451246738434,1.39741253852844,4.92937517166138,10.8070878982544,15.6019878387451,17.3313255310059,27.7336120605469,-6.65252494812012,-2.7337749004364,0.45003750920296,1.73511254787445,-2.9933750629425,-3.06597495079041,-2.86412501335144,-2.36279988288879,-1.26912498474121,0.48702499270439,0.04001250118017,-5.34173727035522,-9.92626285552979,-10.9961500167847,-13.6157999038696,0.7067499756813,-1.69455003738403,-3.0327000617981,-3.30769991874695,0.30300000309944,1.62195003032684,3.05505013465881,2.94705009460449,0.74100005626678,-5.6050500869751,-27.8880004882813,-42.9430503845215,-30.4170017242432,13.9420509338379,35.7970504760742,3.7350001335144,2.50605010986328,1.58205008506775,1.35195004940033,2.03700017929077,2.76300024986267,4.92300033569336,5.08800029754639,4.95405006408691,1.50000011920929,-9.55200004577637,-28.9540519714355,-48.351001739502,-47.1180038452148,-27.7560005187988,0.58605003356934,1.6560001373291,1.38300001621246,1.19400000572205,10.06605052948,10.5409507751465,12.5070009231567,15.5920505523682,17.6389503479004,20.9730014801025,17.6629505157471,-11.5480508804321,15.3379507064819,5.86995029449463,16.5450000762939,8.33205032348633,8.95995044708252,8.90505027770996,9.66900062561035,SWING_LEFT
0.17476250231266,-0.01952499896288,0.21546250581741,0.24365000426769,0.66357499361038,0.8817874789238,-0.9229000210762,-3.15755009651184,-5.70625019073486,-5.42286252975464,-4.46132516860962,-9.80154991149902,-6.52437496185303,-9.68879985809326,-13.5517253875732,0.59056252241135,0.43614998459816,-0.39599999785423,-1.62153744697571,-3.30192494392395,-5.37363767623901,-5.39302492141724,1.57052505016327,16.2546997070313,17.2408504486084,2.54498744010925,-14.0113878250122,-12.6055870056152,10.0324125289917,16.9215755462646,-1.6110874414444,-1.60379993915558,-1.48389995098114,-1.33319997787476,-1.28686249256134,-1.73043751716614,-3.63206243515015,-3.46114993095398,-0.71719998121262,-4.3547625541687,-6.99627494812012,-6.73488759994507,-12.0298748016357,-17.0021495819092,-14.1578245162964,-1.83705008029938,-1.20705008506775,-0.32595002651215,1.86405003070831,5.99295043945313,10.8259506225586,-2.04299998283386,-37.935001373291,-46.9020004272461,-16.7749500274658,21.7120513916016,19.5990009307861,18.8020515441895,17.9490013122559,7.88805055618286,1.87605011463165,2.11605000495911,2.13000011444092,3.08805012702942,4.76700019836426,6.58005046844482,-0.45300000905991,-4.35000038146973,-38.7250518798828,-47.367000579834,-30.1270523071289,-17.7739505767822,-8.94600009918213,-3.17400026321411,-2.61105012893677,9.68805027008057,9.53700065612793,9.26595020294189,11.7840003967285,13.5030002593994,14.8519506454468,17.9320507049561,14.9550008773804,-1.59195005893707,19.8720016479492,4.94295024871826,0.98400002717972,12.3079509735107,13.3090505599976,10.85205078125,SWING_LEFT
-1.32825005054474,-0.73081248998642,0.1385999917984,0.82445001602173,1.08982503414154,0.1900250017643,-1.71462500095367,-2.82906246185303,-3.00506258010864,-2.3289749622345,-3.22519993782043,-16.2222499847412,-13.7673254013062,-7.72268724441528,-11.6051378250122,0.07892499864101,-0.36726251244545,-1.06906247138977,-1.54879999160767,-1.44677495956421,-0.81482499837875,-0.95081251859665,1.42353749275208,11.5380373001099,15.6343002319336,6.60577487945557,-14.6092376708984,-15.3707122802734,13.0734996795654,19.4045505523682,-4.47713756561279,-3.59878754615784,-2.46606254577637,-1.47317504882813,-1.03853750228882,-1.60214996337891,-3.45826244354248,-4.51041269302368,-3.67441248893738,-6.34301233291626,-7.44328737258911,-5.93449974060059,-11.4280376434326,-18.5314254760742,-15.0280628204346,1.52700006961823,1.80000007152557,1.93095004558563,2.76195001602173,1.95300006866455,3.03105020523071,0.05400000140071,-23.1790504455566,-42.8520011901855,-31.605001449585,-0.44295001029968,27.5509510040283,35.5620002746582,15.6360006332397,-4.33800029754639,2.60700011253357,3.07905006408691,3.25800013542175,4.29105043411255,4.05600023269653,3.66795015335083,0.78000003099442,1.64205002784729,-20.6530513763428,-34.2130508422852,-37.6879501342773,-32.5290031433105,-14.6430006027222,-8.8210506439209,-5.08005046844482,12.3010501861572,10.2960004806519,9.45600032806396,10.5570001602173,11.2159509658813,15.7980003356934,15.9130506515503,11.7259502410889,4.74495029449463,4.68195009231567,6.06195020675659,0.21300001442432,17.9839515686035,14.5350008010864,9.9060001373291,SWING_LEFT
0.76243752241135,0.80698752403259,0.54834997653961,-0.15633749961853,-0.20405000448227,-0.21711249649525,-0.66893750429153,-2.8775999546051,-3.62711238861084,-4.00963735580444,-10.2367372512817,-7.19042491912842,-10.6129369735718,-12.3560247421265,-1.17026245594025,-1.82311248779297,-1.98000001907349,-0.99948751926422,-0.2374625056982,-0.20487499237061,-0.25107499957085,2.20068740844727,11.2341623306274,14.0340747833252,3.43199992179871,-13.0150623321533,-12.0485754013062,11.5237379074097,18.1102619171143,11.7365875244141,0.08016250282526,0.12883749604225,-0.06531249731779,-0.60610002279282,-0.56319999694824,-1.0205249786377,-1.37087500095367,-3.08082509040833,-8.31063747406006,-8.71447467803955,-7.09513759613037,-12.1251621246338,-17.6823616027832,-12.7065124511719,-4.95412492752075,1.41600000858307,0.45405003428459,1.08795011043549,1.13595008850098,1.50705003738403,-1.00604999065399,-26.439001083374,-50.0970039367676,-31.4280014038086,21.3840007781982,34.6230010986328,23.5780506134033,9.43994998931885,-1.00200009346008,-2.22795009613037,3.15795016288757,3.26805019378662,3.1429500579834,3.99105024337769,3.69195008277893,3.97395014762878,-0.16995000839233,-30.7000522613525,-54.3619537353516,-39.7549514770508,-24.1300506591797,-11.1610507965088,-6.24195051193237,-2.71095013618469,-0.65700000524521,9.42405033111572,9.37395000457764,9.97095012664795,11.8549509048462,12.5860509872437,13.3860006332397,20.121000289917,3.97800016403198,14.8129510879517,0.00705000013113,5.61900043487549,16.6620006561279,13.7910003662109,11.8669509887695,9.48405075073242,SWING_LEFT
-0.09872499853373,-0.20184999704361,-0.09075000137091,0.47148749232292,1.47014999389648,1.63583743572235,0.69176250696182,-1.20958745479584,-3.84738755226135,-3.47737503051758,-11.2576751708984,-14.4731121063232,-4.05130004882813,-6.76926231384277,-8.80962467193604,0.1229249984026,-0.63456249237061,-1.02684998512268,-1.28397500514984,-1.71159994602203,-1.6521999835968,-0.40878748893738,6.24580001831055,13.9605121612549,10.4127378463745,-4.892662525177,-14.3109998703003,-3.17088747024536,16.4727745056152,17.6335506439209,-1.21825003623962,-1.24272501468658,-1.27104997634888,-1.15018749237061,-0.62356251478195,-0.49472498893738,-1.32192504405975,-1.91963744163513,-6.29021263122559,-9.5613374710083,-5.24617481231689,-6.00063753128052,-13.4373245239258,-18.8926372528076,-14.6458120346069,-0.73800003528595,0.3120000064373,-0.07500000298023,1.96500015258789,2.70000004768372,1.29195010662079,-7.64100027084351,-44.9959526062012,-37.8199501037598,-26.9899520874023,13.2190504074097,29.1820507049561,20.3680515289307,14.5960502624512,5.0110502243042,2.15895009040833,1.98195004463196,2.76300024986267,5.01900005340576,6.39300012588501,5.54100036621094,3.97905015945435,-7.55895042419434,-42.6769523620605,-34.4479522705078,-36.6420021057129,-22.6909503936768,-14.3749504089355,-7.80300045013428,-3.25005006790161,10.4950504302979,10.7940006256104,11.0100002288818,12.6289510726929,14.9689502716064,14.2189502716064,13.8700504302979,12.5329504013062,0.77595001459122,20.3910007476807,3.08205008506775,13.4670009613037,20.0659503936768,15.2899503707886,15.2250003814697,SWING_LEFT
-1.43976247310638,-0.90227496623993,0.13750000298023,1.27723753452301,2.3570249080658,2.42604994773865,1.5107125043869,-0.86322498321533,-5.08928728103638,-6.49646234512329,-8.82323741912842,-12.3458499908447,-8.55346202850342,-13.0208377838135,-12.2159128189087,2.72373747825623,2.15930008888245,-0.18961249291897,-2.61524987220764,-3.78083753585815,-3.00959992408752,-0.33426249027252,5.24521255493164,11.5567378997803,10.5873622894287,-0.85689997673035,-12.4874753952026,-2.83483743667603,15.6628999710083,16.4730491638184,-0.43037500977516,-0.05926249921322,-0.04784999787807,-0.19552500545979,-0.11302500218153,0.14506250619888,0.96882498264313,1.1339625120163,-3.14324998855591,-7.5473747253418,-6.10238742828369,-7.02721261978149,-13.9434623718262,-15.6393871307373,-9.14086246490479,-4.014000415802,-2.48400020599365,-0.3120000064373,0.84900003671646,1.74495005607605,0.35805001854897,-5.26500034332275,-35.3719520568848,-38.6560516357422,-19.5649509429932,17.1589508056641,37.9500007629395,38.6329536437988,-0.45300000905991,-10.3950004577637,0.54704999923706,1.35705006122589,2.37495017051697,3.67695021629334,5.14800024032593,5.77305030822754,5.6100001335144,-8.425950050354,-33.5140533447266,-43.3650016784668,-47.0650520324707,-17.9100017547607,-8.71305084228516,-6.7900505065918,-3.19005012512207,10.1239500045776,10.0039501190186,10.10205078125,9.59400081634521,12.118950843811,13.0170001983643,15.8140506744385,22.336051940918,1.99500012397766,17.6350517272949,-1.56795012950897,-6.05100011825562,16.7839508056641,11.2140007019043,9.47700023651123,SWING_LEFT
0.08002500236034,-0.02227500081062,-0.07218749821186,-0.0086624994874,0.44591251015663,2.05631256103516,2.73363757133484,-0.2066625058651,-5.79878759384155,-7.5607123374939,-7.69587516784668,-19.4723377227783,-15.3172245025635,-17.8690872192383,-17.738187789917,-0.23787499964237,-0.01031249947846,-0.07177499681711,-0.4644750058651,-1.47001254558563,-2.7471125125885,-4.06615018844604,-1.08019995689392,9.02330017089844,13.9008378982544,5.98400020599365,-15.32643699646,-15.2783126831055,22.6356620788574,27.2501621246338,0.15826250612736,0.14121249318123,0.10284999758005,-0.02034999988973,-0.06655000150204,-0.11261250078678,-0.59785002470016,-0.31982499361038,-0.11068750172853,-3.87213754653931,-4.96801233291626,-0.99769997596741,-8.70044994354248,-18.568000793457,-13.0523252487183,-1.57605004310608,-1.46400010585785,-0.95595002174377,0.02505000121891,2.2020001411438,6.06795024871826,10.5870008468628,-26.3890514373779,-48.3970527648926,-22.9450511932373,17.0850009918213,21.8239517211914,25.1220016479492,21.0510005950928,5.54505014419556,2.13000011444092,2.08500003814697,2.18295001983643,2.53695011138916,5.75205039978027,10.4119501113892,11.22705078125,-12.2530508041382,-28.0459518432617,-34.7689514160156,-35.545051574707,-24.094051361084,-12.5929508209229,-5.53005027770996,-4.15995025634766,9.90795040130615,9.87705039978027,10.0110006332397,10.3780508041382,10.7490005493164,18.2449512481689,23.2080001831055,35.9830513000488,-5.09100008010864,36.9649505615234,-11.7799501419067,7.85805034637451,11.8549509048462,13.8430509567261,12.3250503540039,SWING_LEFT
-0.08772499859333,0.32023748755455,0.81730002164841,1.02107501029968,0.65216249227524,-0.19744999706745,-1.80922496318817,-3.98461246490479,5.13562488555908,16.3146495819092,15.1391620635986,14.1992120742798,7.63399982452393,15.1614370346069,18.2577991485596,0.47574999928474,-0.16321249306202,-1.21453750133514,-2.17717504501343,-2.08807492256165,-1.5969250202179,-1.16544997692108,3.20759987831116,23.7565631866455,24.8952007293701,12.1038503646851,15.6010246276855,7.46886253356934,-14.3488121032715,-15.9505500793457,-1.89117503166199,-1.94026243686676,-1.88278746604919,-1.70843744277954,-1.65866243839264,-2.0520498752594,-3.33354997634888,-5.62278747558594,-12.6838245391846,-12.8650503158569,-7.58807516098022,-11.8661127090454,-15.5912628173828,-4.79902505874634,2.08697509765625,-0.30900001525879,1.30605006217957,2.83905005455017,3.25305008888245,3.64605021476746,4.35000038146973,-0.18000000715256,-43.9080009460449,-40.7970008850098,-12.4309501647949,17.9640007019043,28.8130512237549,30.5329513549805,15.6790504455566,3.54600024223328,1.52205002307892,2.82000017166138,2.9520001411438,4.82505035400391,4.35795021057129,2.03400015830994,-2.09595012664795,-8.0310001373291,-54.3940544128418,-43.245002746582,-35.605052947998,-20.3119506835938,-10.4260501861572,-4.82400035858154,-3.32895016670227,10.3849506378174,13.627950668335,13.2370510101318,16.2139511108398,16.5810012817383,15.4099502563477,12.6840009689331,-4.69605016708374,-15.2650508880615,31.7050514221191,15.9250507354736,11.5819501876831,9.57495021820068,10.4040002822876,7.58295059204102,SWING_LEFT
0.09171249717474,-0.08208750188351,-0.1717374920845,-0.03217500075698,0.20267499983311,0.62424999475479,0.32670000195503,-2.4122998714447,-3.49387502670288,1.97821247577667,2.66488742828369,-7.0317497253418,-3.74495005607605,13.2818126678467,10.6000127792358,-0.24186250567436,-0.08002500236034,0.19497500360012,-0.05926249921322,-1.27489995956421,-2.50896239280701,-2.94566249847412,3.42828750610352,16.174674987793,17.9749622344971,5.60834980010986,-13.287449836731,-12.8136253356934,-9.25952529907227,-4.36603736877441,-0.94187498092651,-0.74277502298355,-0.73205000162125,-0.61861246824265,-0.29919999837875,-0.1522125005722,-1.21632504463196,-3.80668759346008,-6.36157512664795,-9.42466259002686,-9.42617511749268,-8.89721202850342,-12.6856126785278,-6.94828748703003,-0.76408749818802,-0.4909500181675,-1.19805002212524,-0.30495002865791,0.96900004148483,2.56095004081726,4.90605020523071,1.81200003623962,-56.1610527038574,-44.0500526428223,-18.0610504150391,27.4620018005371,31.0120506286621,15.142050743103,6.6060004234314,5.84700012207031,1.31595003604889,1.3330500125885,1.44495010375977,1.82100009918213,2.58795022964478,4.55595016479492,-1.47105002403259,-4.54605007171631,-43.4629516601563,-53.3350524902344,-29.2390518188477,-14.872950553894,-9.43395042419434,-6.26100015640259,-1.93995010852814,9.43605041503906,10.2360000610352,9.97305011749268,11.9389505386353,10.6080007553101,18.2020511627197,17.1840000152588,7.55400037765503,-7.59600019454956,9.91500091552734,3.01095008850098,12.1860008239746,11.3479509353638,10.06605052948,10.417950630188,SWING_LEFT
-0.22728750109673,0.28380000591278,0.19786250591278,0.67430001497269,2.42687487602234,1.63294994831085,-2.31054997444153,-6.50223731994629,-5.60161256790161,3.76859998703003,23.4935245513916,20.1540622711182,3.68706250190735,17.8098239898682,18.2514743804932,1.43770003318787,-0.46653750538826,-3.13884997367859,-4.02820014953613,-3.44630002975464,-1.97724997997284,2.30931258201599,12.2887878417969,16.8267002105713,13.2863502502441,26.0447006225586,21.9437618255615,0.1142624989152,-19.6931629180908,-17.399112701416,-2.31054997444153,-2.64852499961853,-2.0433874130249,-1.18497502803802,-0.73301249742508,-0.47836250066757,-1.00594997406006,-2.34382510185242,-5.38642501831055,-7.73588752746582,-11.422399520874,-14.5422744750977,-13.0807876586914,-1.18112504482269,3.63976240158081,-0.56805002689362,2.32200002670288,2.52795004844666,5.65995025634766,7.09305047988892,-0.1540500074625,-25.9890003204346,-43.6140022277832,-32.7589530944824,-4.53900003433228,17.9010009765625,20.7559509277344,21.2500514984131,17.60205078125,8.33100032806396,1.93905007839203,1.56705009937286,3.69195008277893,6.94395017623901,7.81095027923584,0.74805003404617,-5.86305046081543,-27.435001373291,-40.3200035095215,-33.4300498962402,-26.9509506225586,-17.7589511871338,-13.1800508499146,-6.25605010986328,-2.76705002784729,9.04605007171631,12.1399507522583,12.1690502166748,10.9429502487183,16.8610515594482,20.0560512542725,17.6059513092041,-2.18295001983643,7.10100030899048,10.3110008239746,2.03295016288757,13.0720510482788,14.7250509262085,11.8000507354736,13.4959506988525,SWING_LEFT
-0.09913749992847,-0.16967499256134,-0.11632499843836,0.11577499657869,0.31968748569489,-0.03932499885559,-1.96872496604919,-8.35642528533936,-9.40513706207275,0.25313749909401,-0.68323749303818,-14.7233619689941,-10.9597120285034,-11.9455871582031,-10.4200248718262,-0.04716249927878,0.348149985075,0.37441250681877,-0.62865000963211,-2.63284993171692,-5.22953748703003,-5.91978740692139,-0.12044999748468,19.18798828125,24.8615131378174,0.70386248826981,-20.5563869476318,-15.0354871749878,19.9354381561279,19.71213722229,-0.80011248588562,-1.03248751163483,-1.12488746643066,-0.97184997797012,-0.6319500207901,0.16582499444485,0.29287499189377,-3.92947506904602,-7.15219974517822,-6.5000376701355,-5.45503759384155,-6.41162490844727,-12.2241621017456,-18.5246868133545,-11.880274772644,0.79395002126694,0.6360000371933,1.58205008506775,4.17105007171631,10.9440002441406,16.6819515228271,3.8860502243042,-37.7509536743164,-57.7060508728027,-35.9689521789551,12.3139505386353,43.3050003051758,35.6170501708984,8.47695064544678,-4.56300020217896,2.76705002784729,2.82705020904541,3.0949501991272,3.59595012664795,5.30100011825562,3.48795008659363,-6.04095029830933,-0.89100003242493,-29.0539512634277,-43.9630508422852,-51.6130523681641,-31.1809520721436,-16.1500511169434,-7.99995040893555,-2.95800018310547,9.75300025939941,9.72405052185059,10.3230009078979,11.0700006484985,13.5390005111694,12.9670505523682,10.8570003509521,19.0600509643555,0.47400003671646,12.1980009078979,12.6820507049561,12.6270008087158,17.1240005493164,12.1879501342773,12.1429510116577,SWING_LEFT
0.01484999991953,-0.02433750033379,-0.03781250119209,0.20405000448227,1.15403747558594,1.10976254940033,-1.00773751735687,-4.18481254577637,-3.48287487030029,-2.73858737945557,-17.0956497192383,-13.9963998794556,15.8133249282837,16.6138496398926,3.97636246681213,0.50311249494553,0.42143750190735,-0.1552374958992,-1.13533747196198,-3.75196242332459,-6.60055017471313,-0.2216500043869,13.0268878936768,17.0640239715576,8.47439956665039,-18.5644245147705,-19.6172618865967,-14.3629751205444,-12.1057748794556,6.59945011138916,-0.17971250414848,-0.13172499835491,0.06104999780655,0.346774995327,1.1530749797821,1.54604995250702,-1.54893743991852,-7.41729974746704,-10.9258871078491,-9.37956237792969,-6.38811254501343,-10.9305620193481,-8.03027534484863,-1.3585000038147,-2.05507493019104,-1.02795004844666,-0.78105002641678,-0.02700000070035,4.10400009155273,13.3720502853394,2.03205013275146,-35.7700500488281,-46.6909523010254,-34.6249504089355,14.5890007019043,32.662052154541,13.8679504394531,10.4820003509521,6.28095006942749,4.39800024032593,2.52795004844666,2.50200009346008,2.79900002479553,3.90495014190674,6.88005018234253,3.62700009346008,1.15995001792908,-31.3200016021729,-53.1220512390137,-32.2999496459961,-18.3889503479004,-11.368950843811,-5.60205030441284,-2.64195013046265,-0.48600003123283,10.0759506225586,9.64500045776367,9.75300025939941,11.2450504302979,12.5239505767822,14.6839504241943,26.881950378418,9.71895027160645,-12.151050567627,15.3949508666992,-3.30195021629334,13.6489505767822,12.7030506134033,13.3330507278442,14.4919509887695,SWING_LEFT
0.15015000104904,0.15028749406338,0.08799999952316,-0.08016250282526,0.00907499995083,0.43037500977516,1.35382497310638,1.70926249027252,-0.90598750114441,-4.69589996337891,-6.16330003738403,-17.1732006072998,-15.2204246520996,-4.7564001083374,-4.78637504577637,-0.41181248426437,-0.12704999744892,0.17558750510216,0.33852499723434,0.07067500054836,-1.21440005302429,-3.32378745079041,-4.23472499847412,3.09003758430481,14.2777252197266,10.0791625976563,-8.70526218414307,-16.2740879058838,-4.80906248092651,6.7458872795105,-0.15427500009537,-0.26688748598099,-0.30346250534058,-0.25025001168251,-0.13846249878407,0.18878750503063,0.45031249523163,0.0362999998033,-2.51253747940063,-6.9355001449585,-6.5694751739502,-3.10474991798401,-10.5422620773315,-15.9161748886108,-10.0187997817993,-1.73400008678436,-1.93995010852814,-2.53200006484985,-1.82505011558533,-0.81705003976822,2.78205013275146,4.7839503288269,-1.32495009899139,-52.4230537414551,-37.7890510559082,3.49305009841919,28.5979518890381,27.7279510498047,13.5930004119873,-0.40500003099442,1.35000002384186,1.49100005626678,1.05494999885559,1.46400010585785,2.01495003700256,3.13395023345947,5.95995044708252,4.95195007324219,-14.5519504547119,-36.7279510498047,-34.1700019836426,-23.449951171875,-11.0440502166748,-3.75795006752014,-1.83000004291534,9.88695049285889,9.550950050354,9.73095035552979,10.5090007781982,9.88395023345947,11.9269504547119,16.0279502868652,21.4740009307861,16.4970016479492,5.18295001983643,3.83400011062622,-1.90305006504059,8.55495071411133,11.7880506515503,15.5580005645752,SWING_LEFT
-0.43986248970032,-0.26688748598099,0.02131249941885,0.17696249485016,0.55054998397827,1.2751749753952,0.37345001101494,-3.77561259269714,-5.76798725128174,-4.20364999771118,-8.27296257019043,-15.7697372436523,-1.63487493991852,19.5820617675781,14.9034872055054,0.58973747491837,0.62988752126694,0.04867500066757,-0.84452497959137,-2.19711256027222,-3.99946236610413,-4.71212482452393,2.39153742790222,18.4995250701904,16.5842876434326,-2.49878740310669,-21.2584629058838,-27.9098873138428,-22.1564750671387,-5.44678735733032,-1.37238752841949,-1.57533752918243,-1.35863745212555,-0.89938747882843,-0.68089997768402,-0.76174998283386,-1.05723750591278,-3.71387505531311,-10.1070747375488,-10.3251495361328,-4.36026239395142,-5.45132493972778,-9.5163745880127,-4.24709987640381,-0.40878748893738,0.11595000326633,1.35900008678436,1.42605006694794,3.64905023574829,7.27500057220459,9.31005001068115,1.2679500579834,-51.9340515136719,-41.8750534057617,-15.2260503768921,26.67405128479,29.7019519805908,22.2600002288818,3.32505011558533,-6.29700040817261,2.18805003166199,2.65200018882751,2.27205014228821,4.01295042037964,5.7199501991272,5.11200046539307,-0.3160500228405,-3.46800017356873,-44.5140037536621,-38.2129516601563,-30.0700511932373,-13.3240509033203,-6.28500032424927,-1.69605004787445,-0.21300001442432,10.0180501937866,10.0930500030518,9.91095066070557,11.8720502853394,10.5840005874634,8.50995063781738,9.91800022125244,20.8890018463135,-2.21399998664856,24.927001953125,-3.76605010032654,8.50200080871582,11.4580507278442,15.9439506530762,16.1160011291504,SWING_LEFT
-0.31473749876022,-0.17943750321865,0.32656249403954,0.56993746757507,0.6404749751091,0.29631251096725,-0.24681249260902,-1.35093748569489,-3.75388741493225,-4.23334980010986,-7.98173761367798,-12.0037498474121,-7.46886253356934,-14.3368501663208,-10.8102502822876,0.56636250019073,0.48001250624657,-1.09064996242523,-2.03362488746643,-2.51336240768433,-2.41518759727478,-0.82857501506805,6.21967506408691,14.2297372817993,11.9725370407104,-1.58840000629425,-15.5031251907349,-6.00778770446777,17.4690990447998,19.2186508178711,-1.0671374797821,-1.16833746433258,0.24323749542236,0.27390000224113,0.1040875017643,-0.30676248669624,-1.28466248512268,-2.6032874584198,-5.15721225738525,-7.71361255645752,-6.43046236038208,-8.59113788604736,-15.4254369735718,-16.4788246154785,-8.12597465515137,-0.21405000984669,-0.28095000982285,1.59105002880096,2.53500008583069,3.89295029640198,2.60700011253357,-3.9190502166748,-49.7190017700195,-42.8070030212402,-19.207950592041,30.4060516357422,42.631950378418,19.0270500183105,-4.31895017623901,-6.51195049285889,2.15205001831055,1.4719500541687,2.46600008010864,2.6140501499176,2.75805020332336,2.29995012283325,3.4980001449585,-7.20195055007935,-43.6279525756836,-49.4959526062012,-40.5910530090332,-19.3620014190674,-7.69995021820068,-4.54095029830933,-1.20300006866455,9.8700008392334,9.78405094146729,10.3750505447388,10.1599502563477,11.1370506286621,11.953950881958,13.6519508361816,27.4129505157471,-4.18095016479492,17.97705078125,-0.49200001358986,9.31695079803467,14.8279504776001,14.1400508880615,11.9610004425049,SWING_LEFT
-0.24488750100136,-0.08373750001192,0.09198749810457,0.40259999036789,0.82059997320175,0.80231249332428,-0.53460001945496,-2.3677499294281,-2.73762488365173,-0.98931246995926,-5.55046224594116,-15.1160621643066,-9.42466259002686,-12.8576250076294,-10.9408750534058,0.27046251296997,0.19937500357628,-0.38637501001358,-1.11581254005432,-2.04448747634888,-1.89516246318817,0.32202500104904,6.5740122795105,13.0154752731323,11.0352001190186,-0.23361249268055,-20.1448497772217,-13.7388620376587,21.1898498535156,21.8475131988525,-0.99068748950958,-1.35231244564056,-1.26307499408722,-0.90805000066757,-0.60857498645782,-0.9619500041008,-2.41353750228882,-4.46764993667603,-7.47284984588623,-9.12367534637451,-7.05210018157959,-5.86588764190674,-11.3289003372192,-19.9674739837646,-13.141562461853,0.1489500105381,0.69300001859665,1.00499999523163,3.22695016860962,2.73600006103516,0.6690000295639,-11.4150009155273,-41.9830513000488,-47.8650016784668,-31.0759506225586,24.0180015563965,35.1619529724121,24.5599517822266,6.83895015716553,-8.2339506149292,2.69595003128052,2.5729501247406,3.10695004463196,4.06095027923584,4.94895029067993,3.41895008087158,3.99795007705688,-6.15495014190674,-34.8959999084473,-45.9730529785156,-50.074951171875,-27.5190010070801,-11.4340505599976,-6.12900018692017,-2.85000014305115,10.2480001449585,9.82005023956299,11.8980007171631,9.64005088806152,10.7970008850098,13.3279504776001,18.7699508666992,20.0989513397217,-8.06295013427734,19.336950302124,4.71795034408569,9.97500038146973,17.377950668335,12.9790506362915,12.1309509277344,SWING_LEFT
-0.09446249902248,0.13461250066757,0.74442499876022,1.75133752822876,2.11337494850159,0.78828752040863,-2.67547488212585,-4.79393768310547,-4.47218751907349,-8.67171287536621,-12.0476121902466,4.01719999313354,13.4188995361328,6.90951251983643,6.96341228485107,-0.11467500030994,-0.57708752155304,-0.91918748617172,-1.19886255264282,-1.37706243991852,0.00302499998361,6.2975001335144,11.7660121917725,8.8038501739502,-1.65646255016327,-16.1771507263184,-37.4116859436035,-28.3874244689941,0.04262499883771,11.4890871047974,-1.00746250152588,-0.61338752508163,-0.35048750042915,0.04276249930263,0.70262497663498,0.77687501907349,-2.21265006065369,-7.18561267852783,-7.55576229095459,-5.47387504577637,-6.33352518081665,-4.34060001373291,-3.01565003395081,-2.32622504234314,3.83253741264343,-0.78600001335144,-0.36195001006126,0.40095001459122,1.73505008220673,1.09800004959106,-12.7399501800537,-29.6910018920898,-40.2990036010742,-19.0650005340576,18.6340503692627,35.1379508972168,27.4840507507324,-7.7509503364563,-8.1340503692627,1.55100011825562,2.28795003890991,3.0090000629425,4.23105001449585,5.98905038833618,5.79705047607422,4.79100036621094,-19.6350002288818,-25.8660011291504,-40.8109512329102,-41.8219528198242,-25.3729515075684,-13.7430009841919,-6.46695041656494,0.24300001561642,0.39195001125336,10.9140005111694,9.16800022125244,10.0639505386353,11.2710008621216,14.0880002975464,20.0610008239746,12.4039506912231,7.03905010223389,18.6790504455566,1.08705008029938,11.5339508056641,20.4220504760742,10.7700004577637,11.2900505065918,10.5670509338379,SWING_LEFT
-0.34443750977516,0.09239999949932,0.64432501792908,0.91588747501373,1.16806244850159,0.66439998149872,-0.7039999961853,-2.19064998626709,0.79694998264313,6.01232481002808,15.7278003692627,17.73268699646,-3.02293753623962,-12.6010503768921,-2.8949248790741,0.04083750024438,0.8787624835968,0.51644998788834,-1.00539994239807,-2.60424995422363,-3.31498742103577,-1.21549999713898,7.25670003890991,15.1522245407104,12.3971376419067,21.757999420166,29.1103992462158,31.0998878479004,25.5446128845215,8.74183750152588,-1.64614999294281,-1.95043754577637,-1.89406251907349,-1.43123745918274,-0.72393751144409,-0.80396246910095,-3.57527494430542,-7.20335006713867,-12.0375747680664,-12.2742128372192,-10.7536001205444,-14.0332498550415,-20.1878871917725,-18.271411895752,-6.64289999008179,-2.9650502204895,-3.21900010108948,-0.80505001544952,-0.53700000047684,2.81805014610291,-1.09305000305176,-17.8270511627197,-48.552001953125,-36.409049987793,-13.6159505844116,26.3610019683838,32.9350509643555,21.316951751709,4.75995016098022,-0.85305005311966,2.37195014953613,2.95395016670227,3.28695011138916,4.84905004501343,4.5130500793457,3.77595019340515,-0.64905005693436,-17.7469501495361,-46.702953338623,-45.5130004882813,-34.8790512084961,-21.8070011138916,-10.653000831604,-6.32100009918213,-3.24600005149841,9.86805057525635,10.9290008544922,10.5930004119873,11.5870504379272,14.2069511413574,12.7510509490967,17.0190010070801,8.74905014038086,-8.09700012207031,13.1220006942749,4.14795017242432,14.1829509735107,11.1490507125854,12.3940505981445,11.9850006103516,SWING_LEFT
0.17902499437332,0.67869997024536,0.91602498292923,0.64556246995926,-0.17971250414848,-0.82527500391006,-0.76958751678467,-0.57227498292923,0.56856250762939,-0.32312500476837,-7.66466236114502,-13.1606750488281,-10.6056499481201,-9.71286201477051,-5.08873748779297,-0.84177500009537,-0.71499997377396,-0.24103750288486,0.36946249008179,0.96346247196198,1.14193749427795,0.63139998912811,3.10557508468628,9.69663715362549,9.84596252441406,-0.00371249997988,-13.3248500823975,3.48658752441406,25.103099822998,14.2642498016357,-0.4629625082016,-0.47066250443459,-0.47561249136925,-0.67484998703003,-1.10385000705719,-1.1611875295639,-0.86088746786118,-3.8255250453949,-9.77528762817383,-10.4777746200562,-6.77036237716675,-8.14563751220703,-15.647087097168,-17.066499710083,-9.11418724060059,0.3529500067234,0.30300000309944,-0.28305000066757,-1.04505002498627,-2.30400013923645,-1.71495008468628,-6.66600036621094,-37.7989501953125,-43.453052520752,-16.0639514923096,11.3749504089355,28.7010021209717,25.4029502868652,10.8840007781982,0.99495005607605,3.61800026893616,3.81900024414063,3.70395016670227,3.39195013046265,4.15395021438599,4.52295017242432,3.28695011138916,-2.27100014686584,-32.6830520629883,-33.7480506896973,-35.6290512084961,-27.3349514007568,-14.0419502258301,-8.28705024719238,-5.05605030059814,9.07500076293945,8.671950340271,9.01005077362061,9.36900043487549,13.9819507598877,17.5080013275146,13.6660509109497,12.7009506225586,6.51195049285889,5.07300043106079,4.18395042419434,7.92300033569336,14.3440504074097,13.1730003356934,13.0339508056641,SWING_LEFT
-0.34842500090599,-0.16967499256134,-0.01787500083447,0.1710499972105,0.71527498960495,1.63789999485016,1.69042503833771,-0.06201250106096,-0.82953751087189,1.38531243801117,-2.75646257400513,-15.9785995483398,-11.8133125305176,-9.45917510986328,-9.76910018920898,0.690249979496,0.30167499184608,-0.35956248641014,-0.87669998407364,-1.19624996185303,-1.79808747768402,-1.57630002498627,0.39916250109673,7.63070011138916,13.262149810791,5.75409984588623,-11.5208501815796,-9.16409969329834,23.9899005889893,25.8722743988037,-0.35186249017715,-0.26743748784065,-0.09666249901056,0.12746250629425,0.49623748660088,1.45268750190735,2.43347501754761,0.62548750638962,-11.0413875579834,-18.1362495422363,-9.5689001083374,-4.99496269226074,-11.297550201416,-17.7735252380371,-13.9429121017456,-1.86405003070831,-1.31805002689362,-0.99405002593994,0.18795001506805,0.78405004739761,4.546950340271,1.25400006771088,-24.576000213623,-53.7880516052246,-26.1799507141113,2.47995018959045,22.2000007629395,25.7190017700195,30.0799522399902,3.45900011062622,1.96005010604858,2.2020001411438,2.43900012969971,3.21000003814697,4.72200012207031,6.33105039596558,5.70600032806396,1.45005011558533,-27.8110504150391,-34.534049987793,-39.3150024414063,-32.1990013122559,-17.1730499267578,-9.40305042266846,-4.52895021438599,9.68295001983643,11.1340503692627,9.70695018768311,11.1130504608154,11.5420503616333,13.0309505462646,16.1419506072998,25.7440509796143,3.3600001335144,10.4280004501343,5.21400022506714,1.30995011329651,8.39205074310303,16.1299514770508,11.4480009078979,SWING_LEFT
