gyro_x_0,gyro_y_0,gyro_z_0,acc_x_0,acc_y_0,acc_z_0,gyro_x_1,gyro_y_1,gyro_z_1,acc_x_1,acc_y_1,acc_z_1,gyro_x_2,gyro_y_2,gyro_z_2,acc_x_2,acc_y_2,acc_z_2,gyro_x_3,gyro_y_3,gyro_z_3,acc_x_3,acc_y_3,acc_z_3,gyro_x_4,gyro_y_4,gyro_z_4,acc_x_4,acc_y_4,acc_z_4,gyro_x_5,gyro_y_5,gyro_z_5,acc_x_5,acc_y_5,acc_z_5,gyro_x_6,gyro_y_6,gyro_z_6,acc_x_6,acc_y_6,acc_z_6,gyro_x_7,gyro_y_7,gyro_z_7,acc_x_7,acc_y_7,acc_z_7,gyro_x_8,gyro_y_8,gyro_z_8,acc_x_8,acc_y_8,acc_z_8,gyro_x_9,gyro_y_9,gyro_z_9,acc_x_9,acc_y_9,acc_z_9,gyro_x_10,gyro_y_10,gyro_z_10,acc_x_10,acc_y_10,acc_z_10,gyro_x_11,gyro_y_11,gyro_z_11,acc_x_11,acc_y_11,acc_z_11,gyro_x_12,gyro_y_12,gyro_z_12,acc_x_12,acc_y_12,acc_z_12,gyro_x_13,gyro_y_13,gyro_z_13,acc_x_13,acc_y_13,acc_z_13,gyro_x_14,gyro_y_14,gyro_z_14,acc_x_14,acc_y_14,acc_z_14,motion_type
1.10677886009216,2.23295211791992,3.30285120010376,3.24268269538879,2.3816933631897,1.23444592952728,-3.24871468544006,-1.92798662185669,-1.09356927871704,0.97178161144257,2.78943395614624,1.49436151981354,1.1947408914566,0.44584214687347,-3.61766648292542,0.21524730324745,1.18527269363403,0.36185064911842,-0.1320193707943,0.62115532159805,0.8257891535759,0.34535777568817,-0.64726901054382,2.86212491989136,2.38535857200623,0.12881241738796,1.02003860473633,1.23505675792694,-1.83727586269379,-0.04833329096437,-1.40914821624756,-1.96135413646698,-1.91431891918182,-2.01938462257385,-1.15778458118439,0.58839863538742,9.79073619842529,6.27309608459473,-1.46076488494873,-6.11893320083618,-7.07552003860474,-5.98271417617798,0.74782973527908,8.43060874938965,7.57420063018799,1.7171493768692,2.29381966590881,1.1165509223938,0.61046886444092,-5.93749046325684,-12.5644130706787,12.7384901046753,42.6882553100586,43.6537590026855,15.547664642334,13.0878429412842,-12.0978126525879,-26.8531532287598,-1.60289204120636,27.8766822814941,11.7622184753418,10.1255283355713,4.98813772201538,1.4431711435318,-9.96580696105957,-16.583158493042,-11.1263265609741,36.6810722351074,49.6764945983887,20.0007076263428,6.07567596435547,-23.7030029296875,-28.1488666534424,-18.894624710083,13.5412826538086,5.88903570175171,6.5183482170105,3.93290305137634,1.806880235672,-2.49661135673523,-6.31316328048706,2.96261358261108,14.4708938598633,17.3949241638184,8.26271533966064,6.21445941925049,-3.22402930259705,-9.91316509246826,-8.8615198135376,1.41685009002686,SHAKE
-2.72269892692566,1.28697884082794,2.38963437080383,2.61595344543457,0.51639497280121,-1.21879303455353,-0.38918605446815,-2.91481041908264,-0.68460708856583,0.68834853172302,2.57472109794617,1.22986459732056,-0.46951246261597,-0.08406785130501,-0.87794023752213,1.40945374965668,1.86728370189667,0.00969719979912,-0.52784836292267,1.7542769908905,0.50265091657639,-1.33729732036591,0.38933876156807,1.13365614414215,0.78058642148972,-1.14640760421753,-1.22367978096008,1.93180441856384,-2.51501083374023,-1.96677541732788,2.78042411804199,-3.87093901634216,-6.177574634552,-6.81346654891968,-4.63235998153687,6.364417552948,9.41964626312256,6.62799835205078,-1.27292931079865,-6.27653217315674,-6.92311382293701,-6.50315618515015,-0.39269843697548,9.42728233337402,9.07726669311523,34.1566467285156,19.6011066436768,13.5556392669678,3.73669171333313,-6.21625423431396,-34.629825592041,3.81206560134888,36.0015106201172,38.4792785644531,14.6479625701904,11.903395652771,4.69382095336914,-32.3973236083984,-1.75842559337616,29.814868927002,35.950065612793,36.0350112915039,9.02482986450195,-16.461124420166,-28.1584377288818,-32.4738922119141,-23.0054950714111,40.7153739929199,54.157054901123,21.2964210510254,7.29840803146362,-15.2001066207886,-31.4461765289307,-24.5476684570313,6.65832805633545,22.1554431915283,9.2018985748291,4.77039098739624,1.92293214797974,-1.1793624162674,-7.49282503128052,0.54107701778412,10.0310115814209,12.0673036575317,4.9235315322876,5.49661254882813,1.1859427690506,-4.74347162246704,-0.777368247509,-6.60628414154053,SHAKE
-4.60082530975342,-3.15578961372375,1.95371854305267,4.12474632263184,1.83613049983978,-0.11399936676025,0.79188710451126,-1.25819265842438,-4.3488507270813,-2.3763484954834,2.4498028755188,2.73262524604797,0.15752223134041,0.0200816038996,1.2087904214859,0.14499986171722,1.83613049983978,-0.6032879948616,-1.90172028541565,-0.90634459257126,-0.34215080738068,-3.83268475532532,-2.22608017921448,1.56980109214783,1.52337670326233,-2.40719628334045,-3.28315138816834,-0.11705360561609,-0.51624226570129,-2.87663245201111,3.47778248786926,-3.91736340522766,-6.18459939956665,-6.90601015090942,-5.73501586914063,2.16743874549866,10.4134950637817,9.27487564086914,1.87789714336395,-5.26832866668701,-6.42985439300537,-6.99336099624634,-5.53099298477173,2.37848663330078,10.0213308334351,37.5424880981445,24.6176586151123,12.8820600509644,7.20748090744019,-8.98116111755371,-24.6708984375,6.87727117538452,36.9323196411133,52.3887596130371,16.550256729126,12.7588291168213,3.64097881317139,-13.538290977478,-31.8912410736084,-15.4669065475464,31.8547496795654,39.1911430358887,14.2974147796631,-8.52891731262207,-27.9263343811035,-33.2072944641113,-22.7973194122314,20.3859519958496,48.7002220153809,28.6531543731689,17.6449737548828,-10.0686988830566,-25.5694046020508,-26.970401763916,-25.3480682373047,0.24675983190536,18.2288227081299,14.5043935775757,1.40129673480988,-4.01007175445557,-7.54786014556885,-2.13768792152405,-7.56460952758789,12.2264261245728,15.5356998443604,14.3452711105347,-0.09182456880808,-2.19870495796204,-3.16660165786743,-1.60648131370544,SHAKE
-3.94660782814026,-1.69678092002869,3.28208231925964,1.92775762081146,0.10376767814159,1.00904333591461,1.67822647094727,-0.44782739877701,-0.85900396108627,-0.92375373840332,0.66513633728027,0.06131379306316,0.50265091657639,1.00171315670013,0.41377267241478,2.29678559303284,1.68647289276123,-1.93226253986359,-2.60114026069641,1.63577258586884,-0.85869854688644,-2.38612198829651,-0.11522106081247,2.09123563766479,1.26804256439209,-1.5425420999527,-0.41453620791435,2.48920249938965,-0.4444677233696,-1.80795514583588,0.42553147673607,-5.24542188644409,-6.64181852340698,-7.09689998626709,-5.30650663375854,4.38427972793579,9.63252639770508,7.78860807418823,0.00404686294496,-5.77105569839478,-6.73252964019775,-6.81652069091797,-2.53012943267822,7.17745542526245,9.90099430084229,45.3789825439453,16.0848522186279,11.116156578064,4.07527589797974,-4.13449859619141,-27.0254364013672,9.36461067199707,23.0264320373535,46.1195640563965,27.5883483886719,8.71495914459229,-2.28245377540588,-27.8712997436523,-15.7325096130371,1.43599271774292,49.9349174499512,28.1733932495117,5.6389856338501,-12.8958187103271,-21.5733890533447,-25.6854553222656,-14.9763774871826,2.47447776794434,50.4469833374023,37.7315216064453,1.5903297662735,-17.8585319519043,-27.9394950866699,-25.0669116973877,-18.5129699707031,9.23659420013428,13.6908340454102,4.66869592666626,-2.93808698654175,-0.47467619180679,-2.17716956138611,-2.39252352714539,-5.2208399772644,4.32173681259155,0.11994023621082,2.44935297966003,3.50339150428772,-1.37437748908997,-3.8270206451416,-3.63559484481812,SHAKE
-0.44782739877701,-0.85900396108627,-0.92375373840332,0.66513633728027,0.06131379306316,0.50265091657639,1.00171315670013,0.41377267241478,-1.174201130867,-0.58320641517639,-0.37086063623428,0.74088138341904,0.99163419008255,1.17030704021454,-0.28992336988449,-0.11522106081247,2.09123563766479,1.26804256439209,-1.5425420999527,-0.41453620791435,2.48920249938965,-0.4444677233696,-1.80795514583588,0.89847993850708,3.10951805114746,0.97941720485687,-0.56969141960144,0.96994906663895,-0.11613733321428,-1.46221566200256,7.78860807418823,0.00404686294496,-5.77105569839478,-6.73252964019775,-6.81652069091797,-2.53012943267822,7.17745542526245,9.90099430084229,5.58825969696045,-4.10489368438721,-6.54408311843872,-6.44420957565308,-4.63205480575562,1.34004616737366,8.37899208068848,23.0264320373535,46.1195640563965,27.5883483886719,8.71495914459229,-2.28245377540588,-27.8712997436523,-15.7325096130371,1.43599271774292,57.4519691467285,28.4832630157471,8.65274620056152,1.12372934818268,-4.20747947692871,-20.3769779205322,-2.49182558059692,2.47447776794434,50.4469833374023,37.7315216064453,1.5903297662735,-17.8585319519043,-27.9394950866699,-25.0669116973877,-18.5129699707031,46.8876571655273,38.7807769775391,11.0599250793457,-6.72233629226685,-13.4090785980225,-23.1371002197266,-17.7376956939697,-5.2208399772644,4.32173681259155,0.11994023621082,2.44935297966003,3.50339150428772,-1.37437748908997,-3.8270206451416,-3.63559484481812,15.9281234741211,2.03300189971924,1.00648105144501,-0.24137598276138,0.72891360521317,-6.63978385925293,-4.10578441619873,SHAKE
-0.58320641517639,-0.37086063623428,0.74088138341904,0.99163419008255,1.17030704021454,-0.28992336988449,-0.82388025522232,-1.90355277061462,-0.64154231548309,0.75981765985489,1.37738418579102,0.20791713893414,0.69231903553009,0.48249298334122,0.23754322528839,3.10951805114746,0.97941720485687,-0.56969141960144,0.96994906663895,-0.11613733321428,-1.46221566200256,-2.10177278518677,0.37773266434669,1.02553617954254,-0.50707960128784,-1.17236864566803,0.01794363744557,1.91836583614349,-0.32290914654732,-2.0113673210144,-4.10489368438721,-6.54408311843872,-6.44420957565308,-4.63205480575562,1.34004616737366,8.37899208068848,8.4923038482666,4.20988273620605,-2.09879493713379,-4.21759510040283,-4.91312074661255,-5.27901840209961,-3.07408881187439,4.18911409378052,8.72480773925781,28.4832630157471,8.65274620056152,1.12372934818268,-4.20747947692871,-20.3769779205322,-2.49182558059692,22.7739887237549,38.9901466369629,37.2517623901367,9.39691352844238,7.37378215789795,-0.3227319419384,-16.3594284057617,-24.0595321655273,6.66550636291504,38.7807769775391,11.0599250793457,-6.72233629226685,-13.4090785980225,-23.1371002197266,-17.7376956939697,6.14746046066284,38.2507667541504,42.933521270752,17.981164932251,4.16381072998047,-9.38435173034668,-19.4246349334717,-20.5516548156738,-14.1029977798462,2.03300189971924,1.00648105144501,-0.24137598276138,0.72891360521317,-6.63978385925293,-4.10578441619873,-2.03120732307434,14.4888401031494,14.8429775238037,4.51196622848511,-0.18394823372364,1.80568373203278,-3.92392992973328,-6.9723858833313,-4.18355131149292,SHAKE
-0.64154231548309,0.75981765985489,1.37738418579102,0.20791713893414,0.69231903553009,0.48249298334122,0.23754322528839,-1.2972868680954,-1.76305794715881,-1.2951488494873,0.94948571920395,2.65749096870422,1.99128568172455,1.37677335739136,-1.43381118774414,1.02553617954254,-0.50707960128784,-1.17236864566803,0.01794363744557,1.91836583614349,-0.32290914654732,-2.0113673210144,-1.42342686653137,0.0439046472311,2.28517961502075,0.82731628417969,0.72102880477905,0.99835348129272,2.19507956504822,-0.20440477132797,-2.09879493713379,-4.21759510040283,-4.91312074661255,-5.27901840209961,-3.07408881187439,4.18911409378052,8.72480773925781,7.18203687667847,2.78378367424011,-3.6714973449707,-4.25394010543823,-5.64888620376587,-5.55848121643066,-3.52825379371643,4.43467473983765,37.2517623901367,9.39691352844238,7.37378215789795,-0.3227319419384,-16.3594284057617,-24.0595321655273,6.66550636291504,27.2389965057373,49.9217567443848,18.8760814666748,10.1745805740356,9.24975490570068,0.80668032169342,-15.8019018173218,-20.0288219451904,42.933521270752,17.981164932251,4.16381072998047,-9.38435173034668,-19.4246349334717,-20.5516548156738,-14.1029977798462,16.4306163787842,44.7185668945313,28.4306221008301,21.1624221801758,0.98255282640457,-12.2832555770874,-25.2116775512695,-24.2653160095215,14.8429775238037,4.51196622848511,-0.18394823372364,1.80568373203278,-3.92392992973328,-6.9723858833313,-4.18355131149292,-3.50757884979248,15.4232378005981,8.06171894073486,8.96979522705078,0.51714879274368,-0.83958166837692,-11.931510925293,-7.90199756622314,SHAKE
-1.2951488494873,0.94948571920395,2.65749096870422,1.99128568172455,1.37677335739136,-1.43381118774414,-0.06482616811991,-1.86415314674377,-2.98444700241089,0.94123929738998,3.26284074783325,1.72648346424103,1.99311828613281,-0.42736402153969,-1.78688097000122,2.28517961502075,0.82731628417969,0.72102880477905,0.99835348129272,2.19507956504822,-0.20440477132797,-2.41696977615356,-2.04679656028748,1.59667837619781,2.71552157402039,0.398806899786,1.71823704242706,2.45652222633362,-0.03489464893937,-2.72117185592651,-3.6714973449707,-4.25394010543823,-5.64888620376587,-5.55848121643066,-3.52825379371643,4.43467473983765,8.95173740386963,8.648756980896,0.21509459614754,-5.41309928894043,-6.04654788970947,-6.10182952880859,-4.86150407791138,2.01045107841492,8.49688529968262,18.8760814666748,10.1745805740356,9.24975490570068,0.80668032169342,-15.8019018173218,-20.0288219451904,-3.65593385696411,36.2252426147461,53.8770942687988,15.7283220291138,12.0409822463989,9.22582721710205,-6.16480827331543,-23.5749855041504,2.93988180160522,28.4306221008301,21.1624221801758,0.98255282640457,-12.2832555770874,-25.2116775512695,-24.2653160095215,-21.3018035888672,28.1363048553467,51.9724082946777,23.819652557373,2.00787734985352,-5.60488796234131,-25.1243381500244,-23.2232418060303,-18.5979156494141,8.06171894073486,8.96979522705078,0.51714879274368,-0.83958166837692,-11.931510925293,-7.90199756622314,-0.68883383274078,-6.80249547958374,20.8537483215332,12.523136138916,-0.29282167553902,-1.4617155790329,-6.75463914871216,-12.8084802627563,-1.16021990776062,SHAKE
0.94123929738998,3.26284074783325,1.72648346424103,1.99311828613281,-0.42736402153969,-1.78688097000122,-0.57709795236588,-2.24959778785706,-1.91760230064392,1.52765262126923,4.00227117538452,2.65901803970337,1.10861146450043,-2.01106190681458,-0.58015221357346,2.71552157402039,0.398806899786,1.71823704242706,2.45652222633362,-0.03489464893937,-2.72117185592651,-1.94722831249237,0.20455747842789,2.90580034255981,1.3663889169693,-0.38399386405945,1.60797905921936,1.90920305252075,-1.04745030403137,-2.03549575805664,-5.41309928894043,-6.04654788970947,-6.10182952880859,-4.86150407791138,2.01045107841492,8.49688529968262,8.74466037750244,5.65667486190796,-3.42715859413147,-5.29398393630981,-6.44359874725342,-6.82293462753296,-3.4705286026001,6.21475982666016,9.27640247344971,15.7283220291138,12.0409822463989,9.22582721710205,-6.16480827331543,-23.5749855041504,2.93988180160522,13.8882417678833,35.4045028686523,29.4308204650879,13.2792682647705,13.9552412033081,3.35742926597595,-6.52253532409668,-26.4212493896484,3.29880499839783,23.819652557373,2.00787734985352,-5.60488796234131,-25.1243381500244,-23.2232418060303,-18.5979156494141,-11.0054883956909,26.615665435791,38.8334159851074,17.337495803833,-2.71675109863281,-20.3099803924561,-27.5757846832275,-28.1010093688965,-20.7526512145996,12.523136138916,-0.29282167553902,-1.4617155790329,-6.75463914871216,-12.8084802627563,-1.16021990776062,0.92512506246567,1.81525504589081,10.2176513671875,10.9630165100098,0.33050861954689,-2.79691052436829,-8.83400249481201,-13.5849514007568,1.95882439613342,SHAKE
-1.91760230064392,1.52765262126923,4.00227117538452,2.65901803970337,1.10861146450043,-2.01106190681458,-0.58015221357346,-1.38616514205933,-0.40567892789841,-0.18424680829048,2.30594849586487,1.91126465797424,2.2424201965332,-1.39624416828156,-1.49947726726532,2.90580034255981,1.3663889169693,-0.38399386405945,1.60797905921936,1.90920305252075,-1.04745030403137,-2.03549575805664,-0.38826978206635,1.73350811004639,2.65596389770508,-0.23891763389111,0.69537323713303,2.07688069343567,-0.73278766870499,-2.4801926612854,-3.42715859413147,-5.29398393630981,-6.44359874725342,-6.82293462753296,-3.4705286026001,6.21475982666016,9.27640247344971,8.33684349060059,-0.87526774406433,-5.96988677978516,-6.17696380615234,-6.17299318313599,-4.35503530502319,4.6426682472229,9.13804626464844,29.4308204650879,13.2792682647705,13.9552412033081,3.35742926597595,-6.52253532409668,-26.4212493896484,3.29880499839783,40.614875793457,47.2334213256836,25.0459728240967,10.872088432312,4.87926435470581,-15.2144632339478,-19.1016044616699,8.71136951446533,38.8334159851074,17.337495803833,-2.71675109863281,-20.3099803924561,-27.5757846832275,-28.1010093688965,-20.7526512145996,34.9055976867676,52.338508605957,35.8053016662598,1.13928270339966,-15.2754802703857,-28.1895446777344,-24.8192539215088,-14.5552406311035,10.2176513671875,10.9630165100098,0.33050861954689,-2.79691052436829,-8.83400249481201,-13.5849514007568,1.95882439613342,8.55463981628418,6.41904592514038,2.44097828865051,2.35722947120667,1.20508527755737,-10.4814605712891,-9.70140075683594,1.97677063941956,SHAKE
-0.19829629361629,-0.25388339161873,2.51699614524841,1.63485634326935,-0.29175591468811,-2.1863751411438,-1.01018869876862,-3.04705882072449,-0.1582857966423,-0.18821731209755,2.54020833969116,3.60491514205933,1.58476686477661,-2.33878135681152,-1.19496989250183,1.80711531639099,0.89756369590759,-0.18943901360035,2.26410531997681,0.92993861436844,-2.60847043991089,-2.18148827552795,-1.19894051551819,2.45774388313293,1.88652539253235,0.50417804718018,1.52062785625458,0.55548924207687,-1.32355332374573,-2.63320970535278,-4.09573078155518,-5.73959732055664,-6.86447238922119,-5.87154006958008,-0.37315133213997,7.24709177017212,8.60385990142822,7.17378997802734,-3.74907493591309,-6.39961767196655,-5.66568470001221,-4.53951120376587,-0.9888853430748,5.21442127227783,7.7146954536438,29.2597351074219,13.0352001190186,8.56660461425781,-4.8200421333313,-26.1113777160645,-16.945671081543,12.7528476715088,29.0025062561035,35.1245422363281,6.5374903678894,5.9464635848999,-2.19631218910217,-18.5285224914551,-6.10977363586426,2.36201500892639,41.0623321533203,15.6529483795166,-7.24157857894897,-24.39333152771,-29.991340637207,-26.7251377105713,-1.4617155790329,18.6009063720703,44.2902488708496,15.4938259124756,5.1006007194519,-17.488842010498,-24.6649169921875,-20.5313148498535,-15.5135669708252,-2.06709957122803,9.00927639007568,1.79491603374481,-3.53150701522827,-19.2451725006104,-11.0724878311157,-4.77218580245972,1.53888404369354,5.97158813476563,7.80927562713623,8.74008369445801,-1.52751815319061,-20.2657127380371,-5.30817794799805,0.00149551418144,SHAKE
-0.1582857966423,-0.18821731209755,2.54020833969116,3.60491514205933,1.58476686477661,-2.33878135681152,-1.19496989250183,-3.37088418006897,1.37860596179962,0.72499936819077,0.00908635277301,2.84257769584656,3.30804324150085,-2.02663850784302,-1.99365270137787,2.45774388313293,1.88652539253235,0.50417804718018,1.52062785625458,0.55548924207687,-1.32355332374573,-2.63320970535278,-1.66074097156525,0.16515782475471,1.43266594409943,1.18802154064178,1.31629943847656,1.76557767391205,0.29862794280052,-2.69826507568359,-3.74907493591309,-6.39961767196655,-5.66568470001221,-4.53951120376587,-0.9888853430748,5.21442127227783,7.7146954536438,8.40647983551025,-0.26930728554726,-4.37427711486816,-6.26187181472778,-5.20266246795654,-2.95375180244446,3.56269025802612,7.47402143478394,35.1245422363281,6.5374903678894,5.9464635848999,-2.19631218910217,-18.5285224914551,-6.10977363586426,2.36201500892639,16.0800666809082,49.2984275817871,49.2984275817871,6.31854724884033,3.37058973312378,-4.07946348190308,-15.3831577301025,4.10997200012207,44.2902488708496,15.4938259124756,5.1006007194519,-17.488842010498,-24.6649169921875,-20.5313148498535,-15.5135669708252,7.49701261520386,48.7301330566406,48.7301330566406,1.58913338184357,-5.82263469696045,-17.9829597473145,-22.2445774078369,-14.2633171081543,5.97158813476563,7.80927562713623,8.74008369445801,-1.52751815319061,-20.2657127380371,-5.30817794799805,0.00149551418144,-3.6798620223999,13.0651111602783,13.0651111602783,9.41725254058838,6.90119981765747,-3.42861580848694,-15.1558399200439,1.52213430404663,SHAKE
1.37860596179962,0.72499936819077,0.00908635277301,2.84257769584656,3.30804324150085,-2.02663850784302,-1.99365270137787,-1.99365270137787,0.4174377322197,0.71461492776871,-0.60550236701965,1.68128073215485,3.08080816268921,-1.61126232147217,-1.66868197917938,0.16515782475471,1.43266594409943,1.18802154064178,1.31629943847656,1.76557767391205,0.29862794280052,-2.69826507568359,-2.45575881004334,-0.20440477132797,1.96845531463623,1.85323417186737,1.37524628639221,2.21584844589233,0.80776911973953,-2.30976629257202,-0.26930728554726,-4.37427711486816,-6.26187181472778,-5.20266246795654,-2.95375180244446,3.56269025802612,7.47402143478394,9.38330078125,2.490882396698,-5.92010259628296,-6.58470439910889,-5.59238290786743,-4.03342437744141,2.63137722015381,7.30481672286987,49.2984275817871,49.2984275817871,6.31854724884033,3.37058973312378,-4.07946348190308,-15.3831577301025,4.10997200012207,24.5877475738525,65.5923538208008,40.7919425964355,8.78195858001709,0.91675019264221,-2.3398814201355,-19.0393905639648,-5.38115882873535,48.7301330566406,48.7301330566406,1.58913338184357,-5.82263469696045,-17.9829597473145,-22.2445774078369,-14.2633171081543,15.1719913482666,51.795337677002,41.9895515441895,13.3618211746216,-10.0387878417969,-16.8032970428467,-22.6537494659424,-20.0623226165771,13.0651111602783,13.0651111602783,9.41725254058838,6.90119981765747,-3.42861580848694,-15.1558399200439,1.52213430404663,-0.48544389009476,28.1111793518066,4.6998028755188,-0.01286142133176,4.50359153747559,0.15822540223598,-15.694224357605,-3.43220496177673,SHAKE
1.40303981304169,-0.78020465373993,1.95524573326111,3.71883821487427,1.19382464885712,-3.62530207633972,-1.84521687030792,-3.12249851226807,1.29919576644897,-0.73744535446167,-0.34795385599136,4.28081750869751,-1.61187314987183,-2.58892345428467,-0.91642361879349,1.37738418579102,1.37646794319153,0.85541522502899,1.82085931301117,1.19565713405609,-0.97934085130692,-3.21076583862305,-2.32381558418274,0.68101835250854,2.69872307777405,2.10864472389221,2.17858672142029,0.23876492679119,-1.59293699264526,-2.49790716171265,-3.4900758266449,-5.42134571075439,-5.35506868362427,-4.31685781478882,-1.38135468959808,4.92793369293213,7.40194177627563,8.16489028930664,-1.07715272903442,-6.05479431152344,-6.11801719665527,-3.70203971862793,1.81589615345001,6.26118421554565,8.29164028167725,25.8152656555176,7.01007318496704,5.57079029083252,3.10977220535278,-6.61465930938721,-5.59651327133179,8.94466972351074,36.7181625366211,59.6330299377441,9.35025405883789,5.65094995498657,-0.86231344938278,-15.054144859314,2.45892429351807,12.3484601974487,38.9518623352051,14.9997081756592,-1.51794683933258,-9.04098129272461,-20.9751834869385,-21.1666107177734,-6.81924533843994,33.9018096923828,49.5747985839844,19.4718933105469,8.79870796203613,-16.2625198364258,-22.4587345123291,-14.8818616867065,10.5622186660767,-0.308375030756,4.8469614982605,8.91236686706543,3.96161699295044,-12.6828575134277,-5.74486827850342,2.44337105751038,16.8529491424561,32.1933364868164,1.83439767360687,9.29282569885254,-1.41505551338196,-18.2138671875,3.89701080322266,2.24237394332886,SHAKE
2.09635138511658,0.75218206644058,2.90152454376221,2.5179123878479,-2.02388978004456,-3.06263542175293,-0.99888795614243,-2.39742279052734,3.8379533290863,0.79891186952591,2.8602921962738,4.68428230285645,-0.76126837730408,-4.80454254150391,-3.05591607093811,-0.06696412712336,1.67059087753296,0.62451493740082,1.12968564033508,0.72133427858353,-1.79543280601501,-2.69368362426758,-0.61336702108383,-0.09261971712112,1.39204454421997,1.15778458118439,2.25280475616455,1.25338220596313,-0.40537351369858,-2.50645899772644,-0.95192909240723,-6.11129760742188,-5.70600080490112,-4.28020668029785,-1.1244934797287,5.00887107849121,7.42545938491821,6.65151596069336,-2.5038628578186,-7.12408256530762,-5.87825965881348,-3.61499404907227,-0.54663193225861,3.98722910881042,6.0782356262207,52.3720092773438,12.7313117980957,4.27148771286011,-1.9929221868515,-15.6702966690063,-13.6172542572021,8.82981491088867,39.6445846557617,50.2364158630371,8.37757110595703,7.39531755447388,4.60408973693848,-2.54686069488525,-6.13968372344971,3.67926383018494,46.4844665527344,19.0710964202881,-1.6004992723465,-18.1636180877686,-25.555046081543,-23.3297214508057,2.81545495986938,45.7534599304199,57.8766975402832,13.6597270965576,2.07607269287109,-21.2814655303955,-23.6766815185547,-22.396520614624,-0.62422758340836,25.1010093688965,4.38634300231934,5.18793869018555,-11.5821590423584,-18.1396884918213,-8.37458038330078,-2.47986149787903,24.3759841918945,29.555248260498,-0.20309081673622,9.85394287109375,-9.57458114624023,-22.1273288726807,-14.8986110687256,-0.27248269319534,SHAKE
3.8379533290863,0.79891186952591,2.8602921962738,4.68428230285645,-0.76126837730408,-4.80454254150391,-3.05591607093811,-2.72330975532532,3.77259278297424,-0.09964445978403,0.7912762761116,4.27226591110229,3.09058165550232,-5.32223558425903,-2.55288338661194,-0.09261971712112,1.39204454421997,1.15778458118439,2.25280475616455,1.25338220596313,-0.40537351369858,-2.50645899772644,-2.82837557792664,-0.67811679840088,1.84987461566925,2.48675918579102,2.16026139259338,1.62172317504883,-2.05901336669922,-3.18877530097961,-2.5038628578186,-7.12408256530762,-5.87825965881348,-3.61499404907227,-0.54663193225861,3.98722910881042,6.0782356262207,7.38208913803101,-1.85628843307495,-7.55633354187012,-6.56149196624756,-4.24691534042358,-2.89480519294739,4.54829216003418,6.67472791671753,50.2364158630371,8.37757110595703,7.39531755447388,4.60408973693848,-2.54686069488525,-6.13968372344971,3.67926383018494,9.50817966461182,53.1066055297852,22.5753841400146,9.91137027740479,6.79112958908081,2.05693006515503,-10.0483598709106,2.2280170917511,57.8766975402832,13.6597270965576,2.07607269287109,-21.2814655303955,-23.6766815185547,-22.396520614624,-0.62422758340836,18.7408866882324,56.8525695800781,28.7500629425049,-1.63040947914124,-16.7470664978027,-22.0830612182617,-23.4481658935547,-10.117751121521,29.555248260498,-0.20309081673622,9.85394287109375,-9.57458114624023,-22.1273288726807,-14.8986110687256,-0.27248269319534,1.64297187328339,31.5879516601563,-8.30997371673584,8.17418098449707,5.40329265594482,-7.90797996520996,-18.6421813964844,4.0944185256958,SHAKE
2.23906064033508,0.24487338960171,2.01266527175903,2.95405745506287,0.1434727460146,-3.85528612136841,-2.18240451812744,-1.97502195835114,1.29553067684174,-1.10028862953186,1.51910078525543,3.49374079704285,3.30132412910461,-3.1713662147522,-4.42490100860596,1.24849545955658,2.10253620147705,0.85572063922882,1.32668387889862,1.67272889614105,-1.70319485664368,-3.61430692672729,-2.44934487342834,1.09242391586304,2.1129207611084,1.52398753166199,1.30225002765656,1.3880740404129,0.80654746294022,-3.32957577705383,-2.47240424156189,-6.18307209014893,-5.33704900741577,-4.65893220901489,-1.56277632713318,4.77980327606201,7.65819215774536,7.87412643432617,-1.59515130519867,-6.04654788970947,-6.29821681976318,-4.55966949462891,-3.19198226928711,0.23830679059029,5.1472282409668,48.7636299133301,17.8268280029297,6.99212694168091,1.89182543754578,-16.261323928833,-6.09302377700806,2.67667126655579,19.3115749359131,52.7823791503906,10.1674022674561,8.48883724212646,3.91017127037048,-1.86012053489685,-16.476676940918,-2.17477679252625,53.5181694030762,26.5438804626465,4.69262409210205,-16.4599285125732,-24.0846576690674,-20.9225425720215,-15.5195484161377,14.6539449691772,50.1395034790039,20.6276264190674,9.4627161026001,-5.07607412338257,-18.4088821411133,-19.5024013519287,-14.8280229568481,22.551456451416,-4.05194616317749,4.38155746459961,-4.8367919921875,-22.4910373687744,-5.0976095199585,2.57377982139587,6.94785976409912,22.2403888702393,2.76161646842957,9.23898696899414,4.14107847213745,-14.5911331176758,-22.1835594177246,4.66151762008667,SHAKE
-1.10028862953186,1.51910078525543,3.49374079704285,3.30132412910461,-3.1713662147522,-4.42490100860596,-1.6894508600235,-1.42953526973724,2.76072406768799,-0.14118207991123,1.44091236591339,2.66787528991699,1.58812654018402,-3.5883457660675,-2.88457345962524,2.1129207611084,1.52398753166199,1.30225002765656,1.3880740404129,0.80654746294022,-3.32957577705383,-3.39768505096436,-1.52696537971497,1.09272944927216,2.10772848129272,1.67181253433228,2.24669623374939,2.499587059021,0.65261393785477,-1.72060406208038,-6.04654788970947,-6.29821681976318,-4.55966949462891,-3.19198226928711,0.23830679059029,5.1472282409668,7.20402717590332,6.80972528457642,-1.52673637866974,-6.14978122711182,-6.3559422492981,-5.29703855514526,-2.65871262550354,2.98780655860901,6.4358868598938,10.1674022674561,8.48883724212646,3.91017127037048,-1.86012053489685,-16.476676940918,-2.17477679252625,8.560622215271,16.2846527099609,33.6721000671387,9.87308502197266,7.79491901397705,3.58115816116333,-4.26012182235718,-16.8176555633545,-3.88803768157959,20.6276264190674,9.4627161026001,-5.07607412338257,-18.4088821411133,-19.5024013519287,-14.8280229568481,2.45413875579834,21.5548458099365,45.7522659301758,18.6786727905273,8.53669357299805,-7.07886648178101,-17.9602279663086,-21.234806060791,-16.5089797973633,2.76161646842957,9.23898696899414,4.14107847213745,-14.5911331176758,-22.1835594177246,4.66151762008667,4.02861595153809,10.5717897415161,3.21625280380249,-0.11694920808077,7.52811908721924,3.07029056549072,-7.21047210693359,-20.3518543243408,0.03020938672125,SHAKE
1.98548269271851,-0.44080266356468,2.76835966110229,3.58445167541504,-0.97873002290726,-3.37943601608276,-2.13017702102661,-0.57557082176208,2.17492175102234,0.61626851558685,2.51394200325012,3.01941800117493,-1.06760823726654,-3.10967063903809,-1.90385818481445,2.37069821357727,2.1798083782196,1.88255488872528,2.51455283164978,0.86366164684296,-3.63935160636902,-2.91969728469849,-1.81162023544312,1.56033301353455,1.20268189907074,0.70850646495819,1.59576213359833,0.60435700416565,-2.60358381271362,-2.31556916236877,-3.99005436897278,-6.20017623901367,-6.07770109176636,-5.47235155105591,0.27862271666527,6.28653478622437,7.75959253311157,6.17505502700806,-4.27043294906616,-6.34800100326538,-5.77624797821045,-4.23103332519531,1.39471697807312,7.38269996643066,8.74007892608643,25.9516563415527,12.3329067230225,8.85733222961426,-2.33031010627747,-15.7875442504883,-10.6274223327637,6.91316366195679,24.7719955444336,46.5837707519531,11.7885398864746,7.16560649871826,2.05094814300537,-14.7670059204102,-8.56241703033447,10.093225479126,38.4792785644531,23.1700000762939,1.20867455005646,-24.6828632354736,-26.9787769317627,-23.5833606719971,-10.1512508392334,34.181770324707,54.5853691101074,21.1217441558838,-0.83359956741333,-16.1117725372314,-26.3686065673828,-23.7819652557373,-9.18215751647949,-5.21366167068481,-3.05294251441956,12.02184009552,-10.3067846298218,-23.6300201416016,-12.0044918060303,2.66949272155762,17.3877449035645,16.5825595855713,-2.62462735176086,6.82223653793335,0.44536411762238,-19.0764789581299,-9.21685409545898,1.36779725551605,SHAKE
1.89965856075287,0.22776967287064,1.91920578479767,2.17797589302063,-0.20226679742336,-2.97711682319641,-1.46068847179413,-2.3082389831543,3.11532092094421,0.53044450283051,0.6486434340477,2.22867631912231,1.49772107601166,-3.2783408164978,-2.06176209449768,1.59728920459747,0.88443046808243,0.42415705323219,2.14407396316528,1.30225002765656,-1.11861407756805,-1.94356322288513,-1.52757632732391,0.30534726381302,1.27628898620605,0.86457794904709,1.50749468803406,2.36458969116211,-0.71201884746552,-3.19671630859375,-4.91984033584595,-6.32142925262451,-5.7939624786377,-4.62075424194336,-0.40827503800392,5.23854970932007,6.91326379776001,7.98957681655884,-0.57137125730515,-6.81590986251831,-7.50128078460693,-6.40206098556519,-3.70142889022827,4.2019419670105,8.00332069396973,50.2400016784668,10.8732852935791,6.87846755981445,2.69342088699341,-17.7353019714355,-13.6818609237671,3.24377012252808,11.3303146362305,55.4814796447754,15.0762777328491,12.143874168396,4.49521636962891,-4.22303295135498,-22.9265308380127,-1.07048904895782,52.516773223877,19.3558406829834,-1.15064859390259,-14.3075838088989,-20.6808662414551,-19.1614246368408,-12.1037940979004,14.0533466339111,52.7201652526855,18.8700981140137,6.46570587158203,-10.0136632919312,-21.9694023132324,-25.0633220672607,-19.6471672058105,10.9139633178711,-4.47667217254639,5.6186466217041,0.48006004095078,-17.3189506530762,-12.5321092605591,1.02801644802094,-0.63499528169632,27.5117778778076,-5.15264463424683,4.27029132843018,6.17258501052856,-5.2447681427002,-21.515962600708,0.00867398176342,SHAKE
3.11532092094421,0.53044450283051,0.6486434340477,2.22867631912231,1.49772107601166,-3.2783408164978,-2.06176209449768,-2.45056653022766,1.54506182670593,1.94241797924042,1.07898533344269,2.26563239097595,1.27262389659882,-2.45331525802612,-2.03854990005493,0.30534726381302,1.27628898620605,0.86457794904709,1.50749468803406,2.36458969116211,-0.71201884746552,-3.19671630859375,-1.8265860080719,-0.61458867788315,1.35966968536377,0.74363017082214,1.23444592952728,2.01701760292053,-0.09445225447416,-2.8851842880249,-0.57137125730515,-6.81590986251831,-7.50128078460693,-6.40206098556519,-3.70142889022827,4.2019419670105,8.00332069396973,8.97067356109619,2.99544215202332,-5.3892765045166,-6.79727935791016,-6.4747519493103,-4.16017532348633,2.05901336669922,6.98839807510376,55.4814796447754,15.0762777328491,12.143874168396,4.49521636962891,-4.22303295135498,-22.9265308380127,-1.07048904895782,23.4451751708984,56.6994285583496,18.3747844696045,11.3685998916626,4.19132804870605,-3.97896504402161,-17.7364978790283,0.43698924779892,52.7201652526855,18.8700981140137,6.46570587158203,-10.0136632919312,-21.9694023132324,-25.0633220672607,-19.6471672058105,22.2272281646729,55.631031036377,27.9484672546387,14.1765766143799,-6.12413024902344,-18.3969173431396,-22.7339096069336,-15.2754802703857,27.5117778778076,-5.15264463424683,4.27029132843018,6.17258501052856,-5.2447681427002,-21.515962600708,0.00867398176342,9.021240234375,22.4102802276611,-4.76500701904297,0.15343974530697,3.84676146507263,-5.14068031311035,-13.0094776153564,2.26032018661499,SHAKE
0.99010705947876,-0.57282203435898,2.41773343086243,2.64221978187561,0.06345175951719,-3.14174008369446,-1.1341906785965,-2.08711242675781,-0.17386239767075,-0.03153498843312,1.10189211368561,2.05175948143005,1.45984864234924,-2.35405254364014,-2.23890781402588,1.36974859237671,0.94582062959671,-0.06360447406769,0.76165020465851,1.18741071224213,-2.29082989692688,-3.14357280731201,-1.99792861938477,-1.33302140235901,2.05550098419189,0.44767469167709,0.65933328866959,1.7790162563324,-0.65918052196503,-3.42792201042175,-4.5737190246582,-6.15344619750977,-5.61681699752808,-4.87311029434204,-1.52276587486267,5.42302560806274,7.89245223999023,8.12396335601807,4.88914489746094,-6.06517887115479,-5.84221935272217,-5.18280982971191,-3.13303565979004,3.12249851226807,7.42209959030151,25.0639190673828,6.40468883514404,6.30179738998413,2.17896413803101,-9.9239330291748,-8.0324068069458,5.95842742919922,34.2918395996094,34.2918395996094,10.9067850112915,5.782555103302,1.34985113143921,-10.6322078704834,-19.2367992401123,4.02622318267822,35.0216522216797,10.7895364761353,2.70179581642151,-10.3271236419678,-21.4322128295898,-18.5991115570068,-5.12034130096436,33.9245414733887,33.9245414733887,18.8138675689697,0.85453677177429,-11.4792671203613,-20.0252342224121,-20.7299194335938,-13.3372945785522,-7.34566640853882,5.30997276306152,8.52353382110596,0.50997030735016,-12.4686994552612,-3.25513601303101,-1.37318110466003,14.4888401031494,14.4888401031494,-2.6138596534729,4.94985294342041,-0.50817573070526,-12.0439739227295,-18.8407859802246,0.70977103710175,SHAKE
-0.17386239767075,-0.03153498843312,1.10189211368561,2.05175948143005,1.45984864234924,-2.35405254364014,-2.23890781402588,-2.15216755867004,0.87801659107208,0.7237776517868,-0.46584740281105,1.98090136051178,2.55700659751892,-1.3437112569809,-2.75110340118408,-1.33302140235901,2.05550098419189,0.44767469167709,0.65933328866959,1.7790162563324,-0.65918052196503,-3.42792201042175,-2.68177223205566,-1.40296339988709,1.81291830539703,1.21581506729126,0.88443046808243,2.10345244407654,-0.21234577894211,-3.29628443717957,4.88914489746094,-6.06517887115479,-5.84221935272217,-5.18280982971191,-3.13303565979004,3.12249851226807,7.42209959030151,8.72328090667725,3.9047646522522,-5.4396710395813,-6.97381401062012,-6.58103942871094,-4.54836845397949,1.66318440437317,7.39064121246338,34.2918395996094,10.9067850112915,5.782555103302,1.34985113143921,-10.6322078704834,-19.2367992401123,4.02622318267822,18.6272277832031,60.2491798400879,23.1053943634033,12.8796672821045,3.80129790306091,-8.13888740539551,-20.019250869751,-9.08883762359619,33.9245414733887,18.8138675689697,0.85453677177429,-11.4792671203613,-20.0252342224121,-20.7299194335938,-13.3372945785522,14.4445734024048,51.2461853027344,29.3063945770264,15.906587600708,-10.5221385955811,-21.5458717346191,-23.9602298736572,-22.3079872131348,14.4888401031494,-2.6138596534729,4.94985294342041,-0.50817573070526,-12.0439739227295,-18.8407859802246,0.70977103710175,3.50578427314758,22.5466709136963,-8.42722225189209,-1.76680040359497,3.06191563606262,-10.7781705856323,-20.3877468109131,-8.68803977966309,SHAKE
1.3556991815567,-0.39346200227737,1.97754168510437,2.26960301399231,0.25556322932243,-3.11241960525513,-1.12716591358185,-1.89103043079376,1.80711531639099,-1.00530183315277,1.06860089302063,2.83921813964844,1.21123373508453,-3.14296174049377,-1.81589615345001,1.9928891658783,1.61133873462677,0.76470440626144,1.99319458007813,1.48611497879028,-2.10513234138489,-3.06263542175293,-2.05473756790161,0.44187164306641,2.26166200637817,0.87893283367157,1.15075993537903,1.94005084037781,-1.8308619260788,-3.55413842201233,-4.62289190292358,-6.44023895263672,-6.11129760742188,-4.7526969909668,-1.00965416431427,5.63529491424561,7.73515892028809,7.95414781570435,-1.5911808013916,-6.71573114395142,-6.47017049789429,-5.29123544692993,-2.0264093875885,5.1979284286499,8.33653831481934,48.848575592041,9.62901782989502,7.72672319412231,1.76739859580994,-10.0220384597778,-16.9528484344482,8.08684349060059,38.2866592407227,57.7223587036133,11.7753791809082,8.10239696502686,0.5015954375267,-18.7893409729004,-20.3518543243408,6.77198696136475,50.6599426269531,9.19232749938965,0.5709872841835,-12.4507532119751,-21.246768951416,-19.9642162322998,-3.74686121940613,36.1103858947754,51.2366142272949,16.4880428314209,5.96919536590576,-16.3701972961426,-23.9099807739258,-23.1610279083252,-7.03579568862915,6.13190698623657,4.05374050140381,6.62004280090332,0.44775694608688,-12.1779718399048,-15.0732870101929,-0.52851468324661,16.1925296783447,21.6146659851074,-1.24037945270538,6.02064085006714,-1.23798656463623,-21.324535369873,-19.8984146118164,0.03020938672125,SHAKE
1.47145473957062,0.14835952222347,2.09726762771606,2.37375235557556,-1.48603868484497,-2.96367812156677,-2.24868154525757,-1.10486996173859,1.94486129283905,0.06131379306316,2.82150340080261,3.39447832107544,1.20695781707764,-3.32598686218262,-1.80093038082123,1.707852602005,1.63668882846832,0.62176614999771,2.31938695907593,0.27908083796501,-3.33568406105042,-2.311598777771,-1.33149433135986,1.97578549385071,1.97364747524261,0.2317401766777,0.74301934242249,2.25616431236267,-2.18973469734192,-3.85742402076721,-4.47659397125244,-6.93655252456665,-6.57920694351196,-4.9708456993103,1.24231064319611,6.62647104263306,8.61027431488037,6.18299579620361,-3.13944959640503,-6.732834815979,-6.28508377075195,-5.35781764984131,-2.06489276885986,4.74987173080444,7.80051946640015,48.1498718261719,9.83719253540039,4.08963298797607,0.57457655668259,-19.3241367340088,-0.92333042621613,5.57916498184204,29.7143707275391,50.2244491577148,9.96281623840332,6.38554620742798,3.04636240005493,-18.2186527252197,-20.0659122467041,-0.31674990057945,49.8296356201172,6.80668306350708,-10.1273231506348,-17.9805660247803,-23.4481658935547,-17.2435779571533,-10.2302141189575,25.8643188476563,53.4320297241211,13.0148611068726,-3.9538402557373,-10.5568342208862,-25.1183567047119,-23.48046875,-16.8918323516846,10.2583293914795,4.736891746521,3.63619303703308,-0.72472614049911,-19.2487621307373,-0.72592258453369,0.62961143255234,11.7478618621826,16.9917335510254,2.68026041984558,7.3833532333374,3.48903441429138,-22.5711975097656,-20.362621307373,2.00428795814514,SHAKE
0.18531578779221,1.21337175369263,3.05851221084595,1.12938022613525,-1.04745030403137,-2.30518484115601,-1.54529082775116,-2.83967614173889,2.48920249938965,-0.13934953510761,2.00228095054626,2.62328362464905,1.5068838596344,-3.01773810386658,-1.39441156387329,1.81719422340393,0.32153472304344,-0.07643226534128,2.57075071334839,0.91191858053207,-3.0623300075531,-1.69006168842316,-1.16717636585236,1.14831650257111,1.99624884128571,0.6064949631691,1.27842700481415,2.76072406768799,-1.41487491130829,-3.7740433216095,-5.50258827209473,-6.38709545135498,-6.87332963943481,-6.05143451690674,0.27281966805458,7.74065637588501,8.65517139434814,8.16641712188721,-2.90091371536255,-6.27744817733765,-6.0089807510376,-5.90330410003662,-3.40730595588684,4.67962455749512,8.47802543640137,37.7841644287109,11.259726524353,10.953444480896,2.12991118431091,-19.1745853424072,-14.8328084945679,8.07846832275391,20.598913192749,61.2242546081543,18.4202480316162,7.43599557876587,5.89980316162109,-5.65154790878296,-24.9783763885498,5.99910545349121,44.8190650939941,18.0266284942627,0.3053839802742,-15.3341045379639,-28.8092861175537,-24.3945274353027,-12.4495573043823,19.367805480957,53.2178726196289,28.5622272491455,-1.83978152275085,-8.98355388641357,-21.2647151947021,-24.3885459899902,-12.5823583602905,-2.58036017417908,4.04177665710449,5.6389856338501,-4.09980249404907,-15.3568363189697,-7.87328386306763,0.50398826599121,2.12991118431091,24.1797714233398,-7.67946529388428,5.86510753631592,3.11096858978271,-7.0094747543335,-21.8629207611084,0.53030931949615,SHAKE
0.5930563211441,1.29339265823364,2.72926545143127,1.87614095211029,-2.25540089607239,-2.52783870697021,-1.76030910015106,-1.84674394130707,1.19504630565643,-0.48447823524475,2.66237783432007,2.65962886810303,0.36521029472351,-2.97345185279846,-1.16076254844666,2.27143549919128,0.66330379247665,0.1578276604414,1.81230747699738,0.36856997013092,-3.62255334854126,-2.50309944152832,-1.49795019626617,-0.30855423212051,1.36730527877808,0.16271443665028,0.9797226190567,0.95834296941757,-3.88460683822632,-4.17170476913452,-5.68065023422241,-6.82354545593262,-6.34891748428345,-4.49614143371582,1.5425420999527,7.59313678741455,8.97097873687744,7.1884503364563,1.09173679351807,-6.29302501678467,-6.46253490447998,-5.77869129180908,-1.69716274738312,6.3363184928894,8.64356517791748,38.4134788513184,12.8473634719849,1.85952234268188,-7.91276550292969,-19.738094329834,-10.1859464645386,14.438591003418,30.9789772033691,60.9060096740723,16.5359001159668,7.0328049659729,4.18056011199951,-10.7016000747681,-19.0046939849854,4.64357137680054,42.2336196899414,13.9025983810425,-11.308180809021,-22.6106777191162,-24.992733001709,-21.7959232330322,2.95304226875305,24.1032009124756,51.9401054382324,25.1010093688965,-5.14785861968994,-12.6589288711548,-26.06471824646,-24.7127723693848,-17.0162582397461,-3.93230485916138,2.03300189971924,0.10677970945835,-10.4563360214233,-19.697416305542,-4.70877599716187,-4.14765882492065,8.0856466293335,14.6814622879028,-2.28125739097595,3.62183618545532,0.23120649158955,-14.0898370742798,-15.9024000167847,1.12492573261261,SHAKE
0.62726378440857,-0.56579726934433,2.11620402336121,2.44552707672119,-0.48203483223915,-2.82287788391113,-1.79543280601501,-1.81589615345001,1.22528326511383,-1.11464357376099,1.24574661254883,2.25952410697937,2.44522166252136,-2.76912331581116,-1.80764973163605,1.65776312351227,0.85999655723572,-0.12835428118706,1.47970116138458,0.58878040313721,-1.78291046619415,-3.3668372631073,-2.85769629478455,0.70636850595474,2.11353158950806,0.68346172571182,0.44920179247856,2.4553005695343,-1.77130436897278,-3.50313258171082,-5.43600606918335,-6.91639423370361,-6.50651597976685,-5.21976613998413,-0.27694287896156,3.49549698829651,8.27698040008545,8.07601165771484,-1.7164044380188,-6.82934856414795,-6.86386156082153,-6.56485176086426,-3.46258759498596,4.38183641433716,8.02744960784912,26.2136707305908,10.5933246612549,7.70040225982666,1.56640148162842,-16.2673053741455,-15.2419815063477,2.55822658538818,43.6537590026855,58.7393112182617,24.2096824645996,8.9949197769165,2.99013090133667,-19.1111755371094,-14.3315124511719,-3.77677154541016,32.3069953918457,6.69063138961792,-1.76560401916504,-14.7179527282715,-22.9169597625732,-21.8473682403564,-13.5981121063232,37.702808380127,52.4090957641602,31.5329151153564,6.58175802230835,-8.31475925445557,-23.7987155914307,-22.130916595459,-18.9939270019531,-9.03141021728516,5.66411018371582,6.25035190582275,-0.17078772187233,-17.2926292419434,-13.3719902038574,1.25892376899719,20.895622253418,18.4322128295898,-4.51854658126831,7.50299453735352,4.44975280761719,-20.0802688598633,-12.1660079956055,-1.23080813884735,SHAKE
-0.36933353543282,-1.35837161540985,1.99006402492523,3.12326192855835,1.10555720329285,-2.78867053985596,-1.77313685417175,0.82456743717194,0.99621552228928,-0.89809817075729,2.16087222099304,3.19870162010193,-1.90630161762238,-3.33301162719727,-1.5694192647934,2.17797589302063,1.83887934684753,1.03469884395599,2.11444783210754,1.74786305427551,-3.5721583366394,-2.79630613327026,-1.25208413600922,2.11994552612305,1.96051430702209,1.08051240444183,1.85201251506805,-0.09475768357515,-1.64852404594421,-2.59106135368347,-6.75604724884033,-7.86206245422363,-6.34433603286743,-4.10000658035278,-1.50382959842682,7.53632783889771,8.79108428955078,4.68390035629272,-5.65713262557983,-7.07338237762451,-6.01936531066895,-3.68004941940308,2.26242542266846,5.17196750640869,8.30874443054199,18.8820629119873,6.16779947280884,2.01744866371155,-10.5807628631592,-23.3608283996582,-0.15044872462749,16.1219425201416,36.5925407409668,45.4268417358398,5.49302339553833,2.88843607902527,-10.4407825469971,-17.7963199615479,-7.25473928451538,9.18634510040283,24.8162631988525,0.68943202495575,-6.1600227355957,-23.8740882873535,-24.5859527587891,-15.3508548736572,12.5458679199219,38.3261375427246,50.6539611816406,4.90558528900146,-3.52073931694031,-20.9440784454346,-21.2013053894043,-19.1315135955811,11.3123683929443,-13.4545421600342,6.73011255264282,7.63699245452881,-13.101601600647,-25.5873489379883,1.95762801170349,2.85374021530151,18.7073860168457,3.31316208839417,5.65453910827637,7.65852785110474,-12.5105743408203,-18.2030982971191,-5.67308330535889,-2.57796740531921,SHAKE
0.84014403820038,0.17676392197609,2.69597434997559,2.73842835426331,-0.64245861768723,-3.08340430259705,-1.41884541511536,-1.05844557285309,2.62847566604614,-0.2654894888401,1.56857943534851,2.29464769363403,0.65261393785477,-3.60086822509766,-1.77160978317261,2.31450033187866,1.9638739824295,1.26682090759277,2.80714869499207,2.27510070800781,-2.01594877243042,-2.47194623947144,-1.95761275291443,1.42869544029236,2.80256724357605,1.65929019451141,2.27998733520508,2.92656922340393,-1.4582451581955,-3.07118725776672,-4.45613098144531,-6.27103424072266,-5.65774345397949,-4.90151453018188,-0.45897534489632,6.12985229492188,8.14228820800781,7.82159376144409,-3.4274640083313,-6.98908519744873,-6.43535232543945,-5.38744354248047,-2.31266760826111,4.78133058547974,7.69850778579712,26.6383972167969,7.82123994827271,6.87727117538452,3.77138757705688,-21.1713962554932,-3.5410783290863,7.85115003585815,49.3690147399902,59.9728088378906,10.0944213867188,7.8044900894165,1.17278218269348,-19.856538772583,-20.6162605285645,-1.68783724308014,34.1829681396484,9.19830894470215,1.11176526546478,-12.1983108520508,-21.8437786102295,-17.6036968231201,0.10079765319824,42.3759918212891,52.0776901245117,11.4009027481079,2.49960231781006,-16.3223400115967,-21.1977157592773,-19.9426803588867,-14.4571352005005,-2.65334129333496,6.10080051422119,6.67986345291138,-2.05274271965027,-22.7566413879395,-2.26690030097961,-2.59830617904663,25.6513576507568,19.053150177002,0.49202415347099,4.92592430114746,-3.49561476707459,-21.0649147033691,-18.3227405548096,2.23160624504089,SHAKE
-0.96865105628967,-0.71270602941513,3.26681113243103,3.12051320075989,-1.61492741107941,-2.81005001068115,-0.95857208967209,-0.25021830201149,0.9332982301712,-2.55379962921143,1.54536724090576,3.58414626121521,-0.18333053588867,-3.62866187095642,-0.93719238042831,2.58632731437683,2.05977702140808,0.82120776176453,1.90920305252075,1.35508823394775,-2.48996615409851,-2.53089284896851,-1.39624416828156,1.70143866539001,3.88254523277283,3.0817244052887,2.33587980270386,1.92111468315125,-1.68548035621643,-2.14728093147278,-6.48696899414063,-7.26854801177979,-5.73837566375732,-3.90300846099854,0.60214269161224,6.35525465011597,8.33378887176514,6.77307462692261,-3.78786396980286,-8.21726989746094,-7.42553567886353,-4.30952739715576,-0.66880136728287,5.15394735336304,7.28435373306274,19.4336090087891,5.74068069458008,2.93629240989685,-1.00468635559082,-21.0685043334961,-4.6393837928772,2.17776775360107,23.6820640563965,53.0683212280273,19.9277267456055,0.49322056770325,-4.5795636177063,-19.1075859069824,-15.6930284500122,1.39292192459106,24.9502601623535,3.73788809776306,-3.44536542892456,-14.8890399932861,-21.365213394165,-15.7779731750488,-9.27069187164307,24.1355037689209,53.5241508483887,25.3187561035156,-7.55982398986816,-18.9006061553955,-23.7532520294189,-21.2312164306641,-10.9743824005127,-9.66790103912354,10.6304140090942,9.2557373046875,-2.88065934181213,-20.0683040618896,1.65493595600128,1.72193503379822,7.15723180770874,8.51156902313232,-7.94626474380493,6.9059853553772,-7.6878399848938,-25.3983173370361,-13.8756790161133,5.44516706466675,SHAKE
2.35970306396484,-1.23162078857422,2.30472660064697,2.98307251930237,-0.38735350966454,-3.64515471458435,-0.82265853881836,-1.00866150856018,2.64252519607544,-0.29816982150078,0.7540146112442,2.28426337242126,1.68677830696106,-2.87510538101196,-1.56422710418701,1.30560970306396,3.46380949020386,2.41926050186157,2.55395245552063,2.68986582756042,-2.38306784629822,-2.22058248519897,-1.108229637146,0.90916979312897,2.61167740821838,0.85205554962158,1.62966418266296,3.35996532440186,-0.3885752260685,-2.70895481109619,-2.58174586296082,-7.22945356369019,-7.29847955703735,-5.93048715591431,-1.03500437736511,6.16619777679443,8.35486316680908,8.38082408905029,-0.17157171666622,-6.07525777816772,-6.10396766662598,-5.8296971321106,-3.43632125854492,4.23187351226807,8.15511608123779,39.102611541748,10.6028966903687,8.69342422485352,1.63100779056549,-13.1662073135376,-18.9771766662598,7.76740121841431,13.6166563034058,41.8974266052246,9.91615581512451,6.29581546783447,3.74506664276123,-4.84516668319702,-14.9512529373169,4.90558528900146,47.9572486877441,19.0758819580078,6.34845781326294,-15.0254306793213,-29.1000137329102,-26.248966217041,-4.8571310043335,13.8918313980103,49.5652275085449,20.8477668762207,10.5191478729248,-5.94706153869629,-20.6820640563965,-21.9981155395508,-13.5083808898926,0.07806584239006,3.91854619979858,11.7574329376221,-0.50339007377625,-18.3873462677002,-15.8677043914795,3.8168511390686,4.54067993164063,6.02423000335693,-5.99731063842773,4.33011150360107,5.91535663604736,-4.63220548629761,-9.65952587127686,2.54147672653198,SHAKE
2.64252519607544,-0.29816982150078,0.7540146112442,2.28426337242126,1.68677830696106,-2.87510538101196,-1.56422710418701,-1.16687095165253,1.54811596870422,-0.54098159074783,-0.78448057174683,2.46232533454895,2.72315716743469,-1.87972974777222,-3.24902009963989,0.90916979312897,2.61167740821838,0.85205554962158,1.62966418266296,3.35996532440186,-0.3885752260685,-2.70895481109619,-2.00098299980164,-1.41090440750122,2.59274125099182,1.16358768939972,0.24823305010796,3.36729550361633,0.79524677991867,-3.59078931808472,-0.17157171666622,-6.07525777816772,-6.10396766662598,-5.8296971321106,-3.43632125854492,4.23187351226807,8.15511608123779,9.02778816223145,3.82718706130981,-6.9218921661377,-7.88466358184814,-6.82079696655273,-5.11195182800293,2.94382572174072,8.24155139923096,41.8974266052246,9.91615581512451,6.29581546783447,3.74506664276123,-4.84516668319702,-14.9512529373169,4.90558528900146,18.3018035888672,62.9135894775391,46.8876571655273,11.2692975997925,3.37896466255188,-10.5341024398804,-23.1717948913574,-6.0702919960022,49.5652275085449,20.8477668762207,10.5191478729248,-5.94706153869629,-20.6820640563965,-21.9981155395508,-13.5083808898926,19.3582344055176,56.5056076049805,48.6164741516113,13.3354997634888,-13.4820604324341,-26.607889175415,-26.2705001831055,-24.2090835571289,6.02423000335693,-5.99731063842773,4.33011150360107,5.91535663604736,-4.63220548629761,-9.65952587127686,2.54147672653198,1.36899363994598,13.4946222305298,-8.16760063171387,-0.54885369539261,5.72991275787354,-9.46810054779053,-21.4023036956787,-7.63998365402222,SHAKE
0.84258741140366,-0.89596021175385,0.90061795711517,1.18527269363403,0.99407756328583,-1.82169926166534,-1.46985125541687,-1.70655453205109,1.28850591182709,-0.31221929192543,0.85999655723572,1.45251846313477,1.44702076911926,0.03382566571236,-0.53029179573059,1.58904278278351,-0.00954448804259,-1.15221059322357,2.25036120414734,1.42869544029236,-3.39799070358276,-2.48477387428284,-1.88370025157928,0.71339327096939,1.08203959465027,-0.81929886341095,0.17859646677971,2.01304721832275,0.4925719499588,-3.51046276092529,-4.97023487091064,-6.90326118469238,-7.84159898757935,-7.2157096862793,-0.3413872718811,7.53510618209839,8.96242713928223,7.74829196929932,-0.68101835250854,-6.166579246521,-6.23285627365112,-5.69195127487183,-2.05084323883057,2.253262758255,8.80941009521484,26.8286266326904,12.7660083770752,12.5781717300415,-5.63001251220703,-31.8158664703369,-3.11156678199768,13.5233364105225,35.546875,45.2988243103027,22.3432807922363,9.58235740661621,-1.01186490058899,-9.96580696105957,-22.2984142303467,3.28085899353027,39.1851615905762,12.2599258422852,1.8475581407547,-25.4772796630859,-29.5833644866943,-23.0712966918945,-6.25573587417603,40.2786827087402,52.0310325622559,34.2260360717773,7.66331338882446,-16.5089797973633,-21.2144660949707,-23.8046970367432,-18.4280242919922,-8.90817928314209,3.1839497089386,6.90359258651733,2.02701997756958,-19.4401893615723,-6.49860715866089,-1.40668058395386,13.7171545028687,5.24536657333374,-6.83479881286621,3.11934351921082,3.88504672050476,-0.77377903461456,-10.0112705230713,-3.13788771629334,SHAKE
1.28850591182709,-0.31221929192543,0.85999655723572,1.45251846313477,1.44702076911926,0.03382566571236,-0.53029179573059,-2.13781261444092,0.5432722568512,-1.08746087551117,0.13339376449585,1.59698379039764,1.96471381187439,-1.48573327064514,-1.432284116745,0.71339327096939,1.08203959465027,-0.81929886341095,0.17859646677971,2.01304721832275,0.4925719499588,-3.51046276092529,-1.99670696258545,-0.58068668842316,0.85144472122192,-0.7756233215332,-0.4536304473877,1.45007503032684,-1.84338426589966,-3.73342204093933,-0.68101835250854,-6.166579246521,-6.23285627365112,-5.69195127487183,-2.05084323883057,2.253262758255,8.80941009521484,8.19237804412842,0.52975726127625,-6.55874347686768,-6.99336099624634,-6.17574214935303,-2.70025038719177,5.48502683639526,8.24857616424561,45.2988243103027,22.3432807922363,9.58235740661621,-1.01186490058899,-9.96580696105957,-22.2984142303467,3.28085899353027,29.4942302703857,53.0802841186523,30.0242404937744,7.74466943740845,-1.38514518737793,-20.3099803924561,-12.6194477081299,1.47308146953583,52.0310325622559,34.2260360717773,7.66331338882446,-16.5089797973633,-21.2144660949707,-23.8046970367432,-18.4280242919922,30.5398941040039,51.5058059692383,39.4268379211426,-1.26071846485138,-17.1993103027344,-25.942684173584,-23.1107788085938,-19.0704975128174,5.24536657333374,-6.83479881286621,3.11934351921082,3.88504672050476,-0.77377903461456,-10.0112705230713,-3.13788771629334,0.58414781093597,16.0178546905518,-7.68305444717407,7.27567625045776,4.33011150360107,-10.7063856124878,-11.1406831741333,-4.04357099533081,SHAKE
-0.18913358449936,0.88504129648209,1.99433994293213,1.91645693778992,-1.24200522899628,-1.7380131483078,-1.71602261066437,-0.82785075902939,0.13400462269783,0.26869642734528,1.55208647251129,2.87037134170532,-0.81502294540405,-2.31801271438599,-1.89103043079376,2.24547457695007,0.82548373937607,0.50356721878052,2.76408386230469,-0.50494164228439,-3.33812761306763,-2.65581107139587,-2.34061408042908,1.58782112598419,0.08544225990772,0.00664296373725,2.61992383003235,-0.98606020212173,-3.90293216705322,-2.11521124839783,-6.25057077407837,-6.89684724807739,-6.41885948181152,-4.10703134536743,3.22214293479919,8.00423717498779,8.33989715576172,4.41207361221313,-5.58780145645142,-8.14824390411377,-8.71511077880859,-6.84126043319702,3.26673483848572,7.22204732894897,8.90531349182129,38.0713043212891,10.1410818099976,6.07926511764526,-3.15942311286926,-19.3803672790527,-7.47368240356445,20.1490631103516,35.9548530578613,52.9211616516113,14.4708938598633,6.52313375473022,0.68823564052582,-32.8758888244629,-7.31575632095337,18.0350036621094,44.0425910949707,2.15982151031494,-6.20428991317749,-20.3709964752197,-22.6118755340576,-19.8625221252441,11.4930267333984,36.1977233886719,53.4691162109375,6.26710176467896,-15.5446729660034,-25.4401912689209,-32.411678314209,-26.0910396575928,8.00429058074951,-2.81007099151611,5.6557354927063,3.80847644805908,-0.61465632915497,-15.5243339538574,-6.27009248733521,-1.78594303131104,8.1323070526123,7.87268543243408,6.50399112701416,5.70718097686768,3.8371901512146,-23.3369007110596,-7.35404109954834,2.54506587982178,SHAKE
2.23295211791992,-1.10548079013824,-0.36047622561455,3.03255128860474,-1.58835554122925,-3.60942006111145,-2.73308324813843,1.97693085670471,1.9961724281311,-1.4182345867157,1.77321326732636,2.6669590473175,-0.86877751350403,-3.87727665901184,-1.88736534118652,0.5930563211441,1.85018002986908,3.74968600273132,5.99890184402466,1.28514623641968,-0.60634225606918,-1.03523337841034,-1.246586561203,4.30250263214111,4.57837677001953,3.89445662498474,4.78453731536865,3.75029683113098,-0.14026580750942,-1.69342136383057,-3.14464163780212,-8.42801189422607,-8.94142913818359,-5.82267236709595,3.39256930351257,7.0839958190918,8.48840999603271,5.92674541473389,-5.53587961196899,-7.25938510894775,-5.98943376541138,-4.37336111068726,-0.12545275688171,5.792893409729,8.3380651473999,46.4043083190918,13.733904838562,5.91894578933716,-0.94247299432755,-16.2302169799805,3.86351132392883,6.23001289367676,29.9512596130371,50.3668212890625,6.36281442642212,4.70099925994873,-3.04456782341003,-21.2324123382568,-16.6130676269531,2.18016052246094,50.0114898681641,11.3183498382568,-15.6104755401611,-25.2679080963135,-26.1711978912354,-16.3534469604492,10.6698951721191,35.3482704162598,51.4723052978516,6.32213640213013,-1.38275241851807,-17.7939262390137,-20.2381954193115,-20.0814647674561,4.22841691970825,-0.73549383878708,0.01345962751657,7.07826852798462,3.1181468963623,-20.9345054626465,0.78873413801193,8.3261251449585,27.9867534637451,5.0300121307373,4.58375072479248,9.22463035583496,-6.36580562591553,-19.1099796295166,-10.5089778900146,5.94167757034302,SHAKE
-0.25479966402054,-0.34734302759171,3.16724300384521,1.74725222587585,-0.74111044406891,-2.81340980529785,-0.74721890687943,0.43087637424469,0.20944425463676,-2.52936577796936,1.19443547725677,1.83429801464081,1.6495167016983,-2.25967669487,-2.82196164131165,2.75339412689209,1.44366109371185,-0.69644224643707,2.44186186790466,2.45132994651794,-4.09015703201294,-2.72056102752686,-1.11555981636047,1.32362961769104,1.0682954788208,-1.1925265789032,0.23387815058231,3.81748986244202,-0.80952531099319,-3.70532321929932,-5.62170362472534,-7.65040397644043,-6.98419857025146,-6.19742727279663,0.42033925652504,9.8127269744873,11.1141366958618,8.19756984710693,-2.499587059021,-7.46982192993164,-7.27801609039307,-6.80186080932617,-4.74719953536987,5.0723991394043,8.87202167510986,29.8794746398926,13.4922294616699,6.45134878158569,-1.83619225025177,-22.2338085174561,-0.20668005943298,18.4501571655273,33.631420135498,59.1592483520508,23.9261322021484,8.69103050231934,2.88604331016541,-20.1544456481934,-19.7045955657959,-1.48923301696777,41.1688117980957,22.3959217071533,-9.56740188598633,-28.0160655975342,-34.3666152954102,-29.750862121582,-4.65134811401367,21.5883445739746,61.0388107299805,31.6429862976074,-1.90199494361877,-17.1741847991943,-28.4025058746338,-27.3927345275879,-25.3313179016113,-9.98973560333252,-2.34107780456543,2.96739912033081,-2.41525530815125,-14.2357988357544,0.60209399461746,1.38933265209198,5.45952415466309,-1.50478637218475,-10.6740827560425,10.533504486084,4.07886552810669,-11.1777715682983,-16.9875450134277,-6.82762050628662,SHAKE
-0.53823280334473,0.50814855098724,2.43636417388916,2.56342053413391,0.74332475662231,-2.98811197280884,-1.57888746261597,-0.04039227589965,1.11655247211456,-1.31500148773193,1.39509880542755,1.11960661411285,1.19107580184937,-0.93688696622849,-1.22032010555267,2.40643286705017,0.62726378440857,0.29740625619888,2.70788598060608,1.12907481193542,-3.45579195022583,-2.52631163597107,-1.95791816711426,0.98827451467514,1.43724727630615,-0.55136603116989,0.10285140573978,3.79366683959961,0.99041247367859,-3.17380952835083,-6.44298791885376,-6.83331918716431,-6.95609951019287,-5.69867038726807,0.44294062256813,8.78008937835693,10.0253019332886,8.81215858459473,-1.22681033611298,-6.47169780731201,-6.66289281845093,-6.9652624130249,-6.5245361328125,1.59354782104492,8.48069763183594,21.1229400634766,11.2322082519531,9.99511909484863,1.74347043037415,-32.9105834960938,-17.6168575286865,10.24875831604,27.0858554840088,48.5279388427734,15.2892389297485,11.6712913513184,8.76760101318359,2.74845600128174,-32.4990196228027,2.3297119140625,29.4631252288818,5.41406011581421,-3.7372899055481,-17.3273258209229,-28.694429397583,-28.5484676361084,-19.441385269165,16.4042949676514,50.9638328552246,20.0090827941895,1.90977156162262,-5.4852466583252,-19.4593315124512,-23.7353057861328,-19.966609954834,-3.27427864074707,8.38714218139648,6.84257555007935,2.99730944633484,-24.4794731140137,-15.1618213653564,2.05812668800354,6.5183482170105,-8.42841911315918,-2.32552456855774,5.4750771522522,2.02103781700134,3.62781834602356,-19.1506576538086,0.61405813694,SHAKE
-1.31500148773193,1.39509880542755,1.11960661411285,1.19107580184937,-0.93688696622849,-1.22032010555267,0.16760121285915,-3.86261630058289,0.76500982046127,0.06803311407566,1.98731517791748,1.53192853927612,1.12327170372009,-1.66043555736542,-2.03854990005493,1.43724727630615,-0.55136603116989,0.10285140573978,3.79366683959961,0.99041247367859,-3.17380952835083,-1.71510636806488,-0.03458922728896,0.59152919054031,2.123610496521,-0.50921756029129,-0.02756448276341,3.80618929862976,0.22899135947227,-4.1231427192688,-6.47169780731201,-6.66289281845093,-6.9652624130249,-6.5245361328125,1.59354782104492,8.48069763183594,8.69273853302002,8.06837558746338,-0.14316733181477,-6.27592086791992,-6.76704216003418,-7.33299207687378,-5.96897029876709,3.65767693519592,9.95322132110596,15.2892389297485,11.6712913513184,8.76760101318359,2.74845600128174,-32.4990196228027,2.3297119140625,11.0946216583252,38.4445838928223,58.1064071655273,31.2194557189941,14.2459688186646,10.0453681945801,-0.99750792980194,-31.9091873168945,7.80927562713623,20.0090827941895,1.90977156162262,-5.4852466583252,-19.4593315124512,-23.7353057861328,-19.966609954834,-4.18115854263306,29.877082824707,51.3514709472656,37.4395980834961,11.2669048309326,-7.32173824310303,-22.0268306732178,-31.7333145141602,-22.2864513397217,-2.32552456855774,5.4750771522522,2.02103781700134,3.62781834602356,-19.1506576538086,0.61405813694,-8.28006362915039,9.1827564239502,23.6186542510986,-3.41665172576904,5.13409996032715,1.91814649105072,1.66331088542938,-20.3745861053467,-0.02123630046844,SHAKE
0.18287239968777,0.11720632016659,2.61564803123474,1.77382409572601,-0.64001524448395,-1.80123591423035,-1.59812915325165,-3.45182156562805,-0.92802971601486,-0.71117889881134,3.28758001327515,2.73109817504883,1.51513028144836,1.53986954689026,-2.88610053062439,2.12177801132202,0.33039200305939,-0.31618982553482,2.81906008720398,0.79585760831833,-3.39737963676453,-1.611567735672,-0.77531790733337,0.83983862400055,2.18500065803528,-1.23559129238129,-0.56633174419403,1.05852198600769,-0.04314108937979,-2.43315744400024,-5.19838666915894,-7.14821100234985,-9.45423603057861,-8.86690616607666,0.14026580750942,8.12029838562012,9.18599700927734,8.6307373046875,-0.03871244564652,-6.15986013412476,-6.23529958724976,-6.93136024475098,-6.21819591522217,2.125901222229,7.85366344451904,31.3008117675781,18.0326099395752,14.5438747406006,5.93210649490356,-27.5219478607178,0.82462650537491,11.4403839111328,39.0679130554199,48.0553550720215,11.8411817550659,11.8136644363403,9.88624572753906,-1.43659090995789,-22.5939292907715,4.77398014068604,37.3223495483398,23.3111782073975,-11.3739833831787,-22.5580368041992,-35.1167678833008,-24.3598327636719,-18.654146194458,29.0048980712891,58.5275459289551,28.927131652832,6.49322319030762,-3.0098717212677,-18.3394908905029,-29.0318183898926,-21.0362014770508,-7.26431035995483,-0.96281200647354,3.89581441879272,0.48604211211205,-16.7434768676758,-1.33489596843719,1.24576330184937,8.47089099884033,11.4164562225342,5.41884613037109,10.2188482284546,2.60608291625977,3.92213535308838,-20.2896404266357,-5.17657279968262,SHAKE
-0.71117889881134,3.28758001327515,2.73109817504883,1.51513028144836,1.53986954689026,-2.88610053062439,-2.31098794937134,-4.97435808181763,-1.40846109390259,-1.05630767345428,3.03560543060303,3.46839070320129,1.66845297813416,0.06467345356941,-1.60148882865906,2.18500065803528,-1.23559129238129,-0.56633174419403,1.05852198600769,-0.04314108937979,-2.43315744400024,-2.20195174217224,-2.71414709091187,-1.73954033851624,2.67001342773438,-0.44202435016632,-1.48054099082947,1.39112830162048,1.44671535491943,-3.59934115409851,-6.15986013412476,-6.23529958724976,-6.93136024475098,-6.21819591522217,2.125901222229,7.85366344451904,8.5446081161499,8.76726150512695,0.92008870840073,-6.66167116165161,-6.77040195465088,-6.98083877563477,-6.03463649749756,-0.09613208472729,8.65089511871338,11.8411817550659,11.8136644363403,9.88624572753906,-1.43659090995789,-22.5939292907715,4.77398014068604,13.3809633255005,17.7490615844727,64.0130920410156,16.1650123596191,11.9392881393433,10.3384895324707,-1.81346046924591,-30.4052982330322,-0.87786680459976,28.927131652832,6.49322319030762,-3.0098717212677,-18.3394908905029,-29.0318183898926,-21.0362014770508,-6.40528726577759,8.71615600585938,53.4739036560059,24.4250354766846,3.33469748497009,-4.73270416259766,-24.7067909240723,-27.3209495544434,-23.9614276885986,5.41884613037109,10.2188482284546,2.60608291625977,3.92213535308838,-20.2896404266357,-5.17657279968262,-1.15064859390259,-7.25593566894531,16.6100769042969,6.99332332611084,8.08684349060059,2.05334091186523,-1.32532465457916,-17.3500576019287,-1.56699967384338,SHAKE
-1.05630767345428,3.03560543060303,3.46839070320129,1.66845297813416,0.06467345356941,-1.60148882865906,-0.23555797338486,-3.15670585632324,0.34871742129326,-0.9521581530571,2.06764149665833,1.54628348350525,1.28667342662811,-0.89809817075729,-0.14729054272175,2.67001342773438,-0.44202435016632,-1.48054099082947,1.39112830162048,1.44671535491943,-3.59934115409851,-2.49393653869629,-0.9689564704895,0.01672194339335,0.41774317622185,-2.17599058151245,-2.37054538726807,1.79367661476135,-1.17511737346649,-3.83390641212463,-6.66167116165161,-6.77040195465088,-6.98083877563477,-6.03463649749756,-0.09613208472729,8.65089511871338,9.41323280334473,7.72843933105469,-1.98914778232574,-6.93136024475098,-7.07735252380371,-6.24507331848145,-4.43261337280273,5.0760645866394,9.95474910736084,16.1650123596191,11.9392881393433,10.3384895324707,-1.81346046924591,-30.4052982330322,-0.87786680459976,19.5353031158447,47.6689147949219,61.1393089294434,25.3869514465332,8.06770038604736,2.38953256607056,-16.4060897827148,-33.5231475830078,-5.39192676544189,24.4250354766846,3.33469748497009,-4.73270416259766,-24.7067909240723,-27.3209495544434,-23.9614276885986,-5.42422962188721,40.7883529663086,57.6912536621094,33.5967254638672,-2.41405892372131,-15.3616218566895,-27.3891448974609,-26.1759834289551,-22.2577362060547,6.99332332611084,8.08684349060059,2.05334091186523,-1.32532465457916,-17.3500576019287,-1.56699967384338,-4.51854658126831,10.2655086517334,16.2930278778076,-6.25693225860596,4.76201629638672,2.95543503761292,-2.97517585754395,-12.8742828369141,-0.89581298828125,SHAKE
-2.61671686172485,-1.38127839565277,1.92012202739716,2.68039774894714,1.70296585559845,-1.69739186763763,-1.77710735797882,-2.02266788482666,0.32184013724327,-1.12624967098236,-1.20260548591614,1.8373521566391,1.66600954532623,0.18592663109303,-1.62011969089508,0.73904883861542,-0.60145550966263,-1.1158652305603,1.02523076534271,0.74851697683334,-0.40903860330582,-2.08711242675781,-1.81803417205811,-2.20714378356934,0.97880637645721,0.06161921843886,-1.35104143619537,-0.6891120672226,2.19110918045044,-2.3277862071991,-5.81442594528198,-6.59631061553955,-5.894446849823,-4.12993812561035,-0.85969114303589,4.80301570892334,7.00000429153442,7.88817596435547,4.18086767196655,-5.12325239181519,-6.97503566741943,-6.55599451065063,-6.06365156173706,0.25877016782761,8.43213558197021,18.6595306396484,5.94048118591309,-1.18414807319641,-4.34506702423096,-16.1584320068359,-16.4025001525879,5.80767965316772,16.7153625488281,33.6433868408203,25.3020057678223,8.92313480377197,6.20488834381104,-0.29282167553902,-18.132511138916,-1.72133684158325,24.5063915252686,5.97757005691528,-5.80468845367432,-9.92632579803467,-17.9386920928955,-17.5211448669434,-9.05174922943115,16.22483253479,36.2874526977539,32.0784797668457,8.63958549499512,0.298205524683,-13.7608242034912,-25.392333984375,-22.0328121185303,-6.84795951843262,10.1925268173218,8.02941513061523,4.19252443313599,-13.3552408218384,-14.6760787963867,-2.54805707931519,0.97058868408203,9.23300552368164,-9.34367370605469,6.67986345291138,7.43479919433594,1.57716917991638,-6.8922266960144,-2.61027050018311,SHAKE
-1.09723436832428,2.51730155944824,1.28667342662811,2.02793645858765,0.86488336324692,-2.02114081382751,-1.81406366825104,-0.39529454708099,-0.36841726303101,0.15507884323597,0.10315682739019,2.26044034957886,1.39173913002014,-1.49733936786652,-1.32172071933746,0.61871188879013,1.82208096981049,1.23750019073486,-0.381855905056,1.58201801776886,0.69140273332596,-3.30361461639404,-2.94260406494141,-0.90848261117935,1.5737715959549,0.28335678577423,-1.64394271373749,2.32854986190796,1.67822647094727,-4.07824516296387,6.03608703613281,-3.47022318840027,-6.71420383453369,-6.80766344070435,-6.06212472915649,1.07616019248962,8.87080001831055,9.69422245025635,5.94476556777954,-5.7118034362793,-7.41759443283081,-6.53675270080566,-5.53343629837036,1.79573822021484,8.88210105895996,45.9389038085938,35.7741928100586,18.6320133209229,7.50419092178345,3.83958292007446,-28.9038028717041,3.32512617111206,13.9887399673462,59.7383117675781,58.7943458557129,15.4423799514771,7.01485872268677,4.10159730911255,-29.3333129882813,8.038987159729,50.9985275268555,43.5030097961426,25.0495624542236,-9.08285522460938,-18.2856521606445,-30.2629261016846,-22.8691024780273,-11.8130664825439,56.5450897216797,56.6898574829102,18.4836578369141,-11.2974128723145,-19.9295215606689,-29.2519569396973,-21.9753837585449,19.2110748291016,-0.34187453985214,-8.03120994567871,0.26470601558685,-1.03818595409393,-13.4952201843262,4.46889543533325,1.28763771057129,11.0790681838989,2.60488653182983,-3.55543541908264,3.0571300983429,1.02203440666199,-16.183557510376,-0.31316065788269,SHAKE
0.72896987199783,0.66116577386856,2.1140661239624,1.08112323284149,-0.14912308752537,-1.43167328834534,-0.27526304125786,-0.540676176548,0.6999546289444,-1.29117834568024,1.03439342975616,1.31202352046967,-1.30034112930298,-2.70162463188171,-1.07218968868256,1.63607800006866,-0.11125055700541,-1.00499641895294,2.01090908050537,2.49164605140686,-2.33511638641357,-2.02786016464233,-1.2410888671875,1.09395110607147,0.74118679761887,-0.71171343326569,1.96326303482056,1.75641489028931,-0.81349581480026,-1.94936633110046,-5.39752292633057,-6.44390392303467,-6.0056209564209,-5.35323619842529,-0.32336726784706,7.83289432525635,8.88393306732178,7.34666013717651,-4.36450386047363,-7.65773391723633,-7.55022478103638,-6.58989667892456,-0.18531578779221,5.23518991470337,9.11452865600586,48.8234519958496,11.3422784805298,6.85693216323853,3.21266341209412,-27.6451778411865,-19.419849395752,15.1061887741089,25.6035022735596,62.1275444030762,18.3257312774658,8.91715240478516,-2.90219473838806,-20.5073871612549,-30.675687789917,12.2324085235596,54.743293762207,20.1095809936523,-7.51077127456665,-14.0826587677002,-25.7045974731445,-24.9747867584229,0.807876765728,24.6128730773926,57.5129890441895,24.7863521575928,1.2960125207901,-25.7608299255371,-30.3119773864746,-30.4208507537842,-13.966607093811,7.37617492675781,-4.59392023086548,2.70658159255981,1.27687001228333,-14.6593284606934,-11.9398860931396,-3.55423903465271,-0.04875376075506,4.28943347930908,-9.06490993499756,6.54825830459595,-4.00528621673584,-14.7191495895386,-18.3335075378418,1.56759798526764,SHAKE
1.78756809234619,-1.24169981479645,0.49012857675552,0.78913831710815,1.60064888000488,-1.71174669265747,-1.11525440216064,-0.93780326843262,1.48153364658356,-0.49425178766251,0.44981265068054,1.01545715332031,0.93879586458206,-2.46034002304077,-1.53948783874512,0.65444648265839,0.95712131261826,-1.11861407756805,0.67429900169373,2.87831234931946,-1.43258953094482,-2.44476342201233,-1.4280081987381,0.17309884727001,1.2313916683197,-0.61550498008728,-0.30580541491508,3.41097116470337,-0.62069720029831,-2.78134036064148,-3.37584733963013,-6.30676889419556,-6.25209808349609,-5.9485068321228,-2.50325202941895,6.86378526687622,8.91325378417969,8.75901508331299,-0.50295639038086,-7.25969076156616,-7.78417921066284,-7.08437728881836,-4.93083524703979,5.25259923934937,9.59648704528809,35.3147735595703,9.61585712432861,7.69920587539673,0.00508474791422,-9.17976474761963,-10.6956176757813,13.2050905227661,33.4866561889648,54.707405090332,30.724142074585,8.78554725646973,5.00728034973145,-2.59471702575684,-20.300407409668,-0.55244290828705,41.2812767028809,13.6956195831299,5.42602443695068,-17.5031986236572,-23.2854537963867,-23.949462890625,-9.20728206634521,33.0104827880859,54.6942443847656,37.3020095825195,0.39272201061249,-7.79192781448364,-25.8637199401855,-29.5678100585938,-25.8338108062744,-9.15344429016113,-2.97876501083374,4.1650071144104,4.11715030670166,-0.69242304563522,-8.70359325408936,0.52073800563812,5.97876644134521,1.76380944252014,-9.48484992980957,4.71535634994507,3.78813743591309,-0.80488574504852,-11.3991079330444,-0.14925231039524,SHAKE
1.48153364658356,-0.49425178766251,0.44981265068054,1.01545715332031,0.93879586458206,-2.46034002304077,-1.53948783874512,-1.15312695503235,1.65348720550537,-0.34031829237938,-0.0568851493299,1.55178105831146,1.19077038764954,-1.27010416984558,-1.91485345363617,0.17309884727001,1.2313916683197,-0.61550498008728,-0.30580541491508,3.41097116470337,-0.62069720029831,-2.78134036064148,-1.59812915325165,-0.25388339161873,2.38474774360657,0.58878040313721,-0.96101546287537,2.68192481994629,1.71518278121948,-1.96494293212891,-0.50295639038086,-7.25969076156616,-7.78417921066284,-7.08437728881836,-4.93083524703979,5.25259923934937,9.59648704528809,9.90985107421875,3.13166117668152,-6.06701135635376,-6.62471485137939,-6.24598979949951,-5.8730673789978,0.76004672050476,8.55987930297852,54.707405090332,30.724142074585,8.78554725646973,5.00728034973145,-2.59471702575684,-20.300407409668,-0.55244290828705,25.6525535583496,63.5955429077148,21.2569389343262,10.9151592254639,6.3508505821228,-4.46590423583984,-30.1026058197021,0.09481559693813,54.6942443847656,37.3020095825195,0.39272201061249,-7.79192781448364,-25.8637199401855,-29.5678100585938,-25.8338108062744,19.4312152862549,55.8236541748047,28.9761848449707,17.0288219451904,-0.45553362369537,-25.4521560668945,-28.2529544830322,-23.2878475189209,1.76380944252014,-9.48484992980957,4.71535634994507,3.78813743591309,-0.80488574504852,-11.3991079330444,-0.14925231039524,5.09461832046509,8.69342422485352,-10.3055877685547,-2.22263312339783,3.22462773323059,-3.72652220726013,-16.6752815246582,0.48125645518303,SHAKE
-0.34031829237938,-0.0568851493299,1.55178105831146,1.19077038764954,-1.27010416984558,-1.91485345363617,-0.76218467950821,-1.78504836559296,1.89293932914734,-0.13965494930744,2.38047170639038,2.48126149177551,0.22074492275715,-3.45212697982788,-0.85869854688644,2.38474774360657,0.58878040313721,-0.96101546287537,2.68192481994629,1.71518278121948,-1.96494293212891,-1.5404040813446,-1.3437112569809,1.69533026218414,2.14285206794739,0.35910183191299,0.81906980276108,3.47022318840027,-1.02851402759552,-2.63382077217102,-6.06701135635376,-6.62471485137939,-6.24598979949951,-5.8730673789978,0.76004672050476,8.55987930297852,9.2538013458252,9.13224315643311,-4.05663681030273,-8.44969749450684,-7.33146524429321,-6.37793254852295,-4.09634160995483,5.16616439819336,9.06169033050537,21.2569389343262,10.9151592254639,6.3508505821228,-4.46590423583984,-30.1026058197021,0.09481559693813,9.50937652587891,23.3997116088867,75.4519805908203,12.3963165283203,7.6046895980835,4.67707109451294,-3.25274324417114,-27.4011096954346,6.58415079116821,28.9761848449707,17.0288219451904,-0.45553362369537,-25.4521560668945,-28.2529544830322,-23.2878475189209,-16.1656112670898,20.8310165405273,60.2659301757813,12.8306140899658,-5.42662286758423,-18.4064884185791,-25.6938304901123,-28.5975208282471,-14.3219404220581,-10.3055877685547,-2.22263312339783,3.22462773323059,-3.72652220726013,-16.6752815246582,0.48125645518303,0.26470601558685,0.63200426101685,23.1867504119873,-0.22941187024117,5.17358160018921,-1.53469657897949,-9.01705265045166,-18.2246341705322,2.17896413803101,SHAKE
1.31171810626984,2.35420536994934,3.30712699890137,1.44976961612701,-2.94046592712402,-2.57273602485657,-1.08043611049652,0.68407255411148,0.86213457584381,0.35146623849869,2.40979242324829,2.06703066825867,-1.93898189067841,-1.8568229675293,-0.71637111902237,2.89541602134705,2.50966596603394,1.80345022678375,4.66511678695679,2.06771802902222,-1.9939581155777,-1.40601766109467,-1.07127332687378,3.9329400062561,2.65382599830627,2.1721727848053,2.5234100818634,0.46844348311424,-2.41330480575562,-1.93012464046478,-3.77931189537048,-6.83484649658203,-6.60028076171875,-5.98912811279297,1.33302140235901,7.81884479522705,9.23517036437988,5.74463653564453,-6.08442068099976,-6.98083877563477,-6.45734262466431,-4.72673606872559,2.09841299057007,7.68415307998657,9.29136848449707,44.6144790649414,10.6196460723877,7.98634481430054,4.53469800949097,-25.0023040771484,2.79990148544312,12.3161573410034,37.9612350463867,54.0170745849609,9.3490571975708,4.98933410644531,1.026820063591,-21.1845569610596,-7.99292516708374,7.40847778320313,45.0655250549316,12.8976135253906,-11.8489589691162,-18.9101791381836,-25.6328144073486,-17.4601268768311,11.4355983734131,35.8459777832031,49.142894744873,3.91136765480042,-11.430214881897,-17.2818622589111,-22.7470703125,-20.5588321685791,-6.94247579574585,1.54366970062256,5.86151838302612,-2.16759824752808,-5.08085966110229,-16.2373962402344,2.67906403541565,1.14287185668945,15.9376945495605,4.9941201210022,2.90757870674133,-0.66610199213028,-5.67188692092896,-14.4870452880859,-4.16680145263672,0.68943202495575,SHAKE
0.86213457584381,0.35146623849869,2.40979242324829,2.06703066825867,-1.93898189067841,-1.8568229675293,-0.71637111902237,-0.77806669473648,0.35268792510033,2.12597751617432,2.42078757286072,1.05485689640045,-1.70105695724487,-1.80276298522949,-0.4536304473877,3.9329400062561,2.65382599830627,2.1721727848053,2.5234100818634,0.46844348311424,-2.41330480575562,-1.93012464046478,-1.0834903717041,1.25399303436279,1.20207107067108,0.51303535699844,2.78912854194641,1.20390355587006,-2.42368912696838,-1.62561726570129,-6.08442068099976,-6.98083877563477,-6.45734262466431,-4.72673606872559,2.09841299057007,7.68415307998657,9.29136848449707,5.68294095993042,-1.86728370189667,-6.92464065551758,-6.91700506210327,-6.2490439414978,0.93963581323624,9.42544937133789,10.241847038269,54.0170745849609,9.3490571975708,4.98933410644531,1.026820063591,-21.1845569610596,-7.99292516708374,7.40847778320313,69.5046157836914,69.5046157836914,11.1245317459106,10.2595262527466,-3.37118792533875,-31.9355087280273,0.98015999794006,10.9115705490112,49.142894744873,3.91136765480042,-11.430214881897,-17.2818622589111,-22.7470703125,-20.5588321685791,-6.94247579574585,55.2613410949707,55.2613410949707,5.15324258804321,-3.46211528778076,-25.8266315460205,-28.0447788238525,-21.1833591461182,-10.4084796905518,4.9941201210022,2.90757870674133,-0.66610199213028,-5.67188692092896,-14.4870452880859,-4.16680145263672,0.68943202495575,17.6485633850098,17.6485633850098,2.50319147109985,-0.66969126462936,-8.37218761444092,-14.5121698379517,2.25074887275696,1.94207465648651,SHAKE
-0.08681666851044,1.5013861656189,0.91558367013931,0.69873291254044,-1.39990925788879,-0.65925687551498,-0.90420663356781,1.07562565803528,-0.47409382462502,-0.40964943170547,1.75519323348999,0.85541522502899,-0.62077355384827,-2.27739119529724,-0.19066070020199,1.63424551486969,-0.48417282104492,0.62451493740082,3.0872220993042,-0.80983072519302,-2.58159327507019,-1.10792422294617,-0.50646871328354,1.90401089191437,0.29526829719543,-0.63749545812607,2.33771252632141,1.59790003299713,-2.96337270736694,-3.13257741928101,-7.07338237762451,-6.97014904022217,-6.42985439300537,-3.79275059700012,5.82740640640259,9.57083129882813,9.54487037658691,3.88094162940979,-5.95889139175415,-7.31466674804688,-7.57282638549805,-6.7758994102478,-0.80196607112885,9.59221076965332,10.3621835708618,11.3745813369751,10.509575843811,6.37597513198853,-18.6972179412842,-17.3488616943359,11.4954195022583,21.6780757904053,48.909595489502,48.0828742980957,15.2880430221558,8.53310489654541,0.09002995491028,-17.267505645752,-0.24376881122589,16.4712944030762,14.638391494751,4.81705093383789,-9.86291599273682,-25.1614265441895,-23.265115737915,-15.2264280319214,15.9424800872803,38.3321228027344,48.0445899963379,17.874683380127,-9.60329437255859,-25.0477676391602,-30.8659172058105,-25.9402904510498,-1.8577276468277,-1.83978152275085,2.80349087715149,1.12014007568359,-7.75723171234131,-8.53011322021484,1.98753833770752,-1.94147646427155,12.8090791702271,-6.79412078857422,-1.42223393917084,2.62642192840576,-2.41884469985962,-10.623833656311,-0.09900303930044,-2.12093806266785,SHAKE
-0.47409382462502,-0.40964943170547,1.75519323348999,0.85541522502899,-0.62077355384827,-2.27739119529724,-0.19066070020199,-0.59114742279053,0.39422553777695,-1.0532534122467,0.3203130364418,1.55727875232697,1.43816351890564,-2.07978224754334,-0.32016032934189,1.90401089191437,0.29526829719543,-0.63749545812607,2.33771252632141,1.59790003299713,-2.96337270736694,-3.13257741928101,-1.22856652736664,1.51665735244751,1.38593602180481,0.18623206019402,1.28972768783569,2.72376799583435,-1.87789714336395,-2.70559525489807,-5.95889139175415,-7.31466674804688,-7.57282638549805,-6.7758994102478,-0.80196607112885,9.59221076965332,10.3621835708618,8.25651741027832,-4.26646280288696,-7.89291000366211,-7.83671236038208,-7.01015949249268,-2.91710114479065,7.8151798248291,9.56075191497803,48.0828742980957,15.2880430221558,8.53310489654541,0.09002995491028,-17.267505645752,-0.24376881122589,16.4712944030762,31.2098846435547,68.2244567871094,20.1801681518555,10.6603240966797,1.98394906520844,-9.37836933135986,-9.06969547271729,6.56979370117188,48.0445899963379,17.874683380127,-9.60329437255859,-25.0477676391602,-30.8659172058105,-25.9402904510498,-1.8577276468277,21.6074867248535,58.9247512817383,24.7456741333008,1.40847527980804,-21.12473487854,-27.626033782959,-25.9594345092773,-21.4860515594482,-6.79412078857422,-1.42223393917084,2.62642192840576,-2.41884469985962,-10.623833656311,-0.09900303930044,-2.12093806266785,1.33549416065216,6.37956428527832,-6.03439950942993,5.89382123947144,1.48145627975464,-4.38335180282593,-6.03559589385986,1.59152615070343,SHAKE
-1.60851359367371,-0.01901262067258,1.4225869178772,1.38196551799774,-1.25910890102386,-1.70258402824402,-0.35681116580963,0.07963921129704,0.18226155638695,-1.29117834568024,2.22928714752197,2.43331003189087,0.67216104269028,-2.12864995002747,-1.38830316066742,2.11414241790771,0.32764318585396,0.28915983438492,3.06645321846008,0.32184013724327,-2.72728037834167,-1.98907136917114,-1.37455904483795,1.75213897228241,1.90920305252075,-0.18058171868324,-0.16347800195217,3.46564197540283,-0.7382852435112,-3.18663740158081,-7.73531150817871,-7.97690153121948,-7.07613086700439,-5.09271001815796,3.58559703826904,9.19943618774414,9.44194221496582,7.41049337387085,-4.46468257904053,-7.57923984527588,-7.03856372833252,-6.7682638168335,-4.23958539962769,5.19701194763184,9.50974655151367,36.6786804199219,12.2587299346924,6.12233591079712,-0.91375917196274,-28.2972221374512,-7.17936515808105,11.2968149185181,31.0926361083984,39.4998207092285,11.2202444076538,8.00070190429688,5.27168750762939,-2.68085861206055,-19.2595310211182,8.07129001617432,39.0715026855469,7.52213716506958,-9.09601593017578,-20.0778751373291,-25.4940299987793,-23.158634185791,-11.128719329834,23.0144672393799,40.4174652099609,11.4439735412598,-4.29960298538208,-10.1213407516479,-20.9907379150391,-24.1337108612061,-16.9540462493896,-15.1247329711914,2.4852454662323,4.4258246421814,0.27906292676926,-16.0746841430664,-5.36560583114624,0.13429717719555,3.52014112472534,-11.2220392227173,4.34446859359741,4.6794638633728,0.45732823014259,-3.61166667938232,-11.2017002105713,0.99212408065796,SHAKE
-1.29117834568024,2.22928714752197,2.43331003189087,0.67216104269028,-2.12864995002747,-1.38830316066742,-1.43533837795258,0.24884390830994,-0.7209524512291,0.65383565425873,2.51119303703308,1.34623098373413,-1.23650753498077,-2.36382627487183,-0.08926005661488,1.90920305252075,-0.18058171868324,-0.16347800195217,3.46564197540283,-0.7382852435112,-3.18663740158081,-1.46496438980103,-0.5568636059761,2.78027129173279,0.9980480670929,-0.13629528880119,2.68894958496094,1.45190763473511,-3.0159056186676,-3.00582671165466,-7.57923984527588,-7.03856372833252,-6.7682638168335,-4.23958539962769,5.19701194763184,9.50974655151367,9.79776096343994,4.0947380065918,-6.19070768356323,-7.25327682495117,-6.99336099624634,-6.3815975189209,0.34612134099007,9.16217422485352,10.1636581420898,11.2202444076538,8.00070190429688,5.27168750762939,-2.68085861206055,-19.2595310211182,8.07129001617432,23.1855545043945,47.0419960021973,51.0954360961914,13.7925291061401,9.55723285675049,-1.92592310905457,-32.531322479248,-17.4373950958252,15.1660089492798,11.4439735412598,-4.29960298538208,-10.1213407516479,-20.9907379150391,-24.1337108612061,-16.9540462493896,12.9717903137207,38.3859596252441,50.6539611816406,16.3025989532471,-2.73709011077881,-25.5897426605225,-27.6822662353516,-27.1845588684082,-3.49441838264465,4.34446859359741,4.6794638633728,0.45732823014259,-3.61166667938232,-11.2017002105713,0.99212408065796,-0.96879404783249,13.5735855102539,-0.44835513830185,2.93629240989685,4.33729028701782,-5.02462863922119,-17.7604274749756,-8.10538768768311,-2.60428833961487,SHAKE
-1.1341906785965,1.34409308433533,2.78821229934692,0.46111333370209,-1.44053053855896,-1.86415314674377,0.24426254630089,-0.49761146306992,-1.92890298366547,-0.5697677731514,6.07647943496704,4.32907438278198,-1.84613311290741,-2.69398903846741,0.76226103305817,3.12295651435852,0.15477342903614,-1.39380073547363,1.76130175590515,1.63821601867676,-3.16464686393738,-2.66589021682739,-0.11705360561609,2.86609530448914,3.86513614654541,-0.08834378421307,-0.17141900956631,3.75029683113098,-4.32502746582031,-3.2394757270813,-6.4704761505127,-6.646399974823,-7.07154941558838,-6.90845346450806,-0.2253262847662,9.75164222717285,10.7919149398804,8.76542949676514,-3.44884371757507,-8.29973411560059,-7.41790008544922,-8.84094524383545,-5.52244091033936,7.41599130630493,10.9379072189331,43.6262397766113,12.4549407958984,9.29761123657227,6.00389099121094,-38.4140739440918,-21.8760814666748,14.8405847549438,55.9827766418457,69.5429000854492,28.5203514099121,17.2489604949951,11.5420789718628,-5.82502746582031,-35.5032081604004,13.0040941238403,45.8922462463379,6.98016262054443,-9.12233734130859,-16.5963191986084,-28.9552478790283,-28.5424861907959,-5.82143831253052,38.2651214599609,56.5857696533203,31.7279300689697,-3.73968267440796,-27.048168182373,-38.8268356323242,-37.1327209472656,-12.3538446426392,-6.5847487449646,5.88544654846191,-1.76321113109589,-2.35543489456177,-13.6292190551758,-5.34765958786011,-1.09082806110382,6.00748014450073,0.5015954375267,6.47049140930176,8.02941513061523,-9.38674449920654,-18.7055912017822,-9.77198886871338,-0.47228336334229,SHAKE
-1.30400621891022,4.7743821144104,4.17758417129517,1.07226598262787,-0.46370941400528,-0.68735587596893,-1.34248960018158,-1.27346384525299,-0.15981291234493,-0.3751365840435,2.54845476150513,0.81906980276108,-0.25388339161873,-0.52937549352646,-0.97537034749985,3.65469908714294,-0.69033378362656,-1.24597573280334,3.48244023323059,-0.37147149443626,-3.53489685058594,-0.31466269493103,-0.48172941803932,1.03714227676392,-0.084373280406,-2.90931272506714,-2.36535334587097,2.49347853660584,-1.66440606117249,-3.27795910835266,-7.17600440979004,-6.66839027404785,-7.63513278961182,-6.96159696578979,3.64026784896851,10.3536319732666,9.55250549316406,6.85523319244385,-3.66538906097412,-6.41244554519653,-6.08503150939941,-6.28722190856934,-4.12230253219604,5.80908107757568,10.3432474136353,17.4846534729004,11.4236345291138,13.7075834274292,3.52971243858337,-31.4078903198242,7.9516487121582,17.8734874725342,49.4479789733887,58.6986312866211,15.8204460144043,10.5801639556885,2.93629240989685,-20.3937282562256,-21.0362014770508,12.0888395309448,27.0834617614746,14.4936256408691,-6.08823823928833,-24.2413864135742,-32.612678527832,-23.2998123168945,-12.5680017471313,52.5777893066406,59.1484832763672,26.4780788421631,-2.24297213554382,-15.107982635498,-26.6569423675537,-26.3709983825684,-19.4330101013184,13.2696971893311,14.7544431686401,0.40348970890045,-2.65812683105469,-12.9041938781738,0.59371912479401,-0.92931246757507,10.2810611724854,0.93948197364807,-5.20648288726807,2.74486660957336,2.18733906745911,1.43838548660278,-6.47587537765503,-2.91056966781616,SHAKE
-2.8634991645813,0.2595337331295,3.69654226303101,1.57957470417023,1.07196056842804,-0.23342001438141,-1.10853505134583,-2.63687491416931,-0.56732439994812,-2.51104044914246,1.05119180679321,3.05851221084595,0.46783265471458,-0.42980739474297,-1.30034112930298,1.58507227897644,-1.70655453205109,-2.85555815696716,0.59061294794083,1.01179218292236,-4.57639122009277,-1.82200467586517,-1.34676551818848,-1.05416965484619,1.18405103683472,-1.27926683425903,-1.92554330825806,1.48611497879028,0.76165020465851,-3.52695560455322,-6.77437257766724,-7.56366348266602,-8.20108222961426,-7.55450057983398,0.93322187662125,9.78645992279053,9.67498111724854,7.89245223999023,0.50562882423401,-6.85928010940552,-6.99824810028076,-6.75787973403931,-5.85718536376953,1.74076199531555,9.21073627471924,25.0567417144775,14.9506549835205,14.8202457427979,-7.89960479736328,-28.8212490081787,-19.1686038970947,13.6776733398438,32.3309211730957,54.0290374755859,34.8804740905762,11.6533451080322,4.47009181976318,-0.12412767112255,-33.3281326293945,-15.4106750488281,32.7712020874023,7.52213716506958,-4.23380041122437,-30.2521572113037,-34.6405944824219,-30.0822677612305,-18.2114734649658,32.5486679077148,56.2388114929199,39.6637268066406,3.11096858978271,-11.6132659912109,-17.8800678253174,-28.6669120788574,-26.5444793701172,-4.14885520935059,14.2411832809448,11.6557378768921,3.78095889091492,-4.45154762268066,-10.5699949264526,-5.91834783554077,4.78594446182251,-3.56859588623047,-6.84795951843262,10.3049898147583,0.89042913913727,-0.35503506660461,-13.4593286514282,-7.49282503128052,SHAKE
-2.51104044914246,1.05119180679321,3.05851221084595,0.46783265471458,-0.42980739474297,-1.30034112930298,-1.86812365055084,-1.18458557128906,0.37590011954308,-0.22120305895805,2.88594794273376,1.34348213672638,-0.3000023663044,-0.41606333851814,-1.17817163467407,1.18405103683472,-1.27926683425903,-1.92554330825806,1.48611497879028,0.76165020465851,-3.52695560455322,-1.30461704730988,-1.11067306995392,1.43205499649048,2.082683801651,-1.87881350517273,-1.64608061313629,3.20816969871521,2.21401596069336,-2.60938668251038,-6.85928010940552,-6.99824810028076,-6.75787973403931,-5.85718536376953,1.74076199531555,9.21073627471924,9.6771183013916,7.59069347381592,-2.08230185508728,-5.85504722595215,-6.90814781188965,-7.13843727111816,-5.10401058197021,-0.77142375707626,9.74889278411865,34.8804740905762,11.6533451080322,4.47009181976318,-0.12412767112255,-33.3281326293945,-15.4106750488281,16.6495590209961,26.6838607788086,46.0106887817383,46.0106887817383,12.9394874572754,4.05254411697388,-5.03659248352051,-20.525333404541,-6.14925527572632,39.6637268066406,3.11096858978271,-11.6132659912109,-17.8800678253174,-28.6669120788574,-26.5444793701172,-3.40229463577271,17.6007061004639,50.0760955810547,50.0760955810547,7.19790983200073,-16.2900371551514,-23.1981163024902,-28.0304222106934,-23.4146671295166,-6.84795951843262,10.3049898147583,0.89042913913727,-0.35503506660461,-13.4593286514282,-7.49282503128052,-1.3145569562912,4.23080968856812,-3.01705026626587,-3.01705026626587,5.4882378578186,-0.12771691381931,1.67647135257721,-1.7189439535141,-2.91056966781616,SHAKE
-1.3760861158371,2.22989797592163,1.01362466812134,0.54632651805878,-0.82968330383301,-1.35195767879486,-0.99644458293915,0.17157171666622,-1.57644402980804,1.49436151981354,4.60365056991577,1.14648389816284,-1.14243710041046,-1.8482711315155,0.14622156322002,0.81112879514694,-1.48390066623688,-1.11281096935272,2.76744341850281,-0.72240322828293,-2.16866040229797,-0.92436462640762,-1.21329534053802,3.1250946521759,0.77967017889023,-1.81895041465759,-0.83151584863663,4.25882720947266,-2.26486897468567,-2.57334685325623,-7.49242353439331,-7.5278525352478,-7.0300121307373,-4.46223926544189,5.66186666488647,9.84540748596191,9.49814033508301,5.99729824066162,-5.3966064453125,-7.20379829406738,-7.4490532875061,-7.27587795257568,-4.13329792022705,7.63131475448608,10.5869760513306,13.5185508728027,8.08923625946045,3.64217519760132,-23.3333110809326,-21.6475677490234,5.32074022293091,21.64577293396,36.9981231689453,35.1042022705078,11.5755786895752,10.8421783447266,1.20269250869751,-9.65832996368408,-13.7404851913452,12.523136138916,10.7955188751221,-5.02462863922119,-10.5436735153198,-26.9692058563232,-26.1903419494629,-17.3572368621826,8.40269565582275,30.2252388000488,37.9181632995605,10.4437732696533,0.53030931949615,-20.965612411499,-29.403902053833,-28.1536521911621,-13.8780717849731,4.32293319702148,5.39611434936523,1.53050923347473,-2.0742781162262,-8.77059268951416,-1.38993084430695,0.18813568353653,5.39970350265503,0.93948197364807,9.94486999511719,5.23938417434692,-2.12931299209595,-4.24576473236084,-0.78095752000809,-2.09820628166199,SHAKE
-1.57644402980804,1.49436151981354,4.60365056991577,1.14648389816284,-1.14243710041046,-1.8482711315155,0.14622156322002,-1.70716536045074,0.06803311407566,-0.92833513021469,1.58537769317627,1.84529316425323,1.63546717166901,-0.83701348304749,-1.29423260688782,3.1250946521759,0.77967017889023,-1.81895041465759,-0.83151584863663,4.25882720947266,-2.26486897468567,-2.57334685325623,-0.52540498971939,0.44645300507545,2.389328956604,-0.29022881388664,-0.79914093017578,1.71609902381897,0.6978166103363,-2.49760174751282,-5.3966064453125,-7.20379829406738,-7.4490532875061,-7.27587795257568,-4.13329792022705,7.63131475448608,10.5869760513306,9.39521217346191,0.76218467950821,-7.4524130821228,-7.38521957397461,-6.13237190246582,-4.93358421325684,2.66711187362671,8.78344917297363,35.1042022705078,11.5755786895752,10.8421783447266,1.20269250869751,-9.65832996368408,-13.7404851913452,12.523136138916,34.4473724365234,63.8934478759766,36.4334182739258,6.51475858688354,3.50099873542786,-1.33728873729706,-26.7191543579102,-11.2770738601685,37.9181632995605,10.4437732696533,0.53030931949615,-20.965612411499,-29.403902053833,-28.1536521911621,-13.8780717849731,26.7544498443604,59.4248542785645,42.007495880127,-0.62662041187286,-7.31934547424316,-17.9087810516357,-25.3624248504639,-22.8571395874023,0.93948197364807,9.94486999511719,5.23938417434692,-2.12931299209595,-4.24576473236084,-0.78095752000809,-2.09820628166199,0.62841504812241,4.82901525497437,-6.18155813217163,3.90777850151062,1.17876422405243,2.49122738838196,-12.2940235137939,-3.64516615867615,SHAKE
0.74943321943283,-0.01443126611412,2.60434722900391,1.84987461566925,-0.93749785423279,-2.07153582572937,-0.39407283067703,-1.81925582885742,0.3710133433342,-0.86786127090454,2.21126699447632,2.95039224624634,0.79005455970764,-2.28869199752808,-0.95857208967209,1.11441445350647,1.06646299362183,-0.94727140665054,1.07959616184235,3.29216122627258,-2.5696816444397,-2.84028697013855,-1.16748178005219,0.96689486503601,2.2045476436615,-0.69430428743362,-1.35837161540985,3.03407835960388,0.36979165673256,-3.62896728515625,-3.72647380828857,-6.90936946868896,-6.74199771881104,-6.86538887023926,-2.43178296089172,7.50120449066162,10.0830268859863,8.57942581176758,-0.79219251871109,-6.63204526901245,-6.16047096252441,-6.10366201400757,-5.69011878967285,3.24504971504211,8.99449634552002,39.6517639160156,10.6639127731323,9.88624572753906,2.35722947120667,-31.6316204071045,-7.32293462753296,11.6342029571533,22.388744354248,49.4300346374512,28.1051979064941,7.95284509658813,6.57338285446167,2.22682046890259,-27.0457744598389,-7.12791967391968,45.1708068847656,13.2517509460449,3.20787787437439,-23.1694030761719,-29.7879505157471,-25.898416519165,-8.45234680175781,8.51755142211914,52.660343170166,35.6449813842773,2.4768705368042,-4.46351146697998,-18.9508571624756,-25.1686058044434,-23.2040977478027,-1.76081836223602,2.1909282207489,5.24656295776367,-3.76480722427368,-17.267505645752,-0.90059864521027,-4.64656257629395,-2.07547450065613,-0.58474606275558,-5.43978309631348,5.1006007194519,1.01964151859283,-1.75603270530701,-12.8479623794556,-1.53350019454956,SHAKE
-0.86786127090454,2.21126699447632,2.95039224624634,0.79005455970764,-2.28869199752808,-0.95857208967209,-1.00682902336121,-1.38463807106018,-1.03278994560242,-0.57160031795502,2.1669807434082,2.00105929374695,-0.71270602941513,-3.13624262809753,0.36612656712532,2.2045476436615,-0.69430428743362,-1.35837161540985,3.03407835960388,0.36979165673256,-3.62896728515625,-1.17817163467407,-0.83029413223267,0.59641599655151,0.84869593381882,-0.14698512852192,1.18741071224213,4.00593614578247,-1.12075197696686,-2.63382077217102,-6.63204526901245,-6.16047096252441,-6.10366201400757,-5.69011878967285,3.24504971504211,8.99449634552002,9.13285350799561,5.9560661315918,-1.50749468803406,-6.2921085357666,-7.16897964477539,-7.37208652496338,-4.83088541030884,5.55191421508789,9.46515464782715,28.1051979064941,7.95284509658813,6.57338285446167,2.22682046890259,-27.0457744598389,-7.12791967391968,11.1867446899414,30.4705028533936,49.8380088806152,17.4427795410156,10.9187488555908,4.51435899734497,-26.8387966156006,-31.38157081604,-0.51296132802963,35.6449813842773,2.4768705368042,-4.46351146697998,-18.9508571624756,-25.1686058044434,-23.2040977478027,-9.93828964233398,19.7781753540039,50.7771911621094,19.6011066436768,-0.71635127067566,-18.6218433380127,-31.9175624847412,-30.6110801696777,-22.2768802642822,-5.43978309631348,5.1006007194519,1.01964151859283,-1.75603270530701,-12.8479623794556,-1.53350019454956,-2.11495614051819,1.21704936027527,2.78195548057556,5.36979293823242,4.29900503158569,-2.25972199440002,-20.2202491760254,-15.8557405471802,5.75503778457642,SHAKE
0.28396761417389,2.45957660675049,2.76835966110229,0.16973918676376,-1.64027762413025,-2.58770179748535,-0.75607621669769,-2.07550621032715,3.25825929641724,-0.98880898952484,0.60832750797272,3.05393075942993,2.53990292549133,-0.87977278232574,-2.67444205284119,3.04476809501648,0.92413556575775,0.96506232023239,2.21309971809387,3.87796378135681,-0.5913764834404,-0.74683713912964,0.47913330793381,0.88351422548294,4.09206581115723,2.83677458763123,2.47270965576172,3.31415176391602,1.90889763832092,-2.27433705329895,-5.68065023422241,-6.15039205551147,-6.73924875259399,-6.03952312469482,-2.31999778747559,6.10419654846191,8.89584541320801,9.07848834991455,1.34646010398865,-6.73711061477661,-7.26579904556274,-6.9942774772644,-5.74142980575562,-0.70575767755508,7.24220514297485,20.1897392272949,13.090235710144,5.82442951202393,1.20867455005646,-26.1556453704834,-26.1042003631592,0.38075789809227,29.0443801879883,64.2571563720703,19.6968193054199,12.421441078186,8.78315448760986,-3.2874391078949,-24.1779766082764,-5.52712106704712,28.5251369476318,16.4964179992676,-8.46072196960449,-13.362419128418,-26.9775791168213,-24.4543476104736,-18.0607261657715,25.812873840332,55.4862670898438,25.6956253051758,13.2637147903442,-4.74825763702393,-20.7335090637207,-25.5622253417969,-21.8509578704834,-1.39591288566589,4.46171712875366,-5.80588483810425,-4.80209589004517,-13.2475633621216,-7.78833866119385,4.2918267250061,13.9516515731812,7.8080792427063,-5.06889581680298,7.71954488754272,7.4575309753418,-7.88764095306396,-19.7692012786865,-0.13250255584717,SHAKE
-0.98880898952484,0.60832750797272,3.05393075942993,2.53990292549133,-0.87977278232574,-2.67444205284119,-0.95826661586761,-0.2932830452919,0.4131618142128,-1.56147825717926,2.94214582443237,3.22405171394348,0.86060744524002,-3.29116868972778,-1.16351127624512,4.09206581115723,2.83677458763123,2.47270965576172,3.31415176391602,1.90889763832092,-2.27433705329895,-2.74468946456909,-2.24348926544189,2.93420481681824,3.51725840568542,2.13032984733582,0.76439899206161,0.98308229446411,-1.56056201457977,-3.27856993675232,-6.73711061477661,-7.26579904556274,-6.9942774772644,-5.74142980575562,-0.70575767755508,7.24220514297485,9.76233196258545,9.00549221038818,-4.19652080535889,-7.61802864074707,-6.86538887023926,-5.33002424240112,-2.49653267860413,4.20316362380981,8.65883636474609,19.6968193054199,12.421441078186,8.78315448760986,-3.2874391078949,-24.1779766082764,-5.52712106704712,7.17158842086792,24.1785755157471,36.3903465270996,8.1789665222168,5.88903570175171,-1.1793624162674,-5.63120889663696,-15.8521509170532,3.50698065757751,25.6956253051758,13.2637147903442,-4.74825763702393,-20.7335090637207,-25.5622253417969,-21.8509578704834,-1.40787696838379,20.3045959472656,44.7736015319824,11.1843519210815,-6.74028205871582,-16.3127689361572,-20.6940269470215,-20.2238388061523,-12.4459676742554,-5.06889581680298,7.71954488754272,7.4575309753418,-7.88764095306396,-19.7692012786865,-0.13250255584717,0.07686942815781,7.95404148101807,-6.43519735336304,7.5472617149353,6.17737054824829,-7.02383184432983,-10.3953189849854,-4.83200645446777,7.37737131118774,SHAKE
0.4131618142128,-1.56147825717926,2.94214582443237,3.22405171394348,0.86060744524002,-3.29116868972778,-1.16351127624512,0.26472592353821,1.73442447185516,-0.3305447101593,0.76226103305817,2.90182995796204,2.389328956604,-2.93619012832642,-2.19584321975708,2.93420481681824,3.51725840568542,2.13032984733582,0.76439899206161,0.98308229446411,-1.56056201457977,-3.27856993675232,-2.41910791397095,0.03443651273847,3.29399394989014,2.33343648910522,2.00571703910828,2.51638531684875,0.98796910047531,-2.49240946769714,-4.19652080535889,-7.61802864074707,-6.86538887023926,-5.33002424240112,-2.49653267860413,4.20316362380981,8.65883636474609,10.1004362106323,2.88701677322388,-7.25327682495117,-7.95582723617554,-6.53156089782715,-4.31991195678711,2.43193554878235,8.08914470672607,36.3903465270996,8.1789665222168,5.88903570175171,-1.1793624162674,-5.63120889663696,-15.8521509170532,3.50698065757751,23.7347068786621,64.0764999389648,44.2005195617676,8.41465950012207,4.56221532821655,-7.53948497772217,-19.9103775024414,-8.88784027099609,44.7736015319824,11.1843519210815,-6.74028205871582,-16.3127689361572,-20.6940269470215,-20.2238388061523,-12.4459676742554,20.1490631103516,57.903018951416,46.9510688781738,1.7171493768692,-13.0334062576294,-24.9053955078125,-27.0493640899658,-23.187349319458,-6.43519735336304,7.5472617149353,6.17737054824829,-7.02383184432983,-10.3953189849854,-4.83200645446777,7.37737131118774,6.56261539459229,4.36361122131348,-4.40129804611206,6.38554620742798,0.69302123785019,-15.2587308883667,-22.6621246337891,-1.72014033794403,SHAKE
-0.23219831287861,-1.04958832263947,2.61106657981873,2.83188796043396,-0.14790138602257,-2.77278852462769,0.22074492275715,2.85418391227722,0.07017108052969,-1.97074592113495,0.77325630187988,1.34256589412689,-0.4047626554966,-2.52081394195557,-0.67208468914032,3.72708463668823,3.43051815032959,1.41892182826996,1.49191808700562,0.32489439845085,-1.56239461898804,-1.99090397357941,-1.14976727962494,2.7934045791626,1.68647289276123,0.40980216860771,2.3245792388916,1.00415658950806,-2.53516888618469,-1.8049008846283,-6.38007068634033,-7.71118307113647,-6.52728462219238,-4.07038068771362,1.08135235309601,7.67468500137329,9.30022621154785,7.20555448532104,-5.84466314315796,-8.24842357635498,-6.77315092086792,-4.99527978897095,1.38952481746674,8.70526027679443,9.18660831451416,26.4290256500244,13.2493581771851,8.48524856567383,-5.23160743713379,-15.1737861633301,-1.97138679027557,9.55962562561035,29.2166633605957,32.5893478393555,9.85274600982666,3.79890513420105,-6.01525688171387,-28.9923362731934,1.76500582695007,12.3664064407349,32.4709014892578,16.025032043457,-4.0280179977417,-21.475284576416,-25.620849609375,-18.6469669342041,6.73968410491943,31.2481708526611,35.8136749267578,4.93429946899414,-11.1023979187012,-24.3861522674561,-26.2154655456543,-21.1917343139648,-12.012866973877,-14.7885408401489,-4.47068977355957,5.66769933700562,-5.64078044891357,-13.216456413269,3.31794762611389,5.24416971206665,8.01745128631592,-21.1809673309326,1.37976133823395,5.76819801330566,-1.52991092205048,-13.2152605056763,0.22283160686493,3.47707033157349,SHAKE
-1.20504891872406,-1.54773426055908,1.96043789386749,1.48733675479889,0.96597856283188,-1.52391123771667,-0.45301958918571,0.02466295845807,1.07684731483459,-1.76030910015106,0.24945475161076,2.13239145278931,1.17061245441437,-0.61771929264069,-2.07367372512817,1.66142821311951,0.93482536077499,-0.91275852918625,1.13151824474335,2.78760147094727,-1.23559129238129,-2.40444755554199,-1.43808710575104,0.30473643541336,1.16175508499146,-0.60878562927246,-1.00896692276001,1.7423654794693,1.55452990531921,-2.1365909576416,-3.97661566734314,-7.01504611968994,-6.51018095016479,-5.94636917114258,-2.91313052177429,7.3671236038208,9.69269561767578,9.15117931365967,0.44385689496994,-6.65617370605469,-6.50346183776855,-6.48849582672119,-5.39263582229614,-0.13858596980572,8.46542644500732,36.5434875488281,16.5370960235596,8.59890747070313,1.67647135257721,-25.5885467529297,-29.8130741119385,5.06590461730957,37.2529602050781,52.5371131896973,33.3969230651855,10.4126672744751,10.3815603256226,-2.27288246154785,-29.6587371826172,-2.23340082168579,41.8974266052246,24.2168598175049,3.35982203483582,-18.69482421875,-27.7038021087646,-26.4320163726807,-20.5492610931396,31.2290267944336,55.0220603942871,38.9841651916504,11.6844520568848,-3.21565461158752,-21.8701000213623,-25.0429821014404,-22.4479656219482,-11.3093767166138,-2.82562446594238,9.20788097381592,3.94486713409424,-9.55783081054688,-12.0762767791748,-0.76540416479111,5.68803834915161,-9.02423191070557,-11.7293176651001,2.86211490631104,6.62722158432007,-0.01884347759187,-11.3392877578735,-1.44735860824585,SHAKE
-1.76030910015106,0.24945475161076,2.13239145278931,1.17061245441437,-0.61771929264069,-2.07367372512817,-0.06513158977032,-0.64826166629791,0.61321431398392,-1.00988328456879,0.55610007047653,1.06951713562012,1.09150767326355,-1.08715546131134,-2.11063003540039,1.16175508499146,-0.60878562927246,-1.00896692276001,1.7423654794693,1.55452990531921,-2.1365909576416,-2.30976629257202,-0.91947782039642,-0.05260922014713,0.84167116880417,-0.15156647562981,0.53838551044464,2.42231488227844,0.40674790740013,-2.38673305511475,-6.65617370605469,-6.50346183776855,-6.48849582672119,-5.39263582229614,-0.13858596980572,8.46542644500732,9.10383892059326,8.10624885559082,-1.09211850166321,-6.94632577896118,-7.09231853485107,-6.62227153778076,-5.03009796142578,2.12895536422729,8.44801712036133,33.3969230651855,10.4126672744751,10.3815603256226,-2.27288246154785,-29.6587371826172,-2.23340082168579,10.0046901702881,22.1004085540771,54.2647323608398,14.7388906478882,11.8698959350586,5.83280420303345,0.84855473041534,-22.5365009307861,2.62163639068604,38.9841651916504,11.6844520568848,-3.21565461158752,-21.8701000213623,-25.0429821014404,-22.4479656219482,-15.4776744842529,16.5693988800049,56.2005233764648,18.7624206542969,-1.02143621444702,-13.9737854003906,-19.8086833953857,-25.6064929962158,-17.6778755187988,-11.7293176651001,2.86211490631104,6.62722158432007,-0.01884347759187,-11.3392877578735,-1.44735860824585,0.81385880708694,-4.13569498062134,1.42522501945496,-3.08763861656189,5.46789884567261,4.16022109985352,1.95523524284363,-11.5989084243774,-1.25712919235229,SHAKE
-1.00988328456879,0.55610007047653,1.06951713562012,1.09150767326355,-1.08715546131134,-2.11063003540039,-1.22032010555267,0.16729579865932,0.0842205658555,-0.23403085768223,2.43392086029053,1.81658339500427,0.65841698646545,-2.24868154525757,-0.81349581480026,0.84167116880417,-0.15156647562981,0.53838551044464,2.42231488227844,0.40674790740013,-2.38673305511475,-2.46767020225525,-1.32477498054504,1.17549920082092,1.02492535114288,-0.0981173440814,1.60767364501953,2.20638036727905,-1.35867702960968,-3.18113970756531,-6.94632577896118,-7.09231853485107,-6.62227153778076,-5.03009796142578,2.12895536422729,8.44801712036133,9.08795642852783,6.27431774139404,-4.6448826789856,-7.57282638549805,-7.5841269493103,-6.42344093322754,-2.64130353927612,7.17073583602905,9.78096294403076,14.7388906478882,11.8698959350586,5.83280420303345,0.84855473041534,-22.5365009307861,2.62163639068604,14.3512525558472,52.4557571411133,54.7361183166504,17.8328094482422,11.6234350204468,5.9333028793335,-8.23101043701172,-27.8940315246582,12.2180519104004,18.7624206542969,-1.02143621444702,-13.9737854003906,-19.8086833953857,-25.6064929962158,-17.6778755187988,8.59531784057617,52.5454864501953,55.3582496643066,22.6029014587402,0.27188447117805,-14.2657098770142,-25.4162635803223,-25.7440795898438,-12.4076824188232,-3.08763861656189,5.46789884567261,4.16022109985352,1.95523524284363,-11.5989084243774,-1.25712919235229,-2.5971097946167,10.7189483642578,-0.25932216644287,-2.16640186309814,6.3173508644104,1.73629188537598,-5.33689165115356,-13.4330072402954,1.76380944252014,SHAKE
-1.78321588039398,-0.58809322118759,1.97479283809662,1.22772657871246,0.42873841524124,-2.83020806312561,-2.16560626029968,-0.81135785579681,3.37676358222961,-1.55506443977356,-1.87087249755859,2.01205444335938,2.33893418312073,2.07558274269104,-2.89526319503784,1.75946915149689,0.6367319226265,-0.47012332081795,1.2616286277771,2.93420481681824,-0.50310909748077,-2.24623799324036,-1.75756025314331,-0.77776128053665,2.18774938583374,1.60950613021851,0.04329380020499,0.70575767755508,1.44396650791168,-1.03584420681,-6.03830146789551,-6.80460929870605,-6.22980213165283,-5.62597942352295,-3.09577393531799,5.92582941055298,8.93554973602295,9.80020427703857,2.90686941146851,-5.83183526992798,-7.39590930938721,-6.39167642593384,-4.692223072052,-3.61957550048828,6.3247127532959,35.1843643188477,9.32034301757813,6.04696178436279,0.87367933988571,-21.2228412628174,-28.5006122589111,-0.62781685590744,23.9715957641602,52.257152557373,41.0503692626953,11.6150598526001,4.96181678771973,-3.28265357017517,-9.94905757904053,-10.444372177124,45.2246475219727,15.2856502532959,-4.43360137939453,-16.342679977417,-25.6782779693604,-24.2724933624268,-21.1414852142334,19.5783748626709,41.266918182373,47.0742988586426,15.906587600708,-0.16839489340782,-18.0475654602051,-22.918155670166,-21.5781745910645,-13.9450712203979,0.97776716947556,4.72373104095459,0.42023947834969,-11.3811616897583,-15.1091794967651,-0.06909275054932,10.0740823745728,15.1863479614258,-18.7797698974609,-2.60309195518494,9.12413215637207,-0.54167520999908,-8.25852870941162,-1.20448708534241,SHAKE
2.03557205200195,-2.09535884857178,0.05489989742637,2.31663823127747,3.07622671127319,-2.23738074302673,-1.89225208759308,-0.61985725164413,0.6318451166153,-1.54590165615082,-1.31286346912384,3.19656372070313,2.84624290466309,-1.23620212078094,-2.39925527572632,-0.1307976692915,1.93058276176453,0.62695837020874,1.05149722099304,2.45041370391846,0.56984412670135,-2.79600071907043,-2.60847043991089,-1.7175498008728,2.76377844810486,2.57899713516235,1.45648896694183,1.800701379776,2.38963437080383,-1.56697595119476,0.08467870205641,-7.10758972167969,-7.85442686080933,-6.51109743118286,-4.26188135147095,3.4802258014679,8.26506900787354,9.24738788604736,4.50522756576538,-6.62990713119507,-7.42950630187988,-5.90422058105469,-3.89567828178406,0.41545248031616,8.32951354980469,63.3873672485352,15.8096780776978,6.69302415847778,0.8449655175209,-1.38035953044891,-23.7843570709229,5.01086950302124,14.8262281417847,66.5901641845703,51.8527641296387,9.82283592224121,5.97876644134521,3.85035061836243,-11.1323080062866,-16.4886417388916,52.3815803527832,23.0778770446777,-0.23419751226902,-14.4930276870728,-22.3797702789307,-27.3999137878418,-16.3989105224609,15.4292192459106,55.2302360534668,50.3416976928711,3.90059995651245,-9.27906703948975,-14.3075838088989,-23.0078868865967,-24.205493927002,14.1299171447754,-4.50777864456177,10.1662063598633,6.04456901550293,1.14406836032867,-22.1919345855713,2.41824626922607,-2.38175582885742,7.41804933547974,-5.07966327667236,7.02084064483643,2.37876486778259,-3.58773851394653,-15.3688011169434,-7.82303476333618,SHAKE
-1.22154176235199,-1.12350082397461,2.32702255249023,0.80502033233643,-0.04588989913464,-1.99212563037872,-0.69499146938324,-0.763711810112,1.0899806022644,-1.06241607666016,0.09643751382828,2.91038179397583,1.52276587486267,0.17432053387165,-2.62801766395569,1.77596199512482,0.61199259757996,-1.52727091312408,-0.24746949970722,2.84899163246155,-1.25238955020905,-3.20496296882629,-1.46557533740997,-0.51410430669785,1.96326303482056,0.53380411863327,-0.81227415800095,0.42690587043762,2.27082467079163,-1.93165171146393,-4.38954830169678,-7.07154941558838,-6.98755836486816,-6.92402982711792,-5.02307319641113,5.94445991516113,9.74980926513672,9.73056793212891,3.26978898048401,-5.83611106872559,-6.85744762420654,-6.88951730728149,-6.25209808349609,-2.81631135940552,7.16981983184814,37.2194595336914,13.0531463623047,9.46630573272705,5.03838729858398,-24.1205501556396,-34.711181640625,-1.44616222381592,27.4818668365479,63.719970703125,25.46950340271,15.1085815429688,11.6282205581665,4.17577457427979,-27.6750869750977,-28.9612293243408,38.2411956787109,12.5303144454956,-3.53629279136658,-18.7474670410156,-30.125337600708,-27.9514579772949,-22.6142673492432,16.0764789581299,55.0124893188477,29.2130737304688,16.0645141601563,-0.05593222752213,-12.4100751876831,-26.8064937591553,-26.2585372924805,-9.54825973510742,6.11994314193726,5.05633354187012,1.27806639671326,-7.92712211608887,-13.0334062576294,-0.98315101861954,-0.14207383990288,4.31934404373169,-6.85992336273193,1.96121728420258,6.65713167190552,0.70498538017273,-14.1209440231323,-14.2465667724609,SHAKE
-0.98300594091415,1.12510430812836,2.44644331932068,1.00354564189911,0.14102935791016,-2.05321025848389,-1.08623909950256,-3.0244574546814,0.252814412117,1.64035391807556,3.24329352378845,1.84376609325409,0.23601610958576,-1.93317890167236,-1.35653901100159,1.9324152469635,0.03535278514028,-0.94940936565399,1.93363702297211,1.85598301887512,-1.98815512657166,-2.38612198829651,-0.54311954975128,0.7112552523613,1.86484026908875,-0.07185091078281,0.24243000149727,2.3386287689209,-0.33329352736473,-3.27643203735352,-5.9127721786499,-6.64487266540527,-6.45123434066772,-5.89261436462402,-1.40303981304169,7.71041965484619,9.11086368560791,7.76570129394531,-0.8706864118576,-5.6614089012146,-6.54744291305542,-7.14821100234985,-5.93079233169556,1.43258953094482,9.01282215118408,21.5033988952637,12.885648727417,8.36919593811035,-1.39830577373505,-26.9620265960693,-4.71715068817139,12.2120695114136,21.3083839416504,51.8814811706543,17.0144653320313,14.8944234848022,8.80349349975586,2.30219459533691,-27.0122756958008,2.58454751968384,26.5247383117676,14.5558395385742,-1.12791681289673,-19.4270286560059,-25.3696022033691,-22.7470703125,-4.66211605072021,13.1847515106201,51.7534637451172,22.2475681304932,3.38016104698181,-12.4962167739868,-19.7476654052734,-27.4310188293457,-22.1237392425537,-3.44057989120483,4.78594446182251,3.74387001991272,-0.54167520999908,-14.386547088623,-2.94047999382019,-4.00528621673584,-2.72991156578064,18.4968185424805,4.02024126052856,0.03020938672125,-2.64018058776855,-4.51256418228149,-10.2349996566772,4.27627325057983,SHAKE
1.64035391807556,3.24329352378845,1.84376609325409,0.23601610958576,-1.93317890167236,-1.35653901100159,0.23907034099102,-0.01626380905509,0.00969719979912,-1.65982472896576,1.64646244049072,1.40487229824066,-0.28137150406837,-2.04985070228577,-0.47103959321976,1.86484026908875,-0.07185091078281,0.24243000149727,2.3386287689209,-0.33329352736473,-3.27643203735352,-2.28258347511292,-1.6213413476944,0.33955472707748,1.014235496521,-0.90451210737228,-0.29816982150078,3.43845915794373,0.15568970143795,-3.14204549789429,-5.6614089012146,-6.54744291305542,-7.14821100234985,-5.93079233169556,1.43258953094482,9.01282215118408,9.50760841369629,7.3494086265564,-2.00289177894592,-6.44207143783569,-5.99187707901001,-6.34769582748413,-6.04196643829346,3.03026056289673,9.51280117034912,17.0144653320313,14.8944234848022,8.80349349975586,2.30219459533691,-27.0122756958008,2.58454751968384,16.8708953857422,47.8830718994141,54.482479095459,21.9065895080566,10.0477609634399,7.20269536972046,-7.74287509918213,-29.8334140777588,-7.75124979019165,22.2475681304932,3.38016104698181,-12.4962167739868,-19.7476654052734,-27.4310188293457,-22.1237392425537,-0.08464609831572,43.0447845458984,55.5724067687988,31.279275894165,3.89461803436279,-10.684850692749,-27.9777793884277,-28.6310195922852,-25.2224445343018,4.02024126052856,0.03020938672125,-2.64018058776855,-4.51256418228149,-10.2349996566772,4.27627325057983,-4.05194616317749,9.17079162597656,-2.62941288948059,-7.78714227676392,4.12672185897827,-1.28823590278625,-5.05932426452637,-11.6395864486694,-0.93170529603958,SHAKE
