gyro_x_0,gyro_y_0,gyro_z_0,acc_x_0,acc_y_0,acc_z_0,gyro_x_1,gyro_y_1,gyro_z_1,acc_x_1,acc_y_1,acc_z_1,gyro_x_2,gyro_y_2,gyro_z_2,acc_x_2,acc_y_2,acc_z_2,gyro_x_3,gyro_y_3,gyro_z_3,acc_x_3,acc_y_3,acc_z_3,gyro_x_4,gyro_y_4,gyro_z_4,acc_x_4,acc_y_4,acc_z_4,gyro_x_5,gyro_y_5,gyro_z_5,acc_x_5,acc_y_5,acc_z_5,gyro_x_6,gyro_y_6,gyro_z_6,acc_x_6,acc_y_6,acc_z_6,gyro_x_7,gyro_y_7,gyro_z_7,acc_x_7,acc_y_7,acc_z_7,gyro_x_8,gyro_y_8,gyro_z_8,acc_x_8,acc_y_8,acc_z_8,gyro_x_9,gyro_y_9,gyro_z_9,acc_x_9,acc_y_9,acc_z_9,gyro_x_10,gyro_y_10,gyro_z_10,acc_x_10,acc_y_10,acc_z_10,gyro_x_11,gyro_y_11,gyro_z_11,acc_x_11,acc_y_11,acc_z_11,gyro_x_12,gyro_y_12,gyro_z_12,acc_x_12,acc_y_12,acc_z_12,gyro_x_13,gyro_y_13,gyro_z_13,acc_x_13,acc_y_13,acc_z_13,gyro_x_14,gyro_y_14,gyro_z_14,acc_x_14,acc_y_14,acc_z_14,motion_type
-1.1475750207901,-0.38444998860359,-3.6877498626709,3.39019989967346,2.11529994010925,-3.2153000831604,1.59060001373291,1.39906251430511,-0.71967500448227,-1.89034998416901,3.78606247901917,-4.04745006561279,-1.3199999332428,4.04786252975464,1.98976254463196,-0.52497500181198,-1.31353747844696,1.35657501220703,0.32216250896454,-1.80097496509552,-0.61435002088547,1.21398746967316,1.66306245326996,1.35437500476837,1.14798748493195,-2.02125000953674,-1.62002503871918,-0.27169999480247,0.24021250009537,1.61521244049072,8.20916271209717,7.97183752059937,-1.51456248760223,-7.98806238174438,-10.1122999191284,-5.80538749694824,7.60567474365234,11.1080751419067,8.04416275024414,-6.66531229019165,-9.08957481384277,-8.39781284332275,1.76109993457794,8.00263786315918,12.8596878051758,17.1499500274658,39.808952331543,49.5090026855469,23.109001159668,9.95805072784424,-29.953950881958,-19.5100517272949,26.5000514984131,67.7350540161133,23.181001663208,25.0650005340576,-8.88300037384033,-34.183952331543,-17.1769504547119,33.6870002746582,11.9959506988525,51.0660018920898,68.545051574707,14.6059503555298,-27.6330013275146,-60.0400543212891,-46.2330017089844,-1.24005007743835,78.5509567260742,46.0650024414063,-4.37505006790161,-58.503002166748,-58.2229537963867,-52.3069534301758,-2.24400019645691,0.85995006561279,5.07495021820068,16.4830513000488,7.83705043792725,-13.8799505233765,11.6070003509521,7.23795032501221,-11.356050491333,-10.5970506668091,24.2520008087158,-15.4699506759644,-6.63795042037964,27.2389507293701,6.65100049972534,-23.4079513549805,SHAKE
1.39906251430511,-0.71967500448227,-1.89034998416901,3.78606247901917,-4.04745006561279,-1.3199999332428,4.04786252975464,1.98976254463196,-2.39910006523132,0.28696250915527,1.91729998588562,-0.16747500002384,-3.00134992599487,3.04012489318848,2.65278744697571,1.66306245326996,1.35437500476837,1.14798748493195,-2.02125000953674,-1.62002503871918,-0.27169999480247,0.24021250009537,1.61521244049072,0.98834997415543,0.64143747091293,-1.10921251773834,-1.85625004768372,-1.57327497005463,0.87546247243881,1.08941245079041,11.1080751419067,8.04416275024414,-6.66531229019165,-9.08957481384277,-8.39781284332275,1.76109993457794,8.00263786315918,12.8596878051758,7.45456266403198,-4.94972515106201,-8.90862464904785,-9.47058773040771,-5.59143733978271,7.78662490844727,10.0512495040894,26.5000514984131,67.7350540161133,23.181001663208,25.0650005340576,-8.88300037384033,-34.183952331543,-17.1769504547119,33.6870002746582,69.6010513305664,25.771951675415,22.9630508422852,19.4800510406494,-28.6830005645752,-12.8400001525879,19.3870506286621,-1.24005007743835,78.5509567260742,46.0650024414063,-4.37505006790161,-58.503002166748,-58.2229537963867,-52.3069534301758,-2.24400019645691,78.5509567260742,55.7220039367676,8.43195056915283,-30.6510009765625,-60.4260025024414,-44.8180503845215,-1.09395003318787,-11.356050491333,-10.5970506668091,24.2520008087158,-15.4699506759644,-6.63795042037964,27.2389507293701,6.65100049972534,-23.4079513549805,11.2189502716064,8.02095031738281,-5.43495035171509,-8.64495086669922,12.7249507904053,8.52705001831055,-17.6119499206543,SHAKE
0.28380000591278,-0.28984999656677,0.44453749060631,0.24543750286102,-0.72297501564026,-1.56901252269745,-1.05709993839264,-1.51250004768372,-1.24753749370575,-0.71761250495911,-0.31638750433922,1.02231252193451,-0.38664999604225,1.07126247882843,2.29404997825623,-0.00357499998063,-0.03753750026226,-0.31638750433922,-0.72613751888275,-0.88041251897812,-1.10288751125336,0.10395000129938,-0.5515124797821,-1.40607500076294,-0.46860000491142,0.04757500067353,1.14482498168945,1.28741252422333,1.32247495651245,0.00178749999031,-1.25276243686676,-3.30027508735657,-4.00372505187988,-4.50491237640381,-3.87818741798401,0.8564875125885,10.0150871276855,11.9231748580933,7.03422498703003,1.90368747711182,0.42336249351501,-2.63298749923706,-4.67417478561401,-6.40351247787476,-6.98775005340576,6.76005029678345,5.98395013809204,2.23800015449524,1.74495005607605,-7.7310004234314,-20.791051864624,-3.84405016899109,30.2910022735596,48.8770523071289,27.2899513244629,23.4420013427734,11.9100008010864,18.3160514831543,12.3769502639771,11.2890005111694,20.110050201416,16.9660511016846,8.9970006942749,-0.62700003385544,-17.6269512176514,-31.2600021362305,-32.1480026245117,-3.91605019569397,36.2500534057617,36.4870529174805,31.7449512481689,21.4780502319336,16.3090515136719,3.89400029182434,-4.91205024719238,-2.33895015716553,0.84300005435944,0.37395000457764,-1.89495003223419,-3.09105014801025,2.02905011177063,1.50195002555847,-3.69405007362366,6.77805042266846,12.7390508651733,13.0200004577637,-0.25304999947548,3.79200029373169,5.60700035095215,-0.82005006074905,SHAKE
1.07126247882843,2.29404997825623,1.4001624584198,0.2880625128746,0.67223751544952,0.49032500386238,-1.18690001964569,-0.96868747472763,-2.04462504386902,1.53642499446869,1.87687504291534,0.09336250275373,0.71912497282028,0.79777497053146,0.19758750498295,1.32247495651245,0.00178749999031,-0.80066251754761,-0.49087500572205,-0.27059999108315,1.92912495136261,0.09336250275373,-0.78457498550415,-0.02694999985397,0.88934999704361,0.44137498736382,0.63813751935959,-0.30360001325607,-0.45691248774529,-0.9091500043869,-6.40351247787476,-6.98775005340576,-6.99737501144409,-4.74223756790161,3.20416259765625,11.2569875717163,10.2438879013062,8.14426231384277,-0.07672499865294,-3.24390006065369,-4.60707473754883,-5.80964994430542,-5.75863742828369,-5.3637375831604,-3.57170009613037,12.3769502639771,11.2890005111694,4.18994998931885,-16.0249500274658,-24.8029518127441,5.67105007171631,28.9170017242432,30.7699508666992,27.4270515441895,11.5219507217407,12.5899505615234,8.66400051116943,4.5930004119873,4.18994998931885,-4.78005027770996,3.89400029182434,-4.91205024719238,-16.4560508728027,-27.4849510192871,-29.0989513397217,-22.4080505371094,7.0570502281189,26.1550521850586,41.5050010681152,22.2870006561279,15.5809507369995,4.62900018692017,-2.50500011444092,-4.58595037460327,-12.9259510040283,5.60700035095215,-0.82005006074905,-0.94500005245209,1.04700005054474,6.48105049133301,-4.42694997787476,-4.93200016021729,5.96595048904419,9.62400054931641,8.2339506149292,-6.08400011062622,-0.33195000886917,1.07805001735687,0.98700004816055,-0.77505004405975,SHAKE
0.09336250275373,0.71912497282028,0.79777497053146,0.19758750498295,-1.02189993858337,0.20074999332428,-0.26207500696182,-0.83888751268387,-0.00247499998659,-1.31889998912811,1.12777495384216,0.18163749575615,0.60197502374649,0.62012499570847,0.32738751173019,0.63813751935959,-0.30360001325607,-0.45691248774529,-0.9091500043869,-0.47808748483658,-0.29933750629425,1.15005004405975,-0.67608749866486,-0.08538749814034,0.67966252565384,0.27857500314713,0.40521249175072,-0.16307500004768,-0.5878124833107,-0.76120001077652,-5.80964994430542,-5.75863742828369,-5.3637375831604,-3.57170009613037,-0.55137497186661,6.43940019607544,11.8955373764038,8.19101238250732,1.73346245288849,-3.55987501144409,-4.90297508239746,-6.28539991378784,-6.22146224975586,-5.05518770217896,-1.58482503890991,8.66400051116943,4.5930004119873,4.18994998931885,-4.78005027770996,-15.3109502792358,-16.3270511627197,18.0960006713867,42.0409507751465,37.5910530090332,11.3749504089355,14.2279510498047,12.7650003433228,6.95700025558472,-4.2180004119873,-15.4530010223389,4.62900018692017,-2.50500011444092,-4.58595037460327,-12.9259510040283,-19.9170017242432,-25.85205078125,-16.0009498596191,35.8290023803711,58.2580528259277,28.0690517425537,16.0050010681152,2.43705010414124,-9.08895015716553,-17.1169509887695,-21.9720001220703,-0.33195000886917,1.07805001735687,0.98700004816055,-0.77505004405975,3.11100006103516,4.93200016021729,-7.08495044708252,4.38600015640259,-1.56705009937286,10.5259504318237,-2.56095004081726,-0.02295000106096,1.36095011234283,1.20000004768372,2.76705002784729,SHAKE
0.87449997663498,0.87229996919632,-0.10573749989271,-0.17806249856949,1.22993743419647,0.50723749399185,-2.07762503623962,0.57227498292923,-0.61435002088547,0.61366248130798,0.42006251215935,-0.6239749789238,-0.54092502593994,0.63607501983643,0.77660000324249,0.03272499889135,-0.42707499861717,-0.3770250082016,0.15289999544621,-0.15042500197887,0.73617500066757,-0.16101250052452,-0.17806249856949,-0.27912500500679,0.48922500014305,0.26248750090599,0.52758747339249,0.46474999189377,-0.16307500004768,-0.39723750948906,-6.11077499389648,-5.25841236114502,-3.43007493019104,-0.68021249771118,4.35242509841919,8.97751235961914,8.02821254730225,5.83591270446777,2.56781244277954,-2.19353747367859,-4.19210004806519,-4.64007520675659,-6.61526250839233,-6.88242483139038,-6.31936264038086,8.82495021820068,2.75100016593933,-6.2989501953125,-13.1770505905151,-14.8969507217407,10.0750503540039,17.4589500427246,41.5140037536621,36.3630027770996,21.7170009613037,12.0049505233765,19.3530006408691,16.1610012054443,7.78500032424927,3.99900007247925,-3.85605025291443,-9.98205089569092,-13.1100006103516,-18.6160507202148,-18.5200500488281,-12.0490503311157,8.45100021362305,43.0090522766113,48.5389518737793,35.4379501342773,22.1680507659912,18.034049987793,2.08095002174377,-12.2980508804321,-16.8730506896973,1.32705008983612,0.09600000083447,2.11500000953674,2.65395021438599,2.42895007133484,-7.66500043869019,1.40895009040833,-2.76195001602173,0.79800003767014,4.92495012283325,-5.7610502243042,-2.4250500202179,2.57505011558533,2.56500005722046,0.27600002288818,SHAKE
-0.69203752279282,0.7510250210762,1.16503751277924,-0.18232500553131,0.19552500545979,1.0702999830246,0.20405000448227,-0.58987498283386,0.89361250400543,-2.28951239585876,1.36083745956421,-0.57708752155304,0.26358750462532,0.48606249690056,-0.07699999958277,0.82981246709824,-0.06421250104904,-0.72503751516342,-0.99852502346039,-0.11948750168085,0.45512500405312,0.77756249904633,-0.04826249927282,0.12319999933243,0.47753748297691,0.36465001106262,0.64240002632141,0.0709500014782,-0.28764998912811,-0.5292375087738,-6.22049999237061,-7.20060014724731,-6.35346269607544,-4.26978731155396,1.38751244544983,4.58864974975586,8.53476238250732,7.95685005187988,5.51773738861084,-0.89938747882843,-4.15167474746704,-5.30103731155396,-6.92917490005493,-7.2708625793457,-6.01191234588623,17.5020008087158,11.2630500793457,4.21695041656494,-12.2170505523682,-19.5670509338379,-14.3680505752563,14.3260507583618,15.564001083374,47.7559509277344,23.2669506072998,11.3010005950928,18.2830505371094,14.9800510406494,11.0689506530762,-0.10305000841618,8.11395072937012,-6.59595012664795,-15.4999504089355,-22.1820011138916,-22.3930511474609,-20.5510501861572,-7.69005060195923,12.9300003051758,49.0420532226563,42.3700523376465,24.3300018310547,14.8939504623413,-1.79100012779236,-9.6040506362915,-20.791051864624,0.83400005102158,2.78805017471313,-0.05595000088215,2.50095009803772,7.53495025634766,4.89795017242432,-6.10605049133301,3.25500011444092,-12.5269508361816,13.6969509124756,-2.94495010375977,-1.75695013999939,0.84600001573563,0.27600002288818,-0.12600000202656,SHAKE
0.48606249690056,-0.07699999958277,-0.77508747577667,-0.01842499896884,1.22993743419647,-0.67925000190735,-1.24011254310608,-0.89003747701645,-1.24657499790192,1.0723625421524,1.3330625295639,-0.73039996623993,0.8318749666214,1.0095249414444,0.05706249922514,-0.28764998912811,-0.5292375087738,-0.69629997014999,-0.31528750061989,1.19377493858337,0.31473749876022,-0.49513748288155,-0.57172501087189,-0.08868750184774,0.94476246833801,0.44343748688698,1.00746250152588,0.09762500226498,-0.52277499437332,-0.94641250371933,-7.2708625793457,-6.01191234588623,-2.90124988555908,1.02038753032684,8.13257503509521,8.22937488555908,7.66645002365112,8.58591270446777,1.03537499904633,-2.01368737220764,-4.00578737258911,-5.21578741073608,-6.49288749694824,-5.83632516860962,-4.25589990615845,11.0689506530762,-0.10305000841618,-22.0870513916016,-25.4059505462646,-0.6730500459671,15.2149505615234,9.99600028991699,41.028003692627,29.7019519805908,19.0540504455566,11.1960000991821,15.5809507369995,9.15000057220459,4.24095010757446,-5.92005014419556,-9.6040506362915,-20.791051864624,-28.0120506286621,-25.734001159668,-18.5779514312744,-7.69005060195923,-1.81305003166199,29.6059513092041,43.4689521789551,30.1789512634277,21.0060005187988,11.5600509643555,-2.02800011634827,-9.88395023345947,-15.646050453186,0.27600002288818,-0.12600000202656,5.62605047225952,8.65395069122314,-3.11505007743835,-6.36900043487549,-2.01300001144409,3.85605025291443,9.80295085906982,8.0910005569458,-6.91995048522949,1.29105007648468,1.62195003032684,-0.28605002164841,0.97500002384186,SHAKE
0.49555000662804,1.0393625497818,0.11137499660254,-0.2056999951601,1.4693249464035,0.31900000572205,-2.23616242408752,-0.53556251525879,-1.79987502098084,1.2225124835968,1.31078743934631,-0.18658749759197,-0.08126249909401,0.28696250915527,0.03478749841452,-0.04826249927282,-0.70276248455048,-0.87835001945496,-0.2056999951601,0.68296247720718,0.80629998445511,-0.29617500305176,-0.51012498140335,-0.13447499275208,0.49665001034737,0.33274999260902,0.60197502374649,0.4796000123024,-0.08538749814034,-0.47602498531342,-6.5694751739502,-5.96076250076294,-3.86636257171631,0.40961250662804,6.67878723144531,9.1881628036499,8.33689975738525,6.75221252441406,1.30886244773865,-3.03311252593994,-3.73546242713928,-5.76386260986328,-6.28223752975464,-5.90754985809326,-4.00262498855591,9.51705074310303,2.4060001373291,-9.81195068359375,-18.3120002746582,-7.46805047988892,13.5210008621216,29.1199512481689,36.2790031433105,37.0960502624512,12.5320501327515,12.7170009613037,16.1059513092041,15.8230504989624,3.95100021362305,-10.6030502319336,-3.56400012969971,-12.6600008010864,-18.1159515380859,-22.6090507507324,-19.4620513916016,-7.4170503616333,15.6439504623413,33.3810005187988,45.5910034179688,27.3220520019531,22.8499507904053,8.11605072021484,1.42695009708405,-14.4870004653931,-19.4500503540039,2.71200013160706,0.11505000293255,1.14300000667572,5.26905012130737,1.98600006103516,-11.238000869751,7.97295045852661,1.93605005741119,12.4069509506226,3.1230001449585,-2.9800500869751,0.24705001711845,0.76005005836487,1.33695006370544,3.59505009651184,SHAKE
-0.18658749759197,-0.08126249909401,0.28696250915527,0.03478749841452,0.31679999828339,1.25221252441406,-0.31432500481606,-2.20756244659424,-1.35189998149872,-0.85057497024536,1.19363749027252,1.05751252174377,0.88934999704361,0.66261249780655,-0.24089999496937,0.60197502374649,0.4796000123024,-0.08538749814034,-0.47602498531342,0.3242250084877,1.15857493877411,1.6938624382019,0.52002501487732,-0.03973750025034,1.05751252174377,1.11072504520416,0.65738749504089,-0.21422499418259,-0.88247501850128,-0.8729875087738,-5.76386260986328,-6.28223752975464,-5.90754985809326,-4.00262498855591,0.85126250982285,6.6776876449585,9.59681224822998,8.09201240539551,3.66918754577637,-2.91293740272522,-4.01004981994629,-5.55857515335083,-6.88448762893677,-6.33008766174316,-4.04731225967407,16.1059513092041,15.8230504989624,3.95100021362305,-10.6030502319336,-18.3720016479492,-8.74605083465576,13.371000289917,23.5729503631592,49.396053314209,17.6790008544922,12.4270505905151,17.0729999542236,9.0930004119873,2.32695007324219,-12.8470506668091,8.11605072021484,1.42695009708405,-14.4870004653931,-19.4500503540039,-20.1900005340576,-17.2729511260986,-6.62700033187866,19.6480503082275,51.3679542541504,31.687952041626,22.9099502563477,12.8820009231567,-6.60000038146973,-15.9340505599976,-20.0700016021729,0.24705001711845,0.76005005836487,1.33695006370544,3.59505009651184,4.24395036697388,1.24605000019073,-8.69700050354004,6.61305046081543,0.40005001425743,15.493950843811,5.8609504699707,-2.35800004005432,1.15694999694824,0.22305001318455,2.33295011520386,SHAKE
1.05751252174377,0.88934999704361,0.66261249780655,-0.24089999496937,0.27211248874664,1.42890000343323,-0.20460000634193,-2.72896242141724,-2.54911255836487,-0.13969999551773,3.43708753585815,1.32357501983643,1.01598751544952,0.75308752059937,0.09762500226498,0.65738749504089,-0.21422499418259,-0.88247501850128,-0.8729875087738,-0.09721250087023,0.76903748512268,0.86597502231598,0.39022499322891,-0.07906249910593,1.84717500209808,-0.19181250035763,0.27101248502731,-0.89429998397827,-1.57107496261597,-1.81266248226166,-5.55857515335083,-6.88448762893677,-6.33008766174316,-4.04731225967407,1.44498753547668,7.98558759689331,8.97751235961914,8.60928726196289,2.2506000995636,-2.36266255378723,-4.36452484130859,-5.72989988327026,-6.5726375579834,-6.07681226730347,-3.98241257667542,17.0729999542236,9.0930004119873,2.32695007324219,-12.8470506668091,-22.5079517364502,-2.81400012969971,14.7240009307861,23.0370006561279,46.7760009765625,11.392050743103,13.945050239563,10.2259502410889,9.35205078125,2.74905014038086,-11.9340009689331,12.8820009231567,-6.60000038146973,-15.9340505599976,-20.0700016021729,-20.5129508972168,-16.4010009765625,-2.64600014686584,22.2559509277344,45.5689506530762,28.0519504547119,18.6610507965088,8.03205013275146,-4.77105045318604,-14.5930509567261,-19.8900012969971,-2.35800004005432,1.15694999694824,0.22305001318455,2.33295011520386,6.07905006408691,-0.03900000080466,-8.0149507522583,3.71295022964478,11.2399501800537,19.0339508056641,-1.75905013084412,-1.40505003929138,0.49395000934601,1.25100004673004,4.92495012283325,SHAKE
1.01598751544952,0.75308752059937,0.09762500226498,0.55838751792908,1.91413748264313,1.81417500972748,-0.08126249909401,-2.34588742256165,-3.62078738212585,0.88618749380112,2.55695009231567,1.34901249408722,1.45337498188019,0.35928750038147,0.39558750391006,-0.89429998397827,-1.57107496261597,-1.81266248226166,-0.0599500015378,1.0202499628067,1.0925749540329,0.6679750084877,1.17356252670288,0.66371250152588,0.85428750514984,0.7041375041008,1.12887501716614,-0.89952498674393,-1.19006252288818,-0.74744999408722,-6.5726375579834,-6.07681226730347,-3.98241257667542,2.30064988136292,8.37512493133545,8.81897449493408,7.07781267166138,7.73451232910156,4.47590017318726,-3.53443741798401,-4.66771268844604,-6.0054497718811,-6.98458766937256,-5.88101243972778,0.2563000023365,9.35205078125,2.74905014038086,-11.9340009689331,-22.7839508056641,1.51995003223419,13.4659509658813,5.28000020980835,36.9660034179688,47.8300514221191,16.5580501556396,15.1909503936768,16.3279514312744,7.85700035095215,-10.7250003814697,-26.3640003204346,-4.77105045318604,-14.5930509567261,-19.8900012969971,-19.4640007019043,-14.7289505004883,-7.91805028915405,7.53600025177002,34.0180511474609,45.2700004577637,24.117000579834,17.1949501037598,6.97800016403198,-12.0319509506226,-25.3170013427734,-25.9429512023926,0.49395000934601,1.25100004673004,4.92495012283325,8.96295070648193,-0.03495000302792,-4.77000045776367,-8.35500049591064,-5.19795036315918,-3.36105012893677,15.2160005569458,2.12700009346008,-1.46895003318787,-0.44700002670288,0.3120000064373,8.40405082702637,SHAKE
2.55695009231567,1.34901249408722,1.45337498188019,0.35928750038147,0.39558750391006,2.16108751296997,1.12763750553131,-1.22099995613098,-3.09182500839233,-0.99852502346039,2.78465008735657,-0.1717374920845,-0.55481249094009,0.42212501168251,0.06558749824762,0.7041375041008,1.12887501716614,-0.89952498674393,-1.19006252288818,-0.74744999408722,0.74360001087189,0.57323747873306,0.52648746967316,0.04551250115037,0.64776247739792,0.59028750658035,0.33495000004768,-0.00343749998137,-0.7930999994278,-0.89952498674393,-4.66771268844604,-6.0054497718811,-6.98458766937256,-5.88101243972778,0.2563000023365,7.60787487030029,7.15453767776489,6.64578723907471,3.17762494087219,-3.48012495040894,-5.32757520675659,-7.43476247787476,-8.13917541503906,-6.6599497795105,-3.09168744087219,15.1909503936768,16.3279514312744,7.85700035095215,-10.7250003814697,-26.3640003204346,-1.66395008563995,14.7139511108398,14.7880506515503,40.0849533081055,14.439001083374,14.4940509796143,19.360050201416,10.5919504165649,2.15895009040833,-18.9660015106201,17.1949501037598,6.97800016403198,-12.0319509506226,-25.3170013427734,-25.9429512023926,-18.3120002746582,0.2119500041008,26.5720520019531,53.0350532531738,34.7269515991211,20.0119514465332,6.30300045013428,-10.9999504089355,-22.8600006103516,-28.0930519104004,2.12700009346008,-1.46895003318787,-0.44700002670288,0.3120000064373,8.40405082702637,-0.27405002713203,-11.0209503173828,-3.94605016708374,4.45005035400391,20.7460517883301,-4.29300022125244,-5.89005041122437,1.97100007534027,0.56805002689362,5.34795045852661,SHAKE
-0.1717374920845,-0.55481249094009,0.42212501168251,0.06558749824762,1.03826248645782,1.06700003147125,0.14973749220371,0.2050125002861,-1.23378753662109,-2.55447506904602,1.77044999599457,0.66261249780655,0.06668750196695,0.82445001602173,0.21779999136925,0.33495000004768,-0.00343749998137,-0.7930999994278,-0.89952498674393,0.05719999969006,1.02877497673035,0.42542499303818,0.16994999349117,0.03162499889731,0.8095999956131,0.94792497158051,1.00003755092621,0.64143747091293,-0.34718748927116,-0.91657501459122,-7.43476247787476,-8.13917541503906,-6.6599497795105,-3.09168744087219,4.56417512893677,9.12216281890869,8.6263370513916,8.31022453308105,4.81318759918213,-0.0054999999702,-5.18278741836548,-6.01397514343262,-7.87737512588501,-7.84973764419556,-5.61811256408691,19.360050201416,10.5919504165649,2.15895009040833,-18.9660015106201,-18.1800003051758,5.33295011520386,13.1910009384155,20.1940517425537,39.117000579834,32.0329513549805,12.0030002593994,19.3870506286621,16.0770015716553,8.31195068359375,-0.53400003910065,6.30300045013428,-10.9999504089355,-22.8600006103516,-28.0930519104004,-24.201000213623,-16.3650016784668,-5.72100019454956,15.0930004119873,46.0909538269043,46.8630027770996,25.0030517578125,15.4210510253906,-1.5900000333786,-14.4630002975464,-21.3270015716553,-5.89005041122437,1.97100007534027,0.56805002689362,5.34795045852661,4.72605037689209,-3.54300022125244,-3.08805012702942,-2.81805014610291,-3.66495013237,17.3380508422852,5.8609504699707,-7.5120005607605,0.46305000782013,-1.58205008506775,0.47205001115799,SHAKE
-0.20460000634193,-0.1515250056982,0.88934999704361,1.06273746490479,-0.69519996643066,0.78182500600815,1.41075003147125,-0.67498749494553,-3.45578742027283,0.3753750026226,1.95676243305206,-0.39091250300407,0.09432499855757,-0.55054998397827,-0.89319998025894,-0.39613750576973,-0.55371248722076,-0.25464999675751,1.08735001087189,0.74360001087189,-0.63456249237061,-0.29617500305176,0.44879999756813,0.34017500281334,0.39448750019073,0.35612499713898,0.39765000343323,-0.51108747720718,-0.93788748979568,-0.02158750034869,-7.89442491531372,-6.5344123840332,-0.24062499403954,7.41839981079102,8.61987495422363,7.8292498588562,8.14316272735596,6.74162483215332,1.03633749485016,-4.41773748397827,-5.25621223449707,-8.06575012207031,-8.04127502441406,-6.44077491760254,-2.93094992637634,12.0870008468628,3.53700017929077,-27.1069507598877,-5.34600019454956,12.1320009231567,10.0750503540039,28.3609504699707,40.0990524291992,34.3390502929688,13.85205078125,15.2599506378174,17.4130516052246,12.1440010070801,2.28194999694824,-22.7209510803223,-11.6110506057739,-22.3690509796143,-28.9150505065918,-20.0940017700195,-11.4649505615234,-4.45005035400391,23.6190013885498,42.1830024719238,52.1149520874023,30.8230514526367,25.7170505523682,1.47000002861023,-12.7009506225586,-23.2069511413574,-28.9909515380859,0.35205000638962,3.78000020980835,7.83900022506714,-2.41800022125244,-2.88705015182495,1.32195007801056,-11.6940002441406,-14.7640504837036,9.5710506439209,12.0690002441406,-1.2150000333786,-2.5969500541687,-2.19000005722046,0.69495004415512,9.76200008392334,SHAKE
0.09432499855757,-0.55054998397827,-0.89319998025894,1.30542504787445,1.18621253967285,0.81798750162125,1.39699995517731,-0.14300000667572,-2.24262499809265,-0.66439998149872,0.11673749983311,-0.96552497148514,0.18479999899864,0.04441250115633,-0.58038747310638,-0.51108747720718,-0.93788748979568,-0.02158750034869,0.5626500248909,1.1032999753952,0.40617498755455,-0.174899995327,0.48702499270439,0.27527499198914,0.1104125007987,0.25080001354218,0.59455001354218,-0.1205874979496,-0.46543750166893,-0.55907499790192,-8.04127502441406,-6.44077491760254,-2.93094992637634,4.40563726425171,8.00263786315918,7.99411249160767,7.85798740386963,6.91927480697632,1.35781252384186,-3.39501237869263,-4.72092485427856,-6.88338756561279,-7.3995623588562,-6.69185018539429,-4.5751748085022,12.1440010070801,2.28194999694824,-22.7209510803223,-16.863000869751,2.7679500579834,9.66105079650879,15.0730504989624,37.4599533081055,34.162052154541,16.0819511413574,16.6470012664795,15.8419504165649,11.3680505752563,3.52005004882813,-5.79300022125244,-12.7009506225586,-23.2069511413574,-28.9909515380859,-22.3999519348145,-14.5540504455566,-8.7679500579834,2.72505021095276,36.3889503479004,49.0759506225586,30.5569515228271,22.1340007781982,7.35000038146973,-6.10500049591064,-13.6180505752563,-19.2510013580322,-2.19000005722046,0.69495004415512,9.76200008392334,5.47995042800903,-3.29205012321472,-1.96995007991791,-6.42000007629395,-8.26605033874512,-0.75300002098083,8.77605056762695,-6.68295049667358,0.29295000433922,-1.1050500869751,-0.35505002737045,2.35695004463196,SHAKE
0.04441250115633,-0.58038747310638,-0.53982502222061,1.19377493858337,1.98440003395081,0.97982501983643,0.40411248803139,-0.10999999940395,-2.12561249732971,-1.3252249956131,0.44453749060631,-0.7537750005722,-0.26427498459816,0.50833749771118,-0.63566249608994,-0.46543750166893,-0.55907499790192,0.10188750177622,0.64459997415543,0.52758747339249,0.26675000786781,0.38389998674393,0.36465001106262,0.60417497158051,0.91918748617172,0.66481250524521,0.97446250915527,0.74992501735687,-0.14506250619888,-0.53886252641678,-6.69185018539429,-4.5751748085022,-1.00154995918274,5.03359985351563,7.75582504272461,8.05378723144531,8.21975040435791,7.70687484741211,1.84305000305176,-3.56949996948242,-4.42722511291504,-7.29423761367798,-7.85619974136353,-6.27797508239746,-4.39422512054443,3.52005004882813,-5.79300022125244,-21.1140003204346,-13.2589502334595,2.45400023460388,9.9790506362915,20.6389503479004,36.0510025024414,43.6840515136719,14.4580507278442,10.6309509277344,16.6609516143799,12.1009502410889,3.16800022125244,-9.61605072021484,-13.6180505752563,-19.2510013580322,-23.1910514831543,-19.10205078125,-14.4679508209229,-7.75995016098022,11.8159503936768,31.5439510345459,53.7510032653809,30.820951461792,24.6750011444092,5.41395044326782,-3.22305011749268,-14.5039510726929,-21.7660503387451,-0.35505002737045,2.35695004463196,7.27395057678223,4.43400001525879,-4.81500005722046,-4.35300016403198,-5.94300031661987,-4.96605014801025,-0.26895001530647,11.7859506607056,4.17495012283325,-1.53600001335144,0.45795002579689,-2.41305017471313,1.5330001115799,SHAKE
-0.26427498459816,0.50833749771118,-0.63566249608994,-0.20363749563694,1.05215001106262,0.98931246995926,1.14894998073578,-0.35585001111031,-1.69344997406006,-1.45942497253418,1.15225005149841,0.35516250133514,-0.26317501068115,-0.03327500075102,-0.5654000043869,0.74992501735687,-0.14506250619888,-0.53886252641678,0.37427499890327,0.7041375041008,0.65944999456406,-0.16843749582767,0.39765000343323,0.17627499997616,0.57227498292923,0.29122498631477,0.31569999456406,0.18163749575615,-0.36217498779297,-0.64625000953674,-7.85619974136353,-6.27797508239746,-4.39422512054443,0.45526251196861,6.11586236953735,8.04416275024414,7.67483758926392,8.30060005187988,3.7872998714447,-1.82737493515015,-4.93707513809204,-6.19492483139038,-7.52303743362427,-6.73021268844604,-4.65822505950928,12.1009502410889,3.16800022125244,-9.61605072021484,-23.3509502410889,-7.90800046920776,5.32305002212524,9.8500509262085,25.9660511016846,44.60400390625,28.7179508209229,12.457950592041,16.326000213623,12.3550510406494,3.80700016021729,-3.89205026626587,-3.22305011749268,-14.5039510726929,-21.7660503387451,-22.1580009460449,-16.9879512786865,-11.731050491333,-4.54995012283325,19.3219509124756,48.8580017089844,38.8060531616211,21.6529502868652,12.2140502929688,-2.56005001068115,-12.5500507354736,-19.4070014953613,0.45795002579689,-2.41305017471313,1.5330001115799,7.47000026702881,1.28400003910065,-2.58795022964478,-4.59000015258789,-6.82005023956299,-0.65205001831055,9.91095066070557,-0.01995000056922,-4.546950340271,-1.63395011425018,-0.36705002188683,0.46695002913475,SHAKE
-0.03327500075102,-0.5654000043869,-0.51644998788834,1.71517503261566,1.70665001869202,0.53707498311996,-0.94325000047684,-0.63139998912811,0.27637499570847,-0.90488749742508,0.43807500600815,-0.26743748784065,0.06462500244379,-0.91135001182556,0.11673749983311,-0.36217498779297,-0.64625000953674,-0.34196248650551,0.09968750178814,0.74456250667572,0.36465001106262,-0.48454999923706,-0.69203752279282,-1.04114997386932,0.5350124835968,0.42212501168251,1.15005004405975,0.38596248626709,0.10711249709129,-0.63346248865128,-6.73021268844604,-4.65822505950928,-1.64862501621246,5.34531259536743,9.05203723907471,8.33580017089844,7.42376232147217,6.24030017852783,4.12046241760254,-2.81710004806519,-3.20980000495911,-4.97956228256226,-7.22397518157959,-6.96643733978271,-5.71395015716553,3.80700016021729,-3.89205026626587,-21.4639511108398,-16.6399517059326,10.5640506744385,16.957950592041,11.1580505371094,36.2959518432617,35.7469520568848,10.3380002975464,8.6089506149292,19.6480503082275,12.5659503936768,8.17605018615723,0.69105005264282,-12.5500507354736,-19.4070014953613,-25.85205078125,-22.4119510650635,-13.7760009765625,-7.47900056838989,3.64395022392273,32.9089508056641,45.058952331543,28.9429512023926,25.4680519104004,20.5530014038086,0.65805006027222,-9.25395011901855,-18.2710514068604,-0.36705002188683,0.46695002913475,7.7839503288269,4.59405040740967,-7.67505025863647,-9.87105083465576,-1.05000007152557,3.8490002155304,0.73995006084442,10.0590000152588,3.23100018501282,-2.32695007324219,-4.675950050354,0.30495002865791,2.69700002670288,SHAKE
-0.91135001182556,0.11673749983311,0.30401250720024,0.89677500724792,0.73603749275208,1.23420000076294,1.78750002384186,-0.63139998912811,-2.23203754425049,-1.01557505130768,-0.0844250023365,-0.46007499098778,0.45306250452995,-0.19827499985695,-0.22274999320507,0.10711249709129,-0.63346248865128,-0.72503751516342,0.53817498683929,1.23420000076294,-0.09295000135899,-0.24928750097752,0.36465001106262,-0.12691250443459,-0.05568749830127,0.51370000839233,0.82445001602173,0.11137499660254,0.06036249920726,-0.30676248669624,-6.96643733978271,-5.71395015716553,-3.01826238632202,3.59369993209839,7.90693759918213,6.98211240768433,7.54077482223511,6.32445001602173,2.57097506523132,-3.8344624042511,-3.9675624370575,-6.37367486953735,-6.78975009918213,-6.8642749786377,-4.71996259689331,8.17605018615723,0.69105005264282,-18.5830516815186,-19.6489505767822,5.02395009994507,8.88495063781738,12.7810506820679,30.2869510650635,41.8900527954102,8.04900074005127,17.5740013122559,12.6070508956909,14.5369510650635,5.46705007553101,-3.71700024604797,-9.25395011901855,-18.2710514068604,-25.7509517669678,-22.185001373291,-13.5529508590698,-5.49600028991699,5.44095039367676,32.9519996643066,51.1879539489746,28.6699504852295,22.6560001373291,8.50395011901855,-0.84300005435944,-12.4009504318237,-16.8820514678955,0.30495002865791,2.69700002670288,5.65500020980835,4.74495029449463,-2.5729501247406,-1.82100009918213,-7.55700016021729,-11.1090002059937,3.85905027389526,7.73895025253296,-1.69695007801056,0.75705003738403,-1.70895004272461,0.06495000422001,3.67005014419556,SHAKE
1.40442502498627,0.36465001106262,-0.55907499790192,-0.27912500500679,0.97240000963211,1.01172494888306,0.54559999704361,0.65738749504089,-1.20614993572235,-2.07130002975464,-0.35681250691414,-0.2727999985218,-0.51644998788834,0.42528748512268,0.20074999332428,-0.27376249432564,-0.57282501459122,0.0114124994725,0.02089999988675,0.21779999136925,0.29658749699593,0.10188750177622,-0.18754999339581,-0.00453749997541,0.43285000324249,-0.02804999984801,0.84672498703003,0.96277499198914,0.35296249389648,-0.59950000047684,-7.16017484664917,-4.88482475280762,-2.23712491989136,0.77673751115799,4.96856260299683,6.37972497940063,7.5014500617981,8.01226234436035,4.14603757858276,-0.38857498764992,-3.74302506446838,-4.72848749160767,-5.83728742599487,-7.28791236877441,-6.73763751983643,3.10305023193359,-4.68000030517578,-9.57300090789795,-16.6020011901855,-9.07695007324219,-3.00105023384094,6.32205009460449,19.9950008392334,42.8599510192871,24.2419509887695,10.3380002975464,15.8569507598877,17.3269500732422,11.9020509719849,1.1869500875473,-9.89400005340576,-12.1140003204346,-13.5799503326416,-14.5350008010864,-12.4129505157471,-11.5200004577637,-8.38005065917969,15.0420007705688,43.4140510559082,38.7529525756836,23.8060512542725,17.2510509490967,11.6320505142212,-0.8359500169754,-12.3580503463745,-0.67395001649857,-0.32400000095367,1.21200001239777,5.38395023345947,1.44705009460449,-0.90195006132126,-1.47405004501343,-4.40505027770996,-5.54100036621094,7.65705013275146,4.45500040054321,-2.12100005149841,-0.19005000591278,0.48405003547668,0.67095005512238,SHAKE
0.20074999332428,-0.51438748836517,-0.57282501459122,0.36574998497963,0.69464999437332,0.36684998869896,0.33701249957085,-0.79640001058578,-4.8775372505188,-3.00244998931885,2.64426255226135,0.46254998445511,-0.69423747062683,-0.21422499418259,0.58712500333786,-0.59950000047684,-0.20679999887943,0.58712500333786,0.72544997930527,0.87972497940063,0.55632501840591,0.09336250275373,0.70523750782013,0.64240002632141,0.81908750534058,-0.345124989748,0.12526249885559,0.60843747854233,0.22852499783039,-0.08112499862909,-6.73763751983643,-4.06436252593994,-0.47698751091957,3.87997508049011,6.90222501754761,7.92068767547607,8.23253726959229,8.80825042724609,1.8356249332428,-0.74511247873306,-3.00973749160767,-4.4655876159668,-4.66028738021851,-6.19492483139038,-6.4141001701355,1.1869500875473,-9.09600067138672,-16.8030014038086,-14.1469507217407,-2.81895017623901,6.58305025100708,11.3590507507324,38.1420021057129,39.9000015258789,20.8000507354736,14.4079504013062,8.66895008087158,12.5440502166748,9.70905017852783,6.80295038223267,-12.3580503463745,-15.1750507354736,-16.4299507141113,-13.7329502105713,-11.2540502548218,-9.03404998779297,-1.40295004844666,24.1150512695313,38.2620010375977,34.044002532959,22.8670501708984,15.646050453186,13.3279504776001,5.11005020141602,-1.91295003890991,0.67095005512238,3.07800006866455,5.1259503364563,3.57105016708374,-0.72705000638962,-2.07795000076294,-1.28505003452301,-10.0030508041382,13.8910503387451,26.6089515686035,1.54005002975464,-4.36995029449463,-0.77505004405975,4.51695013046265,2.0789999961853,SHAKE
0.52222502231598,0.64776247739792,0.12306249886751,-0.05142499879003,0.77549999952316,1.05861246585846,0.72971248626709,0.31790000200272,-2.73006248474121,-1.4753749370575,1.53738749027252,-0.3632749915123,-0.0173249989748,0.6540874838829,0.54133749008179,-0.04289999976754,-0.22591249644756,0.52538752555847,0.57969999313354,0.68392497301102,0.36891248822212,0.3284874856472,0.81812500953674,0.1870000064373,0.7957124710083,-0.26317501068115,0.50833749771118,0.2954874932766,-0.13653749227524,-0.83146250247955,-6.09812498092651,-3.30027508735657,-0.37908750772476,2.17195010185242,5.24314975738525,6.91501235961914,7.12786245346069,7.40891265869141,2.20274996757507,-2.53508758544922,-4.24104976654053,-5.61178731918335,-6.47693729400635,-6.18956232070923,-4.63374996185303,-1.87995004653931,-8.11395072937012,-9.31695079803467,-12.2190008163452,-6.74895048141479,3.54600024223328,5.94795036315918,13.9170007705688,35.0190010070801,13.6480503082275,11.5189504623413,11.4709501266479,8.44200038909912,3.61995005607605,-2.44305014610291,-7.84095048904419,-9.2160005569458,-9.4480504989624,-10.032000541687,-9.6709508895874,-7.00500011444092,-3.38895010948181,15.2320508956909,43.8310508728027,29.3310012817383,19.4710502624512,9.96000003814697,0.87795001268387,-6.35595035552979,-11.5390501022339,3.68595027923584,3.1230001449585,1.59495007991791,2.78295016288757,1.77495002746582,-2.78595018386841,-2.65695023536682,-3.50505018234253,-3.11700010299683,14.1360006332397,-1.44000005722046,-1.21305000782013,2.70405006408691,1.02795004844666,0.38595002889633,SHAKE
0.6540874838829,0.54133749008179,0.21670000255108,-0.08648750185966,0.87656247615814,0.38170000910759,-0.1727000027895,-0.3770250082016,-2.12135004997253,-0.76340001821518,2.11640000343323,-0.85483747720718,0.02199999988079,0.6679750084877,0.16458749771118,-0.13653749227524,-0.83146250247955,-0.74634999036789,-0.40259999036789,0.66371250152588,1.11924993991852,0.03368749842048,0.33701249957085,0.6434999704361,0.9872499704361,-0.24832500517368,0.87449997663498,0.4988499879837,-0.15358750522137,-0.57598751783371,-6.18956232070923,-4.63374996185303,-3.54186248779297,-0.74827498197556,6.73516225814819,9.37337493896484,9.1360502243042,8.789137840271,2.314537525177,-1.644362449646,-3.68444991111755,-5.7106499671936,-7.39213752746582,-7.6337251663208,-7.0856499671936,3.61995005607605,-2.44305014610291,-6.23400020599365,-16.0660514831543,-8.56005001068115,7.78995037078857,16.9099502563477,36.4510536193848,41.4859504699707,16.7140502929688,13.6270503997803,18.295051574707,13.1209506988525,11.3590507507324,2.30295014381409,-6.35595035552979,-11.5390501022339,-13.1269502639771,-16.8370513916016,-15.9940509796143,-13.3350009918213,-2.93400025367737,23.2450504302979,39.7009506225586,28.7299518585205,22.1839504241943,14.8579511642456,2.70600008964539,-2.55495023727417,-10.91100025177,1.02795004844666,0.38595002889633,0.99900007247925,4.05000019073486,2.4580500125885,-2.92095017433167,-1.16700005531311,-2.49705004692078,1.13295006752014,16.5120010375977,-5.08995008468628,-0.33195000886917,2.97300004959106,0.59895002841949,-0.82305002212524,SHAKE
0.6679750084877,0.16458749771118,-0.28448748588562,0.85318750143051,1.60558748245239,1.31505000591278,1.16709995269775,0.80203747749329,-1.01241254806519,-1.32096254825592,-0.75061249732971,-0.26207500696182,-0.41648748517036,-0.48991250991821,-0.49101248383522,-0.15358750522137,-0.57598751783371,-0.49733749032021,-0.02268750034273,0.48606249690056,0.61159998178482,0.10711249709129,0.10504999756813,-0.16417500376701,0.11137499660254,0.02419999986887,0.31363749504089,0.49665001034737,0.52964997291565,0.44563749432564,-7.6337251663208,-7.0856499671936,-3.67482495307922,0.6766374707222,5.56558752059937,6.75537490844727,6.68621253967285,7.0054874420166,4.44083738327026,0.67979997396469,-2.98099994659424,-3.65571236610413,-5.64795017242432,-6.14487504959106,-6.78658723831177,11.3590507507324,2.30295014381409,-10.3080005645752,-20.4490509033203,-7.12305021286011,5.44995021820068,5.95605039596558,16.7359504699707,35.4430503845215,25.1040019989014,9.96495056152344,13.0500001907349,11.6220006942749,11.7130508422852,6.43695020675659,-2.55495023727417,-10.91100025177,-17.814001083374,-16.465950012207,-11.9320507049561,-7.12305021286011,-1.81995010375977,13.5550508499146,34.7220001220703,36.7770004272461,23.976001739502,20.0119514465332,10.8199501037598,2.64105010032654,-7.34295034408569,0.59895002841949,-0.82305002212524,5.09505033493042,5.58105039596558,0.4909500181675,-2.65695023536682,-3.74400019645691,-2.7940502166748,-9.26700019836426,4.64205026626587,3.06105017662048,-1.09605002403259,0.13695000112057,-0.81795001029968,1.64805006980896,SHAKE
-0.05458749830723,0.18163749575615,-0.2578125,-0.32284998893738,0.25726249814034,1.30336248874664,1.14798748493195,0.30195000767708,-2.98966240882874,-1.93819999694824,1.17452502250671,0.23704999685287,1.04678750038147,1.19693744182587,-0.46007499098778,0.21257500350475,-0.31432500481606,0.12952500581741,0.1199000030756,-0.12594999372959,0.04441250115633,0.44233748316765,-0.13763749599457,-0.63249999284744,1.01488745212555,0.56471252441406,0.95851248502731,0.37963750958443,-0.54628747701645,-0.51012498140335,-5.52653741836548,-4.0537748336792,-1.122962474823,2.39538741111755,4.55991268157959,7.86431264877319,7.94736242294312,5.46342515945435,1.2971750497818,-3.58338737487793,-4.35173749923706,-6.37367486953735,-8.08500003814697,-6.53867483139038,-3.01289987564087,-4.93800020217896,-8.05905055999756,-12.118950843811,-15.5359506607056,-11.2900505065918,6.37905025482178,12.2760009765625,15.2910003662109,33.9439506530762,9.47895050048828,10.792950630188,13.3800010681152,6.72405052185059,-4.84500026702881,-8.62905025482178,-12.5449504852295,-12.8830509185791,-13.4359502792358,-12.5779504776001,-11.8099508285522,-7.7160005569458,-0.28500002622604,20.3980503082275,47.1670532226563,24.8020515441895,19.2480010986328,8.0110502243042,-6.30300045013428,-13.5679502487183,-16.1059513092041,1.68195009231567,1.42995011806488,0.44295001029968,3.44895005226135,3.48795008659363,-0.31005001068115,-2.82000017166138,-3.28200006484985,0.63300001621246,17.5849514007568,0.05805000290275,1.07100009918213,0.79095005989075,-2.75505018234253,-0.65505003929138,SHAKE
1.04678750038147,1.19693744182587,-0.46007499098778,-0.75487500429153,1.17342495918274,2.2760374546051,1.535325050354,0.31886249780655,-0.59839999675751,-2.06071257591248,-0.62507498264313,-0.31748750805855,-0.90062499046326,-0.59413748979568,-1.02203750610352,0.37963750958443,-0.54628747701645,-0.51012498140335,-0.30469998717308,-0.13021250069141,0.45306250452995,0.60527497529984,0.21037499606609,-0.18342499434948,-0.13653749227524,0.35296249389648,0.40301248431206,0.71692502498627,-0.09184999763966,0.28380000591278,-8.08500003814697,-6.53867483139038,-3.01289987564087,0.68516248464584,4.5738000869751,6.004075050354,6.49041223526001,5.72742509841919,4.24283742904663,-0.92070001363754,-3.42374992370605,-4.61133766174316,-5.60752487182617,-5.39467477798462,-4.88702487945557,6.72405052185059,-4.84500026702881,-8.62905025482178,-13.5439510345459,-5.77200031280518,3.90495014190674,5.25105047225952,13.9789505004883,19.1980514526367,18.5269508361816,0.96000003814697,8.61600017547607,5.33295011520386,6.48000049591064,-2.85495018959045,-6.30300045013428,-13.5679502487183,-16.1059513092041,-15.553050994873,-11.1169509887695,-5.38905048370361,2.71305012702942,22.0290012359619,40.9780502319336,40.2240028381348,21.3840007781982,16.7050514221191,5.32095003128052,-1.71705007553101,-11.4240007400513,0.79095005989075,-2.75505018234253,-0.65505003929138,5.27400016784668,4.97505044937134,-1.79505014419556,-5.34705018997192,-2.97105002403259,-8.67795085906982,6.22305011749268,3.82995009422302,-1.78305006027222,-1.41195011138916,-1.51005005836487,0.46305000782013,SHAKE
-1.02203750610352,-0.44522500038147,0.55948752164841,1.9354499578476,2.12698745727539,1.34268748760223,1.10220003128052,1.25757503509521,-2.63958740234375,-0.33453750610352,0.14231249690056,-0.2056999951601,-0.16101250052452,0.16348749399185,-0.33660000562668,0.28380000591278,-0.66646248102188,0.08263749629259,0.40411248803139,0.8095999956131,1.08624994754791,0.8595125079155,1.23942494392395,0.62865000963211,0.68076246976852,0.84892499446869,0.30305001139641,-0.28558748960495,-0.65793746709824,-0.59729999303818,-4.88702487945557,-2.28497505187988,1.46519994735718,5.4038872718811,6.17966270446777,6.61182498931885,5.75616264343262,4.98465013504028,-0.82389998435974,-3.65035009384155,-4.80823755264282,-5.85970020294189,-6.90689992904663,-5.32551240921021,-2.83098745346069,-2.85495018959045,-8.22900009155273,-16.7629508972168,-2.74005007743835,4.64805030822754,8.94900035858154,15.3559503555298,15.5020503997803,16.8649501800537,4.27395009994507,11.377950668335,13.2000007629395,6.43695020675659,-2.85705018043518,-10.7680501937866,-11.4240007400513,-16.2330017089844,-16.3630504608154,-11.2180509567261,-5.95095014572144,3.20100021362305,22.006950378418,33.1920013427734,39.5670013427734,21.5190010070801,15.2530508041382,6.2790002822876,-7.22295045852661,-12.4990501403809,-16.0870513916016,0.46305000782013,2.81895017623901,5.87505006790161,1.57605004310608,-1.80900013446808,-3.32805013656616,-1.70895004272461,-4.5799503326416,2.71605014801025,3.9190502166748,-2.41995000839233,-1.06905007362366,1.19505000114441,1.14300000667572,2.43105006217957,SHAKE
1.35973751544952,1.44484996795654,0.29012501239777,-0.85387498140335,-0.9315624833107,0.04221250116825,0.67223751544952,-0.76656252145767,-1.26568746566772,-1.17411243915558,1.82586252689362,0.18479999899864,-0.05678749829531,0.97982501983643,1.27668750286102,0.01251249946654,-0.54834997653961,-0.80272501707077,-0.47602498531342,-0.2088624984026,-0.83036249876022,-0.77192497253418,0.2743124961853,0.27527499198914,0.2880625128746,0.46901249885559,0.4796000123024,0.10821250081062,-0.55907499790192,-0.64308750629425,-5.90864992141724,-3.11299991607666,-0.08098749816418,2.48586249351501,4.32162475585938,8.14522457122803,8.44964981079102,8.17396259307861,3.37122488021851,-0.84617501497269,-3.97498750686646,-4.26868724822998,-5.01902484893799,-5.22224998474121,-5.4478874206543,-5.09895038604736,-8.86905002593994,-7.12695026397705,-10.7029504776001,-10.0810508728027,5.23200035095215,14.6850004196167,23.5609512329102,38.5920028686523,21.8269519805908,6.5110502243042,9.1360502243042,7.70205020904541,7.47195053100586,3.4459502696991,-7.63695049285889,-9.04800033569336,-9.3589506149292,-11.275050163269,-11.7160501480103,-9.77400016784668,0.46395000815392,18.6799507141113,39.3949508666992,33.2209510803223,18.3090000152588,13.1550006866455,7.35195016860962,3.33795022964478,-1.73100006580353,1.42995011806488,-0.57105004787445,0.19200000166893,3.02295017242432,4.41405010223389,1.04505002498627,-1.21995007991791,-1.56000006198883,-4.23495006561279,17.5440006256104,-0.57300001382828,-2.68605017662048,2.956050157547,3.10695004463196,2.55105018615723,SHAKE
1.27668750286102,1.09051251411438,0.58602499961853,0.38706248998642,0.36891248822212,0.48922500014305,0.38596248626709,0.15289999544621,-0.5878124833107,-0.20047499239445,0.65738749504089,1.59060001373291,0.46158748865128,-0.13337500393391,-0.28984999656677,-0.64308750629425,-0.27376249432564,-0.17696249485016,-0.30250000953674,0.42748749256134,0.26675000786781,0.83929997682571,0.45732501149178,0.67869997024536,0.8595125079155,0.81592500209808,-0.06201250106096,-0.4643374979496,-1.2751749753952,-1.68492496013641,-5.4478874206543,-4.34004974365234,-2.01574993133545,0.51810002326965,3.4435498714447,5.98606252670288,7.24171257019043,7.35143756866455,4.34073734283447,-0.28751251101494,-2.60424995422363,-3.51422500610352,-4.28779983520508,-4.4389123916626,-4.08883762359619,3.4459502696991,-3.9060001373291,-7.86300039291382,-9.92700004577637,-9.44099998474121,-1.95405006408691,5.84295034408569,17.6119499206543,39.2770500183105,19.252950668335,7.46700048446655,4.79400014877319,6.01800012588501,4.04700040817261,5.34195041656494,-1.73100006580353,-5.97795009613037,-7.75500059127808,-7.98705053329468,-8.19600009918213,-8.01600074768066,-4.44495010375977,11.5380001068115,38.7910499572754,33.8119506835938,20.3040008544922,14.7810010910034,10.4920501708984,6.51795053482056,3.73305010795593,2.55105018615723,1.3819500207901,0.8770500421524,2.26395010948181,1.83705008029938,0.97500002384186,-1.46700012683868,-2.37705016136169,-3.40905022621155,0.45300000905991,-0.46305000782013,-6.27405023574829,-4.60395002365112,-0.06105000153184,0.60405004024506,SHAKE
-0.80698752403259,-0.94008749723434,-0.7431874871254,-0.49513748288155,0.19978749752045,0.19552500545979,0.45306250452995,0.2411749958992,-1.94466245174408,-0.1876875013113,1.73332500457764,-0.55054998397827,-0.91451251506805,1.17452502250671,1.60668754577637,-1.41789996623993,-1.05173754692078,-0.77508747577667,-0.76120001077652,-0.71445000171661,0.4838624894619,-0.28338751196861,-0.59207499027252,0.64776247739792,0.77660000324249,0.37427499890327,1.29910004138947,1.54701244831085,0.45196250081062,0.08373750001192,-3.88561248779297,-3.13527488708496,-2.01891255378723,0.44041249155998,5.83811235427856,8.81567478179932,8.77951240539551,6.48518753051758,1.84414994716644,-2.35743737220764,-4.18357515335083,-6.00764989852905,-7.48797512054443,-6.32362508773804,-5.39893770217896,2.92605018615723,-0.88800007104874,-6.23400020599365,-17.1769504547119,-10.2430505752563,6.1230001449585,14.8000507354736,27.1249504089355,31.1539516448975,15.1360511779785,12.7669506072998,16.0099506378174,4.46100044250488,3.71400022506714,-1.27605009078979,-0.30600002408028,-4.0570502281189,-7.98495054244995,-13.0330505371094,-13.3780508041382,-7.82205057144165,2.07795000076294,28.0740013122559,42.8029518127441,29.1630020141602,20.6830501556396,11.9940004348755,-0.99405002593994,-7.37205028533936,-11.9680509567261,1.87095010280609,3.13095021247864,2.42400002479553,2.27100014686584,2.19405007362366,-0.72000002861023,-3.45000004768372,-2.49195003509521,8.06895065307617,11.9110507965088,-1.02795004844666,-3.12195014953613,3.84405016899109,2.50800013542175,-0.40305000543594,SHAKE
1.17452502250671,1.60668754577637,0.74676251411438,-0.02694999985397,-0.0386375002563,-0.56430000066757,-1.28796243667603,-1.11883747577667,-0.81344997882843,-0.44522500038147,0.16252499818802,0.49348750710487,-0.12594999372959,1.25014996528625,1.59912502765656,0.45196250081062,0.08373750001192,0.47533750534058,0.96071249246597,0.29452499747276,0.79681247472763,0.27004998922348,0.2743124961853,0.55412501096725,0.68076246976852,0.21573749184608,-0.21532499790192,0.14973749220371,-0.18232500553131,-0.40686249732971,-6.32362508773804,-5.39893770217896,-2.80115008354187,1.13423752784729,5.24741268157959,7.91436243057251,9.05299949645996,8.12927532196045,3.45207500457764,0.51603752374649,-3.56097507476807,-4.55606269836426,-5.7074875831604,-5.82876253128052,-5.39137506484985,3.71400022506714,-1.27605009078979,-9.83895015716553,-14.1640510559082,-8.03805065155029,-0.10800000280142,11.4019508361816,26.2459506988525,30.6409511566162,23.9160003662109,10.1800508499146,10.3140001296997,10.8100509643555,7.78095054626465,2.91600012779236,-7.37205028533936,-11.9680509567261,-12.5830507278442,-12.7890005111694,-11.9479503631592,-11.3380508422852,-5.11605024337769,15.1069507598877,39.4879531860352,38.0869522094727,23.5039520263672,14.9779510498047,5.97000026702881,-1.67400002479553,-5.87700033187866,2.50800013542175,-0.40305000543594,0.02700000070035,0.09900000691414,0.20895001292229,-0.34605002403259,-0.23805001378059,5.53500032424927,7.09395027160645,0.70905005931854,4.39800024032593,-1.13895010948181,4.69905042648315,4.19204998016357,1.94295012950897,SHAKE
0.90736252069473,-0.3121249973774,-0.45897498726845,0.57859998941422,1.19583749771118,-0.78787499666214,-2.14362502098084,-1.89461243152618,-1.84566247463226,-1.47427499294281,1.62676250934601,0.50297498703003,1.70871245861053,1.72150003910065,0.36465001106262,-1.38269996643066,-0.60266250371933,-0.09817499667406,0.7148625254631,1.3309999704361,1.54178750514984,1.36193752288818,0.31569999456406,-0.13763749599457,0.85208749771118,0.36891248822212,0.54986250400543,-0.90805000066757,-1.74776244163513,-1.15390002727509,-5.19667482376099,-2.86921238899231,-0.05335000157356,3.62023758888245,8.3016996383667,10.4120502471924,9.29885005950928,6.77558755874634,0.20528750121593,-2.32870006561279,-4.03878736495972,-7.39750003814697,-8.13284969329834,-7.04412508010864,-4.14204978942871,-2.17005014419556,-8.56395053863525,-11.7499504089355,-15.1290006637573,-4.05495023727417,15.9520511627197,18.3640518188477,38.2669525146484,33.0840034484863,20.5819511413574,11.2219505310059,14.1060009002686,5.55795049667358,-0.42900002002716,-14.7960004806519,-8.87595081329346,-9.4980001449585,-11.5890007019043,-12.8710508346558,-13.6440010070801,-4.26000022888184,6.06300020217896,34.0660514831543,40.185001373291,30.2890510559082,19.2139511108398,3.20595026016235,-8.90205001831055,-15.667950630188,-18.1879501342773,0.38400000333786,1.92795014381409,4.20795011520386,4.87905025482178,-0.76695001125336,-6.92505025863647,-2.84895014762878,1.12395000457764,8.50995063781738,13.0080003738403,2.66805005073547,1.93605005741119,1.81800007820129,0.43395000696182,2.37900018692017,SHAKE
0.50297498703003,1.70871245861053,1.72150003910065,0.36465001106262,0.22206249833107,1.0755250453949,1.35753750801086,-1.50617504119873,-3.67716240882874,-4.0123872756958,2.70806241035461,3.33588743209839,1.74597501754761,1.08198750019073,0.36465001106262,0.54986250400543,-0.90805000066757,-1.74776244163513,-1.15390002727509,0.13268749415874,2.03018760681152,2.09398746490479,1.30652499198914,0.86913746595383,0.25299999117851,1.02341246604919,-0.50256252288818,-0.39091250300407,-1.56145000457764,-1.21879994869232,-7.39750003814697,-8.13284969329834,-7.04412508010864,-4.14204978942871,2.28786253929138,8.2985372543335,10.3184127807617,8.56776237487793,6.2137622833252,-3.73766255378723,-5.25951242446899,-7.07822513580322,-7.67841243743896,-7.56236267089844,-5.09341239929199,14.1060009002686,5.55795049667358,-0.42900002002716,-14.7960004806519,-22.1370010375977,-3.21900010108948,9.97695064544678,19.3960514068604,59.9440536499023,21.1090507507324,12.8770503997803,8.26200008392334,8.09400081634521,-0.50805002450943,-7.53495025634766,3.20595026016235,-8.90205001831055,-15.667950630188,-18.1879501342773,-18.681001663208,-15.3330011367798,-6.71295022964478,14.8939504623413,41.7090034484863,30.2790012359619,15.7369508743286,6.26895046234131,-0.35895001888275,-9.04095077514648,-11.9890508651733,1.93605005741119,1.81800007820129,0.43395000696182,2.37900018692017,7.67400026321411,3.55005025863647,-7.22400045394897,-6.62100028991699,-6.57105016708374,24.8800506591797,8.34195041656494,-2.20395016670227,-2.37900018692017,1.07805001735687,1.00604999065399,SHAKE
1.08198750019073,0.36465001106262,-0.27912500500679,-0.20253749191761,0.43174999952316,-0.02062499895692,-2.47788739204407,-6.71866226196289,-4.51261234283447,0.05389999970794,1.06383752822876,2.74752497673035,3.32529997825623,1.83974993228912,1.27998745441437,-1.56145000457764,-1.21879994869232,-0.5292375087738,-0.24928750097752,0.45622500777245,2.02592492103577,4.0128002166748,3.12840008735657,-1.01667499542236,-0.24832500517368,1.3278374671936,-0.75171250104904,-1.46148753166199,-2.44584989547729,-0.87725001573563,-7.56236267089844,-5.09341239929199,-1.300612449646,1.01612496376038,5.8157000541687,10.2396249771118,14.7742376327515,14.9029378890991,9.62032508850098,-3.04906249046326,-3.87172508239746,-8.1966495513916,-9.88982486724854,-11.7235250473022,-6.67383766174316,-0.50805002450943,-7.53495025634766,-14.4109506607056,-16.3099498748779,-11.7139501571655,-5.99700021743774,12.0270004272461,45.0660018920898,78.1030502319336,21.7530002593994,31.9129524230957,14.2849502563477,20.4649505615234,-2.20800018310547,-12.3370504379272,-9.04095077514648,-11.9890508651733,-13.6230010986328,-13.7110509872437,-13.1959505081177,-17.0310001373291,-20.2930507659912,-9.39495086669922,27.6979503631592,17.064001083374,18.8359508514404,5.9800500869751,-1.38900005817413,-14.6070003509521,-11.9509506225586,1.07805001735687,1.00604999065399,3.18105006217957,4.36605024337769,2.82195019721985,0.61095005273819,-2.64495015144348,9.24000072479248,27.2149505615234,16.1500511169434,8.85195064544678,5.70300006866455,-2.86095023155212,3.02805018424988,1.50195002555847,SHAKE
0.63071250915527,-0.12911249697208,-0.50792497396469,-0.33453750610352,0.7957124710083,1.52473747730255,1.22347497940063,-1.34873747825623,-2.41821241378784,-0.83256250619888,1.50658750534058,1.74074995517731,0.82128751277924,0.69134998321533,-0.17806249856949,-0.7569375038147,-0.88673746585846,-0.94421249628067,-0.76230001449585,-0.26111251115799,0.0614624992013,0.77013748884201,0.21147499978542,0.80533748865128,0.48179998993874,0.41580000519753,0.16252499818802,-0.15248750150204,-0.18122500181198,-0.2056999951601,-6.33861255645752,-4.32726240158081,-1.86257493495941,-0.00976249948144,4.30993747711182,6.43610000610352,6.84158754348755,5.73484992980957,3.28294992446899,-1.51662504673004,-4.25906229019165,-4.67733764648438,-5.7266001701355,-4.79545021057129,-2.4371874332428,0.76995003223419,-2.78295016288757,-10.2840003967285,-13.8529510498047,-8.55000019073486,2.73705005645752,4.95000028610229,21.271951675415,19.3960514068604,8.91300010681152,2.00400018692017,6.20700025558472,0.84195005893707,-0.72300004959106,0.00405000010505,-9.03404998779297,-10.7509508132935,-11.5630502700806,-11.6539506912231,-10.5259504318237,-6.33195018768311,-1.56795012950897,36.9739532470703,44.3050537109375,35.509952545166,19.0350017547607,14.7000007629395,-1.87995004653931,-4.15005016326904,-6.34695053100586,-1.24200010299683,0.14205001294613,2.84595012664795,4.61100006103516,3.63600015640259,-0.33600002527237,-3.13905024528503,-5.95500040054321,1.47300004959106,9.18495082855225,1.89000010490417,-1.70595002174377,-0.13005000352859,-0.45405003428459,-0.52995002269745,SHAKE
0.27637499570847,-0.41964998841286,-1.17094993591309,-0.85703748464584,0.35516250133514,0.74786251783371,-0.24832500517368,-1.59774994850159,-2.11062502861023,-0.59839999675751,1.96308743953705,0.46474999189377,0.57639998197556,0.9648374915123,0.1922249943018,-0.60802501440048,-0.49197500944138,0.13378749787807,0.15083749592304,0.08263749629259,0.18053749203682,0.14437499642372,1.09477496147156,-0.41428750753403,1.40442502498627,-0.4131875038147,0.32326251268387,0.07741250097752,-0.18658749759197,-0.3269749879837,-5.26157474517822,-4.24847507476807,-2.2595374584198,0.2041874974966,3.82456254959106,6.9235372543335,7.99314975738525,7.80793762207031,0.66068750619888,-3.66313743591309,-4.61037492752075,-5.60532474517822,-5.93518733978271,-4.51343727111816,-2.1764874458313,5.66595029830933,1.69005012512207,-3.14505004882813,-9.44595050811768,-10.0330505371094,1.55100011825562,8.09400081634521,33.7999534606934,27.8509521484375,8.98305034637451,8.60205078125,10.0489501953125,5.18400001525879,-0.7140000462532,-4.57200002670288,1.99005007743835,-4.96200037002563,-8.75804996490479,-10.9380006790161,-11.2800006866455,-8.97405052185059,-0.53100001811981,33.4459533691406,49.0660514831543,25.6620006561279,15.5020503997803,5.80005025863647,-2.5530002117157,-7.07895040512085,-8.65995025634766,-2.15205001831055,0.05100000277162,1.59495007991791,4.18395042419434,2.78295016288757,-1.05195009708405,-4.3840503692627,-1.1290500164032,2.52495002746582,9.58800029754639,-2.82705020904541,-1.48605012893677,1.78695011138916,0.57795000076294,0.16995000839233,SHAKE
0.57639998197556,0.9648374915123,0.1922249943018,-0.42597499489784,-0.24832500517368,0.10504999756813,-0.15784999728203,-1.50081253051758,-2.61827492713928,-1.36991250514984,1.04898750782013,1.99498748779297,0.49032500386238,0.14327499270439,-0.26633748412132,0.07741250097752,-0.18658749759197,-0.3269749879837,0.04551250115037,0.32106250524521,0.33164998888969,0.09762500226498,0.87766247987747,1.43742501735687,0.55412501096725,0.45842498540878,-0.59523749351501,-0.20253749191761,-0.23759999871254,-0.23443749547005,-5.93518733978271,-4.51343727111816,-2.1764874458313,0.25850000977516,3.38194990158081,7.23745012283325,8.55717468261719,6.32981252670288,3.01042509078979,-1.67309999465942,-3.27360010147095,-4.30704975128174,-4.20488739013672,-3.90156245231628,-2.40638756752014,5.18400001525879,-0.7140000462532,-4.57200002670288,-9.16605091094971,-11.4169502258301,-1.35105001926422,14.6710510253906,36.0490531921387,31.5580520629883,13.2820510864258,6.5110502243042,5.03805017471313,5.75895023345947,2.800950050354,1.89405012130737,-2.5530002117157,-7.07895040512085,-8.65995025634766,-9.71895027160645,-10.945050239563,-10.5570001602173,2.95005011558533,38.2290000915527,45.9240036010742,33.4890022277832,22.7040004730225,8.84895038604736,4.39905023574829,-1.43400001525879,-4.11195039749146,1.78695011138916,0.57795000076294,0.16995000839233,1.99995005130768,2.33595013618469,1.38495004177094,-3.34905004501343,-3.70095014572144,-2.76195001602173,13.4680509567261,7.64295053482056,-3.95505023002625,-0.2569500207901,0.73995006084442,0.84300005435944,SHAKE
0.14327499270439,-0.26633748412132,-0.44096249341965,-0.44192498922348,-0.0716374963522,0.05816249921918,-0.12484999746084,-0.44522500038147,-0.02474999986589,-0.31528750061989,0.29012501239777,0.46364998817444,0.37427499890327,1.12763750553131,1.0095249414444,-0.23759999871254,-0.23443749547005,-0.36423748731613,-0.26949998736382,-0.26427498459816,-0.44508749246597,-0.20143750309944,0.27857500314713,1.32893753051758,-0.1385999917984,0.18809999525547,-0.27802500128746,0.07947500050068,-0.23870000243187,0.14657500386238,-3.90156245231628,-2.40638756752014,-2.04242491722107,-0.80891251564026,3.87887501716614,6.28608751296997,8.14522457122803,7.76434993743896,3.94171237945557,-1.14207494258881,-3.71951246261597,-4.18989992141724,-5.05614995956421,-5.01902484893799,-3.51422500610352,2.800950050354,1.89405012130737,1.47900009155273,-9.71205043792725,-12.9330005645752,-4.77105045318604,9.53400039672852,18.5610008239746,33.3469505310059,19.3459510803223,4.17600011825562,9.66105079650879,8.18100070953369,3.36900019645691,-0.25394999980927,-1.43400001525879,-4.11195039749146,-6.25995016098022,-9.87195014953613,-10.9860000610352,-10.2190504074097,-0.32100000977516,13.1740503311157,45.2269515991211,37.5559501647949,18.9580516815186,11.9550008773804,3.91800022125244,-2.82600021362305,-5.47200012207031,0.73995006084442,0.84300005435944,1.11600005626678,2.67795014381409,2.01705002784729,0.97800004482269,-0.96405005455017,-0.85095006227493,-0.34800001978874,1.00905001163483,0.57495003938675,0.16800001263618,3.00405025482178,2.82405018806458,0.99195003509521,SHAKE
0.24227499961853,0.14231249690056,0.00714999996126,0.60087502002716,1.799187541008,0.26565000414848,-3.00561237335205,-1.25716245174408,-1.10825002193451,0.56155002117157,2.09715008735657,1.09147500991821,0.73507499694824,1.1255749464035,-0.02584999985993,-0.37812501192093,-1.15610003471375,-0.38444998860359,-0.72503751516342,0.52332502603531,0.81166249513626,1.04898750782013,0.2593249976635,0.28600001335144,1.07662498950958,0.4115374982357,0.58602499961853,0.12636250257492,-0.68887501955032,-0.67402499914169,-5.677649974823,-5.65743732452393,-4.45596265792847,-1.83700001239777,6.34356260299683,8.9860372543335,6.96299982070923,4.94834995269775,1.96652495861053,-3.42691254615784,-4.72422504425049,-5.85323762893677,-7.00053739547729,-6.51310014724731,-4.04208755493164,9.59805011749268,4.16895008087158,-1.20705008506775,-21.8470516204834,-11.3209505081177,15.5209503173828,15.3390007019043,30.7009506225586,32.310001373291,8.02500057220459,14.8939504623413,14.2330503463745,10.4149503707886,3.81000018119812,-11.695050239563,5.16300010681152,-7.09605026245117,-14.6880006790161,-22.8100509643555,-18.3019504547119,-3.98700022697449,19.6549510955811,45.8520011901855,47.7970504760742,27.4770011901855,18.4069499969482,11.9580001831055,-2.30595016479492,-13.6609506607056,-19.6600513458252,0.42900002002716,4.93695020675659,4.24695014953613,5.20695018768311,1.21200001239777,-9.53805065155029,1.95495009422302,4.36395025253296,5.7679500579834,10.1599502563477,-3.59400010108948,-2.59200000762939,2.46705007553101,0.23505000770092,2.5729501247406,SHAKE
0.73507499694824,1.1255749464035,-0.02584999985993,-0.38238748908043,0.51480001211166,0.16568750143051,-0.3920125067234,-0.87092500925064,-2.69280004501343,-1.58070003986359,2.85381245613098,1.04898750782013,1.3000625371933,0.57969999313354,-1.15719997882843,0.12636250257492,-0.68887501955032,-0.67402499914169,0.02103750035167,0.4476999938488,0.44343748688698,-0.06421250104904,0.12842500209808,-0.01306249946356,1.06920003890991,0.45196250081062,0.77013748884201,-0.28132501244545,-0.81977498531342,-0.9592000246048,-7.00053739547729,-6.51310014724731,-4.04208755493164,0.91396248340607,7.07684993743896,8.67638778686523,7.98985004425049,7.92605018615723,2.94772505760193,-2.34987497329712,-4.26552486419678,-6.33751249313354,-6.96863746643066,-5.92253732681274,-3.69930005073547,10.4149503707886,3.81000018119812,-11.695050239563,-18.75,-6.62505054473877,13.4040002822876,12.1849508285522,26.9790019989014,39.5620536804199,16.6129512786865,14.7190504074097,13.1290502548218,7.52700042724609,2.60700011253357,-14.4130506515503,-2.30595016479492,-13.6609506607056,-19.6600513458252,-22.6609516143799,-18.2470512390137,-6.96000051498413,0.33000001311302,25.4560508728027,46.6830024719238,32.169002532959,20.8459510803223,7.3279504776001,-5.21805047988892,-14.5999507904053,-24.8029518127441,2.46705007553101,0.23505000770092,2.5729501247406,4.07400035858154,1.68900012969971,-5.30805015563965,-3.80895018577576,-3.76095008850098,3.53805017471313,21.7300510406494,-0.74595004320145,-1.48095011711121,0.59205001592636,-1.4719500541687,4.62495040893555,SHAKE
1.04898750782013,1.3000625371933,0.57969999313354,-1.15719997882843,0.20611250400543,1.20436251163483,-0.30043751001358,-1.26458752155304,-1.46465003490448,-1.69881248474121,4.00743770599365,1.36606252193451,0.09432499855757,0.25712499022484,0.13584999740124,0.77013748884201,-0.28132501244545,-0.81977498531342,-0.9592000246048,0.24763749539852,0.96167498826981,0.41896250844002,0.04441250115633,0.38816249370575,1.50878751277924,0.58712500333786,0.28380000591278,-0.15565000474453,-0.85167497396469,-1.11553752422333,-6.33751249313354,-6.96863746643066,-5.92253732681274,-3.69930005073547,3.22863745689392,8.60186290740967,7.5865626335144,6.76389980316162,3.53086256980896,-1.61782503128052,-4.06862497329712,-5.31368732452393,-6.53647518157959,-5.43826246261597,-3.3353374004364,13.1290502548218,7.52700042724609,2.60700011253357,-14.4130506515503,-21.8299503326416,5.05500030517578,15.9070510864258,20.3950500488281,38.8560028076172,13.6579504013062,9.9790506362915,12.8359508514404,7.48605012893677,1.16100001335144,-6.97905015945435,7.3279504776001,-5.21805047988892,-14.5999507904053,-24.8029518127441,-22.0870513916016,-14.4700508117676,-0.34500002861023,23.6929512023926,45.1290016174316,32.4900016784668,20.1889514923096,11.2870502471924,-3.36705017089844,-10.453950881958,-14.9640007019043,-1.48095011711121,0.59205001592636,-1.4719500541687,4.62495040893555,7.75305032730103,-2.74605011940002,-6.66405010223389,2.76195001602173,-5.36805009841919,24.0850505828857,-2.48505020141602,-4.75800037384033,1.64595007896423,3.10005021095276,3.65505027770996,SHAKE
0.09432499855757,0.25712499022484,0.13584999740124,-0.01952499896288,0.31253749132156,0.6434999704361,1.08308744430542,0.80739998817444,-2.27342510223389,0.12099999934435,1.90464997291565,0.82761251926422,-0.23443749547005,-0.84644997119904,0.07315000146627,-0.15565000474453,-0.85167497396469,-1.11553752422333,-0.2578125,0.71802496910095,0.82225000858307,0.30511251091957,0.40933749079704,0.36891248822212,0.39668750762939,-0.72187501192093,-1.19968748092651,-1.22196245193481,-0.79640001058578,-0.41428750753403,-6.53647518157959,-5.43826246261597,-3.3353374004364,0.64363747835159,5.82312488555908,6.99696254730225,6.35841226577759,6.98953723907471,-0.55247497558594,-3.97498750686646,-5.63722515106201,-6.83979988098145,-5.86079978942871,-4.00056266784668,0.57241249084473,7.48605012893677,1.16100001335144,-6.97905015945435,-17.8519515991211,-5.79105043411255,9.2629508972168,7.75695037841797,16.5420017242432,27.8580017089844,11.2870502471924,12.3930006027222,9.23205089569092,3.36705017089844,-7.05300045013428,-20.6980514526367,-3.36705017089844,-10.453950881958,-14.9640007019043,-15.7279510498047,-12.1540508270264,-4.46595001220703,0.86595004796982,19.2049503326416,45.6769523620605,25.9540519714355,12.8440504074097,-1.86300003528595,-11.0980501174927,-19.3110008239746,-20.7480010986328,1.64595007896423,3.10005021095276,3.65505027770996,4.75695037841797,2.19405007362366,-1.00499999523163,-3.42795014381409,-7.06905031204224,2.42700004577637,6.63195037841797,-3.32805013656616,-0.5020500421524,1.42995011806488,5.86605024337769,7.52595043182373,SHAKE
1.72906243801117,0.79254996776581,0.67443752288818,-0.169537499547,0.59455001354218,1.16916251182556,0.42638748884201,-2.15324997901917,-2.60975003242493,-0.86446249485016,1.73745000362396,0.93610000610352,-0.09295000135899,0.37427499890327,0.92014998197556,0.30195000767708,-0.07479999959469,-0.69946247339249,-0.40369999408722,0.93087500333786,0.78292500972748,0.17531250417233,1.20752501487732,0.19978749752045,0.73617500066757,0.27857500314713,0.40521249175072,0.25616249442101,-0.02378750033677,-1.38380002975464,-6.54073762893677,-7.21971225738525,-5.83412504196167,-2.63188743591309,3.97141242027283,7.65572500228882,7.20774984359741,8.55497455596924,2.63587498664856,-1.80289995670319,-3.49401259422302,-5.56173753738403,-7.08028745651245,-7.29217481613159,-4.9189248085022,15.3010511398315,6.95700025558472,0.22200001776218,-18.3910503387451,-15.1390504837036,6.43695020675659,7.10505056381226,34.6789512634277,36.8899536132813,19.6980018615723,14.3809509277344,19.0969505310059,15.7890005111694,12.1320009231567,-9.4549503326416,7.77300024032593,-8.22900009155273,-17.8020000457764,-22.3120517730713,-19.2270011901855,-11.9650506973267,-4.213050365448,22.3999519348145,45.3730506896973,34.7149505615234,27.9799518585205,17.2049999237061,-0.86895006895065,-9.27300071716309,-23.7799510955811,-2.95905017852783,1.14495003223419,0.6810000538826,6.00900030136108,3.87600016593933,-2.77005004882813,-5.34000015258789,-3.46200013160706,4.12005043029785,17.248950958252,6.17205047607422,-5.00700044631958,2.22105002403259,3.0949501991272,3.07305026054382,SHAKE
-0.09295000135899,0.37427499890327,0.92014998197556,0.40507498383522,1.07978749275208,1.10000002384186,0.46364998817444,-0.52813750505447,-1.63707494735718,-3.24293756484985,2.17813754081726,1.23309993743896,0.41786250472069,0.57433748245239,0.26138749718666,0.25616249442101,-0.02378750033677,-1.38380002975464,-0.83036249876022,0.29975000023842,0.99467498064041,0.53184998035431,0.46791249513626,0.09762500226498,0.94050002098083,0.15193749964237,0.14973749220371,-0.3089624941349,-0.5878124833107,-1.40401244163513,-7.08028745651245,-7.29217481613159,-4.9189248085022,-2.75110006332397,4.68132495880127,8.23900032043457,7.38759994506836,7.29176235198975,4.7844500541687,-0.51204997301102,-4.1548376083374,-6.35882472991943,-7.42197513580322,-7.14422512054443,-5.71917486190796,15.7890005111694,12.1320009231567,-9.4549503326416,-20.6380500793457,-18.3360004425049,10.4490003585815,10.7670001983643,35.1030006408691,44.2140007019043,30.6289520263672,15.7579507827759,17.3989505767822,10.675950050354,6.57300043106079,-1.58805012702942,-0.86895006895065,-9.27300071716309,-23.7799510955811,-25.3870506286621,-21.586051940918,-10.6699504852295,-6.00405025482178,25.8610515594482,41.5980033874512,41.5270538330078,24.3640518188477,10.6549501419067,-5.52495002746582,-10.9159507751465,-21.1069507598877,2.22105002403259,3.0949501991272,3.07305026054382,5.6650505065918,5.03700017929077,-5.11395025253296,-4.83705043792725,-6.90105009078979,-7.89000034332275,19.3830013275146,3.46800017356873,-4.7790002822876,0.62295001745224,1.557000041008,2.70405006408691,SHAKE
0.06352499872446,-0.90598750114441,-0.74744999408722,0.70950001478195,1.10316252708435,0.53391247987747,-1.40511250495911,-2.41078758239746,-4.36892509460449,2.70063757896423,1.37884998321533,0.79997497797012,0.92234998941422,-0.90488749742508,0.45196250081062,-1.19226253032684,-0.74208748340607,-0.27912500500679,0.70840001106262,0.9149249792099,1.191575050354,2.20041251182556,1.88759994506836,1.26816248893738,-0.69629997014999,-0.89209997653961,-1.17094993591309,-0.78251248598099,0.43711251020432,2.25788760185242,-6.92065000534058,-5.07429981231689,-2.17002487182617,3.67234992980957,7.26838731765747,7.44081258773804,7.51423740386963,6.25198745727539,0.93637502193451,-4.28257513046265,-6.28966236114502,-7.15701246261597,-6.9132251739502,-4.71996259689331,2.67423748970032,9.16200065612793,-10.4760007858276,-16.2880516052246,-12.2910003662109,6.89895009994507,10.0630502700806,26.1840019226074,34.2810020446777,36.2880020141602,12.8890504837036,18.0529499053955,14.8339509963989,11.1889505386353,-14.32200050354,-17.7040500640869,-11.1889505386353,-26.6539516448975,-26.1250514984131,-20.53005027771,-11.4190502166748,-6.20505046844482,20.3470516204834,39.1410026550293,48.5700035095215,27.6760520935059,13.4190006256104,-3.19695019721985,-16.6399517059326,-26.2660503387451,-22.5370502471924,-0.31500002741814,5.7460503578186,9.31695079803467,5.14200019836426,-1.27800011634827,-3.74895024299622,-4.50104999542236,-7.84500026702881,21.6060009002686,5.74395036697388,-1.13895010948181,3.92595028877258,3.16200017929077,7.17300033569336,5.36805009841919,SHAKE
-0.03437500074506,4.69700002670288,3.44987487792969,2.05356240272522,2.03651237487793,2.60383749008179,1.35231244564056,-1.455162525177,-3.20361256599426,0.00811249949038,1.80454993247986,-1.28589999675751,-1.82338750362396,1.191575050354,0.52002501487732,1.28741252422333,-1.04747498035431,-2.37778759002686,-2.44805002212524,-1.38063752651215,-0.47066250443459,0.76064997911453,0.91066247224808,0.57323747873306,0.11357499659061,-0.31748750805855,0.69987499713898,0.39668750762939,-0.06943749636412,0.46048748493195,-3.91118741035461,-6.19176244735718,-7.64225006103516,-7.88700008392334,0.15207499265671,4.22152519226074,7.96441268920898,6.40846252441406,-0.31088748574257,-4.58163738250732,-5.05614995956421,-3.81961250305176,-2.92998743057251,1.07360005378723,5.92638731002808,15.8179512023926,12.901050567627,14.7000007629395,5.38995027542114,-21.9210014343262,-15.4620008468628,10.4850006103516,22.8499507904053,27.9150009155273,5.17995023727417,3.83595013618469,-1.73895013332367,-4.69200038909912,-18.844051361084,5.33505010604858,31.8600006103516,9.28695011138916,-10.7440509796143,-23.3269519805908,-25.9590015411377,-21.6409511566162,-5.58000040054321,41.1049537658691,49.2910537719727,15.0660009384155,1.24905002117157,-10.6260004043579,-18.6739501953125,-21.7750511169434,4.98600006103516,18.0040512084961,2.71395015716553,-0.30795001983643,-0.40305000543594,7.05795049667358,2.27295017242432,-5.63400030136108,-7.52895021438599,6.07695007324219,9.4750509262085,-1.51905012130737,0.61305004358292,6.45300006866455,5.84895038604736,-8.41005039215088,SHAKE
-3.20361256599426,0.00811249949038,1.80454993247986,-1.28589999675751,-1.82338750362396,1.191575050354,0.52002501487732,-0.90708750486374,-1.17204999923706,1.68959999084473,2.06318759918213,0.06242499873042,0.35612499713898,1.18621253967285,-1.46794998645782,0.57323747873306,0.11357499659061,-0.31748750805855,0.69987499713898,0.39668750762939,-0.06943749636412,0.46048748493195,0.03052499890327,-0.51108747720718,-1.12626254558563,-1.67956244945526,-0.91451251506805,-0.5878124833107,-0.62713748216629,0.08799999952316,-0.31088748574257,-4.58163738250732,-5.05614995956421,-3.81961250305176,-2.92998743057251,1.07360005378723,5.92638731002808,4.76849985122681,2.314537525177,-4.42722511291504,-5.95650005340576,-6.05660009384155,-3.43860006332397,0.30634999275208,9.54580020904541,27.9150009155273,5.17995023727417,3.83595013618469,-1.73895013332367,-4.69200038909912,-18.844051361084,5.33505010604858,23.6520004272461,23.6380519866943,12.7120504379272,12.3360004425049,6.32205009460449,-16.909049987793,-30.9439506530762,5.09595012664795,49.2910537719727,15.0660009384155,1.24905002117157,-10.6260004043579,-18.6739501953125,-21.7750511169434,4.98600006103516,41.8879508972168,52.6350021362305,22.3350009918213,4.34100008010864,-16.0579509735107,-36.4380035400391,-39.5770530700684,-22.9900512695313,6.07695007324219,9.4750509262085,-1.51905012130737,0.61305004358292,6.45300006866455,5.84895038604736,-8.41005039215088,-2.86500024795532,-8.96295070648193,9.61905002593994,0.24705001711845,3.58605027198792,6.46695041656494,-0.2569500207901,-11.0350503921509,SHAKE
-1.46794998645782,-0.32491248846054,-4.24861240386963,0.20074999332428,3.609375,-5.26184988021851,2.68042492866516,-2.78437495231628,-3.56963753700256,0.80313748121262,5.14937496185303,3.45303750038147,-2.20219993591309,1.48417496681213,-3.06734991073608,0.08799999952316,-0.345124989748,1.1085250377655,2.35152506828308,-1.68602502346039,1.16393744945526,-0.46117499470711,0.60953748226166,0.58396250009537,2.03871250152588,0.62438750267029,-0.5878124833107,0.2072124928236,0.23704999685287,0.83503746986389,9.54580020904541,8.07180023193359,-0.60252499580383,-5.53726243972778,-9.33858776092529,-5.32014989852905,9.94482517242432,9.36705017089844,2.82424998283386,-6.45246267318726,-8.05406284332275,-8.97778701782227,11.2080373764038,8.80398750305176,1.67805004119873,5.09595012664795,35.1960029602051,43.7680511474609,25.2229518890381,15.3370504379272,-36.8520011901855,5.8690505027771,24.0210018157959,47.9140510559082,20.7829513549805,23.5710010528564,-2.80695009231567,12.2689504623413,31.0170021057129,41.1480026245117,-22.9900512695313,52.680004119873,69.5460052490234,37.2990036010742,-20.2639503479004,-72.0280532836914,-34.0860023498535,32.7540016174316,78.5509567260742,22.3690509796143,-2.32995009422302,-53.0040016174316,-32.4190521240234,40.3770027160645,78.5509567260742,-11.0350503921509,0.66105002164841,32.7000007629395,43.0579528808594,-9.06105041503906,11.0440502166748,-9.03299999237061,-8.57505035400391,14.473051071167,27.5430011749268,10.7520008087158,-11.8950004577637,4.86900043487549,-0.68805003166199,-3.86700010299683,SHAKE
