gyro_x_0,gyro_y_0,gyro_z_0,acc_x_0,acc_y_0,acc_z_0,gyro_x_1,gyro_y_1,gyro_z_1,acc_x_1,acc_y_1,acc_z_1,gyro_x_2,gyro_y_2,gyro_z_2,acc_x_2,acc_y_2,acc_z_2,gyro_x_3,gyro_y_3,gyro_z_3,acc_x_3,acc_y_3,acc_z_3,gyro_x_4,gyro_y_4,gyro_z_4,acc_x_4,acc_y_4,acc_z_4,gyro_x_5,gyro_y_5,gyro_z_5,acc_x_5,acc_y_5,acc_z_5,gyro_x_6,gyro_y_6,gyro_z_6,acc_x_6,acc_y_6,acc_z_6,gyro_x_7,gyro_y_7,gyro_z_7,acc_x_7,acc_y_7,acc_z_7,gyro_x_8,gyro_y_8,gyro_z_8,acc_x_8,acc_y_8,acc_z_8,gyro_x_9,gyro_y_9,gyro_z_9,acc_x_9,acc_y_9,acc_z_9,gyro_x_10,gyro_y_10,gyro_z_10,acc_x_10,acc_y_10,acc_z_10,gyro_x_11,gyro_y_11,gyro_z_11,acc_x_11,acc_y_11,acc_z_11,gyro_x_12,gyro_y_12,gyro_z_12,acc_x_12,acc_y_12,acc_z_12,gyro_x_13,gyro_y_13,gyro_z_13,acc_x_13,acc_y_13,acc_z_13,gyro_x_14,gyro_y_14,gyro_z_14,acc_x_14,acc_y_14,acc_z_14,gyro_x_15,gyro_y_15,gyro_z_15,acc_x_15,acc_y_15,acc_z_15,gyro_x_16,gyro_y_16,gyro_z_16,acc_x_16,acc_y_16,acc_z_16,gyro_x_17,gyro_y_17,gyro_z_17,acc_x_17,acc_y_17,acc_z_17,gyro_x_18,gyro_y_18,gyro_z_18,acc_x_18,acc_y_18,acc_z_18,gyro_x_19,gyro_y_19,gyro_z_19,acc_x_19,acc_y_19,acc_z_19,gyro_x_20,gyro_y_20,gyro_z_20,acc_x_20,acc_y_20,acc_z_20,gyro_x_21,gyro_y_21,gyro_z_21,acc_x_21,acc_y_21,acc_z_21,gyro_x_22,gyro_y_22,gyro_z_22,acc_x_22,acc_y_22,acc_z_22,gyro_x_23,gyro_y_23,gyro_z_23,acc_x_23,acc_y_23,acc_z_23,gyro_x_24,gyro_y_24,gyro_z_24,acc_x_24,acc_y_24,acc_z_24,gyro_x_25,gyro_y_25,gyro_z_25,acc_x_25,acc_y_25,acc_z_25,gyro_x_26,gyro_y_26,gyro_z_26,acc_x_26,acc_y_26,acc_z_26,gyro_x_27,gyro_y_27,gyro_z_27,acc_x_27,acc_y_27,acc_z_27,gyro_x_28,gyro_y_28,gyro_z_28,acc_x_28,acc_y_28,acc_z_28,gyro_x_29,gyro_y_29,gyro_z_29,acc_x_29,acc_y_29,acc_z_29,motion_type
-0.53909301757813,-0.58152800798416,-0.55769699811935,-0.25470000505447,-0.33536100387573,-0.33504301309586,1.06019103527069,1.15444803237915,1.23186504840851,1.05799996852875,0.98000001907349,0.82300001382828,1.16799998283386,1.32500004768372,1.40299999713898,9.04899978637695,9.04899978637695,9.52000045776367,-0.45983099937439,-0.31444099545479,-0.21174000203609,-0.25244200229645,-0.1262020021677,-0.04518799856305,1.27380502223969,1.28169703483582,1.2620609998703,0.35199999809265,0.27399998903275,0.1169999986887,1.55999994277954,1.55999994277954,1.7960000038147,9.99100017547607,9.67700004577637,9.1269998550415,-0.03688099980354,0.13621200621128,0.2173790037632,0.17197600007057,0.44742798805237,0.58429199457169,1.22047603130341,1.16737294197083,1.10716795921326,-0.1169999986887,0.1169999986887,0.43099999427795,1.7960000038147,1.71700000762939,1.87399995326996,9.20600032806396,10.1470003128052,10.0690002441406,0.25870999693871,0.26605400443077,0.29272300004959,0.5791130065918,0.5898420214653,0.66474801301956,1.04522395133972,0.97922599315643,0.91736000776291,-0.35299998521805,-0.74500000476837,1.76499998569489,1.7960000038147,2.34500002861023,1.63900005817413,8.6569995880127,10.6969995498657,15.9530000686646,0.07798500359058,-0.94387400150299,-2.31092500686646,0.36777698993683,-0.92236000299454,-3.02546095848084,0.84195798635483,0.73038399219513,0.6406130194664,10.7089996337891,26.3209991455078,23.1049995422363,-4.32299995422363,-14.2869997024536,-26.6830005645752,28.1140003204346,22.3080005645752,11.8730001449585,-4.57942008972168,-5.26989412307739,-5.26811122894287,-3.54011011123657,-2.32712697982788,-1.4456889629364,1.20390605926514,1.7739280462265,2.08430099487305,1.13699996471405,-4.43200016021729,-19.1040000915527,-36.0979995727539,-31.7040004730225,-17.6609992980957,27.9570007324219,24.5049991607666,-10.3290004730225,-5.98138380050659,-7.53608179092407,-6.30470705032349,-0.86514502763748,0.78297597169876,10.4034585952759,2.79106998443604,4.18515205383301,1.5846209526062,-34.7949981689453,-37.3839988708496,-20.4379997253418,-7.93200016021729,-5.57800006866455,-7.14699983596802,-18.2530002593994,-18.4099998474121,-3.11100006103516,2.00184106826782,3.46051502227783,2.68641304969788,17.3705215454102,13.5520286560059,8.80052280426025,-3.37978506088257,-0.73020201921463,-1.34861898422241,0.19499999284744,3.80399990081787,-4.98199987411499,-10.7559995651245,-8.32400035858154,-3.6949999332428,11.246000289917,15.2469997406006,14.7760000228882,3.23538589477539,4.33411312103271,5.16321516036987,3.29193997383118,-0.82817202806473,-1.42820596694946,-3.55071592330933,-5.8840708732605,-6.20730018615723,-11.96399974823,-12.5129995346069,-10.8660001754761,-1.02799999713898,-0.71399998664856,-0.87099999189377,13.7559995651245,13.4429998397827,13.5209999084473,5.72668790817261,6.00386810302734,6.00178289413452,-0.25090000033379,1.042484998703,1.81550705432892,-5.22090911865234,-3.98407411575317,-3.45371699333191,-4.19700002670288,-2.78500008583069,-2.78500008583069,-2.20499992370605,-1.81200003623962,-1.81200003623962,10.1470003128052,9.59799957275391,9.44099998474121,SWING_RIGHT
0.38325399160385,0.26757100224495,0.17039400339127,0.37676298618317,0.14680799841881,-0.06937500089407,0.49248200654984,0.27819699048996,0.09864199906588,3.09800004959106,2.94099998474121,2.54900002479553,0.93300002813339,0.93300002813339,1.08899998664856,8.9709997177124,9.1269998550415,9.59799957275391,0.09451399743557,0.06532400101423,0.08147200196981,-0.12695699930191,-0.08567199856043,-0.01491199992597,0.03743100166321,0.01058700028807,-0.00125099997967,2.15700006484985,1.2150000333786,-0.1169999986887,1.40299999713898,1.87399995326996,2.34500002861023,9.52000045776367,9.44099998474121,9.1269998550415,0.49358201026917,1.05996298789978,1.65468096733093,0.6871799826622,1.25809800624847,2.02314591407776,0.26762598752975,0.45491799712181,0.87644100189209,-0.50999999046326,-2.0789999961853,-4.03999996185303,4.30600023269653,5.40500020980835,6.34600019454956,8.5,9.44099998474121,9.83399963378906,2.14959311485291,1.96134698390961,1.47756898403168,3.0334780216217,3.73621010780334,3.18993496894836,1.65922403335571,2.34404492378235,2.01815605163574,-4.74599981307983,-0.27399998903275,6.94299983978271,5.71799993515015,1.71700000762939,0.46200001239777,10.539999961853,12.1090002059937,18.4640007019043,0.57923698425293,-0.46495300531387,-2.05672097206116,1.07826602458954,-0.91648399829865,-3.06323289871216,0.5465139746666,-0.52906399965286,-1.22049796581268,11.7279996871948,20.0450000762939,34.2449989318848,-0.55699998140335,-6.20599985122681,-14.9930000305176,18.4640007019043,17.2870006561279,11.4809999465942,-4.07874298095703,-5.77856683731079,-6.22861003875732,-5.37715291976929,-6.41233110427856,-5.85921192169189,-1.22526597976685,-0.09026399999857,1.11202394962311,36.3639984130859,20.4370002746582,14.710000038147,-32.7239990234375,-38.1380004882813,-39.4710006713867,3.55699992179871,4.89099979400635,19.7189998626709,-6.00242710113525,-5.82504892349243,-6.15676116943359,-4.63522911071777,-3.68256902694702,-2.75680208206177,1.95784902572632,2.778568983078,4.09140586853027,5.68699979782104,-18.8680000305176,-34.7169990539551,-39.8639984130859,-37.6669998168945,-29.1940002441406,11.5600004196167,-6.8769998550415,7.48000001907349,-6.03998279571533,-5.58097505569458,-3.88092589378357,-0.25273498892784,3.19075489044189,8.25732612609863,5.56431913375854,6.62601280212402,5.74880886077881,-38.6389999389649,-32.2840003967285,-9.92399978637695,-18.367000579834,-8.79500007629395,-9.26599979400635,-3.18899989128113,-2.79699993133545,-5.07200002670288,-1.69086503982544,-0.01375799998641,0.87986797094345,12.2716455459595,12.5113744735718,10.1834716796875,4.35013103485107,3.80470895767212,2.82071399688721,6.15799999237061,11.96399974823,9.45300006866455,-9.50100040435791,-7.14699983596802,-4.55800008773804,-1.38499999046326,4.5770001411438,8.57800006866455,0.40534898638725,1.63083398342133,3.01672506332397,8.35636520385742,5.32816696166992,1.5848560333252,1.07362794876099,-4.74213123321533,-10.4229564666748,3.88299989700317,1.13699996471405,-4.74599981307983,-2.20499992370605,-1.49899995326996,-0.55699998140335,11.9519996643066,12.9720001220703,16.1100006103516,SWING_RIGHT
0.42229399085045,0.38692399859428,0.35315901041031,0.89589202404022,0.84349900484085,0.67912501096725,0.91744500398636,0.82537299394608,0.75853699445724,1.45099997520447,2.31399989128113,3.33400011062622,0.69700002670288,0.69700002670288,0.85399997234344,9.59799957275391,9.28400039672852,8.73499965667725,0.34721300005913,0.37677899003029,0.44006499648094,0.51589101552963,0.00803900044411,-0.59822201728821,0.7724090218544,0.56566601991653,0.30566498637199,3.88299989700317,4.35400009155273,6.47200012207031,1.48199999332428,1.87399995326996,2.18799996376038,8.6569995880127,10.8540000915527,14.3059997558594,0.45591101050377,0.42812100052834,-0.04259800165892,-1.12076103687286,-1.83604598045349,-3.07280898094177,0.13535000383854,-0.14856399595737,-0.82333499193192,10.5520000457764,18.0830001831055,33.6180000305176,2.65899991989136,1.55999994277954,-6.51999998092651,14.3839998245239,12.0299997329712,9.52000045776367,-1.81267201900482,-4.12138891220093,-5.4735860824585,-4.81766080856323,-5.65978813171387,-5.76445913314819,-1.56426298618317,-0.67391800880432,0.80572700500488,36.8339996337891,29.6159992218018,13.9250001907349,-13.581000328064,-36.6469993591309,-39.1580009460449,6.46000003814697,-6.71999979019165,12.7360000610352,-5.31850481033325,-4.78048801422119,-4.88838481903076,-4.56111907958984,-3.42474794387817,-2.85102701187134,2.31799697875977,3.33801889419556,4.60665607452393,11.5719995498657,-6.86499977111816,-29.3819999694824,-39.7849998474121,-39.9420013427734,-39.9420013427734,17.4440002441406,-4.44399976730347,3.16499996185303,-4.74706411361694,-3.97246098518372,-2.86105394363403,-1.62266504764557,0.33869099617004,3.50164294242859,6.57232522964478,8.12081241607666,8.22175598144531,-37.3059997558594,-31.8920001983643,-4.03999996185303,-32.8810005187988,-16.5620002746582,-13.7379999160767,12.1090002059937,7.71500015258789,-2.56100010871887,-2.47221803665161,-1.2093780040741,0.40141201019287,6.5172119140625,10.8507385253906,11.0304346084595,6.56828689575195,3.72850704193115,0.93744599819183,18.1620006561279,22.0060005187988,20.0450000762939,-9.02999973297119,-4.63700008392334,-2.98900008201599,3.79200005531311,5.20499992370605,5.51900005340576,0.58698600530624,-0.20477800071239,-0.7519119977951,8.46312713623047,4.39779901504517,2.40274906158447,-2.59734988212585,-8.36720561981201,-11.367506980896,7.49200010299683,-1.45099997520447,-7.96299982070923,-0.55699998140335,-0.24300000071526,-0.47900000214577,11.0100002288818,12.6579999923706,14.6979999542236,0.70540100336075,2.78767490386963,4.1025972366333,3.91754698753357,6.73520517349243,9.6329517364502,-11.3488445281982,-10.0357971191406,-8.83135032653809,-10.7869997024536,-9.2180004119873,-6.31500005722046,-1.02799999713898,-1.89100003242493,-2.51900005340576,14.9329996109009,12.5799999237061,10.3830003738403,4.21832084655762,3.63275790214539,2.5384349822998,10.576548576355,9.90216541290283,8.19679737091064,-7.8587760925293,-6.52999687194824,-4.63030576705933,-2.94199991226196,0.03900000080466,1.05799996852875,-2.75399994850159,-2.75399994850159,-2.67499995231628,8.0290002822876,6.77400016784668,7.00899982452393,SWING_RIGHT
0.4042130112648,0.4076110124588,0.43475499749184,-0.19181600213051,-0.09189499914646,0.04166499897838,2.03979802131653,1.94809901714325,1.85474002361298,3.01999998092651,2.86299991607666,2.54900002479553,0.30500000715256,0.46200001239777,0.61900001764297,9.99100017547607,10.0690002441406,9.83399963378906,0.48175901174545,0.52704501152039,0.68122500181198,0.3254320025444,0.57794797420502,0.80097299814224,1.86890304088593,1.85912096500397,1.80271995067596,1.60800004005432,0.98000001907349,0.43099999427795,1.0110000371933,1.32500004768372,1.55999994277954,8.6569995880127,8.6569995880127,8.81400012969971,0.90659302473068,1.12741100788116,1.39184498786926,1.08113896846771,1.43726205825806,1.79296803474426,1.76648604869843,1.79814696311951,1.85178399085999,0.27399998903275,-0.195999994874,-0.66699999570847,1.71700000762939,2.89400005340576,2.89400005340576,8.9709997177124,9.44099998474121,9.91199970245361,1.44949996471405,1.33187794685364,1.20999395847321,1.98070895671844,2.01830101013184,1.56645596027374,1.81636095046997,1.69815301895142,1.34565997123718,-0.35299998521805,2.15700006484985,5.29500007629395,2.26600003242493,2.57999992370605,2.18799996376038,10.6969995498657,12.7360000610352,14.3839998245239,0.87550002336502,0.08623500168324,-1.31765496730804,0.51524102687836,-1.0430760383606,-3.66116690635681,0.67286902666092,-0.2609049975872,-1.61890804767609,11.0220003128052,26.556999206543,36.6769981384277,-0.40000000596046,-2.59699988365173,-13.1890001296997,15.875,14.9329996109009,7.08799982070923,-3.41894292831421,-5.38560676574707,-5.84491109848022,-5.73299217224121,-6.62263679504395,-5.86176490783691,-1.86420500278473,-0.53558599948883,0.99757599830627,39.0309982299805,22.7119998931885,15.0240001678467,-32.9589996337891,-38.2159996032715,-39.0789985656738,-2.64000010490417,4.81199979782104,8.5,-5.91185522079468,-5.89427518844604,-5.58506679534912,-4.96612691879272,-4.18844318389893,-2.26444888114929,2.30845808982849,3.54059910774231,5.2544732093811,-3.41300010681152,-22.9479999542236,-31.5,-39.8639984130859,-39.9420013427734,-37.9020004272461,-1.07099997997284,16.1889991760254,12.4230003356934,-5.40281915664673,-4.27306890487671,-2.65166902542114,-0.06267599761486,3.82976293563843,8.67545700073242,6.96692323684692,7.74944877624512,6.26727199554443,-38.9529991149902,-25.6940002441406,-1.13699996471405,-18.1310005187988,-14.3649997711182,-11.4630002975464,10.3830003738403,2.06599998474121,3.63599991798401,-0.40888300538063,1.34250104427338,1.28669798374176,11.0743522644043,10.1767950057983,9.65610885620117,3.9485878944397,1.56887602806091,0.9543319940567,7.25600004196167,17.9260005950928,16.9850006103516,-8.79500007629395,-2.04800009727478,0.14800000190735,4.42000007629395,1.04700005054474,6.30299997329712,1.25476503372192,-0.1708800047636,0.42414700984955,6.26291799545288,0.97979098558426,-0.3371550142765,-2.59826493263245,-10.1758060455322,-12.590087890625,11.8850002288818,3.88299989700317,-4.03999996185303,0.85399997234344,0.54000002145767,-0.16500000655651,9.44099998474121,12.5799999237061,14.9329996109009,SWING_RIGHT
1.30560898780823,1.57989799976349,1.74346995353699,2.01440000534058,2.55772089958191,2.84213590621948,2.63539409637451,2.59431290626526,2.45836305618286,-2.15700006484985,-2.31399989128113,-2.31399989128113,4.61999988555908,5.09100008010864,5.01200008392334,10.9320001602173,12.7360000610352,14.2270002365112,1.75513803958893,1.6306049823761,1.49622797966003,2.85788989067078,2.31337404251099,1.12744903564453,2.23729300498962,1.86281895637512,1.35441303253174,0.35199999809265,4.58900022506714,7.25600004196167,4.46299982070923,3.99200010299683,3.20799994468689,15.326000213623,14.4619998931885,12.8149995803833,1.17073702812195,0.68419700860977,-0.24431400001049,-0.24613699316978,-1.6421240568161,-4.13492822647095,0.82072097063065,0.35519400238991,-0.41485801339149,9.375,19.4169998168945,34.2449989318848,2.18799996376038,-0.24300000071526,-9.3439998626709,9.83399963378906,6.77400016784668,1.28199994564056,-2.58529591560364,-5.27313709259033,-5.60644102096558,-7.35875415802002,-8.18461894989014,-7.26908779144287,-0.90017300844193,1.15427601337433,2.40169501304626,38.560001373291,28.8320007324219,17.9260005950928,-28.5659999847412,-37.1180000305176,-39.2360000610351,0.49700000882149,1.20299994945526,9.75500011444092,-5.23407220840454,-4.59143018722534,-4.3180570602417,-5.773362159729,-4.24592685699463,-3.1723198890686,3.31961989402771,3.87526106834412,4.675705909729,14.9449996948242,1.45099997520447,-19.181999206543,-39.7849998474121,-39.9420013427734,-39.9420013427734,13.7559995651245,-1.30599999427795,2.14499998092651,-4.00373983383179,-3.66976094245911,-3.24997901916504,-1.79250204563141,0.51659297943115,5.13118696212769,5.93009281158447,7.30879783630371,7.09686279296875,-34.7949981689453,-38.7179985046387,-36.1290016174316,-35.6269989013672,-26.3689994812012,-14.3649997711182,10.9320001602173,13.0500001907349,18.306999206543,0.86613899469376,2.24995303153992,2.65892100334167,14.6019611358643,12.883282661438,10.5174474716187,1.99552202224731,1.16978204250336,0.44800901412964,0.43099999427795,7.96299982070923,7.96299982070923,-10.28600025177,-8.08899974822998,-8.08899974822998,3.94899988174438,1.8309999704361,1.8309999704361,2.47859597206116,2.07922005653381,-1.4133540391922,8.49979209899902,7.10901880264282,4.44926404953003,-1.08280694484711,-5.49004793167114,-11.1689758300781,10.7089996337891,6.55000019073486,0.43099999427795,-3.46000003814697,-1.49899995326996,-0.08600000292063,4.42000007629395,8.18599987030029,10.6969995498657,-0.95612198114395,1.30935204029083,3.80456709861755,2.72607588768005,3.08033490180969,4.69497680664063,-12.3627796173096,-11.5812320709229,-10.153881072998,-3.88299989700317,-4.74599981307983,-3.8050000667572,0.61900001764297,0.30500000715256,-0.47900000214577,13.28600025177,14.8549995422363,13.28600025177,4.98671293258667,4.95699501037598,4.36049604415894,6.20997714996338,6.82279014587402,6.46836996078491,-8.57912158966064,-7.26630020141602,-5.38143110275269,-2.78500008583069,-1.92200005054474,-1.45099997520447,-1.26300001144409,-1.81200003623962,-2.04800009727478,11.08899974823,9.52000045776367,8.89200019836426,SWING_RIGHT
-0.03930100053549,-0.101253002882,-0.19295899569988,-1.01313197612762,-1.07106196880341,-1.08771002292633,2.5077440738678,2.47418999671936,2.48148393630981,4.51000022888184,4.35400009155273,4.03999996185303,-0.87099999189377,-0.87099999189377,-0.40000000596046,9.91199970245361,10.0690002441406,9.59799957275391,-0.25187700986862,-0.12115699797869,0.0899979993701,-1.22621095180511,-1.53708696365356,-1.43732798099518,2.43370008468628,2.23685789108276,2.21516108512878,3.7260000705719,3.17700004577637,2.31399989128113,-0.16500000655651,0.07000000029802,0.14800000190735,9.04899978637695,9.28400039672852,10.2259998321533,0.27207300066948,0.85661101341248,1.35997498035431,-1.05795502662659,-0.14795899391174,0.79056602716446,2.35976004600525,2.62766003608704,3.03061389923096,1.37199997901917,1.37199997901917,-3.01999998092651,1.0110000371933,1.0110000371933,3.5220000743866,11.9519996643066,11.9519996643066,13.9919996261597,1.67115700244904,1.87009394168854,1.77089703083038,1.84027302265167,2.48621201515198,2.34444308280945,3.64260101318359,4.00671911239624,3.8562479019165,-2.23600006103516,1.05799996852875,6.55000019073486,3.59999990463257,1.95200002193451,0.14800000190735,8.9709997177124,6.22499990463257,9.1269998550415,1.61870098114014,1.12474405765533,-0.96379798650742,1.49505198001862,-1.52660000324249,-5.10685205459595,3.27018189430237,1.28564405441284,-0.88762497901917,6.55000019073486,32.6759986877441,38.1679992675781,0.14800000190735,-4.87200021743774,-20.1709995269775,9.1269998550415,12.5799999237061,3.94899988174438,-3.7818820476532,-4.97424221038818,-4.66039514541626,-7.17193078994751,-7.0864782333374,-5.80920696258545,-0.80506497621536,0.72175401449203,1.91205394268036,35.8930015563965,26.0860004425049,16.3570003509521,-34.9990005493164,-38.6870002746582,-39.6279983520508,0.41899999976158,10.3830003738403,11.6379995346069,-4.14557886123657,-4.24179601669312,-4.02273178100586,-4.72187423706055,-4.26417589187622,-2.96591997146606,2.81888103485107,3.92742490768433,5.88915586471558,3.09800004959106,-25.8509998321533,-36.443000793457,-39.8639984130859,-39.9420013427734,-27.7029991149902,-4.20900011062622,10.7749996185303,3.94899988174438,-3.75993990898132,-3.05669188499451,-2.67887091636658,-1.58647203445435,1.21172297000885,5.03854703903198,7.76763010025024,9.01181983947754,8.36478424072266,-39.1100006103516,-21.0650005340576,2.07800006866455,-15.46399974823,-13.3450002670288,-11.8549995422363,12.8929996490479,0.41899999976158,-1.54200005531311,-0.50729298591614,2.07966589927673,1.817263007164,12.2014722824097,13.8076877593994,12.2295484542847,4.7641167640686,1.88082098960876,0.39057600498199,13.3760004043579,15.8079996109009,11.5719995498657,-8.71700000762939,-4.79400014877319,-2.28299999237061,0.73299998044968,1.67400002479553,7.87200021743774,0.86916500329971,-1.74001896381378,-0.13684399425983,8.63411808013916,4.25413179397583,2.48332905769348,-3.53070306777954,-10.0740766525269,-12.0909299850464,5.9229998588562,-0.50999999046326,-5.60900020599365,-0.40000000596046,0.14800000190735,0.61900001764297,11.4809999465942,13.9130001068115,16.8159999847412,SWING_RIGHT
0.0633269995451,0.26377499103546,0.43119299411774,-1.12722897529602,-0.77509599924088,-0.54992800951004,2.02761507034302,2.23275899887085,2.40957593917847,2.78399991989136,2.78399991989136,3.01999998092651,0.54000002145767,0.54000002145767,0.61900001764297,9.36299991607666,9.36299991607666,9.83399963378906,0.71571600437164,0.97254800796509,1.09697604179382,-0.28129899501801,0.00551499985158,0.2180459946394,2.45544004440308,2.46009111404419,2.41894602775574,2.62800002098084,2.54900002479553,2.62800002098084,0.77600002288818,0.93300002813339,1.24600005149841,9.75500011444092,9.67700004577637,9.59799957275391,1.15086495876312,1.1046450138092,1.08658802509308,0.27196499705315,0.3326869904995,0.43461298942566,2.305330991745,2.18244910240173,2.02208709716797,2.07800006866455,2.31399989128113,2.07800006866455,0.93300002813339,1.63900005817413,2.50200009346008,9.52000045776367,10.3830003738403,11.7170000076294,1.14931499958038,1.41095995903015,1.62560200691223,0.56654101610184,1.02403497695923,1.28729498386383,1.85121500492096,1.70662498474121,1.56193196773529,1.52900004386902,-0.27399998903275,-0.03900000080466,2.97199988365173,4.77699995040894,4.07100009918213,11.9519996643066,10.6180000305176,10.2259998321533,1.68619704246521,1.39391505718231,0.47903499007225,1.47270095348358,0.88576799631119,-1.49068796634674,1.46853697299957,1.30772697925568,1.02534103393555,5.68699979782104,20.5939998626709,35.1870002746582,1.08899998664856,-2.28299999237061,-11.3059997558594,12.7360000610352,15.875,14.0699996948242,-1.08662796020508,-3.08431696891785,-3.93463611602783,-4.24945592880249,-6.74293994903564,-7.17616605758667,1.26130604743958,2.63381505012512,4.05567693710327,38.7960014343262,24.3600006103516,14.16100025177,-30.7630004882813,-37.6669998168945,-39.3930015563965,-5.07200002670288,-5.62099981307983,15.0900001525879,-3.82862305641174,-3.47556900978088,-3.55776810646057,-5.82107400894165,-5.10134601593018,-4.69363021850586,4.72638082504272,5.48163080215454,6.83162498474121,1.52900004386902,-19.0249996185303,-34.7169990539551,-39.7849998474121,-36.6469993591309,-31.9400005340576,7.71500015258789,-0.75700002908707,14.4619998931885,-3.66048192977905,-1.2961939573288,1.27696096897125,-3.14587807655334,20.2442779541016,19.4109153747559,8.60575675964355,-1.87475895881653,-2.58255505561829,-38.7179985046387,-10.3170003890991,6.00099992752075,-19.386999130249,-10.6000003814697,-7.93200016021729,11.4029998779297,-0.28600001335144,-0.44299998879433,1.93790102005005,1.90595304965973,0.89911699295044,15.9867420196533,12.3222026824951,9.96116065979004,-1.49264597892761,-1.18878197669983,-1.59475100040436,11.414999961853,10.4729995727539,7.96299982070923,-4.87200021743774,-2.20499992370605,-0.79299998283386,0.73299998044968,1.51699995994568,5.0479998588562,-1.66882598400116,-2.16187691688538,1.5263580083847,6.66852807998657,-0.7630860209465,-2.54961490631104,-6.14279508590698,-12.4948759078979,-11.4125957489014,4.74599981307983,0.1169999986887,-5.21700000762939,-0.55699998140335,-0.63599997758865,-0.47900000214577,9.44099998474121,12.8149995803833,14.8549995422363,SWING_RIGHT
1.24154996871948,1.11311495304108,1.0059859752655,-0.39178401231766,-0.34679400920868,-0.24575999379158,2.0214900970459,1.96652698516846,1.89299201965332,3.01999998092651,2.86299991607666,2.47099995613098,0.46200001239777,0.69700002670288,0.61900001764297,8.81400012969971,8.5,8.3430004119873,0.90945798158646,0.814532995224,0.70698297023773,-0.15201799571514,0.02471699938178,0.47109600901604,1.80514597892761,1.73279500007629,1.71622896194458,1.76499998569489,0.90200001001358,0.43099999427795,0.38299998641014,0.14800000190735,-0.00800000037998,8.57800006866455,9.04899978637695,8.89200019836426,0.56872302293777,0.44423100352287,0.11460699886084,0.90708500146866,1.11476802825928,0.94032198190689,1.71300995349884,1.67046904563904,1.63591599464417,0.98000001907349,3.33400011062622,7.64900016784668,-0.40000000596046,-0.63599997758865,-1.73399996757507,9.36299991607666,11.246000289917,14.9329996109009,-0.26534399390221,-0.3996140062809,-0.85448002815247,0.15498900413513,-1.44487297534943,-3.59227895736694,1.57710194587708,1.39632904529572,1.21245694160461,16.9850006103516,33.3819999694824,38.4029998779297,-2.67499995231628,-8.48099994659424,-28.5659999847412,17.9150009155273,19.2479991912842,2.92899990081787,-3.72027111053467,-4.10490608215332,-4.0412859916687,-6.2101879119873,-5.19007396697998,-3.71017503738403,2.29678988456726,3.07165288925171,3.80877900123596,10.5520000457764,-0.50999999046326,-22.242000579834,-39.2360000610351,-39.7849998474121,-31.9400005340576,7.40100002288818,20.1900005340576,-2.24799990653992,-4.56909990310669,-4.69426822662354,-4.16753911972046,-2.99146699905396,-0.91440498828888,2.85775208473206,5.14908409118652,7.00602293014526,8.0595064163208,-35.5800018310547,-38.875,-35.8930015563965,-28.173999786377,-19.5440006256104,-9.3439998626709,16.9729995727539,9.52000045776367,-3.03200006484985,-1.54355502128601,2.37741994857788,4.13392210006714,11.6783199310303,16.5332851409912,16.0883140563965,4.91592979431152,0.83534699678421,0.29961600899696,-19.3390007019043,-0.98000001907349,8.27600002288818,-8.16699981689453,-6.51999998092651,-3.6949999332428,-2.9539999961853,-3.03200006484985,0.18400000035763,4.06087923049927,2.92738890647888,1.60592901706696,12.8930206298828,10.9128150939941,8.30165863037109,0.15808400511742,0.2964960038662,-1.99967896938324,10.1590003967285,9.5319995880127,6.47200012207031,-1.26300001144409,0.22599999606609,0.54000002145767,5.0479998588562,9.52000045776367,13.5989999771118,2.2680389881134,4.23991203308105,5.5001220703125,-1.06926000118256,-3.66160202026367,-1.72623002529144,-12.4031887054443,-12.4264011383057,-10.2273616790771,4.19700002670288,-2.0,-4.03999996185303,0.54000002145767,0.30500000715256,0.14800000190735,14.7760000228882,16.9729995727539,15.7180004119873,5.76292991638184,5.33929014205933,4.53978776931763,0.61135900020599,2.13946604728699,2.97914600372314,-8.20309543609619,-6.35706901550293,-4.77236604690552,-3.56900000572205,-2.0789999961853,-1.21599996089935,-0.32199999690056,-1.02799999713898,-1.41999995708466,13.6780004501343,11.1669998168945,8.89200019836426,SWING_RIGHT
0.53942400217056,0.59511798620224,0.76180499792099,-0.20158499479294,-0.00134299998172,0.64338797330856,1.84475600719452,1.86155796051025,1.9575879573822,2.54900002479553,1.60800004005432,0.90200001001358,0.46200001239777,0.77600002288818,1.40299999713898,10.3830003738403,10.2259998321533,11.5600004196167,0.92519998550415,1.03801894187927,0.98496001958847,1.14552998542786,1.53154098987579,1.4779599905014,2.01571393013,2.03613710403442,1.93179702758789,0.82300001382828,1.2150000333786,0.66600000858307,1.63900005817413,1.40299999713898,1.08899998664856,13.2069997787476,12.8149995803833,10.7749996185303,0.91276001930237,0.84005302190781,0.70234298706055,1.50334298610687,1.47087705135345,1.18699598312378,1.8549599647522,1.76761496067047,1.62956297397614,1.2150000333786,2.70600008964539,12.2779998779297,0.69700002670288,-0.08600000292063,-0.32199999690056,10.1470003128052,10.4610004425049,12.2659997940063,0.30930799245834,-0.85633397102356,-3.21379995346069,-0.59865301847458,-3.92334198951721,-6.43020009994507,1.02030694484711,-0.01305700000376,0.18925100564957,32.048999786377,38.0110015869141,30.7929992675781,-4.95100021362305,-21.8190002441406,-35.3919982910156,13.4429998397827,-0.05099999904633,-10.4069995880127,-4.72208118438721,-4.5416088104248,-4.07568120956421,-7.32900285720825,-6.11400890350342,-4.64377117156982,1.55712294578552,2.80189490318298,3.62341594696045,16.8279991149902,6.31500005722046,-13.1409997940063,-38.8440017700195,-39.7070007324219,-39.8639984130859,9.36299991607666,17.2080001831055,-4.67999982833862,-4.21117687225342,-3.84783101081848,-3.12129998207092,-4.1653528213501,-2.58650898933411,-1.01591897010803,4.99175119400024,7.10230922698975,8.92198181152344,-31.5,-37.8549995422363,-39.5019989013672,-37.5099983215332,-27.3110008239746,-15.7779998779297,19.7980003356934,12.8929996490479,16.5809993743896,-1.72378194332123,-5.30564498901367,-6.01600980758667,1.86602401733398,-27.4066162109375,-21.2257919311523,9.49541091918945,13.101354598999,10.9584007263184,-27.1849994659424,-8.04100036621094,4.35400009155273,-9.3439998626709,-9.02999973297119,-5.65700006484985,6.53800010681152,2.45900011062622,1.8309999704361,-3.38790798187256,-2.69051003456116,-1.101557970047,-13.3872804641724,-11.5258989334106,-12.4400577545166,9.44857597351074,7.62403678894043,4.54823923110962,4.35400009155273,12.121000289917,12.121000289917,-5.65700006484985,-0.16500000655651,-0.16500000655651,1.8309999704361,3.40000009536743,3.40000009536743,5.42854881286621,8.61701202392578,9.09935092926025,-16.0181941986084,-14.0913667678833,-10.9212532043457,-2.28834104537964,-4.67221403121948,-3.08172488212585,6.55000019073486,3.17700004577637,-0.1169999986887,1.0110000371933,0.54000002145767,0.54000002145767,9.20600032806396,11.7170000076294,14.0699996948242,8.88944816589355,7.77953815460205,6.16732692718506,-7.45781707763672,-3.80356907844543,-0.80241298675537,-0.86421298980713,1.23412001132965,2.28705811500549,-2.78500008583069,-3.41300010681152,-2.86299991607666,0.46200001239777,0.14800000190735,-0.40000000596046,13.7559995651245,13.28600025177,11.7170000076294,SWING_RIGHT
1.1798460483551,1.23297798633575,1.52387499809265,0.99468702077866,1.20483994483948,1.48997795581818,3.74253511428833,3.58697390556335,3.27179598808289,-0.90200001001358,-1.45099997520447,-1.92200005054474,2.42300009727478,3.36500000953674,3.20799994468689,7.95100021362305,10.7749996185303,11.9519996643066,1.68721401691437,1.42980694770813,0.98033100366592,1.86736702919006,1.88149094581604,1.5439670085907,3.02646589279175,2.91858291625977,2.94038605690002,-1.2940000295639,1.13699996471405,5.60900020599365,1.87399995326996,-0.00800000037998,-2.12599992752075,12.9720001220703,17.757999420166,20.7390003204346,0.24943900108337,-0.21641099452972,-0.17092399299145,0.56086802482605,-0.75595998764038,-2.38017988204956,3.22129988670349,4.15818309783936,5.75135898590088,11.1009998321533,16.5139999389648,31.4209995269775,-3.6949999332428,-4.55800008773804,-10.28600025177,17.6790008544922,11.5600004196167,11.9519996643066,0.61729502677917,1.5065929889679,1.5275000333786,-4.79455995559692,-6.85836505889893,-9.01743984222412,7.63062906265259,8.92843723297119,8.70960998535156,37.8540000915527,28.2830009460449,14.7880001068115,-23.7800006866455,-35.9410018920898,-38.9220008850098,6.46000003814697,-6.95499992370605,-4.75799989700317,0.71363002061844,0.12153299897909,-0.94825202226639,-8.99907970428467,-8.17025279998779,-7.25771808624268,8.07182598114014,7.70836877822876,7.71506404876709,8.35499954223633,-4.51100015640259,-21.92799949646,-39.7070007324219,-39.8639984130859,-39.9420013427734,0.81099998950958,-5.93499994277954,4.9689998626709,-1.68658399581909,-0.80784702301025,0.41215899586678,-5.94828701019287,-6.17616176605225,-7.70314979553223,8.63580226898193,10.0557737350464,11.3410587310791,-35.5009994506836,-38.875,-38.4819984436035,-39.6279983520508,-23.9370002746582,-12.9530000686646,11.4029998779297,20.8959999084473,17.1299991607666,0.35269999504089,-0.6315889954567,-0.71054899692535,-10.1144361495972,-11.2368192672729,-10.4613389968872,11.8405466079712,11.0145282745361,9.84467124938965,-16.4360008239746,0.58799999952316,9.375,-12.7180004119873,-10.128999710083,-6.28399991989136,8.81400012969971,3.55699992179871,2.53699994087219,-0.10144799947739,1.33120894432068,4.96382904052734,-8.80972576141357,-7.38425922393799,-11.6285276412964,8.40573215484619,6.70721292495728,-2.55798006057739,11.8070001602173,10.081000328064,1.2150000333786,-3.22499990463257,-1.10599994659424,1.0110000371933,3.16499996185303,5.98899984359741,11.1669998168945,7.01831293106079,8.13142776489258,8.26386833190918,-10.591402053833,-7.7259202003479,-3.97689700126648,-4.48973178863525,-2.67495489120483,0.17364799976349,-3.33400011062622,-5.2960000038147,-5.68800020217896,0.93300002813339,1.0110000371933,0.46200001239777,12.3439998626709,13.7559995651245,12.3439998626709,7.13133907318115,5.64030504226685,4.27719402313232,-0.56676298379898,1.63905000686646,2.65913105010986,1.84283101558685,2.2118558883667,2.25515794754028,-5.5310001373291,-4.58900022506714,-3.8050000667572,-0.24300000071526,-0.79299998283386,-1.18499994277954,10.6180000305176,8.9709997177124,7.48000001907349,SWING_RIGHT
1.48853600025177,1.28809499740601,1.01715898513794,1.26301002502441,1.25154495239258,1.09437000751495,3.45611596107483,2.90999507904053,2.56809210777283,2.31399989128113,2.31399989128113,2.94099998474121,1.87399995326996,0.93300002813339,-0.55699998140335,13.128999710083,12.9720001220703,12.0299997329712,0.69272899627686,0.53281801939011,0.54394102096558,0.87918001413345,0.51586502790451,-0.31545901298523,2.4099600315094,2.42801308631897,2.78094291687012,4.43200016021729,5.60900020599365,6.07999992370605,0.46200001239777,0.69700002670288,-0.94900000095367,10.3039999008179,7.79400014877319,7.79400014877319,0.46105098724365,0.3575040102005,0.63226199150085,-0.97457700967789,-1.59572100639343,-2.37202191352844,3.08633089065552,3.42216205596924,3.7523078918457,6.23699998855591,12.2779998779297,30.6359996795654,-1.26300001144409,-1.02799999713898,-7.30399990081787,8.10799980163574,15.0120000839233,23.9559993743896,0.97118300199509,0.5523390173912,-0.21318399906158,-3.6745491027832,-5.36970281600952,-6.71098613739014,4.3703441619873,5.36513185501099,5.97277212142944,37.6969985961914,31.0289993286133,12.121000289917,-24.5650005340576,-36.0979995727539,-39.0009994506836,8.26399993896484,-9.6230001449585,4.81199979782104,-0.64279401302338,-0.87468099594116,-1.61044204235077,-6.18787908554077,-5.38806486129761,-4.71976280212402,6.56531095504761,6.89802980422974,7.30820178985596,3.01999998092651,-10.2379999160767,-27.9689998626709,-39.7070007324219,-39.8639984130859,-37.9020004272461,8.73499965667725,6.06799983978271,3.55699992179871,-2.78957295417786,-2.61042094230652,-1.49211895465851,-4.0595760345459,-4.14824390411377,-4.86703109741211,8.53208637237549,10.2517528533936,11.6976375579834,-36.992000579834,-39.2669982910156,-25.3799991607666,-39.4710006713867,-22.3680000305176,-14.6009998321533,3.87100005149841,13.3640003204346,1.125,-1.87909996509552,-2.41121697425842,-2.50299096107483,-6.52616786956787,-7.48060083389282,-7.358314037323,11.5060291290283,10.5863742828369,9.29698753356934,-10.3950004577637,1.2940000295639,7.41300010681152,-11.0699996948242,-8.16699981689453,-5.10799980163574,5.44000005722046,4.34200000762939,5.28299999237061,-1.67885994911194,0.50844699144363,2.81611895561218,-6.70530891418457,-6.03048801422119,-8.30294132232666,7.6895580291748,5.98459577560425,1.91683995723724,8.59000015258789,8.74699974060059,6.47200012207031,-4.08799982070923,-1.89100003242493,-1.41999995708466,6.38199996948242,10.539999961853,10.6180000305176,6.58429718017578,7.44289112091064,7.4341459274292,-9.36978530883789,-8.25686454772949,-6.02171611785889,-1.86464905738831,-2.78208208084106,-1.74217903614044,2.62800002098084,-1.21599996089935,-2.70600008964539,-0.94900000095367,-0.55699998140335,-0.47900000214577,11.7950000762939,12.5010004043579,12.5799999237061,6.87683010101318,5.93608999252319,4.80407094955444,-3.49673891067505,-1.28484296798706,0.51593601703644,-0.20748099684715,0.89493900537491,1.44478905200958,-3.96199989318848,-3.4909999370575,-2.94199991226196,-0.71399998664856,-1.10599994659424,-1.41999995708466,11.08899974823,9.59799957275391,8.42099952697754,SWING_RIGHT
2.28881502151489,2.00843501091003,1.37625598907471,0.65262097120285,0.9395449757576,1.44566702842712,6.46208000183105,6.13037300109863,5.20208883285522,1.68599998950958,0.35199999809265,-2.47099995613098,1.08899998664856,1.08899998664856,0.69700002670288,9.52000045776367,9.20600032806396,9.04899978637695,0.91612100601196,0.61808401346207,0.1586530059576,1.87012696266174,2.09500503540039,2.22967195510864,4.58779716491699,3.93486094474792,2.82225799560547,-1.84300005435944,-1.84300005435944,-0.50999999046326,1.32500004768372,1.32500004768372,1.63900005817413,9.44099998474121,9.44099998474121,10.8540000915527,0.11241500079632,0.14554999768734,0.28010898828506,1.65543699264526,-0.01099599990994,-3.11103510856628,2.504065990448,2.43245601654053,2.41300010681152,7.64900016784668,25.3010005950928,36.3639984130859,0.69700002670288,-0.24300000071526,-4.08799982070923,16.1100006103516,19.5620002746582,17.6009998321533,0.00246499991044,-1.10429394245148,-2.74761700630188,-5.39371776580811,-7.01640796661377,-7.94994878768921,2.21785593032837,2.26044988632202,2.63294100761414,39.1100006103516,34.5589981079102,22.9479999542236,-19.3080005645752,-34.7639999389648,-38.6870002746582,3.47900009155273,-11.9759998321533,4.02799987792969,-3.50385403633118,-3.86509895324707,-4.57328796386719,-7.04361915588379,-5.84970188140869,-5.03543376922607,3.10791802406311,3.66593098640442,4.92261219024658,11.4930000305176,-7.64900016784668,-30.5580005645752,-39.6279983520508,-39.8639984130859,-39.9420013427734,9.04899978637695,-4.60099983215332,12.8149995803833,-4.72691917419434,-4.38375902175903,-3.36793804168701,-3.39912509918213,-1.51633596420288,2.5895209312439,7.04428195953369,8.80642318725586,9.1405668258667,-37.6189994812012,-39.423999786377,-34.7169990539551,-35.6269989013672,-25.5060005187988,-14.7580003738403,8.73499965667725,10.539999961853,4.89099979400635,-0.45137301087379,3.52797794342041,4.26495504379272,17.2735443115234,20.3445625305176,16.5561466217041,2.24265003204346,-2.22534608840942,-1.97071897983551,-18.1620006561279,-5.76599979400635,2.0,-11.5410003662109,-7.61800003051758,-4.08799982070923,2.69400000572205,1.36000001430511,1.28199994564056,4.04019021987915,3.6996591091156,3.28644299507141,13.7963361740112,11.0589685440063,8.83444595336914,-1.52674102783203,-1.47290205955505,-2.91440796852112,6.39300012588501,7.80600023269653,6.15799999237061,-1.34200000762939,0.07000000029802,0.46200001239777,2.8510000705719,4.73400020599365,7.00899982452393,2.62911200523376,2.59052610397339,3.90363597869873,4.998291015625,-0.72838097810745,-1.92123103141785,-10.1737680435181,-14.4238777160645,-13.1385879516602,4.98099994659424,1.68599998950958,-0.03900000080466,0.77600002288818,1.08899998664856,1.08899998664856,8.0290002822876,9.59799957275391,10.3039999008179,4.89827394485474,5.17575407028198,4.77613401412964,-0.88677197694778,0.79065901041031,2.34625005722046,-10.6513347625732,-8.07028484344482,-6.0812668800354,-1.21599996089935,-1.60800004005432,-1.92200005054474,0.77600002288818,0.14800000190735,-0.24300000071526,10.7749996185303,11.1669998168945,11.0100002288818,SWING_RIGHT
1.14126801490784,1.0910120010376,1.02265501022339,0.26938501000404,0.3566919863224,0.32582101225853,2.87244391441345,3.0551290512085,3.10886788368225,2.94099998474121,3.4909999370575,3.7260000705719,0.61900001764297,0.93300002813339,0.61900001764297,9.20600032806396,9.1269998550415,9.44099998474121,0.96456801891327,0.9053789973259,0.84925198554993,0.20235100388527,-0.05180599913001,-0.13521400094032,3.1006190776825,3.03486204147339,3.03224992752075,3.56900000572205,3.17700004577637,2.70600008964539,0.54000002145767,0.54000002145767,0.61900001764297,9.75500011444092,9.83399963378906,10.0690002441406,0.81564897298813,0.83453297615051,0.87675601243973,-0.07037000358105,0.08315700292587,0.20549899339676,3.0020010471344,3.07789397239685,3.20800590515137,2.15700006484985,1.84300005435944,2.15700006484985,0.69700002670288,0.85399997234344,0.61900001764297,10.0690002441406,9.67700004577637,10.1470003128052,0.82303500175476,0.76640498638153,0.88441002368927,0.508504986763,1.10846900939941,1.42442405223846,3.14428091049194,2.73540496826172,2.30633997917175,2.0,-0.66699999570847,-2.70600008964539,1.40299999713898,1.95200002193451,2.50200009346008,9.83399963378906,9.1269998550415,9.59799957275391,0.98465001583099,0.80929297208786,0.47238698601723,2.04610204696655,2.57123708724976,2.54418110847473,1.67442095279694,1.04855096340179,0.68578898906708,-4.03999996185303,-1.68700003623962,3.96099996566772,1.7960000038147,0.77600002288818,-1.10599994659424,11.3240003585815,17.757999420166,23.1709995269775,0.28430399298668,-1.78937196731567,-2.87145090103149,0.16381299495697,4.54273986816406,2.71560311317444,-0.97746497392654,-2.16046810150146,-1.37795197963715,-29.6949996948242,4.43200016021729,11.1009998321533,-18.2099990844727,-6.44099998474121,-1.57700002193451,11.6379995346069,0.41899999976158,0.49700000882149,-3.82313895225525,-4.28645515441895,-3.46144890785217,0.32600298523903,-2.45183706283569,-4.90985012054443,-0.61118501424789,-0.38574200868607,-1.05743396282196,12.0419998168945,10.9440002441406,9.29599952697754,0.30500000715256,1.55999994277954,1.71700000762939,3.71399998664856,6.85200023651123,8.81400012969971,-0.33041799068451,2.54534697532654,3.84731197357178,-8.97835636138916,-9.71838855743408,-6.54258680343628,-4.0272741317749,-5.84976196289063,-4.16426706314087,5.4520001411438,0.50900000333786,-3.8050000667572,1.16799998283386,0.38299998641014,-0.63599997758865,10.3039999008179,11.4809999465942,12.0299997329712,4.07838678359985,3.45489001274109,2.32894396781921,-2.70780897140503,0.69384700059891,3.15595602989197,-2.02353811264038,-0.31489199399948,0.82327401638031,-6.31500005722046,-6.94299983978271,-6.70800018310547,-1.57700002193451,-2.36199998855591,-2.51900005340576,11.7950000762939,11.0100002288818,10.6969995498657,1.19723796844482,0.28736400604248,-0.39226499199867,4.59366703033447,5.00710391998291,4.58106184005737,1.48471403121948,1.89275097846985,2.18047690391541,-5.68800020217896,-4.51100015640259,-3.56900000572205,-2.98900008201599,-2.91100001335144,-2.83200001716614,9.75500011444092,9.44099998474121,9.04899978637695,SWING_RIGHT
1.57112801074982,1.54727494716644,1.54257798194885,1.31232798099518,1.3634740114212,1.29770004749298,3.37659096717834,3.41083693504334,3.40271210670471,2.15700006484985,2.47099995613098,2.94099998474121,1.48199999332428,1.55999994277954,1.71700000762939,8.89200019836426,9.28400039672852,9.36299991607666,1.53659403324127,1.53451001644135,1.52373003959656,1.15401101112366,0.94325697422028,0.75595200061798,3.36250400543213,3.23623895645142,3.12245106697083,3.33400011062622,3.4909999370575,3.33400011062622,1.87399995326996,1.87399995326996,1.87399995326996,9.20600032806396,8.81400012969971,8.42099952697754,1.48000204563141,1.46159601211548,1.44126999378204,0.52486902475357,0.23242700099945,0.06548599898815,2.99771809577942,2.90656709671021,2.64976596832275,3.09800004959106,2.78399991989136,1.2150000333786,2.03099989891052,2.42300009727478,2.89400005340576,8.10799980163574,7.95100021362305,8.10799980163574,1.39636695384979,1.47532999515533,1.34699904918671,0.14734700322151,0.80477601289749,1.62863004207611,2.16300702095032,1.05068302154541,-0.0591249987483,-0.66699999570847,-2.70600008964539,-4.03999996185303,3.91400003433228,4.85500001907349,4.85500001907349,8.9709997177124,11.6379995346069,17.3649997711182,0.98746401071548,0.39283400774002,-0.24377900362015,2.3478479385376,1.81131494045258,-0.3483569920063,-0.95195800065994,-0.42338800430298,1.92858695983887,4.58900022506714,28.5179996490479,37.1479988098145,3.99200010299683,-2.04800009727478,-12.6389999389648,25.9169998168945,30.7029991149902,8.57800006866455,-0.43366599082947,-1.0677410364151,-1.83922004699707,-2.82293701171875,-5.55189418792725,-5.12530422210693,4.18760776519775,6.32222318649292,6.59124517440796,36.0499992370605,20.2019996643066,-5.13899993896484,-33.1160011291504,-34.4500007629395,-30.8409996032715,-8.83800029754639,24.4260005950928,-5.30700016021729,-2.56788492202759,-3.1958019733429,-4.13105201721191,-5.5375919342041,-5.41035509109497,-5.38615322113037,6.95420122146606,6.7550368309021,7.57356309890747,-3.56900000572205,-6.31500005722046,-22.0069999694824,-23.1520004272461,-26.2119998931885,-26.8400001525879,4.89099979400635,0.18400000035763,2.6159999370575,-4.07890319824219,-2.27790403366089,-2.72104907035828,-4.48479700088501,-5.2767219543457,-18.793529510498,9.50044918060303,12.6749849319458,13.7960224151611,-34.7169990539551,-38.5610008239746,-29.30299949646,-20.3279991149902,-16.0130004882813,-11.2270002365112,11.0100002288818,11.9519996643066,10.0690002441406,-3.81678295135498,-4.32591199874878,-4.01562881469727,-20.8686370849609,-18.0001049041748,-14.9799995422363,11.7295293807983,9.92068958282471,8.91713714599609,-15.5729999542236,-6.62900018692017,-1.92200005054474,-9.50100040435791,-7.61800003051758,-6.12799978256226,7.24499988555908,5.98899984359741,4.73400020599365,-2.80645203590393,-1.03395998477936,1.89693200588226,-12.0811004638672,-9.55630970001221,-7.42307901382446,7.9653468132019,6.34826993942261,3.74657106399536,1.68599998950958,3.25500011444092,3.01999998092651,-4.48000001907349,-2.83200001716614,-1.73399996757507,4.5770001411438,5.51900005340576,6.61700010299683,SWING_RIGHT
1.12732899188995,1.20334100723267,1.26188898086548,0.03505599871278,-0.08537299931049,-0.13795700669289,3.95872592926025,4.17494106292725,4.24805021286011,3.96099996566772,3.88299989700317,3.7260000705719,1.16799998283386,1.16799998283386,1.16799998283386,10.2259998321533,9.83399963378906,8.9709997177124,1.28910005092621,1.29514598846436,1.29179298877716,-0.11976200342178,-0.03553700074553,0.02827499993145,4.19273900985718,4.05644702911377,3.87155699729919,3.6470000743866,3.4909999370575,2.94099998474121,1.40299999713898,1.48199999332428,1.48199999332428,8.5,8.5,8.81400012969971,1.27095997333527,1.24774897098541,1.06350195407867,0.04832899942994,0.11846400052309,0.8357430100441,3.60285401344299,3.24418210983276,2.45059609413147,2.47099995613098,2.0,1.05799996852875,1.55999994277954,1.55999994277954,1.63900005817413,9.1269998550415,9.20600032806396,9.36299991607666,0.8999360203743,0.69286298751831,0.4559819996357,1.19600796699524,1.56734597682953,2.02906799316406,2.09106302261353,1.75930798053741,1.41829001903534,0.19499999284744,-1.05900001525879,-0.35299998521805,1.32500004768372,1.48199999332428,1.40299999713898,9.83399963378906,10.6969995498657,12.4230003356934,0.26042398810387,-0.00727800000459,-1.03421103954315,2.08477807044983,0.00488399993628,-4.34010887145996,1.16553604602814,1.30447995662689,1.27334594726563,16.0440006256104,28.0470008850098,38.560001373291,0.38299998641014,-1.65600001811981,-23.8589992523193,18.5419998168945,19.1700000762939,-4.60099983215332,-2.87169694900513,-3.96035504341125,-4.08718299865723,-6.48348617553711,-6.49167108535767,-5.19171810150146,1.56919503211975,2.20827507972717,2.82176804542542,36.8339996337891,19.7310009002686,19.7310009002686,-35.9410018920898,-38.9220008850098,-38.9220008850098,3.40000009536743,16.3449993133545,16.3449993133545,-4.52580118179321,-4.65570497512817,-4.83837890625,-4.64622592926025,-3.10790395736694,-1.75874304771423,3.63790893554688,5.04082298278809,6.94536876678467,-14.16100025177,-29.5380001068115,-37.3839988708496,-39.4710006713867,-39.0009994506836,-31.6259994506836,12.1090002059937,3.63599991798401,7.32299995422363,-4.51265096664429,-3.63065505027771,0.59203398227692,1.59012198448181,15.2329998016357,19.9902458190918,7.94580793380737,2.46673798561096,-2.03868794441223,-39.3450012207031,-32.2060012817383,-32.2060012817383,-21.9759998321533,-14.6009998321533,-14.6009998321533,9.67700004577637,8.18599987030029,8.18599987030029,2.0149519443512,2.07465291023254,2.05524706840515,16.1079807281494,12.9052782058716,9.64971923828125,-1.32492399215698,-0.34436801075935,-0.01722699962556,-4.11899995803833,4.90299987792969,11.1789999008179,-7.69700002670288,-3.7739999294281,-0.79299998283386,5.75400018692017,5.83199977874756,6.14599990844727,2.5559298992157,4.40577507019043,2.10319805145264,7.13049983978271,5.96647691726685,1.51395499706268,-1.06772804260254,-7.00923204421997,-14.4372253417969,14.003999710083,14.003999710083,6.78599977493286,0.61900001764297,0.61900001764297,0.93300002813339,6.38199996948242,6.38199996948242,10.3830003738403,SWING_RIGHT
0.13135899603367,0.22830200195313,0.35841399431229,-0.76775699853897,-0.59324198961258,-0.09793599694967,1.15597498416901,1.31189095973969,1.65217900276184,0.74500000476837,0.27399998903275,0.98000001907349,1.16799998283386,1.24600005149841,1.32500004768372,9.59799957275391,9.28400039672852,9.75500011444092,0.36787700653076,0.40200600028038,0.4976019859314,0.2339950054884,0.42122301459312,0.58313500881195,1.71701395511627,1.75198495388031,1.64085400104523,0.90200001001358,0.90200001001358,-0.82400000095367,1.55999994277954,1.55999994277954,1.32500004768372,9.44099998474121,9.44099998474121,8.26399993896484,0.51718401908875,0.52629697322845,0.47926199436188,0.64358699321747,0.75515097379684,1.16483104228973,1.57760894298553,1.52347803115845,1.35096800327301,-1.13699996471405,-1.52999997138977,-0.66699999570847,1.55999994277954,1.0110000371933,0.14800000190735,7.32299995422363,7.24499988555908,9.44099998474121,0.33154299855232,-0.43943899869919,-0.86644399166107,1.26288604736328,0.98741298913956,0.2876670062542,1.28928899765015,1.32803404331207,1.77078294754028,0.90200001001358,2.86299991607666,5.13800001144409,-0.94900000095367,-0.71399998664856,-0.71399998664856,12.4230003356934,13.835000038147,13.835000038147,-0.90489798784256,-0.6747829914093,0.80414199829102,-0.59936499595642,-2.2042670249939,-4.58809995651245,2.71494388580322,4.43978595733643,6.18146896362305,12.9049997329712,30.7150001525879,35.3440017700195,-2.20499992370605,-1.10599994659424,-4.32299995422363,13.5989999771118,15.2469997406006,14.3839998245239,1.53313899040222,0.98342901468277,-0.26467201113701,-6.25440406799316,-7.82226514816284,-7.75711917877197,6.76320314407349,6.90464019775391,6.50833797454834,37.3050003051758,25.3799991607666,17.613000869751,-31.8610000610352,-37.9020004272461,-38.9220008850098,-2.9539999961853,2.14499998092651,11.4029998779297,-1.6921900510788,-3.36479091644287,-4.55541706085205,-6.53850698471069,-5.32785892486572,-3.20470809936523,6.11971521377563,5.95415306091309,6.91562414169312,-4.98199987411499,-18.3190002441406,-32.2840003967285,-37.2750015258789,-36.7249984741211,-31.0769996643066,-3.58100008964539,9.20600032806396,4.65500020980835,-5.03113508224487,-4.18414211273193,-2.5560519695282,-1.05582904815674,2.16337895393372,7.4241738319397,8.33479404449463,9.30635929107666,8.30215644836426,-38.0900001525879,-39.5019989013672,-26.7140007019043,-22.7600002288818,-16.5620002746582,-11.4630002975464,10.6969995498657,11.7170000076294,12.3439998626709,1.5967960357666,4.39175891876221,5.07960987091064,15.4452447891235,15.3521213531494,13.0302619934082,2.85901689529419,-0.29962500929832,-1.22328805923462,-10.1599998474121,1.2940000295639,5.29500007629395,-9.97200012207031,-7.53999996185303,-6.20599985122681,11.3240003585815,10.6969995498657,9.91199970245361,5.15469408035278,5.34809684753418,4.77965307235718,9.99845504760742,7.61945104598999,5.56628799438477,-2.36217188835144,-5.11914682388306,-10.5872144699097,9.13899993896484,6.62900018692017,6.15799999237061,-2.83200001716614,-2.36199998855591,-1.89100003242493,9.67700004577637,9.67700004577637,10.6180000305176,SWING_RIGHT
0.58386397361755,0.52188402414322,0.40161600708961,0.38367500901222,0.79831600189209,0.92754399776459,0.90026998519897,0.87387198209763,0.92183202505112,0.98000001907349,1.45099997520447,2.47099995613098,1.48199999332428,1.08899998664856,-0.00800000037998,15.0120000839233,12.8149995803833,11.4809999465942,0.32538598775864,-0.30802899599075,-0.59777998924255,0.89377897977829,0.41351300477982,-0.61052602529526,0.97412198781967,1.25612497329712,1.90774703025818,5.13800001144409,8.43299961090088,13.8470001220703,-1.81200003623962,-2.20499992370605,-2.59699988365173,11.6379995346069,11.3240003585815,11.7950000762939,-0.39477699995041,0.96949797868729,2.6747989654541,-2.14135909080505,-4.19487905502319,-5.802659034729,3.25976395606995,5.47553777694702,7.1561450958252,26.8700008392334,36.7560005187988,36.4420013427734,-3.22499990463257,-8.95199966430664,-26.5259990692139,13.9919996261597,10.8540000915527,-2.71799993515015,3.50332188606262,3.04376888275146,1.4217129945755,-7.29282522201538,-8.10708904266357,-7.31983184814453,8.11418914794922,8.02130508422852,7.53852891921997,24.5949993133545,13.8470001220703,8.11900043487549,-36.568000793457,-39.1580009460449,-39.7849998474121,-9.70100021362305,2.92899990081787,9.04899978637695,-0.57177698612213,-2.86920499801636,-4.27368783950806,-5.69534778594971,-4.27520322799683,-2.25871610641479,6.98488616943359,6.92429208755493,7.57752513885498,-0.58799999952316,-12.6700000762939,-28.9890003204346,-39.9420013427734,-39.9420013427734,-39.9420013427734,-5.62099981307983,-1.38499999046326,8.89200019836426,-4.30051279067993,-3.9922080039978,-2.01038408279419,0.80440199375153,7.15445709228516,15.6199207305908,8.37362384796143,7.42497682571411,3.53483891487122,-37.2270011901855,-39.2669982910156,-29.8519992828369,-33.9790000915527,-21.0340003967285,-13.6590003967285,11.08899974823,15.875,15.0900001525879,2.38857698440552,3.09779191017151,3.25562191009521,14.2561664581299,11.5057601928711,9.28979015350342,0.80937397480011,0.31463798880577,-0.35113900899887,-2.0789999961853,3.33400011062622,6.39300012588501,-11.3059997558594,-9.50100040435791,-7.14699983596802,9.04899978637695,5.51900005340576,5.0479998588562,3.95360493659973,1.49714803695679,0.64965200424194,8.13661575317383,6.54517984390259,4.80894613265991,-2.63959002494812,-10.6872959136963,-11.5571298599243,6.39300012588501,2.94099998474121,1.84300005435944,-5.4210000038147,-2.83200001716614,-2.59699988365173,6.30299997329712,8.89200019836426,8.9709997177124,0.92113602161407,2.22107791900635,3.32118606567383,3.87412810325623,3.77564001083374,4.06029081344604,-11.0337018966675,-10.0551452636719,-8.6271448135376,0.27399998903275,0.03900000080466,-0.1169999986887,-1.65600001811981,-1.49899995326996,-1.49899995326996,11.4809999465942,11.9519996643066,11.9519996643066,3.81252503395081,3.91656088829041,3.52876496315002,4.18599987030029,3.79730105400085,3.21071910858154,-7.15883111953735,-5.20708084106445,-3.58535599708557,-0.43099999427795,-0.50999999046326,-0.43099999427795,-1.18499994277954,-1.02799999713898,-1.02799999713898,9.1269998550415,9.20600032806396,9.1269998550415,SWING_RIGHT
0.16069799661636,0.34195598959923,1.02559900283813,-0.44669899344444,-0.61442399024963,-0.7245460152626,3.10156297683716,3.26436400413513,3.14666509628296,5.21700000762939,5.13800001144409,2.78399991989136,-0.87099999189377,-0.40000000596046,4.69799995422363,9.67700004577637,9.1269998550415,10.6180000305176,1.97203695774078,2.64917993545532,2.75756311416626,-0.37896400690079,0.16562899947166,0.33893299102783,2.54754710197449,2.09358191490173,1.96153199672699,2.86299991607666,7.96299982070923,18.632999420166,5.6399998664856,4.38500022888184,1.32500004768372,13.835000038147,20.2679996490479,25.4459991455078,2.32724809646606,1.40559196472168,-0.21615499258041,-0.33084800839424,-1.80330502986908,-3.3220739364624,2.111820936203,2.36616992950439,2.81141996383667,32.2050018310547,32.5190010070801,22.7910003662109,-6.91200017929077,-22.6030006408691,-32.7239990234375,21.7590007781982,7.48000001907349,3.16499996185303,-1.86491298675537,-2.61132502555847,-2.94372010231018,-4.06851196289063,-4.04918909072876,-4.01366281509399,3.55531406402588,4.30772686004639,4.78904008865356,16.4360008239746,15.4940004348755,7.02099990844727,-33.6660003662109,-32.8810005187988,-34.9210014343262,10.6180000305176,12.3439998626709,0.02700000070035,-3.41349005699158,-3.70088005065918,-3.25369191169739,-4.2544150352478,-4.13563203811646,-3.42548990249634,5.46192407608032,6.5055079460144,7.39393186569214,-3.33400011062622,-11.8859996795654,-22.6340007781982,-34.5289993286133,-30.2919998168945,-33.1160011291504,-0.99199998378754,4.02799987792969,0.26199999451637,-2.77790689468384,-2.602942943573,-1.9409019947052,-3.22637295722961,-4.98162603378296,-15.7699327468872,8.29973125457764,9.39514541625977,10.7703161239624,-32.5979995727539,-37.148998260498,-25.6940002441406,-34.9210014343262,-15.7779998779297,-11.1490001678467,-0.52200001478195,22.6219997406006,9.28400039672852,-4.16852283477783,-4.88948678970337,-4.58655500411987,-23.3451404571533,-20.8400955200195,-17.4921779632568,8.37078475952148,7.48999404907227,6.73100805282593,-13.3760004043579,-6.15899991989136,-1.60800004005432,-9.8149995803833,-8.48099994659424,-7.38299989700317,11.3240003585815,8.0290002822876,7.08799982070923,0.89309102296829,3.60783791542053,6.08596706390381,-10.4784526824951,-7.07919788360596,-4.73754692077637,6.05864810943604,2.53908395767212,-2.01007890701294,3.09800004959106,4.27500009536743,3.4909999370575,-4.79400014877319,-3.22499990463257,-2.12599992752075,5.83199977874756,5.91099977493286,7.48000001907349,6.0881290435791,6.11382484436035,6.09424209594727,-4.25247478485107,-3.53081393241882,-2.5987548828125,-4.6267261505127,-5.64762592315674,-5.49892902374268,1.2940000295639,-0.03900000080466,-0.27399998903275,-1.57700002193451,-1.65600001811981,-1.41999995708466,8.42099952697754,9.20600032806396,10.0690002441406,5.9981861114502,5.84191799163818,5.36831617355347,-1.60770297050476,-0.51306301355362,0.33638599514961,-4.79122686386108,-3.96624493598938,-2.6642050743103,-0.50999999046326,-1.05900001525879,-1.45099997520447,-0.94900000095367,-1.02799999713898,-1.10599994659424,10.3039999008179,9.20600032806396,8.9709997177124,SWING_RIGHT
0.02712400071323,0.06135899946094,0.09136299788952,-0.27590799331665,-0.22149200737476,-0.13147200644016,0.61923199892044,0.65813398361206,0.69628900289536,1.2940000295639,0.82300001382828,1.13699996471405,0.14800000190735,-0.00800000037998,-0.32199999690056,9.28400039672852,11.08899974823,11.7170000076294,0.10499499738216,0.11717899888754,0.13035100698471,0.13529199361801,0.35789799690247,0.54872101545334,0.76737600564957,0.83013999462128,0.89273601770401,1.68599998950958,1.52900004386902,1.13699996471405,-0.16500000655651,0.07000000029802,0.38299998641014,11.4029998779297,10.0690002441406,8.73499965667725,0.15382599830627,0.26567301154137,0.72343999147415,0.61016297340393,0.38302499055862,-1.21720695495605,0.94271999597549,0.98403197526932,1.12227296829224,3.56900000572205,11.3360004425049,27.1840000152588,1.24600005149841,1.40299999713898,-1.18499994277954,9.1269998550415,13.9130001068115,19.5620002746582,0.90863800048828,0.54686897993088,0.33534300327301,-3.45355892181396,-5.57261276245117,-7.38205289840698,1.7906219959259,3.27201294898987,5.28708600997925,36.8339996337891,34.6380004882813,18.4759998321533,-15.1499996185303,-33.3520011901855,-38.2939987182617,10.0690002441406,-4.44399976730347,2.6159999370575,0.37912100553513,0.504419028759,0.72941297292709,-7.41296577453613,-6.7327241897583,-7.14471578598022,6.56972312927246,7.71274423599243,8.61833953857422,7.25600004196167,-2.70600008964539,-16.4360008239746,-39.5499992370605,-39.8639984130859,-39.9420013427734,9.91199970245361,4.73400020599365,5.12599992752075,1.03914904594421,2.1764829158783,6.24211311340332,-7.93822002410889,-9.89419841766357,-26.9013919830322,9.81524658203125,11.5668382644653,10.5873727798462,-34.0890007019043,-34.0890007019043,-39.5019989013672,-39.9420013427734,-39.9420013427734,-14.2080001831055,15.5609998703003,15.5609998703003,11.4029998779297,2.3205680847168,-1.83989095687866,-2.49914693832397,-26.2835063934326,-19.276273727417,-16.6080722808838,8.26768207550049,6.30097007751465,5.64644002914429,-23.261999130249,1.2940000295639,7.17799997329712,-10.4429998397827,-7.06899976730347,-4.08799982070923,8.6569995880127,2.53699994087219,2.06599998474121,-2.72290110588074,-2.41628694534302,3.95570397377014,-14.3988790512085,-12.6183805465698,-9.44961738586426,4.94455480575562,2.69558811187744,-4.24541187286377,10.7089996337891,10.8649997711182,8.19799995422363,-3.14599990844727,-2.59699988365173,-1.89100003242493,2.14499998092651,4.18499994277954,7.40100002288818,5.7817850112915,6.4752721786499,6.70727014541626,-8.10225486755371,-6.2076268196106,-4.02018404006958,-10.5579519271851,-10.6491107940674,-8.93182563781738,4.58900022506714,1.2150000333786,-1.05900001525879,-1.57700002193451,-1.41999995708466,-1.26300001144409,9.59799957275391,11.246000289917,12.4230003356934,6.75880813598633,6.52223777770996,5.95542621612549,-1.51315701007843,1.15386497974396,3.00503611564636,-6.58917808532715,-4.63742399215698,-3.05332708358765,-2.31399989128113,-2.54999995231628,-2.94199991226196,-1.34200000762939,-1.73399996757507,-2.59699988365173,12.3439998626709,12.1870002746582,11.8730001449585,SWING_RIGHT
0.60064500570297,0.41055199503899,-0.34703600406647,1.68440496921539,1.52552497386932,1.06824994087219,0.80899697542191,0.77534902095795,0.7866849899292,0.35199999809265,2.0,4.51000022888184,1.40299999713898,-2.51900005340576,-1.34200000762939,11.5600004196167,11.4029998779297,7.40100002288818,-0.09057699888945,0.03660099953413,-0.156912997365,-0.99868100881577,-1.70833301544189,-1.72357702255249,0.75695598125458,0.61645400524139,0.40928399562836,6.78599977493286,3.7260000705719,1.68599998950958,2.89400005340576,0.85399997234344,0.61900001764297,10.2259998321533,13.128999710083,13.2069997787476,-0.15530799329281,0.09515599906445,-0.01538900006562,-1.5536869764328,-1.26591503620148,-2.22484707832336,0.4386579990387,1.09891104698181,2.12921190261841,2.54900002479553,23.9680004119873,36.0499992370605,-0.71399998664856,-3.38199996948242,-10.128999710083,12.3439998626709,17.2870006561279,12.7360000610352,0.72645801305771,1.06933999061584,2.52167510986328,-4.5069580078125,-5.51075983047485,-7.48793411254883,4.38256120681763,5.50308418273926,7.89409923553467,39.0309982299805,33.6959991455078,14.7880001068115,-28.9580001831055,-34.4500007629395,-39.2360000610351,-0.20800000429153,-4.28700017929077,5.51900005340576,3.08363604545593,3.28607988357544,3.0941789150238,-7.65115785598755,-7.80416297912598,-8.45849895477295,8.37515830993652,8.59421253204346,9.06233978271484,8.27600002288818,-6.70800018310547,-25.3020000457764,-39.7849998474121,-39.9420013427734,-39.9420013427734,5.28299999237061,-3.18899989128113,3.00799989700317,2.59955310821533,2.21591997146606,2.30754590034485,-9.18070220947266,-9.60311698913574,-10.7728452682495,10.0063705444336,10.8293886184692,11.45823097229,-36.2859992980957,-36.2859992980957,-34.560001373291,-39.9420013427734,-39.9420013427734,-19.5440006256104,3.94899988174438,3.94899988174438,13.128999710083,1.0901210308075,-0.90450400114059,-2.38948798179626,-13.8629884719849,-17.2265014648438,-18.3479251861572,10.708402633667,8.70698547363281,6.89889001846313,-12.5129995346069,3.88299989700317,12.121000289917,-16.3269996643066,-10.128999710083,-4.79400014877319,11.9519996643066,7.24499988555908,5.44000005722046,1.4417849779129,6.01761722564697,8.112961769104,-13.22926902771,-9.17439365386963,-7.85384511947632,4.78785181045532,-0.21279700100422,-6.64068078994751,13.0620002746582,8.66899967193604,8.66899967193604,-0.16500000655651,0.30500000715256,0.30500000715256,8.10799980163574,9.91199970245361,9.91199970245361,8.03957653045654,7.75677299499512,6.88617277145386,-4.18016719818115,-1.26948797702789,1.51377201080322,-6.76552581787109,-4.54940509796143,-2.45654201507568,-4.66800022125244,-6.0019998550415,-4.51100015640259,-0.40000000596046,-1.34200000762939,-1.65600001811981,14.8549995422363,11.4809999465942,9.67700004577637,5.61534023284912,4.33173513412476,3.09681510925293,3.41927194595337,4.14694309234619,4.01764917373657,-1.20829999446869,-0.06287900358438,0.91452300548553,-3.25600004196167,-2.78500008583069,-2.62800002098084,-2.04800009727478,-2.20499992370605,-2.28299999237061,8.3430004119873,7.55800008773804,7.24499988555908,SWING_RIGHT
0.19816400110722,0.26213899254799,0.31487199664116,0.09145499765873,0.23655800521374,0.30803498625755,0.6917650103569,0.31659099459648,0.11936599761248,2.54900002479553,1.9210000038147,1.68599998950958,1.87399995326996,2.18799996376038,2.42300009727478,9.59799957275391,9.59799957275391,9.59799957275391,0.33875501155853,0.35222399234772,0.34931799769402,0.36622101068497,0.42552798986435,0.52706700563431,-0.04624399915338,-0.22303800284863,-0.41450300812721,1.45099997520447,1.13699996471405,0.82300001382828,2.57999992370605,2.50200009346008,2.73699998855591,9.36299991607666,9.59799957275391,9.91199970245361,0.3568420112133,0.34534001350403,0.2228139936924,0.64271998405457,0.80689597129822,1.22017896175385,-0.63430100679398,-0.8764860033989,-1.29108095169067,-0.27399998903275,-1.52999997138977,-1.05900001525879,2.73699998855591,2.50200009346008,2.73699998855591,10.539999961853,12.3439998626709,13.7559995651245,0.07855100184679,-0.0094050001353,-0.03446200117469,1.29939496517181,1.13406598567963,0.80320000648499,-1.3952579498291,-1.27564895153046,-0.98520302772522,0.66600000858307,2.94099998474121,7.17799997329712,2.89400005340576,3.20799994468689,3.44300007820129,13.28600025177,12.1870002746582,11.4029998779297,0.05655499920249,0.46371799707413,1.9570859670639,-0.07485800236464,-1.79841804504395,-4.78702878952026,-0.0868100002408,1.88763797283173,4.7825231552124,16.9069995880127,32.5979995727539,38.1679992675781,2.89400005340576,0.77600002288818,-13.8950004577637,8.0290002822876,1.04700005054474,-5.69999980926514,2.76302194595337,2.00446510314941,0.64640897512436,-7.44385290145874,-8.61745262145996,-7.79945182800293,6.67656803131104,7.6081337928772,7.75078296661377,36.1279983520508,23.2609996795654,13.2189998626709,-33.4300003051758,-38.2939987182617,-39.5499992370605,-5.69999980926514,6.30299997329712,8.9709997177124,-0.82841598987579,-2.3368558883667,-2.96745800971985,-6.43395376205444,-5.061683177948,-2.90624403953552,7.55642509460449,7.58317708969116,8.4110164642334,0.1169999986887,-6.47200012207031,-29.617000579834,-38.2159996032715,-36.9609985351563,-31.1550006866455,0.49700000882149,4.42000007629395,13.3640003204346,-2.89419889450073,-2.36240196228027,-2.34518694877625,-0.42634901404381,2.826740026474,20.5313701629639,9.45811653137207,9.92426204681396,-0.80150097608566,-35.7360000610352,-38.6389999389649,-26.0860004425049,-22.4459991455078,-19.0729999542236,-11.1490001678467,16.1889991760254,14.6979999542236,11.8730001449585,1.37624597549438,2.60513305664063,2.83809494972229,21.6649856567383,17.2201919555664,13.8166751861572,-5.83873081207275,-4.56318807601929,-3.3337459564209,-11.7290000915527,-3.8050000667572,1.13699996471405,-10.128999710083,-8.71700000762939,-7.22599983215332,7.87200021743774,5.51900005340576,3.87100005149841,2.48527789115906,1.92939698696136,2.19976091384888,10.856876373291,8.70360946655273,7.58497476577759,-2.71390199661255,-3.26349711418152,-6.92497301101685,4.27500009536743,4.74599981307983,4.51000022888184,-5.34299993515015,-3.85199999809265,-3.22499990463257,2.53699994087219,3.79200005531311,5.51900005340576,SWING_RIGHT
0.43697300553322,0.42783999443054,0.48826798796654,0.82558298110962,1.22684895992279,1.59458804130554,0.72080397605896,0.61006200313568,0.48875600099564,-0.195999994874,-0.50999999046326,-0.98000001907349,1.16799998283386,1.71700000762939,1.71700000762939,11.0100002288818,11.5600004196167,11.7170000076294,0.50685799121857,0.46582099795341,0.40155699849129,1.72908794879913,1.91436302661896,1.78984296321869,0.38549798727036,0.28762400150299,0.21460500359535,-1.76499998569489,-1.2940000295639,2.62800002098084,1.0110000371933,1.0110000371933,1.63900005817413,11.8730001449585,11.3240003585815,8.6569995880127,0.39721500873566,0.49681401252747,0.28581601381302,1.31980800628662,0.28095299005508,-0.73493897914886,0.15719500184059,0.13225999474525,0.24687099456787,4.43200016021729,5.68699979782104,6.94299983978271,1.16799998283386,0.61900001764297,0.38299998641014,8.42099952697754,9.52000045776367,9.91199970245361,0.10990499705076,0.3707799911499,0.90129297971725,-1.82317101955414,-3.17040801048279,-4.54219388961792,0.55906802415848,1.07436096668243,1.89604496955872,9.13899993896484,13.1409997940063,27.0270004272461,1.32500004768372,1.55999994277954,1.71700000762939,8.18599987030029,5.0479998588562,-1.14900004863739,2.10046911239624,3.23362898826599,3.40738701820374,-6.54372406005859,-7.67220497131348,-8.16815376281738,3.07047605514526,3.78772306442261,4.81862878799438,36.7560005187988,39.1879997253418,37.3050003051758,-1.18499994277954,-19.0729999542236,-29.5069999694824,-4.67999982833862,-7.89599990844727,-12.1330003738403,3.59316897392273,3.20671701431274,2.40917491912842,-8.61220836639404,-7.91484403610229,-6.3658652305603,5.76383590698242,6.32014322280884,7.00483179092407,28.4400005340576,5.37400007247925,-7.96299982070923,-37.3530006408691,-39.6279983520508,-39.8639984130859,-15.4280004501343,12.1090002059937,-4.83699989318848,2.0321729183197,1.62109100818634,1.6981920003891,-5.9882640838623,-4.66121912002563,-3.90953993797302,8.01778984069824,9.43069744110107,10.3793306350708,-16.3579998016357,-20.1240005493164,-24.4389991760254,-37.6669998168945,-32.3320007324219,-24.7999992370605,13.28600025177,10.1470003128052,13.4429998397827,-0.81240499019623,-2.50162792205811,-0.17193999886513,5.42888784408569,20.7124347686768,18.6859092712402,9.93420314788818,1.78550004959106,1.21212005615234,-28.4400005340576,-29.4599990844727,-20.4379997253418,-19.2299995422363,-14.8360004425049,-10.5209999084473,15.5609998703003,13.5209999084473,12.9720001220703,1.57586395740509,2.07884311676025,2.06129097938538,14.7944412231445,12.0051174163818,8.2668571472168,1.17557299137115,1.34606397151947,1.32356405258179,-10.8660001754761,-3.88299989700317,1.05799996852875,-9.6579999923706,-8.16699981689453,-6.59800004959106,9.04899978637695,6.06799983978271,4.65500020980835,1.85465800762177,4.17917490005493,4.47383689880371,6.4917631149292,8.17383670806885,9.60594463348389,0.54184597730637,-4.90370988845825,-10.5689134597778,3.80399990081787,4.66699981689453,5.13800001144409,-5.34299993515015,-4.24499988555908,-2.98900008201599,5.20499992370605,5.91099977493286,6.14599990844727,SWING_RIGHT
-0.22307400405407,-0.17606799304485,-0.07741200178862,0.44181999564171,0.8556079864502,1.1818380355835,0.82493597269058,0.50942701101303,0.1069699972868,1.05799996852875,0.90200001001358,1.2940000295639,1.71700000762939,2.50200009346008,4.07100009918213,8.26399993896484,7.79400014877319,7.40100002288818,0.25615900754929,1.03922200202942,1.52301299571991,1.2336540222168,1.17708504199982,1.06968700885773,-0.29359498620033,-0.73394197225571,-0.99420201778412,0.66600000858307,0.50900000333786,3.88299989700317,4.30600023269653,4.46299982070923,4.38500022888184,6.06799983978271,5.83199977874756,13.4429998397827,1.39962601661682,-0.80006402730942,-1.70876502990723,0.55406498908997,-0.5650560259819,-2.62188792228699,-0.81484597921371,0.49434998631477,3.07851696014404,14.16100025177,32.8330001831055,38.2470016479492,-6.36299991607666,-14.4440002441406,-26.6049995422363,29.0550003051758,25.0540008544922,0.96799999475479,-1.1037050485611,0.63625699281693,2.68488097190857,-5.02738094329834,-6.52099180221558,-6.72153615951538,6.58246421813965,9.61904621124268,11.6007385253906,24.988000869751,10.5520000457764,7.41300010681152,-36.6469993591309,-39.1580009460449,-38.1380004882813,-3.42400002479553,14.7760000228882,18.5419998168945,4.5084080696106,4.39754009246826,3.35992693901062,-7.52836418151855,-8.62589740753174,-9.12580299377441,12.3358249664307,11.4139394760132,11.5108451843262,-3.41300010681152,-18.7900009155273,-33.8530006408691,-28.7229995727539,-23.8589992523193,-29.1149997711182,0.73299998044968,6.46000003814697,8.81400012969971,2.32308888435364,1.01190102100372,-0.4889680147171,-8.84938907623291,-8.03296184539795,-7.26659202575684,12.9516344070435,13.5577230453491,13.1061773300171,-36.9129981994629,-31.8139991760254,-16.4360008239746,-30.2140007019043,-13.7379999160767,-8.8730001449585,8.73499965667725,4.42000007629395,12.5799999237061,-1.27399694919586,-2.09528207778931,-3.44044089317322,-7.31657123565674,-8.60604667663574,-10.1390361785889,12.2483892440796,11.0180702209473,9.24837303161621,-8.82600021362305,-4.43200016021729,-2.0,-7.53999996185303,-6.59800004959106,-4.00899982452393,6.22499990463257,5.75400018692017,9.20600032806396,-3.66358995437622,-0.77342998981476,3.5494749546051,-10.4059982299805,-9.0922794342041,-7.22735691070557,8.01834774017334,7.00599813461304,3.74305605888367,-0.1169999986887,1.05799996852875,1.2940000295639,-2.98900008201599,-1.65600001811981,-0.94900000095367,7.08799982070923,4.9689998626709,5.36199998855591,5.1585750579834,6.86617183685303,7.50393199920654,-5.72438478469849,-4.59663105010986,-3.872554063797,0.52062302827835,-2.18621802330017,-3.41485595703125,1.05799996852875,0.66600000858307,1.37199997901917,-0.40000000596046,-0.00800000037998,0.30500000715256,8.57800006866455,10.7749996185303,11.08899974823,6.96564197540283,6.25032377243042,5.42111778259277,-3.61032795906067,-3.44632291793823,-3.03188800811768,-3.40125393867493,-2.88632488250732,-2.32988810539246,2.78399991989136,2.86299991607666,1.76499998569489,0.38299998641014,0.22599999606609,0.14800000190735,9.99100017547607,9.75500011444092,10.2259998321533,SWING_RIGHT
-5.23254585266113,-4.84367609024048,-4.2927942276001,-0.15468899905682,-0.22614300251007,-0.30032399296761,-17.667839050293,-16.1635570526123,-14.1756801605225,2.78399991989136,2.62800002098084,2.78399991989136,0.61900001764297,0.77600002288818,0.77600002288818,9.44099998474121,9.1269998550415,8.73499965667725,-3.71474003791809,-3.20596504211426,-2.68494391441345,-0.36071801185608,-0.38070601224899,-0.29475298523903,-12.1834115982056,-10.5346736907959,-9.07652473449707,2.86299991607666,2.07800006866455,0.74500000476837,0.85399997234344,0.77600002288818,1.0110000371933,8.5,8.6569995880127,9.36299991607666,-2.1323709487915,-1.099848985672,-0.98699599504471,-0.00257600005716,0.56956499814987,-0.30757901072502,-7.8754677772522,-6.45802402496338,-5.91409492492676,0.1169999986887,8.27600002288818,29.30299949646,1.24600005149841,2.42300009727478,-0.16500000655651,9.67700004577637,12.9720001220703,16.738000869751,-1.86884105205536,-3.21001791954041,-5.76311206817627,-2.93041706085205,-5.1295747756958,-6.76856279373169,-4.40453004837036,-2.67363810539246,-1.06197905540466,37.3839988708496,37.2270011901855,28.5960006713867,-10.835000038147,-30.3700008392334,-37.5880012512207,5.20499992370605,-14.9580001831055,-3.42400002479553,-7.64844799041748,-8.30509471893311,-8.85506534576416,-5.62470579147339,-3.38706111907959,-1.35259997844696,-0.4359570145607,-0.08207099884748,0.39686998724937,18.5540008544922,9.68900012969971,4.35400009155273,-39.3930015563965,-39.7849998474121,-39.8639984130859,10.1470003128052,4.26300001144409,-1.46300005912781,-7.63194894790649,-4.01204490661621,-2.37853288650513,2.31522011756897,3.25989389419556,-0.2226459980011,3.53778004646301,6.10698986053467,8.41568374633789,-34.6380004882813,-38.6389999389649,-31.8139991760254,-39.9420013427734,-30.2140007019043,-18.05299949646,10.539999961853,17.9150009155273,14.1490001678467,-3.8862841129303,-4.3707799911499,-3.80277609825134,-20.1729373931885,-18.5691108703613,-15.5570783615112,11.2834663391113,10.0429096221924,8.80306053161621,-13.5329999923706,-2.39299988746643,3.41199994087219,-15.7779998779297,-11.6979999542236,-7.77500009536743,10.8540000915527,7.16599988937378,4.18499994277954,-2.87115001678467,-1.58678996562958,0.07402800023556,-13.0981922149658,-11.3525724411011,-10.4778814315796,7.42126083374023,6.1762318611145,3.85593199729919,5.76599979400635,4.90299987792969,4.90299987792969,-4.79400014877319,-3.06800007820129,-3.06800007820129,3.08599996566772,4.65500020980835,4.65500020980835,2.35802888870239,4.46969223022461,5.99312210083008,-11.1874027252197,-11.6520366668701,-10.5052690505981,0.20642499625683,-1.49618995189667,-1.38765501976013,4.27500009536743,4.11800003051758,3.41199994087219,-1.81200003623962,-1.18499994277954,-0.47900000214577,8.10799980163574,9.28400039672852,10.3830003738403,6.651780128479,6.46364212036133,5.82148599624634,-8.19847965240479,-5.67251300811768,-3.83479404449463,-0.40324801206589,0.4121710062027,0.89884799718857,2.70600008964539,1.68599998950958,0.58799999952316,-0.16500000655651,-0.24300000071526,-0.63599997758865,10.9320001602173,10.6969995498657,10.539999961853,SWING_RIGHT
0.96041399240494,0.82307499647141,0.68038702011108,-0.52373701334,-0.36267200112343,-0.2487999945879,0.30159598588943,0.07320699840784,-0.05345800146461,4.11800003051758,3.17700004577637,2.47099995613098,1.16799998283386,0.93300002813339,0.93300002813339,9.75500011444092,9.67700004577637,9.83399963378906,0.5572429895401,0.45858401060104,0.35549300909042,-0.12792399525642,0.06140099838376,0.29807698726654,-0.11931999772787,-0.18924599885941,-0.26329201459885,2.31399989128113,2.31399989128113,2.23499989509583,1.16799998283386,1.08899998664856,1.08899998664856,9.91199970245361,10.1470003128052,10.2259998321533,0.26658299565315,0.14755800366402,-0.01019799988717,0.55584502220154,0.85585999488831,1.15285205841064,-0.32188901305199,-0.42554700374603,-0.58093500137329,1.45099997520447,0.82300001382828,-0.74500000476837,0.61900001764297,0.46200001239777,1.0110000371933,10.2259998321533,10.3039999008179,10.1470003128052,-0.06675700098276,-0.19504900276661,-0.18011599779129,1.41875004768372,1.63567698001862,1.65704894065857,-0.67901599407196,-0.78727197647095,-0.49876099824905,-0.98000001907349,0.27399998903275,4.03999996185303,-0.00800000037998,0.85399997234344,1.71700000762939,9.52000045776367,6.93100023269653,6.85200023651123,0.14091199636459,3.62760710716248,7.98940181732178,1.25072395801544,-1.50953197479248,-3.70777297019959,0.99617099761963,10.0013723373413,11.0770101547241,23.1049995422363,35.8139991760254,38.9529991149902,2.34500002861023,7.60099983215332,-21.1909999847412,7.24499988555908,3.32200002670288,-4.99399995803833,8.39969921112061,6.64554977416992,3.98210310935974,-6.61281776428223,-8.14177513122559,-7.02443790435791,11.0571031570435,9.94675636291504,9.33817481994629,37.0699996948242,20.0450000762939,-2.39299988746643,-35.2350006103516,-38.7649993896484,-39.7070007324219,-9.70100021362305,10.8540000915527,3.16499996185303,0.65558397769928,-0.43194100260735,-0.28219699859619,-5.54825878143311,-4.38072109222412,-3.96027588844299,9.18097019195557,10.508620262146,11.7387886047363,-24.0459995269775,-24.8309993743896,-24.4389991760254,-34.3720016479492,-27.8600006103516,-23.9370002746582,7.71500015258789,4.26300001144409,5.98899984359741,1.16145205497742,2.33468103408813,0.54185998439789,-5.72811079025269,-14.2124586105347,-17.7430763244629,12.7977180480957,12.6508836746216,10.792610168457,-26.4790000915527,-25.9290008544922,-21.8500003814697,-19.1509990692139,-14.3649997711182,-11.0699996948242,8.26399993896484,12.1090002059937,13.4429998397827,-1.0426139831543,-1.41175997257233,-1.0645979642868,-16.8419094085693,-14.7541980743408,-12.7474222183228,9.81118774414062,8.62563514709473,7.59451580047607,-14.3959999084473,-6.62900018692017,-0.98000001907349,-8.8730001449585,-7.22599983215332,-5.89200019836426,11.8730001449585,9.28400039672852,7.71500015258789,-0.30625799298286,0.93775999546051,2.36533904075623,-10.9918355941772,-9.69856929779053,-9.02651596069336,6.60809087753296,5.26540803909302,3.22876000404358,-0.98000001907349,4.35400009155273,5.4520001411438,-5.89200019836426,-4.16599988937378,-3.46000003814697,7.71500015258789,7.71500015258789,8.26399993896484,SWING_RIGHT
0.66544997692108,0.60241198539734,0.42956200242043,1.28861904144287,1.19535005092621,0.928995013237,-0.36983999609947,-0.34731900691986,-0.28005900979042,-0.82400000095367,0.90200001001358,3.6470000743866,0.93300002813339,0.14800000190735,1.71700000762939,7.08799982070923,7.79400014877319,10.539999961853,0.24979500472546,0.05191199854016,-0.43519800901413,0.31056100130081,-0.53102499246597,-0.66415399312973,-0.13361600041389,0.09972800314426,0.21017800271511,3.6470000743866,3.01999998092651,4.51000022888184,1.71700000762939,1.7960000038147,-1.81200003623962,10.539999961853,17.6790008544922,16.1889991760254,-1.15999400615692,-1.55388605594635,-0.63070899248123,-1.00957000255585,-2.11382699012756,-4.69254922866821,0.38800200819969,0.8583869934082,2.17642092704773,11.1009998321533,31.6560001373291,37.9329986572266,-4.87200021743774,-0.55699998140335,-14.4440002441406,9.36299991607666,4.73400020599365,-1.69799995422363,-0.28882101178169,0.63713300228119,4.55200910568237,-6.83834981918335,-8.36738872528076,-9.97719383239746,4.0881872177124,6.69943380355835,9.43016147613525,37.9329986572266,18.632999420166,8.35499954223633,-14.4440002441406,-37.8240013122559,-39.4710006713867,-1.69799995422363,-8.99499988555908,-9.38700008392334,8.76407623291016,10.1384391784668,10.4735555648804,-11.3330583572388,-11.6481914520264,-12.7622652053833,9.98717880249023,9.26636600494385,9.07305908203125,1.13699996471405,-11.2580003738403,-25.5370006561279,-39.8639984130859,-39.9420013427734,-36.7249984741211,-3.26799988746643,1.9099999666214,6.77400016784668,9.87087440490723,8.40954399108887,6.54522323608398,-14.2284250259399,-15.3773832321167,-15.6272983551025,8.84976005554199,8.74561786651611,8.63822364807129,-35.7360000610352,-38.9529991149902,-31.1860008239746,-38.7649993896484,-24.4860000610352,-13.423999786377,15.0120000839233,16.9729995727539,11.3240003585815,4.62129592895508,3.17501091957092,2.32938289642334,-14.8402805328369,-13.3310785293579,-11.4935274124146,8.41660976409912,7.76780080795288,6.96736001968384,-14.003999710083,-2.62800002098084,2.78399991989136,-13.0319995880127,-9.6579999923706,-6.51999998092651,7.40100002288818,3.63599991798401,3.08599996566772,2.14299893379211,2.39740610122681,3.21168994903564,-9.65077686309814,-7.96664094924927,-6.97699403762817,5.93392610549927,4.83098077774048,2.03143906593323,5.21700000762939,5.13800001144409,3.88299989700317,-4.24499988555908,-3.38199996948242,-3.06800007820129,3.40000009536743,4.73400020599365,6.77400016784668,4.46959686279297,5.8679780960083,6.85618495941162,-7.60595607757568,-8.59344673156738,-7.69269990921021,-2.7785279750824,-4.65047597885132,-3.79750490188599,3.41199994087219,2.54900002479553,0.43099999427795,-2.83200001716614,-2.36199998855591,-2.20499992370605,7.87200021743774,9.36299991607666,10.9320001602173,6.95538711547852,6.4326171875,5.63527297973633,-5.7222900390625,-3.68599104881287,-2.21359992027283,-2.21066999435425,-0.83796697854996,-0.14192299544811,-0.03900000080466,0.58799999952316,0.90200001001358,-2.20499992370605,-2.28299999237061,-2.59699988365173,11.7170000076294,11.3240003585815,10.7749996185303,SWING_RIGHT
-0.14166900515556,0.00209000008181,0.43108999729156,0.43563398718834,0.38880398869514,0.35058701038361,-0.70538902282715,-0.81156301498413,-0.83478701114655,0.58799999952316,0.90200001001358,0.66600000858307,2.73699998855591,3.36500000953674,3.75699996948242,8.10799980163574,8.0290002822876,7.87200021743774,1.22815799713135,1.48090302944183,0.94035601615906,0.20521800220013,0.16055099666119,-0.25142499804497,-0.76388198137283,-0.67183899879456,-0.38183599710464,0.90200001001358,4.27500009536743,8.66899967193604,5.40500020980835,4.54099988937378,3.28600001335144,11.0100002288818,20.0330009460449,16.423999786377,0.4972639977932,-0.11649300158024,-0.40006101131439,-0.99764502048492,-1.95420598983765,-3.31819891929626,0.0903280004859,0.79023498296738,1.94220197200775,13.4540004730225,17.1420001983643,35.6580009460449,-0.55699998140335,-1.41999995708466,-6.44099998474121,14.0699996948242,12.5799999237061,11.0100002288818,-0.38868498802185,-0.71247100830078,1.14761900901794,-4.75951290130615,-5.92836284637451,-6.8292121887207,3.34606003761292,5.60221385955811,8.70851612091064,35.0299987792969,22.0060005187988,15.1020002365112,-29.5069999694824,-37.3530006408691,-38.6870002746582,3.47900009155273,4.34200000762939,5.28299999237061,7.10032176971436,11.1107358932495,11.5800695419312,-8.41525840759277,-10.1694478988647,-11.5112562179565,12.5607099533081,13.2102403640747,12.9153833389282,3.4909999370575,-12.4350004196167,-33.1469993591309,-39.7849998474121,-39.9420013427734,-30.1350002288818,2.8510000705719,10.4610004425049,13.28600025177,9.84001445770264,7.48185205459595,4.96805095672607,-12.9596796035767,-13.7249574661255,-13.5020627975464,12.9438514709473,13.0432844161987,12.5182752609253,-38.2470016479492,-31.5,-11.4940004348755,-25.8199996948242,-14.2080001831055,-12.7180004119873,12.1870002746582,6.38199996948242,0.34000000357628,3.05849409103394,1.8122980594635,0.97329902648926,-12.5880136489868,-11.5753583908081,-10.248122215271,11.1621017456055,9.74486637115478,8.28659629821777,2.31399989128113,7.17799997329712,6.15799999237061,-10.9130001068115,-7.53999996185303,-4.08799982070923,0.96799999475479,2.8510000705719,1.98800003528595,0.83850401639938,1.67811298370361,4.6626558303833,-8.83605194091797,-8.08088493347168,-10.2259283065796,5.88190317153931,2.53754806518555,-1.74756705760956,2.86299991607666,-1.37300002574921,-4.43200016021729,-0.71399998664856,1.7960000038147,2.81500005722046,4.5770001411438,8.89200019836426,11.08899974823,8.57012939453125,9.951096534729,9.49649715423584,-11.5609140396118,-7.05903911590576,-3.20960211753845,0.49559500813484,3.13668990135193,4.04487895965576,-6.15899991989136,-4.51100015640259,-3.09899997711182,1.7960000038147,1.71700000762939,1.16799998283386,11.3240003585815,12.1870002746582,12.8929996490479,8.0896167755127,6.42963409423828,4.96900701522827,-1.48042798042297,-0.79012197256088,-0.65098202228546,3.92269110679626,3.44222211837769,3.04514598846436,-2.62800002098084,-2.23600006103516,-1.45099997520447,0.30500000715256,-0.32199999690056,-0.63599997758865,11.4029998779297,9.67700004577637,8.3430004119873,SWING_RIGHT
0.4449580013752,0.37895798683167,0.28673601150513,0.87155902385712,0.62107402086258,0.09351599961519,0.05339999869466,0.18621100485325,0.46125599741936,3.01999998092651,4.27500009536743,4.58900022506714,1.55999994277954,1.32500004768372,1.55999994277954,9.04899978637695,8.89200019836426,9.52000045776367,0.24276900291443,0.33125901222229,0.51291400194168,-0.3735060095787,-0.65149700641632,-0.64655202627182,0.87693500518799,1.33801996707916,1.90979599952698,3.88299989700317,2.47099995613098,0.98000001907349,2.10899996757507,3.12899994850159,4.93400001525879,10.4610004425049,10.4610004425049,10.0690002441406,1.05624902248383,1.8154970407486,2.32464909553528,-0.19546300172806,0.54848498106003,1.02438294887543,2.36121606826782,2.46337103843689,2.76423501968384,0.74500000476837,1.45099997520447,19.2600002288818,6.58099985122681,6.97399997711182,5.40500020980835,10.0690002441406,10.3830003738403,11.7170000076294,3.05947089195251,3.62027406692505,4.13687992095947,-0.11203999817371,-1.98504900932312,-4.39254188537598,4.42375707626343,6.94982099533081,9.72917747497559,29.6159992218018,38.7169990539551,28.4400005340576,1.32500004768372,-26.6049995422363,-36.6469993591309,14.6190004348755,2.14499998092651,-12.6040000915527,4.58549308776855,3.63097310066223,2.36271595954895,-6.670166015625,-6.59474802017212,-5.81214189529419,10.7914142608643,10.6894197463989,10.1409349441528,18.7110004425049,10.4729995727539,-3.64800000190735,-39.1580009460449,-39.7849998474121,-39.9420013427734,7.48000001907349,13.2069997787476,5.28299999237061,-0.20309600234032,-0.08294100314379,6.48682880401611,-5.0447359085083,-4.71678781509399,-23.1236228942871,10.6994190216064,11.9049892425537,10.8517417907715,-31.0289993286133,-38.875,-36.1290016174316,-39.1580009460449,-26.1340007781982,-17.5820007324219,5.36199998855591,7.16599988937378,8.9709997177124,3.30222702026367,0.59403997659683,-0.61071199178696,-24.8486576080322,-21.2968425750732,-18.1964569091797,7.66347217559814,6.51234817504883,5.72393989562988,-21.7709999084473,-7.02199983596802,3.6470000743866,-14.3649997711182,-11.2270002365112,-7.46099996566772,9.36299991607666,7.87200021743774,5.91099977493286,-0.48488000035286,0.25639298558235,4.41141986846924,-15.6365127563477,-13.1797733306885,-9.58188915252686,5.19114685058594,4.27061176300049,2.11557197570801,9.76700019836426,12.7480001449585,12.5129995346069,-3.85199999809265,-0.55699998140335,1.32500004768372,4.73400020599365,4.73400020599365,4.9689998626709,8.83137226104736,8.53768634796143,8.77483654022217,-6.42074823379517,-5.85998821258545,-4.29090785980225,-10.3444995880127,-10.6495389938354,-8.93741512298584,5.8439998626709,-0.1169999986887,-6.0019998550415,3.05100011825562,3.36500000953674,3.44300007820129,8.73499965667725,10.3039999008179,11.7170000076294,9.05003547668457,8.6908073425293,7.42808198928833,-1.30681896209717,2.7015380859375,5.89408588409424,-6.74345779418945,-4.79767990112305,-3.76776790618896,-9.8459997177124,-10.5520000457764,-8.43400001525879,3.05100011825562,2.10899996757507,0.85399997234344,12.2659997940063,11.246000289917,9.52000045776367,SWING_RIGHT
-0.41555601358414,-0.29528599977493,-0.14299899339676,-1.91421794891357,-1.45727801322937,-0.79217302799225,0.78211802244186,0.80329501628876,0.77558898925781,3.01999998092651,1.13699996471405,-0.1169999986887,0.93300002813339,1.48199999332428,2.10899996757507,10.539999961853,11.4809999465942,11.4029998779297,0.12241899967194,0.21561899781227,0.36781799793243,0.27440699934959,1.17583203315735,1.73048996925354,0.60797697305679,0.37005001306534,0.05219599977136,-1.2940000295639,0.03900000080466,3.6470000743866,1.55999994277954,2.18799996376038,1.95200002193451,11.1669998168945,10.7749996185303,10.3830003738403,0.35868400335312,0.50044399499893,0.52845102548599,1.51158094406128,0.50462400913239,-1.77588498592377,-0.09468799829483,0.02177499979734,1.02529799938202,8.35499954223633,18.0049991607666,24.988000869751,1.55999994277954,0.38299998641014,-0.24300000071526,10.2259998321533,9.83399963378906,9.20600032806396,1.65175902843475,4.53368997573853,8.68041229248047,-4.61418199539185,-6.38905191421509,-7.51577091217041,3.59533405303955,7.16053009033203,10.1682195663452,38.1679992675781,39.5800018310547,31.0289993286133,-9.6579999923706,-28.8799991607666,-37.1959991455078,-0.75700002908707,-11.8190002441406,-10.6420001983643,9.13519859313965,7.48004198074341,5.00117778778076,-8.04685592651367,-7.41188097000122,-6.00228214263916,9.89635467529297,9.2950611114502,8.94551944732666,22.0849990844727,12.6700000762939,-3.25600004196167,-39.2360000610351,-39.7849998474121,-39.9420013427734,5.67500019073486,18.2280006408691,0.18400000035763,-0.15853400528431,-0.77982801198959,-0.67464101314545,-3.2351279258728,-0.61514002084732,2.17843008041382,10.0068235397339,11.0682487487793,11.3441123962402,-36.5209999084473,-39.1100006103516,-39.5810012817383,-38.3730010986328,-30.9979991912842,-27.1539993286133,9.67700004577637,9.99100017547607,11.6379995346069,1.21344602108002,1.84367394447327,1.72667002677917,23.5519027709961,18.8606662750244,14.6274890899658,-2.39310789108276,-1.80232799053192,-1.65425801277161,-0.03900000080466,4.66699981689453,5.76599979400635,-11.0699996948242,-7.06899976730347,-4.16599988937378,4.18499994277954,3.16499996185303,2.77300000190735,1.23214602470398,1.01291000843048,-0.70148098468781,11.3161182403564,9.09659099578857,7.90053510665894,-1.86316895484924,-4.47560691833496,-11.249828338623,6.23699998855591,6.55000019073486,4.43200016021729,-3.06800007820129,-0.79299998283386,0.07000000029802,2.8510000705719,6.53800010681152,8.89200019836426,-1.29268002510071,-0.08879700303078,1.47897696495056,5.73800992965698,4.94271993637085,5.03063678741455,-14.5002737045288,-14.7100343704224,-13.5275478363037,2.15700006484985,0.82300001382828,0.43099999427795,0.30500000715256,0.07000000029802,-0.40000000596046,10.539999961853,12.0299997329712,12.0299997329712,2.42605805397034,2.76135993003845,2.75817894935608,5.26275205612183,5.49676322937012,5.46062803268433,-11.6760854721069,-9.69643402099609,-7.35856914520264,-0.03900000080466,-0.58799999952316,-1.21599996089935,-0.79299998283386,-1.49899995326996,-2.12599992752075,11.5600004196167,11.0100002288818,9.99100017547607,SWING_RIGHT
1.07290494441986,0.86720097064972,0.67110502719879,0.71830397844315,0.77440202236176,0.65724897384644,2.5342960357666,2.63546895980835,2.57774090766907,2.23499989509583,2.70600008964539,2.86299991607666,0.85399997234344,1.0110000371933,1.16799998283386,8.42099952697754,10.9320001602173,11.4809999465942,0.42364099621773,0.35980901122093,0.3800890147686,0.42354801297188,0.33522999286652,0.43614199757576,2.40609288215637,2.26916289329529,2.04700303077698,2.0,0.82300001382828,-0.66699999570847,1.40299999713898,2.34500002861023,3.36500000953674,9.20600032806396,7.63700008392334,7.87200021743774,0.70518398284912,1.63864898681641,1.53803098201752,0.89740598201752,1.47080504894257,1.26961600780487,1.57092499732971,0.60825300216675,0.45181599259377,-0.03900000080466,2.62800002098084,9.60999965667725,5.01200008392334,5.71799993515015,2.73699998855591,10.8540000915527,19.4050006866455,23.0930004119873,0.9315419793129,0.50589501857758,0.37601000070572,0.37593999505043,-1.53874695301056,-3.5320839881897,0.74089300632477,1.98910105228424,4.41728401184082,26.1639995574951,34.4809989929199,34.951000213623,0.07000000029802,-11.6190004348755,-30.6060009002686,20.5820007324219,7.63700008392334,-4.44399976730347,1.78898096084595,5.08572578430176,6.0922532081604,-5.50789499282837,-6.7944598197937,-7.36545085906982,8.97291660308838,12.5488290786743,12.5421886444092,29.9300003051758,23.0259990692139,13.2980003356934,-37.5880012512207,-39.3930015563965,-39.7849998474121,3.40000009536743,11.246000289917,-0.60000002384186,2.5351231098175,0.31247800588608,-1.08624601364136,-7.50127410888672,-5.36280012130737,-2.57586193084717,10.3395681381226,10.838493347168,11.4040851593018,-28.5970001220703,-37.148998260498,-39.2669982910156,-39.9420013427734,-32.3320007324219,-17.5820007324219,13.4429998397827,5.91099977493286,17.3649997711182,-1.3904310464859,-2.25426292419434,-0.30508801341057,0.90832698345184,25.4329967498779,20.4225997924805,11.6527099609375,-5.16246700286865,-3.79585599899292,-19.496000289917,0.19499999284744,9.68900012969971,-14.4440002441406,-10.3640003204346,-6.67700004577637,6.61700010299683,3.47900009155273,2.53699994087219,0.62679398059845,0.40705001354218,0.5873190164566,16.0369129180908,12.7885446548462,9.60075569152832,-3.03531408309937,-2.80525398254395,-5.31096220016479,10.4729995727539,7.96299982070923,5.60900020599365,-3.93099999427795,-1.96899998188019,-0.71399998664856,0.96799999475479,3.08599996566772,6.77400016784668,-2.8422269821167,-3.51392507553101,-1.44522297382355,6.71042013168335,3.71286201477051,3.55487608909607,-11.6824054718018,-14.6683702468872,-14.2845239639282,2.47099995613098,-0.66699999570847,-1.92200005054474,-0.16500000655651,0.14800000190735,-0.08600000292063,9.52000045776367,11.4029998779297,11.3240003585815,0.9762219786644,2.39840197563171,2.5842399597168,5.05829620361328,6.36955308914185,6.49300193786621,-13.0465517044067,-11.4367904663086,-9.44142436981201,-0.82400000095367,0.58799999952316,0.98000001907349,-1.02799999713898,-2.04800009727478,-2.51900005340576,10.7749996185303,10.3039999008179,9.75500011444092,SWING_RIGHT
0.94870001077652,0.94304901361465,0.92866098880768,-0.3755429983139,0.22100999951363,0.80123198032379,1.82565605640411,1.41826605796814,0.84272998571396,1.84300005435944,0.82300001382828,-0.74500000476837,2.26600003242493,2.73699998855591,3.36500000953674,9.75500011444092,10.3830003738403,10.4610004425049,0.93831098079681,0.97404301166534,0.88165301084518,1.42314600944519,1.99862802028656,2.36928510665894,0.06802300363779,-0.73268097639084,-1.22402799129486,-2.62800002098084,-3.25600004196167,-2.31399989128113,3.83500003814697,3.12899994850159,2.57999992370605,11.08899974823,11.8730001449585,12.1870002746582,0.70138198137283,0.30255499482155,-0.78009700775146,2.28895401954651,1.8720680475235,-0.03386599943042,-1.17019402980804,-0.87612301111221,1.49608397483826,2.23499989509583,15.7299995422363,33.9309997558594,0.38299998641014,-4.79400014877319,-1.96899998188019,12.9720001220703,17.757999420166,21.9160003662109,1.32438397407532,5.07469987869263,6.72025108337402,-2.1689989566803,-4.56030416488647,-7.47896099090576,9.14254856109619,15.0405349731445,14.6514310836792,36.9910011291504,30.1660003662109,19.0249996185303,-9.8149995803833,-35.548999786377,-38.8440017700195,17.0520000457764,-14.7220001220703,0.88999998569489,5.54314804077148,3.82573390007019,1.9293110370636,-8.00308609008789,-6.75830316543579,-6.51588582992554,12.914008140564,11.5454330444336,10.5948724746704,13.7679996490479,5.21700000762939,-24.4389991760254,-39.3930015563965,-39.7849998474121,-39.9420013427734,13.9130001068115,17.3649997711182,-1.38499999046326,-0.06121899932623,-0.35463199019432,0.49246400594711,-6.32712984085083,-5.30690002441406,-5.91872978210449,11.1375980377197,12.2595176696777,13.1884670257568,-35.8930015563965,-38.9529991149902,-39.7379989624023,-35.7840003967285,-26.2119998931885,-18.5240001678467,14.9329996109009,7.00899982452393,11.3240003585815,0.40038499236107,-1.99273598194122,-3.54982399940491,-10.1063508987427,-14.095817565918,-15.4428968429565,13.4445476531982,11.8626804351807,10.034496307373,-30.1660003662109,-13.1409997940063,-2.23600006103516,-11.5410003662109,-8.95199966430664,-5.10799980163574,8.9709997177124,6.06799983978271,4.89099979400635,-4.19265794754028,-4.90973615646362,-4.44511699676514,-14.8864240646362,-13.7061548233032,-13.053656578064,8.63535499572754,7.172532081604,6.16089105606079,2.39199995994568,5.37400007247925,6.70699977874756,-2.98900008201599,-1.73399996757507,-1.10599994659424,4.34200000762939,3.63599991798401,4.89099979400635,0.12963099777699,7.45848894119263,8.5792064666748,-11.2817211151123,-8.95075225830078,-8.58154964447021,3.86827707290649,-4.08010292053223,-7.80860090255737,6.47200012207031,5.8439998626709,5.13800001144409,-0.40000000596046,-0.00800000037998,0.22599999606609,7.63700008392334,9.04899978637695,8.57800006866455,7.8901572227478,7.11922311782837,6.36608505249023,-7.20636320114136,-5.51377105712891,-3.51932311058044,-7.68706607818604,-6.32313919067383,-4.77233123779297,3.41199994087219,1.68599998950958,0.50900000333786,0.22599999606609,0.07000000029802,-0.24300000071526,9.1269998550415,9.44099998474121,9.91199970245361,SWING_RIGHT
0.68660998344421,0.65809202194214,0.38831400871277,0.02873099967837,0.0234370008111,-0.45655998587608,0.13897000253201,0.23032000660896,0.24329300224781,1.84300005435944,3.01999998092651,3.80399990081787,4.07100009918213,3.99200010299683,3.67799997329712,9.44099998474121,10.4610004425049,11.0100002288818,-0.11672499775887,-0.54118299484253,-0.86778402328491,-0.88265597820282,-1.05583703517914,-1.28192400932312,0.28505399823189,0.38428598642349,0.52822697162628,4.66699981689453,4.82399988174438,4.98099994659424,3.28600001335144,2.81500005722046,2.57999992370605,10.6180000305176,9.99100017547607,9.67700004577637,-0.96321302652359,-0.93046998977661,-0.91800200939178,-1.44408297538757,-2.00770092010498,-2.90442204475403,0.66180199384689,0.80039900541306,0.95385497808456,7.17799997329712,11.8070001602173,11.8070001602173,2.89400005340576,2.18799996376038,2.18799996376038,7.79400014877319,7.16599988937378,7.16599988937378,-1.28882896900177,-2.16711401939392,-3.55298089981079,-4.28360605239868,-5.44635677337646,-6.00191307067871,1.2500159740448,1.99627995491028,3.64192199707031,20.0450000762939,24.9090003967285,21.378999710083,-0.32199999690056,-25.9769992828369,-36.4900016784668,8.10799980163574,0.96799999475479,-0.60000002384186,-4.26918792724609,-4.3566632270813,-4.22387313842773,-5.88022184371948,-5.02987289428711,-4.15941095352173,5.15267705917358,6.06627178192139,6.61150884628296,12.5909996032715,6.39300012588501,-6.31500005722046,-39.0789985656738,-39.6279983520508,-39.6279983520508,2.14499998092651,1.8309999704361,5.59700012207031,-3.8427300453186,-4.21976900100708,-0.68979197740555,-0.31687900424004,7.84715223312378,17.268217086792,7.96990013122559,5.45058012008667,-5.11602878570557,-36.6780014038086,-26.9489994049072,8.04100036621094,-22.2110004425049,-13.9729995727539,-14.7580003738403,35.5670013427734,22.3080005645752,0.73299998044968,0.56575202941895,1.42858803272247,0.96450400352478,15.0385208129883,12.7911033630371,10.1615524291992,-5.63969421386719,-6.3555269241333,-6.26389217376709,9.5319995880127,3.01999998092651,-4.27600002288818,-12.6389999389648,-8.63799953460693,-5.02899980545044,2.06599998474121,6.38199996948242,10.3830003738403,-1.59725999832153,0.63378101587296,3.60877108573914,5.57996797561646,4.94657421112061,5.69183778762817,-7.37628412246704,-7.12693119049072,-6.59781122207642,-7.57100009918213,-5.60900020599365,-3.88299989700317,-2.59699988365173,-3.06800007820129,-3.85199999809265,14.9329996109009,13.4429998397827,10.7749996185303,5.14831399917603,4.05635213851929,2.47151899337769,6.02661514282227,4.25308418273926,2.50651597976685,-6.08550977706909,-4.74033689498901,-3.89727401733398,-2.23600006103516,2.23499989509583,3.17700004577637,-4.24499988555908,-4.16599988937378,-3.61700010299683,8.57800006866455,6.85200023651123,7.63700008392334,1.09167504310608,0.34966298937798,0.12940600514412,0.61352199316025,-0.89249497652054,-1.97813498973846,-3.15510892868042,-2.4974319934845,-1.96658599376678,2.23499989509583,2.0,3.33400011062622,-2.83200001716614,-2.59699988365173,-2.67499995231628,8.26399993896484,7.24499988555908,6.85200023651123,SWING_RIGHT
0.26445698738098,0.41268000006676,0.55206197500229,0.32155999541283,0.27903300523758,0.19524300098419,0.82584100961685,0.99000400304794,1.22601401805878,2.70600008964539,2.78399991989136,2.94099998474121,1.08899998664856,1.32500004768372,1.63900005817413,9.44099998474121,9.36299991607666,9.52000045776367,0.72992897033691,0.97446399927139,1.33781003952026,0.04767299816012,-0.05409099906683,0.08378800004721,1.59555304050446,2.2804479598999,3.23662710189819,2.54900002479553,1.45099997520447,1.45099997520447,2.10899996757507,2.89400005340576,2.89400005340576,9.75500011444092,9.83399963378906,9.83399963378906,2.00905203819275,2.79555106163025,4.36774110794067,0.61975699663162,1.44740200042725,3.86579704284668,4.34945678710938,6.21288299560547,11.9967498779297,0.74500000476837,1.60800004005432,6.47200012207031,4.14900016784668,5.01200008392334,5.9539999961853,9.44099998474121,9.99100017547607,12.4230003356934,4.2306752204895,4.75399923324585,4.67403078079224,3.41914391517639,1.56624603271484,-1.51977002620697,11.0021266937256,10.5519313812256,10.4590892791748,20.2800006866455,33.2249984741211,35.4220008850098,5.09100008010864,-7.69700002670288,-28.5659999847412,13.5209999084473,9.59799957275391,-1.93400001525879,-4.34704113006592,-14.3680248260498,-14.2996978759766,-6.67564296722412,-2.65317893028259,0.10360100120306,5.7787652015686,-1.36186194419861,-1.20704102516174,17.6909999847412,5.76599979400635,-11.2580003738403,-39.2360000610351,-39.7849998474121,-39.9420013427734,0.41899999976158,2.6159999370575,1.51699995994568,-12.3488368988037,-6.28707790374756,-3.54472804069519,1.72266900539398,3.84499907493591,4.56260013580322,0.90952897071838,5.38538885116577,6.55142498016357,-28.9109992980957,-39.2669982910156,-33.382999420166,-39.9420013427734,-18.05299949646,-15.3850002288818,13.3640003204346,24.6620006561279,20.3470001220703,-1.75131797790527,-0.6813679933548,0.03025900013745,4.74820423126221,4.32440900802612,3.32732892036438,6.70195579528809,6.18465185165405,5.35187292098999,-6.0019998550415,5.53000020980835,10.3950004577637,-12.5609998703003,-9.73700046539307,-6.36299991607666,6.85200023651123,0.10499999672174,-1.77699995040894,0.29011100530624,0.06353200227022,-0.5392450094223,2.09831309318542,0.98052799701691,2.96348094940186,4.27116584777832,1.88154494762421,-6.35273122787476,11.1009998321533,8.74699974060059,4.82399988174438,-3.53800010681152,-1.41999995708466,-0.24300000071526,0.10499999672174,4.10599994659424,7.79400014877319,-5.00418281555176,-6.81413602828979,-6.86928510665894,11.5405254364014,12.278431892395,13.7615404129028,-14.2814149856567,-15.0529766082764,-15.8078145980835,2.39199995994568,1.05799996852875,0.50900000333786,0.07000000029802,-0.16500000655651,-1.02799999713898,10.3830003738403,12.6579999923706,12.5799999237061,-7.33201694488525,-7.01258087158203,-6.13915681838989,15.0229692459106,14.4810495376587,13.1463413238525,-16.7846927642822,-16.7586975097656,-15.3316135406494,0.43099999427795,0.27399998903275,0.35199999809265,-1.96899998188019,-2.91100001335144,-3.38199996948242,11.6379995346069,9.52000045776367,8.5,SWING_RIGHT
0.42231100797653,0.36864998936653,0.33141499757767,3.29645109176636,3.3292601108551,2.76940107345581,0.99614202976227,0.82678401470184,0.74401497840881,-2.15700006484985,0.35199999809265,1.9210000038147,3.20799994468689,2.03099989891052,2.50200009346008,7.16599988937378,7.32299995422363,7.79400014877319,0.34752199053764,-0.25710299611092,-0.94941401481628,2.15973305702209,0.76366198062897,-0.92279398441315,0.76620697975159,0.93093299865723,1.32614600658417,3.09800004959106,7.09999990463257,11.6499996185303,1.40299999713898,1.0110000371933,0.46200001239777,11.9519996643066,17.8360004425049,18.7779998779297,-1.30154204368591,-1.52810001373291,-1.30961394309998,-2.41661596298218,-2.95456004142761,-3.39952206611633,1.82508599758148,2.78898406028748,4.21788311004639,12.121000289917,17.5340003967285,31.9699993133545,-2.83200001716614,-6.44099998474121,-12.0120000839233,17.2870006561279,15.2469997406006,12.0299997329712,-0.05406999960542,2.24503898620605,3.91183805465698,-4.44386196136475,-5.89531278610229,-7.50975513458252,6.85331583023071,10.2225532531738,11.5894804000854,35.9710006713867,23.4179992675781,13.6110000610352,-18.5240001678467,-37.2750015258789,-39.3139991760254,9.83399963378906,-5.46400022506714,-2.09100008010864,3.67429399490356,2.49903297424316,0.70252102613449,-8.2434606552124,-7.81186389923096,-6.99429178237915,11.1417245864868,10.1198425292969,9.37166213989258,8.27600002288818,-4.82499980926514,-21.693000793457,-39.7849998474121,-39.9420013427734,-39.2360000610351,4.9689998626709,-1.69799995422363,4.10599994659424,-1.19039702415466,-2.12560296058655,-1.74607694149017,-5.22255802154541,-2.68076610565186,0.22609700262547,9.71566677093506,10.6570796966553,11.0354347229004,-35.3440017700195,-37.6980018615723,-34.6380004882813,-32.0960006713867,-20.6420001983643,-10.4429998397827,11.246000289917,4.49900007247925,17.4440002441406,-0.39884498715401,3.45689606666565,6.06626176834106,4.84370994567871,16.4297103881836,17.5123443603516,10.0713834762573,3.32864689826965,-1.15631496906281,-18.2409992218018,-4.11899995803833,3.25500011444092,-9.6579999923706,-9.73700046539307,-7.38299989700317,10.7749996185303,7.95100021362305,4.02799987792969,6.21061420440674,5.45291519165039,2.56729793548584,14.384952545166,11.1523122787476,8.89834594726563,-1.91696798801422,-2.40142202377319,-11.6768522262573,5.68699979782104,5.37400007247925,3.4909999370575,-5.89200019836426,-4.32299995422363,-2.36199998855591,3.71399998664856,5.51900005340576,6.93100023269653,-0.25787499547005,-0.76683098077774,0.52476900815964,7.47847318649292,6.09686708450317,5.71155595779419,-14.3857822418213,-14.4661111831665,-13.7969760894775,3.4909999370575,3.17700004577637,1.45099997520447,-1.65600001811981,-0.79299998283386,-0.55699998140335,8.73499965667725,12.9720001220703,13.3640003204346,1.79284000396729,2.3754448890686,2.4195249080658,5.60535097122192,5.35832595825195,4.99348402023315,-12.4342002868652,-10.5691404342651,-8.67308712005615,-0.1169999986887,-0.66699999570847,-0.82400000095367,-1.10599994659424,-1.65600001811981,-1.81200003623962,10.4610004425049,8.73499965667725,9.52000045776367,SWING_RIGHT
-0.10239999741316,-0.1455609947443,-0.08932100236416,-0.85887199640274,-0.77344399690628,-0.73501098155975,0.4274719953537,0.50502002239227,0.60848301649094,2.47099995613098,2.94099998474121,3.25500011444092,1.24600005149841,1.7960000038147,2.81500005722046,9.28400039672852,9.36299991607666,10.539999961853,-0.01203200034797,0.14821200072765,0.37604600191116,-0.62001001834869,-0.41224899888039,-0.07888499647379,0.70096498727798,0.64335602521896,0.32043799757957,3.4909999370575,2.39199995994568,1.68599998950958,4.30600023269653,5.16900014877319,6.03200006484985,11.7950000762939,12.6579999923706,12.8149995803833,0.67321401834488,0.61813801527023,0.1907359957695,0.1455080062151,-0.28989699482918,-1.50435400009155,-0.14585000276566,0.3347550034523,1.8840229511261,9.68900012969971,23.5750007629395,35.8930015563965,4.46299982070923,-2.59699988365173,-14.4440002441406,19.6410007476807,20.7390003204346,17.4440002441406,-0.43265798687935,-1.46930599212646,-2.66240692138672,-3.14631295204163,-5.87509489059448,-7.12949895858765,3.65408396720886,5.28286409378052,5.85882902145386,39.0309982299805,26.7919998168945,23.1049995422363,-33.5089988708496,-38.3730010986328,-39.5499992370605,-12.2119998931885,-14.4870004653931,6.85200023651123,-3.22276496887207,-4.54293584823608,-6.15126991271973,-6.28105115890503,-5.23773908615112,-3.35702395439148,5.78341579437256,5.62500476837158,5.99664402008057,5.4520001411438,-14.710000038147,-32.8339996337891,-39.8639984130859,-39.9420013427734,-37.1180000305176,-0.05099999904633,-1.69799995422363,17.6790008544922,-6.45457315444946,-2.04585790634155,-0.52692502737045,-0.45329600572586,5.51659107208252,10.560996055603,7.16245412826538,7.87838411331177,4.88741588592529,-38.1689987182617,-12.8269996643066,4.66699981689453,-27.9379997253418,-17.503999710083,-13.1099996566772,26.0739994049072,6.30299997329712,2.53699994087219,3.15749096870422,3.81263899803162,0.34162899851799,18.1376876831055,15.8988370895386,10.9193677902222,-3.27027606964111,-5.3310022354126,-9.31757354736328,10.2379999160767,12.9049997329712,4.11800003051758,-10.5209999084473,-2.44000005722046,1.87399995326996,2.53699994087219,3.00799989700317,8.5,-4.12711715698242,-4.19568014144897,-1.8484890460968,8.9840259552002,6.71269512176514,6.7522349357605,-14.1155481338501,-16.0737018585205,-16.5183601379395,-0.27399998903275,-4.03999996185303,-5.68800020217896,2.10899996757507,2.03099989891052,1.0110000371933,11.8730001449585,13.2069997787476,12.9720001220703,1.87646198272705,2.35985398292542,2.27678298950195,9.25136470794678,9.1477108001709,8.40623569488525,-15.293267250061,-12.0711050033569,-7.18459892272949,-3.7260000705719,-2.86299991607666,-1.92200005054474,-1.18499994277954,-2.04800009727478,-2.36199998855591,10.6180000305176,9.67700004577637,8.9709997177124,1.50164294242859,0.43777900934219,-0.2073460072279,7.05800676345825,5.18648815155029,3.50953102111816,-2.05156493186951,1.48706495761871,2.31423401832581,-1.21599996089935,-1.37300002574921,-1.45099997520447,-2.44000005722046,-1.96899998188019,-1.41999995708466,8.73499965667725,9.52000045776367,9.52000045776367,SWING_RIGHT
0.70980000495911,0.79121398925781,1.05052995681763,-0.03375500068069,-0.02235499955714,-0.00616500014439,1.52532303333282,1.54603803157806,1.43958795070648,5.21700000762939,5.05999994277954,4.58900022506714,2.50200009346008,3.99200010299683,5.40500020980835,11.4029998779297,11.5600004196167,12.0299997329712,1.31492102146149,1.45300900936127,1.53754997253418,0.08485099673271,0.29080200195313,0.54135000705719,1.12015604972839,0.62581098079681,0.08648300170898,3.4909999370575,2.31399989128113,4.11800003051758,6.26800012588501,6.81699991226196,5.79699993133545,12.6579999923706,12.8149995803833,12.8149995803833,1.55817294120789,1.9623349905014,2.79347896575928,0.60455298423767,-0.20867699384689,-2.22504806518555,0.04808000102639,1.67145597934723,5.06459283828735,17.2199993133545,34.3240013122559,37.1479988098145,3.36500000953674,-6.28399991989136,-14.6789999008179,11.4809999465942,4.81199979782104,-2.56100010871887,3.68022298812866,3.41937708854675,2.40057110786438,-5.39873504638672,-7.76570177078247,-7.46727895736694,8.30063343048096,9.1836576461792,9.12890911102295,36.9129981994629,21.4570007324219,10.4729995727539,-33.6660003662109,-39.1580009460449,-39.7849998474121,-16.9969997406006,2.6159999370575,10.1470003128052,1.53941404819489,0.67019897699356,0.49960398674011,-6.44614315032959,-6.31851816177368,-5.83551216125488,8.84384346008301,8.8754243850708,9.99490547180176,-4.19700002670288,-25.6940002441406,-36.443000793457,-39.9420013427734,-39.9420013427734,-27.8600006103516,-8.21000003814697,5.75400018692017,11.7950000762939,1.90710294246674,2.91795110702515,1.88015902042389,-6.19874620437622,-8.97289657592773,-10.0616035461426,11.9738607406616,12.9869842529297,12.3395595550537,-39.1100006103516,-24.125,-2.62800002098084,-20.1709995269775,-16.8759994506836,-15.6990003585815,29.7609996795654,18.1499996185303,7.24499988555908,1.33186602592468,1.72400796413422,2.5155930519104,-9.34426403045654,-8.08936882019043,-6.70919990539551,10.9054660797119,9.11479091644287,6.57953977584839,10.4729995727539,12.8269996643066,8.43299961090088,-12.2469997406006,-8.24600028991699,-5.10799980163574,3.00799989700317,1.43900001049042,1.51699995994568,3.54734897613525,2.96318101882935,2.90683388710022,-5.84150981903076,-5.672532081604,-5.36017179489136,3.37105107307434,-1.88486802577972,-5.78678178787231,3.80399990081787,-0.03900000080466,-3.09899997711182,-2.59699988365173,-1.02799999713898,-0.16500000655651,4.42000007629395,8.57800006866455,11.7950000762939,4.66001081466675,7.32423210144043,7.91812896728516,-4.52760601043701,-2.77687907218933,-0.07648099958897,-5.35739898681641,-1.40028405189514,2.23330903053284,-4.82499980926514,-4.82499980926514,-2.62800002098084,0.07000000029802,-0.63599997758865,-1.81200003623962,13.3640003204346,12.7360000610352,10.9320001602173,6.94624805450439,5.58692502975464,4.40967798233032,1.21194005012512,1.38640701770782,0.99642699956894,3.14822602272034,2.91150403022766,2.73052906990051,-0.90200001001358,-0.195999994874,0.1169999986887,-2.75399994850159,-2.83200001716614,-2.67499995231628,9.52000045776367,8.42099952697754,7.40100002288818,SWING_RIGHT
0.37443399429321,0.5847390294075,0.71104699373245,1.10059595108032,2.19728088378906,2.51932406425476,0.26383799314499,-0.41857498884201,-0.61367100477219,-3.25600004196167,-4.43200016021729,-7.25699996948242,4.07100009918213,5.40500020980835,5.48299980163574,11.08899974823,12.3439998626709,13.2069997787476,0.87387698888779,1.05427801609039,0.64227700233459,3.20774102210999,3.46278810501099,2.82653188705444,-0.99930602312088,-1.14376997947693,-1.03453695774078,-5.84499979019165,-2.15700006484985,3.41199994087219,5.2480001449585,1.40299999713898,-1.81200003623962,10.3039999008179,11.4809999465942,15.875,-0.434101998806,-1.44686794281006,-2.36427402496338,1.54504203796387,-0.32328298687935,-2.52636408805847,-0.83241701126099,-0.31082499027252,0.76517599821091,9.76700019836426,14.3170003890991,14.3170003890991,-3.7739999294281,-4.79400014877319,-4.79400014877319,16.8950004577637,13.128999710083,13.128999710083,-1.95970594882965,6.54194211959839,7.92609786987305,-4.99144983291626,-7.90036678314209,-8.83829784393311,3.92708611488342,13.3494453430176,12.3949203491211,33.6959991455078,35.9710006713867,21.0650005340576,-8.24600028991699,-34.7639999389648,-38.6870002746582,4.49900007247925,-10.798999786377,-1.38499999046326,7.04063081741333,5.41287517547607,3.61069107055664,-8.77788734436035,-7.93356513977051,-6.69382286071777,11.0369539260864,10.0187072753906,9.59637069702148,12.9049997329712,4.90299987792969,-17.1420001983643,-39.6279983520508,-39.8639984130859,-39.9420013427734,6.14599990844727,10.6969995498657,-5.30700016021729,1.52653300762177,0.71326899528503,1.41196596622467,-5.84762716293335,-4.33050680160522,-3.7712070941925,9.94472217559814,11.1689958572388,12.3915338516235,-33.5400009155273,-38.4039993286133,-38.4039993286133,-39.7849998474121,-26.5259990692139,-26.5259990692139,7.95100021362305,18.306999206543,18.306999206543,1.77040004730225,0.80764800310135,-0.53781199455261,-5.97192096710205,-9.02496242523193,-9.99359035491943,13.0008916854858,12.7130002975464,11.5499019622803,-29.9309997558594,-12.2779998779297,-0.66699999570847,-12.168999671936,-12.6389999389648,-11.0699996948242,14.5410003662109,11.6379995346069,7.79400014877319,-0.40130099654198,0.27573001384735,1.27053594589233,-9.71008014678955,-8.52106952667236,-7.37438583374023,10.2164554595947,8.69685173034668,6.37109279632568,4.58900022506714,5.68699979782104,6.47200012207031,-8.08899974822998,-6.75500011444092,-2.83200001716614,5.28299999237061,4.9689998626709,6.77400016784668,2.90956592559814,4.37587690353394,5.41107320785522,-7.52270078659058,-8.26536560058594,-8.11689567565918,2.6434280872345,-1.80887496471405,-3.83090996742249,5.53000020980835,3.6470000743866,1.37199997901917,-0.94900000095367,0.14800000190735,0.77600002288818,7.40100002288818,8.73499965667725,10.6180000305176,6.56500911712646,7.30857992172241,7.00130605697632,-7.2317099571228,-5.54836511611938,-3.26184892654419,-2.85693907737732,-0.28607699275017,1.72264695167542,-0.90200001001358,-3.09899997711182,-3.88299989700317,0.85399997234344,0.54000002145767,0.14800000190735,11.9519996643066,11.7950000762939,11.1669998168945,SWING_RIGHT
0.20994800329208,0.15248200297356,0.18890999257565,-2.18256497383118,-1.63794803619385,-0.60859197378159,3.13780999183655,2.62395191192627,2.16264891624451,2.78399991989136,2.23499989509583,1.84300005435944,0.30500000715256,0.46200001239777,0.77600002288818,9.04899978637695,9.04899978637695,9.28400039672852,0.46130499243736,0.5862740278244,0.70122599601746,0.94872099161148,1.21451997756958,1.40202605724335,2.05228090286255,2.12162590026855,1.73966705799103,1.60800004005432,1.13699996471405,0.50900000333786,1.0110000371933,1.40299999713898,1.48199999332428,9.83399963378906,10.1470003128052,10.6180000305176,0.73274600505829,0.8434219956398,1.00344502925873,1.45561802387238,1.42768597602844,1.45492994785309,1.54396295547485,1.14318704605103,0.59078997373581,1.2150000333786,0.90200001001358,0.35199999809265,2.18799996376038,3.12899994850159,2.97199988365173,10.8540000915527,13.2069997787476,16.423999786377,0.89478397369385,0.54063498973846,0.11908099800348,1.36325001716614,1.04428696632385,0.18069399893284,-0.01425800006837,-0.43384298682213,-0.64276301860809,1.84300005435944,7.25600004196167,13.5329999923706,1.16799998283386,-0.08600000292063,-0.63599997758865,16.0319995880127,15.326000213623,12.1090002059937,-0.26320299506187,-0.80529600381851,-0.78076297044754,-1.16491496562958,-2.56327891349792,-4.72704076766968,-0.53032398223877,0.19436199963093,2.32625389099121,16.75,29.2240009307861,37.3050003051758,-4.08799982070923,-8.63799953460693,-21.3479995727539,8.3430004119873,8.42099952697754,5.83199977874756,0.77660000324249,4.73458814620972,6.24005508422852,-6.79181289672852,-9.26356315612793,-10.1454792022705,5.96358203887939,9.22761154174805,8.98793125152588,39.3450012207031,34.7159996032715,23.7320003509521,-35.3129997253418,-38.7649993896484,-39.7070007324219,-15.03600025177,-16.9969997406006,13.3640003204346,5.47817420959473,3.69283604621887,-0.23008500039577,-8.77704238891602,-7.24217700958252,-5.32770013809204,8.56464958190918,8.09585475921631,8.03338623046875,7.64900016784668,-16.9069995880127,-33.8530006408691,-39.8639984130859,-39.9420013427734,-39.0789985656738,10.6969995498657,-11.1920003890991,8.57800006866455,-4.8659839630127,-5.68587493896484,-3.09627389907837,0.61265802383423,7.46966314315796,12.2875671386719,8.47411155700684,8.24535846710205,7.01706600189209,-38.4819984436035,-38.4819984436035,-27.2630004882813,-24.6429996490479,-24.6429996490479,-14.0520000457764,6.14599990844727,6.14599990844727,11.7170000076294,-0.83033001422882,0.72033798694611,2.13997602462769,13.7926254272461,12.9107532501221,10.5792875289917,5.91943216323853,4.91030597686768,3.26980710029602,-8.04100036621094,4.74599981307983,10.6300001144409,-12.2469997406006,-9.10900020599365,-5.18599987030029,9.44099998474121,6.93100023269653,5.44000005722046,2.60181498527527,3.57014489173889,4.06942319869995,8.50876998901367,6.67117118835449,8.14505195617676,1.79429996013641,-1.87772798538208,-11.4095449447632,11.4930000305176,7.64900016784668,2.47099995613098,-3.38199996948242,-0.08600000292063,0.77600002288818,6.61700010299683,11.8730001449585,14.9329996109009,SWING_RIGHT
