gyro_x_0,gyro_y_0,gyro_z_0,acc_x_0,acc_y_0,acc_z_0,gyro_x_1,gyro_y_1,gyro_z_1,acc_x_1,acc_y_1,acc_z_1,gyro_x_2,gyro_y_2,gyro_z_2,acc_x_2,acc_y_2,acc_z_2,gyro_x_3,gyro_y_3,gyro_z_3,acc_x_3,acc_y_3,acc_z_3,gyro_x_4,gyro_y_4,gyro_z_4,acc_x_4,acc_y_4,acc_z_4,gyro_x_5,gyro_y_5,gyro_z_5,acc_x_5,acc_y_5,acc_z_5,gyro_x_6,gyro_y_6,gyro_z_6,acc_x_6,acc_y_6,acc_z_6,gyro_x_7,gyro_y_7,gyro_z_7,acc_x_7,acc_y_7,acc_z_7,gyro_x_8,gyro_y_8,gyro_z_8,acc_x_8,acc_y_8,acc_z_8,gyro_x_9,gyro_y_9,gyro_z_9,acc_x_9,acc_y_9,acc_z_9,gyro_x_10,gyro_y_10,gyro_z_10,acc_x_10,acc_y_10,acc_z_10,gyro_x_11,gyro_y_11,gyro_z_11,acc_x_11,acc_y_11,acc_z_11,gyro_x_12,gyro_y_12,gyro_z_12,acc_x_12,acc_y_12,acc_z_12,gyro_x_13,gyro_y_13,gyro_z_13,acc_x_13,acc_y_13,acc_z_13,gyro_x_14,gyro_y_14,gyro_z_14,acc_x_14,acc_y_14,acc_z_14,gyro_x_15,gyro_y_15,gyro_z_15,acc_x_15,acc_y_15,acc_z_15,gyro_x_16,gyro_y_16,gyro_z_16,acc_x_16,acc_y_16,acc_z_16,gyro_x_17,gyro_y_17,gyro_z_17,acc_x_17,acc_y_17,acc_z_17,gyro_x_18,gyro_y_18,gyro_z_18,acc_x_18,acc_y_18,acc_z_18,gyro_x_19,gyro_y_19,gyro_z_19,acc_x_19,acc_y_19,acc_z_19,gyro_x_20,gyro_y_20,gyro_z_20,acc_x_20,acc_y_20,acc_z_20,gyro_x_21,gyro_y_21,gyro_z_21,acc_x_21,acc_y_21,acc_z_21,gyro_x_22,gyro_y_22,gyro_z_22,acc_x_22,acc_y_22,acc_z_22,gyro_x_23,gyro_y_23,gyro_z_23,acc_x_23,acc_y_23,acc_z_23,gyro_x_24,gyro_y_24,gyro_z_24,acc_x_24,acc_y_24,acc_z_24,gyro_x_25,gyro_y_25,gyro_z_25,acc_x_25,acc_y_25,acc_z_25,gyro_x_26,gyro_y_26,gyro_z_26,acc_x_26,acc_y_26,acc_z_26,gyro_x_27,gyro_y_27,gyro_z_27,acc_x_27,acc_y_27,acc_z_27,gyro_x_28,gyro_y_28,gyro_z_28,acc_x_28,acc_y_28,acc_z_28,gyro_x_29,gyro_y_29,gyro_z_29,acc_x_29,acc_y_29,acc_z_29,motion_type
-0.04276249930263,-0.17476250231266,-0.23704999685287,0.02007500082254,0.05678749829531,0.13255000114441,0.04771250113845,0.19181250035763,0.63662499189377,0.46695002913475,0.00300000002608,-0.00795000046492,3.10695004463196,3.46905016899109,4.96200037002563,9.33795070648193,9.11295032501221,10.0219507217407,-0.26757499575615,-0.47409999370575,-0.78567498922348,0.12155000120401,0.57969999313354,1.15995001792908,0.94201248884201,0.23704999685287,-1.83617496490479,1.79505014419556,8.50695037841797,15.2140502929688,6.26595020294189,6.59100008010864,6.72000026702881,10.9339504241943,10.2919502258301,9.71100044250488,-0.34209999442101,0.60829997062683,2.20385003089905,1.14166247844696,0.58822500705719,-0.14478750526905,-3.73230004310608,-4.51055002212524,-5.61742496490479,13.1590509414673,7.28700017929077,2.86695003509521,6.61995029449463,5.21295022964478,-2.73105001449585,13.3050003051758,15.0060005187988,11.4169502258301,2.52161240577698,2.90881252288818,2.85381245613098,-0.0409750007093,0.54175001382828,0.40493750572205,-6.26614999771118,-0.71706247329712,4.37249994277954,-0.65700000524521,-25.2319507598877,-31.8049507141113,-10.207950592041,-8.81595039367676,-6.40800046920776,9.36600017547607,10.4100008010864,10.0080003738403,0.690249979496,-0.42033749818802,-0.60238748788834,1.67309999465942,1.31147503852844,0.34869998693466,10.5935497283936,12.1389122009277,11.5317125320435,-14.4210004806519,-6.45300006866455,9.36600017547607,-9.26100063323975,-9.48600006103516,-10.7059507369995,1.76205003261566,3.32205009460449,6.86595010757446,1.63336253166199,2.47761249542236,1.26568746566772,-0.50641250610352,-2.08862495422363,-1.85033750534058,-1.20216250419617,-3.77753758430481,-5.38889980316162,43.7190017700195,26.8060512542725,16.6669502258301,17.5939502716064,16.3999500274658,10.1329507827759,14.788950920105,11.3479509353638,-0.54900002479553,-1.25111246109009,-3.59067487716675,-4.15387487411499,-0.1387374997139,1.6131500005722,3.4482250213623,-7.01621246337891,-8.24766254425049,-8.00580024719238,13.0750503540039,4.84605026245117,-7.29195022583008,4.04505014419556,-5.08305025100708,-13.0099506378174,-5.78895044326782,-4.11899995803833,2.73105001449585,-2.28703737258911,0.41772499680519,2.02193737030029,3.04383754730225,0.13131250441074,-1.82710003852844,-4.08292484283447,2.32375001907349,6.75482511520386,-26.4810009002686,-40.1260528564453,-30.2359523773193,-12.5959501266479,-7.52595043182373,-9.86895084381104,15.9130506515503,21.5320510864258,15.7050008773804,2.01698756217957,1.34021246433258,0.34443750977516,-2.00791239738464,-1.92238748073578,-1.06356251239777,8.78776264190674,9.60877513885498,7.52207517623901,-15.5580005645752,-5.94495010375977,14.5590009689331,-10.9500007629395,-8.10494995117188,-3.96000027656555,7.20795011520386,4.31205034255981,0.99105006456375,-0.66467499732971,-1.27792501449585,-1.78254997730255,0.38293749094009,1.32371246814728,1.59857499599457,2.83071255683899,-1.3194500207901,-3.55629992485046,31.3930511474609,33.3529510498047,25.4080505371094,9.76905059814453,17.4790515899658,17.0890502929688,0.91200006008148,4.0639500617981,3.81495022773743,SHAKE
0.68406248092651,-0.46791249513626,-1.12035000324249,-0.23649999499321,-0.49059998989105,-0.51617497205734,3.67977499961853,-0.57296252250671,-3.02486252784729,21.0580501556396,26.356050491333,20.4090003967285,4.32795000076294,15.3540010452271,14.2560005187988,-2.31495022773743,-0.61605000495911,0.23295001685619,-1.65302503108978,-2.88571238517761,-3.05305004119873,-0.13997499644756,1.47276246547699,1.65233743190765,-3.83006238937378,-5.1397500038147,-5.53423738479614,13.7040004730225,4.82895040512085,-2.29095005989075,12.8509502410889,2.72895002365112,-4.31700038909912,0.72600001096725,1.2520500421524,4.59000015258789,0.06833750009537,2.08656239509583,2.87952494621277,-1.29690003395081,-2.43924999237061,-2.24743747711182,0.82953751087189,5.03346252441406,7.64183759689331,-27.3859519958496,-25.7490005493164,-15.0739507675171,-6.59700012207031,-6.03300046920776,-6.75495052337646,20.8039512634277,20.1370506286621,13.5370502471924,1.37431252002716,-0.00371249997988,-1.06177496910095,0.20088750123978,1.38723754882813,0.65174996852875,5.23022508621216,0.25176250934601,-3.81906247138977,19.525951385498,30.9690017700195,14.568000793457,-1.12200009822845,12.6169509887695,12.78600025177,1.92000007629395,1.06305003166199,4.13505029678345,-1.42340004444122,-2.74037504196167,-2.6536123752594,0.27912500500679,0.78608751296997,0.84603750705719,-4.39326238632202,-5.73471260070801,-5.0810375213623,10.8900003433228,3.81405019760132,-5.32800006866455,11.2290000915527,-0.21600000560284,-6.05895042419434,3.26700019836426,3.05100011825562,8.40000057220459,2.12080001831055,3.79706239700317,2.82452487945557,-1.53147494792938,-1.79781246185303,-0.56141251325607,3.0164749622345,6.06952476501465,7.0321626663208,-26.4810009002686,-17.7180004119873,4.97295045852661,-5.98695039749146,-7.70100021362305,-4.16100025177002,25.1929512023926,18.5770511627197,4.7310004234314,1.40855002403259,0.38719999790192,-0.33109998703003,0.3768875002861,0.66522496938705,0.31693750619888,4.07206249237061,-0.01828750036657,-2.62047505378723,20.1439514160156,26.6640014648438,20.2420501708984,3.5310001373291,12.6670503616333,14.5570507049561,0.50805002450943,1.10805010795593,1.54605007171631,-0.75019997358322,-1.49297499656677,-2.52903747558594,0.07631249725819,-0.0141624994576,0.22783750295639,-4.11221265792847,-5.15556240081787,-6.00462484359741,15.738000869751,12.38805103302,8.9209508895874,12.1999502182007,9.77100086212158,4.95705032348633,1.78095006942749,0.10095000267029,-1.04700005054474,-3.30110001564026,-3.40738749504089,-1.93159997463226,0.60651248693466,0.5295125246048,-0.48207500576973,-6.29543733596802,-5.95828723907471,-3.75306248664856,3.06300020217896,-3.92805027961731,-14.5690507888794,-0.68205004930496,-5.94705009460449,-7.33005046844482,0.64200001955032,4.90800046920776,14.998950958252,0.61572498083115,2.57894992828369,3.07133746147156,-1.72933745384216,-1.98838746547699,-1.07827496528625,0.69643747806549,5.16546249389648,7.88864994049072,-25.2250518798828,-24.961950302124,-14.5189504623413,-6.21900033950806,-6.16695022583008,-7.98795032501221,22.1590518951416,20.2470016479492,12.9049501419067,SHAKE
1.41102504730225,0.3286249935627,-0.57791250944138,-0.14478750526905,0.65903747081757,0.44893750548363,4.82212495803833,0.45333749055862,-3.40848755836487,18.7920017242432,26.4180011749268,14.1829509735107,-1.3900500535965,10.5420007705688,11.6400003433228,3.43200016021729,2.46795010566711,5.31300020217896,-0.87972497940063,-1.43797504901886,-1.91207504272461,0.33288750052452,0.50393748283386,0.64803749322891,-4.43107509613037,-5.82133769989014,-6.72306251525879,12.7279510498047,12.0220508575439,6.19095039367676,9.59700012207031,4.87305021286011,-0.2250000089407,5.19105005264282,4.04700040817261,4.60905027389526,-1.98164999485016,-1.51868748664856,-0.17723749577999,0.63827496767044,0.47093749046326,0.43298751115799,-6.60082483291626,-5.64795017242432,-3.45125007629395,-0.26205000281334,-5.27805042266846,-13.1620502471924,-3.85995006561279,-6.96405029296875,-7.28700017929077,6.18105030059814,8.6650505065918,13.10205078125,1.7994624376297,3.13610005378723,3.0969123840332,0.083599999547,-0.24983750283718,-0.50641250610352,0.58520001173019,4.98217487335205,7.98393726348877,-24.0640506744385,-26.098051071167,-18.6280517578125,-5.22405004501343,-5.92995023727417,-7.46100044250488,18.0090007781982,16.0260009765625,9.83505058288574,2.08422493934631,1.07511246204376,0.09281250089407,-0.83627498149872,-1.16256248950958,-0.60417497158051,9.62472534179688,9.90687465667725,6.79401254653931,-10.1760005950928,0.18405000865459,20.5720500946045,-7.82295036315918,-6.99705028533936,-2.30505013465881,5.06400012969971,4.12095022201538,2.45595002174377,-0.70743751525879,-1.0202499628067,-1.07634997367859,0.8788999915123,1.07566249370575,0.55398750305176,1.27311253547668,-2.98210000991821,-3.72487497329712,33.034049987793,15.4180507659912,12.6370506286621,12.8869504928589,12.8250007629395,11.0130004882813,3.29805016517639,7.93095016479492,7.45905017852783,-1.84978747367859,-2.01341247558594,0.06957499682903,0.24983750283718,0.34017500281334,-0.49417498707771,-6.29914999008179,-7.09926223754883,-5.591712474823,9.25800037384033,4.30305004119873,-12.2719507217407,2.54700016975403,-3.89295029640198,-9.12705039978027,4.94205045700073,5.5620002746582,14.1619510650635,2.14527487754822,3.50501251220703,2.97604990005493,-2.0934374332428,-2.74587488174438,-0.01773750036955,-1.7384124994278,2.87347507476807,8.40303707122803,-22.9990501403809,-27.3190517425537,-10.9540500640869,-6.95895051956177,-5.80500030517578,-7.04295015335083,19.5190505981445,18.1290016174316,7.14795017242432,2.00227499008179,0.84053748846054,-1.33292496204376,0.90337496995926,2.07501244544983,2.98402500152588,9.39991283416748,7.99246263504028,-0.21133749186993,-3.13395023345947,13.1710510253906,28.2799510955811,-6.06405019760132,-4.10895013809204,14.2080011367798,6.37005043029785,2.79495024681091,4.41300010681152,-1.03001248836517,-0.34581249952316,-0.11371249705553,1.5300999879837,0.30841249227524,-0.17531250417233,-2.22461247444153,-3.30096244812012,-4.47755002975464,20.0290508270264,15.0750007629395,13.5180006027222,13.9780502319336,12.1260004043579,9.07005023956299,8.70300006866455,9.7829999923706,7.60500049591064,SHAKE
-0.16871249675751,-0.43738749623299,-0.03066249936819,-0.33412501215935,-0.78622502088547,-0.60293751955032,-6.14020013809204,-7.37783765792847,-6.79387474060059,12.0940504074097,6.04905033111572,-8.37405014038086,4.65495014190674,-1.5940500497818,-13.3890008926392,7.03605031967163,7.24905014038086,12.9700508117676,2.01574993133545,3.86182498931885,3.05057501792908,-0.05802499875426,0.22041249275208,1.17342495918274,-2.18803739547729,3.74825000762939,9.91911220550537,-25.8660011291504,-34.560001373291,-12.1500005722046,-8.64105033874512,-6.76695013046265,-10.5070505142212,21.6079502105713,22.1560516357422,6.21195030212402,2.05851244926453,0.97240000963211,0.59248751401901,0.73603749275208,-0.21449999511242,-0.3647874891758,10.6191253662109,3.07628750801086,-1.24973750114441,-1.52295005321503,33.6559524536133,32.7949523925781,-8.78894996643066,9.62295055389404,16.7040004730225,4.32405042648315,0.23295001685619,1.23000001907349,-0.77824997901917,-1.92912495136261,-3.40738749504089,-0.23649999499321,0.27183750271797,0.89361250400543,-3.71277499198914,-4.57641267776489,-5.77005004882813,15.364951133728,13.6609506607056,10.6819505691528,13.7029504776001,9.85800075531006,4.90694999694824,-0.4240500330925,-1.35105001926422,-1.33605003356934,-4.71460008621216,-4.58755016326904,-2.28827500343323,1.26376247406006,1.42257499694824,1.01708745956421,-6.95144987106323,-7.57336235046387,-5.58923768997192,5.71200037002563,-0.76695001125336,-14.943000793457,-2.98200011253357,-11.9220008850098,-14.0010004043579,0.88605004549026,8.1670503616333,19.7989501953125,1.52954995632172,4.36878728866577,4.87822484970093,-0.14602500200272,-0.88398748636246,-0.71898752450943,0.0,5.66142511367798,8.83547496795654,-32.9179496765137,-33.7770004272461,-19.6230010986328,-8.91900062561035,-9.12900066375732,-12.0169506072998,29.5579509735107,25.6240520477295,13.8460502624512,3.88987493515015,2.36637496948242,0.87711250782013,-0.40507498383522,-0.14245000481606,0.24007499217987,9.9508752822876,8.29784965515137,3.76172494888306,-7.213050365448,10.8880500793457,28.3579521179199,-10.8090009689331,-6.11400032043457,7.5319504737854,5.89905023574829,0.22095000743866,-3.37695026397705,-0.13695000112057,-0.97253751754761,-1.84854996204376,0.53927499055862,0.75432497262955,0.87779998779297,-0.30043751001358,-2.37490010261536,-3.57829999923706,30.3570022583008,22.7640018463135,18.1410007476807,16.3999500274658,17.131950378418,15.1150503158569,-1.59900009632111,-1.5130500793457,-1.37700009346008,-2.7856125831604,-3.59796237945557,-3.83253741264343,0.93389999866486,1.09766244888306,1.26623749732971,-4.81965017318726,-6.15986251831055,-7.20321226119995,15.9150009155273,12.6180009841919,6.1279501914978,11.6209506988525,5.54295015335083,-2.05605006217957,-0.85305005311966,1.05795001983643,5.20995044708252,-0.24323749542236,2.97604990005493,4.72669982910156,0.49651250243187,-1.18813753128052,-1.4997124671936,-3.98516249656677,1.47949993610382,6.14762496948242,-20.2860012054443,-33.2890510559082,-29.3530521392822,-12.0270004272461,-9.2659502029419,-10.2589502334595,22.3840503692627,27.457052230835,20.3880004882813,SHAKE
-2.23093748092651,-0.53886252641678,1.52583754062653,0.84727501869202,0.15083749592304,-0.8289874792099,-7.61983728408813,-5.50137519836426,-0.63153749704361,-4.5,-17.2570514678955,-31.8940505981445,-11.6659507751465,-13.2190504074097,-8.39895057678223,10.2210006713867,16.0470008850098,19.7539501190186,2.80747509002686,2.71218752861023,1.84841251373291,-0.99027496576309,-0.45388749241829,-0.00068749999627,4.5667872428894,7.96441268920898,9.60753726959228,-33.8920516967773,-23.0929508209229,-12.1000509262085,-8.44005012512207,-10.651050567627,-10.2610502243042,16.4800510406494,9.7829999923706,5.49900007247925,1.1006875038147,0.92234998941422,0.91135001182556,0.26207500696182,-0.09955000132322,-0.64322501420975,9.37543773651123,6.48724985122681,2.66337490081787,2.06505012512207,18.2650508880615,26.881950378418,-7.86600017547607,0.91500002145767,13.4610004425049,4.0009503364563,4.40100002288818,4.70504999160767,0.71224999427795,0.1733874976635,-0.75501251220703,-0.67141246795654,-0.43931248784065,-0.07150000333786,-0.10876250267029,-1.69688749313354,-3.03104996681213,25.54905128479,20.6460018157959,18.3610515594482,18.1420516967773,19.4629516601563,17.2470016479492,2.92695021629334,1.11105000972748,-0.53895002603531,-1.88265001773834,-3.65048742294312,-3.24981236457825,0.33660000562668,0.65298748016357,0.31941249966621,-4.41650009155273,-7.30949974060059,-8.1035623550415,16.0060501098633,5.84400033950806,-2.0179500579834,13.123950958252,-1.85700011253357,-11.332950592041,-0.57300001382828,4.23600006103516,10.3620004653931,2.21127510070801,3.98887491226196,1.95827496051788,-0.86927497386932,-0.05073750019073,0.81427496671677,-0.46172499656677,8.42008781433105,9.48048782348633,-33.9490509033203,-20.97705078125,7.67700052261353,-9.94800090789795,-10.4190006256104,-6.13095045089722,25.5469512939453,9.6340503692627,2.19705009460449,1.46850001811981,0.59248751401901,-0.18452499806881,0.083599999547,-0.82403749227524,-0.4086500108242,5.63337516784668,-1.07758748531342,-2.54966259002686,24.9679508209229,26.5110015869141,20.9190006256104,4.44195032119751,18.8479499816895,18.2470512390137,0.90495002269745,-0.7950000166893,-1.93005013465881,-2.66213750839233,-3.72748756408691,-2.60961246490479,0.62370002269745,1.12571251392365,0.48922500014305,-5.48061227798462,-6.9271125793457,-6.73777484893799,14.3460006713867,7.81500053405762,-12.0760507583618,8.12700080871582,0.3790500164032,-15.3030004501343,-1.55895006656647,1.61100006103516,17.6119499206543,0.7207750082016,3.23620009422302,3.67606258392334,0.17655000090599,-0.45636248588562,-0.43312498927116,-1.87646245956421,3.15576243400574,6.28691244125366,-30.0439510345459,-32.2939529418945,-21.5950508117676,-9.48600006103516,-8.24100017547607,-9.65805053710938,25.441951751709,22.7329502105713,12.1300506591797,2.60342502593994,1.22650003433228,0.16005000472069,-0.02749999985099,0.3634124994278,0.29864999651909,7.82512474060059,7.82870006561279,5.941237449646,-11.7790508270264,-0.4200000166893,12.6610507965088,-8.15505027770996,-4.83900022506714,2.25300002098084,3.73305010795593,-0.02700000070035,-0.6690000295639,SHAKE
-0.62191247940063,-1.07758748531342,-1.62978744506836,0.3255999982357,0.33536249399185,0.33783748745918,0.2223374992609,-1.52102494239807,-2.77447509765625,24.7830009460449,21.2490005493164,17.836950302124,16.5169506072998,17.742000579834,16.3540515899658,1.31895005702972,0.63000005483627,0.93600004911423,-2.27493739128113,-3.02747488021851,-3.39391255378723,0.64446252584457,1.08790004253387,1.16366255283356,-4.04511260986328,-5.40732479095459,-6.46167516708374,15.5329504013062,11.2780504226685,4.26195001602173,12.5209503173828,6.70605039596558,-0.85905003547668,1.41495001316071,2.36700010299683,5.94405031204224,0.4129124879837,2.93328738212585,3.18615007400513,-0.10202500224113,-1.10261249542236,-0.77398747205734,-3.53924989700317,0.77701246738434,7.17640018463135,-20.7090015411377,-29.6569519042969,-17.2999515533447,-11.4550504684448,-9.75600051879883,-7.50000047683716,24.1309509277344,23.9149513244629,7.14795017242432,2.05603742599487,0.52401250600815,-0.43738749623299,-0.21807499229908,0.40246251225471,-0.22659999132156,8.04127502441406,2.45313739776611,-2.03169989585876,-4.71495008468628,25.6140003204346,19.3090515136719,-4.4850001335144,10.5679502487183,18.2260513305664,2.59200000762939,0.76905006170273,0.7140000462532,-1.11553752422333,-3.02500009536743,-1.98660004138947,-0.27802500128746,1.04266250133514,1.19047498703003,-3.11781239509583,-5.683424949646,-6.30643749237061,17.239049911499,11.5360507965088,-8.77095031738281,16.2559509277344,5.68395042419434,-10.0030508041382,-0.32205000519753,0.96705007553101,15.9130506515503,3.46720004081726,4.2612624168396,2.19175004959106,-1.15032494068146,-1.54371249675751,0.13502499461174,1.98041248321533,5.39632511138916,7.23126268386841,-31.8720016479492,-24.7870502471924,-2.13300013542175,-9.41205024719238,-9.73695087432861,-4.71195030212402,24.856050491333,15.6670503616333,0.86205005645752,1.04692494869232,0.48372501134872,0.30167499184608,0.75432497262955,0.76532500982285,0.31817498803139,5.6247124671936,2.81847500801086,0.16609999537468,11.4739503860474,21.2440509796143,23.3140506744385,2.08095002174377,11.0089502334595,15.748950958252,-0.68805003166199,0.21795001626015,0.94605004787445,-0.07823749631643,-0.84672498703003,-1.86559998989105,-0.14478750526905,-0.16554999351501,0.19236250221729,-1.47578752040863,-2.65966248512268,-4.03768730163574,19.4400005340576,16.7650508880615,15.7549505233765,17.2680015563965,15.8470506668091,12.5350503921509,-0.23295001685619,-1.96995007991791,-2.07600021362305,-2.61332488059998,-2.75618743896484,-2.27369999885559,0.84479999542236,1.6718624830246,1.98948752880096,-5.23503732681274,-5.84347486495972,-5.34737491607666,11.3899507522583,3.97200012207031,-6.12900018692017,7.89105033874512,2.05695009231567,-4.64205026626587,1.10805010795593,6.33000040054321,12.1350002288818,-1.00925004482269,1.627312541008,2.05480003356934,1.6828625202179,0.09831249713898,-0.2938374876976,-3.44396257400513,2.01698756217957,4.12087488174438,-16.3279514312744,-21.5250015258789,-17.5990505218506,-7.44705057144165,-7.15305042266846,-5.62800025939941,16.689001083374,15.6739511489868,11.2420501708984,SHAKE
-2.61332488059998,-2.75618743896484,-2.27369999885559,0.84479999542236,1.6718624830246,1.98948752880096,-5.23503732681274,-5.84347486495972,-5.34737491607666,11.3899507522583,3.97200012207031,-6.12900018692017,7.89105033874512,2.05695009231567,-4.64205026626587,1.10805010795593,6.33000040054321,12.1350002288818,-1.00925004482269,1.627312541008,2.05480003356934,1.6828625202179,0.09831249713898,-0.2938374876976,-3.44396257400513,2.01698756217957,4.12087488174438,-16.3279514312744,-21.5250015258789,-17.5990505218506,-7.44705057144165,-7.15305042266846,-5.62800025939941,16.689001083374,15.6739511489868,11.2420501708984,1.7714124917984,1.32921254634857,1.39631247520447,-0.48688748478889,-0.64817500114441,-0.93527501821518,5.11403751373291,4.89541244506836,2.47513747215271,-9.54195022583008,0.27300000190735,13.873950958252,-3.45300006866455,0.60900002717972,12.7770004272461,6.74805021286011,4.07595014572144,4.26495027542114,1.16421246528625,-0.4325749874115,-1.43550002574921,-0.73974996805191,-0.10931249707937,0.27059999108315,0.60472500324249,-2.96504998207092,-4.12087488174438,17.8680000305176,16.5949516296387,13.0650005340576,16.6200008392334,17.2060508728027,14.0830507278442,2.03700017929077,-0.29805001616478,0.25905001163483,-1.84607493877411,-1.2694000005722,1.11539995670319,1.05366253852844,0.80327498912811,-0.25712499022484,-5.68466234207153,-5.63571262359619,-1.26692497730255,4.22399997711182,-4.43100023269653,-23.1649513244629,3.12600016593933,-3.56100010871887,-8.800950050354,9.32295036315918,12.7140007019043,15.7000503540039,2.13179993629456,1.87646245956421,1.26926255226135,-0.51136249303818,0.20831249654293,0.43312498927116,1.76055002212524,4.81841230392456,4.89541244506836,-24.3990020751953,-9.55605030059814,-3.44700026512146,-8.31300067901611,-6.38205051422119,-2.53695011138916,14.193000793457,5.2219500541687,3.11595010757446,0.92358750104904,1.14963746070862,1.75793743133545,0.59551250934601,0.42336249351501,0.0787874981761,5.0957498550415,4.95646238327026,3.6431999206543,0.38805001974106,5.55405044555664,14.5060510635376,2.60700011253357,8.31195068359375,12.8440504074097,3.40800023078919,5.17905044555664,6.21195030212402,2.24661254882813,2.07927489280701,1.08116245269775,-0.3964124917984,-0.51370000839233,-0.58822500705719,1.49049997329712,-0.4959625005722,-2.09151244163513,19.9039516448975,20.1169509887695,16.9369506835938,17.4600009918213,19.7449512481689,19.6800003051758,5.20305013656616,1.61100006103516,-1.78800010681152,-0.08071249723434,-0.6903874874115,-0.69519996643066,-0.26331248879433,0.23154999315739,0.35365000367165,-3.58201241493225,-4.58136224746704,-5.26556253433228,15.2880010604858,10.9260005950928,6.58500051498413,16.9530010223389,12.7789506912231,7.9960503578186,-1.75500011444092,2.49900007247925,6.46605014801025,-0.43738749623299,-0.25533750653267,0.53996247053146,0.02378750033677,-0.0922624990344,-0.13750000298023,-5.67242479324341,-5.35108757019043,-1.4502124786377,0.7180500626564,-8.01000022888184,-22.8300018310547,2.45205020904541,-3.08505010604858,-8.27700042724609,8.75895023345947,8.97600078582764,10.1389503479004,SHAKE
-0.43614998459816,-1.0813000202179,-1.54426252841949,-0.35241249203682,0.06049999967217,0.35983750224113,-4.00358724594116,-5.37803745269775,-6.34191226959229,19.9980010986328,13.8190507888794,8.62695026397705,23.1430511474609,17.1460514068604,9.6540002822876,-0.0730499997735,-0.90795004367828,1.76595008373261,-1.56268751621246,-1.20711255073547,-0.32010000944138,0.65174996852875,1.17466247081757,1.65728747844696,-7.00892496109009,-7.00768756866455,-5.34008741378784,2.69895005226135,-5.12400007247925,-17.5579509735107,1.357950091362,-7.37805032730103,-12.1180505752563,5.31795024871826,7.33200025558472,8.60295009613037,0.88563752174377,1.65412497520447,1.77388751506805,1.00856244564056,-0.30965000391006,-0.88632500171661,-1.70307493209839,2.60590004920959,5.80800008773804,-29.4220504760742,-32.8199996948242,-25.2610511779785,-10.9669504165649,-9.56505012512207,-9.82500076293945,9.39495086669922,7.02405023574829,3.22800016403198,1.43178749084473,0.87106251716614,0.08428750187159,-1.15142500400543,-0.91079998016357,-0.04578749835491,7.12016248703003,6.69501256942749,5.77623748779297,-12.8659505844116,-0.29805001616478,6.49005031585693,-9.63900089263916,-7.33695030212402,0.01095000095665,0.65100002288818,-0.79995006322861,-2.00400018692017,-0.41662499308586,0.16114999353886,1.22650003433228,0.70922499895096,0.43064999580383,-0.48317500948906,5.20932483673096,4.00358724594116,1.28521251678467,9.33495044708252,16.1980514526367,25.1419506072998,10.5919504165649,20.2690505981445,25.6320018768311,-1.22400009632111,3.18795013427734,4.59705018997192,1.49160003662109,0.7732999920845,-0.91025000810623,-1.07085001468658,-1.10261249542236,-0.63222497701645,-1.38297498226166,-3.43791246414185,-6.10362482070923,24.3889503479004,19.6440010070801,10.9789505004883,28.1940021514893,25.7869510650635,13.0690507888794,0.52695000171661,-3.76500010490417,-0.46305000782013,-0.76120001077652,0.07204999774694,0.85263746976852,-1.07085001468658,-1.64133751392365,-0.45265001058578,-6.81229972839355,-7.02487516403198,-4.55578756332397,5.9370002746582,0.27300000190735,-18.8599510192871,6.38100051879883,-0.45000001788139,-11.7450008392334,5.6569504737854,10.5510005950928,8.0910005569458,0.65848749876022,0.68901246786118,0.85030001401901,0.71651250123978,0.56498748064041,0.00797499995679,-0.92977499961853,5.62842512130737,6.36625003814697,-28.7089519500732,-22.1449508666992,-9.35295009613037,-11.0629501342773,-9.77295017242432,-8.9640007019043,6.43005037307739,5.30595016479492,3.90105009078979,0.52043747901917,0.43243750929832,0.74634999036789,0.79103749990463,1.09408748149872,0.4673624932766,5.59542512893677,5.06398725509644,3.58943748474121,4.35795021057129,8.70105075836182,15.6739511489868,2.52300000190735,11.7000007629395,20.0850009918213,-0.50295001268387,-0.89805006980896,-0.29805001616478,0.95039999485016,0.92839998006821,0.38362500071526,-0.39160001277924,-0.64198750257492,-0.78979998826981,1.3034999370575,-1.03729999065399,-3.11409997940063,20.9809513092041,21.3780002593994,18.6289501190186,25.8330020904541,28.6159515380859,26.6320514678955,-2.67105007171631,-4.73400020599365,-6.06495046615601,SHAKE
-0.50091248750687,-0.98106247186661,-0.64020001888275,-1.01213753223419,-1.34571254253387,-1.56323754787445,-4.70359992980957,-5.82876253128052,-6.42248725891113,13.7280006408691,9.13094997406006,4.69695043563843,21.5800514221191,14.9659509658813,8.17995071411133,-5.1340503692627,-0.19695000350475,6.26505041122437,0.4311999976635,1.37926244735718,1.38173747062683,-1.62676250934601,-1.28947496414185,-0.00797499995679,-6.4261999130249,-5.87647485733032,-4.37249994277954,-0.69300001859665,-7.42200040817261,-15.6409511566162,1.48500001430511,-4.93695020675659,-10.0260000228882,11.776050567627,12.8959503173828,8.69400024414063,0.78801250457764,0.22591249644756,0.10133749991655,1.51552498340607,1.86119997501373,1.2418999671936,-1.52102494239807,1.70788753032684,4.19649982452393,-24.715051651001,-27.5269508361816,-22.3920001983643,-10.5430507659912,-9.98805046081543,-10.1149501800537,4.54200029373169,3.16395020484924,3.61095023155212,0.55343747138977,0.62301248311996,-0.14176249504089,0.43188750743866,0.32312500476837,0.79832500219345,5.35589981079102,5.88499975204468,6.11586236953735,-12.6619510650635,-5.88105010986328,-0.97305005788803,-9.59295082092285,-7.36605024337768,-3.550950050354,4.65495014190674,2.27895021438599,-1.60695004463196,-0.37386250495911,3.16291236877441,4.32973766326904,1.01213753223419,-0.32931250333786,-1.21371245384216,5.94110012054443,3.90829992294312,2.11227488517761,4.8120002746582,16.5730514526367,18.9709510803223,2.76300024986267,19.5990009307861,23.6719512939453,-0.00600000005215,4.72200012207031,-3.42795014381409,3.55272507667542,-0.64515000581741,-2.22117495536804,-1.73057496547699,-2.37558746337891,-1.93696248531342,0.31638750433922,-3.24609994888306,-4.7158374786377,17.1570014953613,13.8460502624512,11.2759504318237,25.443000793457,21.8410511016846,16.2709503173828,-14.7270002365112,-16.6680011749268,-10.6660509109497,-2.55832505226135,-1.75683748722076,-0.26028749346733,-1.85033750534058,-2.05796241760254,-0.37207499146461,-5.60766267776489,-5.7164249420166,-3.59067487716675,6.42300033569336,-0.32400000095367,-14.1150007247925,10.2480001449585,4.93095016479492,-4.92000007629395,-0.8359500169754,8.48295021057129,11.1780004501343,0.08057499676943,0.34443750977516,0.6572499871254,0.7067499756813,1.17713749408722,1.1258499622345,-1.34516251087189,1.39521253108978,3.689537525177,-20.0200500488281,-22.8850517272949,-19.2450008392334,-7.014000415802,-7.14495038986206,-6.77205038070679,10.032000541687,8.12400054931641,6.21705007553101,0.87958747148514,0.61201250553131,0.18438750505447,0.91327500343323,1.08790004253387,1.38723754882813,4.73288726806641,4.84893751144409,4.67059993743896,-10.5199508666992,-2.92995023727417,1.85700011253357,-5.81700038909912,-3.04905009269714,2.1739501953125,3.70695018768311,-0.59700000286102,-3.50895023345947,0.43614998459816,1.28521251678467,1.69812500476837,1.19666254520416,0.50888746976852,-0.260837495327,4.39449977874756,3.55520009994507,2.31151247024536,5.31495046615601,10.5390005111694,13.7520008087158,9.34305000305176,15.9259510040283,22.0020008087158,-2.85300016403198,-2.43900012969971,-5.7180004119873,SHAKE
-0.64515000581741,-2.22117495536804,-2.55832505226135,-2.37558746337891,-1.93696248531342,-1.85033750534058,-3.24609994888306,-4.7158374786377,-5.60766267776489,13.8460502624512,11.2759504318237,6.42300033569336,21.8410511016846,16.2709503173828,10.2480001449585,-16.6680011749268,-10.6660509109497,-0.8359500169754,-1.75683748722076,-0.26028749346733,0.08057499676943,-2.05796241760254,-0.37207499146461,0.7067499756813,-5.7164249420166,-3.59067487716675,-1.34516251087189,-0.32400000095367,-14.1150007247925,-20.0200500488281,4.93095016479492,-4.92000007629395,-7.014000415802,8.48295021057129,11.1780004501343,10.032000541687,0.34443750977516,0.6572499871254,0.87958747148514,1.17713749408722,1.1258499622345,0.91327500343323,1.39521253108978,3.689537525177,4.73288726806641,-22.8850517272949,-19.2450008392334,-10.5199508666992,-7.14495038986206,-6.77205038070679,-5.81700038909912,8.12400054931641,6.21705007553101,3.70695018768311,0.61201250553131,0.18438750505447,0.43614998459816,1.08790004253387,1.38723754882813,1.19666254520416,4.84893751144409,4.67059993743896,4.39449977874756,-2.92995023727417,1.85700011253357,5.31495046615601,-3.04905009269714,2.1739501953125,9.34305000305176,-0.59700000286102,-3.50895023345947,-2.85300016403198,1.28521251678467,1.69812500476837,0.87106251716614,0.50888746976852,-0.260837495327,-0.83751249313354,3.55520009994507,2.31151247024536,0.52896249294281,10.5390005111694,13.7520008087158,16.3129501342773,15.9259510040283,22.0020008087158,26.1460514068604,-2.43900012969971,-5.7180004119873,-11.5489501953125,-0.81496250629425,-2.26517510414124,-2.52408742904663,-0.92661249637604,-0.51370000839233,-0.50888746976852,-1.70307493209839,-3.68101239204407,-4.96993732452393,17.6719512939453,15.0010509490967,9.49995040893555,26.0500507354736,21.9990005493164,16.0240516662598,-14.3749504089355,-11.3410501480103,-2.48505020141602,-1.70073747634888,-0.34457498788834,0.36519998311996,-0.61874997615814,-0.65051251649857,-0.29631251096725,-5.31327486038208,-5.01146268844604,-4.48126268386841,3.01005005836487,-2.41605019569397,-7.52895021438599,10.1400003433228,4.21500015258789,-2.5729501247406,5.25105047225952,9.73995018005371,8.45505046844482,0.42996248602867,0.69629997014999,1.19597494602203,0.89732497930527,1.65852499008179,1.1368499994278,-2.95652508735657,-0.28586250543594,2.69513750076294,-15.4000511169434,-22.3800010681152,-23.7960014343262,-7.36305046081543,-8.66295051574707,-8.01195049285889,5.23905038833618,4.36005020141602,3.03195023536682,1.3585000038147,0.25162500143051,-1.00429999828339,-0.51012498140335,-0.21436250209808,0.24983750283718,5.39384984970093,5.167799949646,4.2612624168396,-7.72995042800903,-0.36300000548363,7.97595024108887,-6.35595035552979,-3.10905003547669,10.0630502700806,-3.72900009155273,-8.53905010223389,-3.90405011177063,0.13557499647141,1.58455002307892,0.76601248979568,-0.54065001010895,-1.79162502288818,-1.45928752422333,3.47324991226196,0.36286249756813,-1.66526246070862,12.0270004272461,17.9640007019043,17.545051574707,18.2400016784668,27.6030006408691,26.6440505981445,1.37400007247925,-3.11205005645752,-8.2300500869751,SHAKE
-0.15647499263287,-0.25423750281334,-0.21023750305176,-0.57722496986389,-0.35241249203682,-0.37317499518394,6.12191247940063,5.81776237487793,4.98575019836426,-3.39900016784668,3.58995008468628,9.925950050354,-3.98895025253296,2.24595022201538,12.0780010223389,-3.1690502166748,-2.85795021057129,-1.02495002746582,0.00481249997392,0.24543750286102,0.256437510252,-0.53446251153946,-0.25712499022484,0.27912500500679,3.4964873790741,1.12516248226166,-1.28521251678467,16.3840503692627,21.9190502166748,21.1249504089355,21.8080501556396,27.1489505767822,28.3279514312744,0.59595000743866,0.14205001294613,-2.31495022773743,0.03781250119209,-0.48138749599457,-0.88824999332428,0.55769997835159,-0.33164998888969,-0.48069998621941,-2.97123742103577,-4.63278770446777,-4.91988754272461,15.3889503479004,5.39100027084351,1.57905006408691,24.9450016021729,12.820050239563,6.6060004234314,-4.75605010986328,-4.21005010604858,-2.66700005531311,-1.61755001544952,-1.15458750724792,0.89182502031326,1.61204993724823,2.39153742790222,0.32065001130104,-4.3102126121521,-2.70242500305176,2.88928747177124,-7.08705043792725,-14.1960010528564,-22.1809501647949,-4.18800020217896,-5.99700021743774,-4.76700019836426,-0.71595001220703,1.34295010566711,1.82895004749298,1.46107494831085,1.39026248455048,0.97116249799728,-0.57241249084473,-1.40676248073578,-1.65852499008179,5.13479995727539,5.89957475662231,4.87341260910034,-16.4209499359131,0.3570000231266,8.44005012512207,-5.28105020523071,2.00400018692017,11.3290500640869,-1.06095004081726,-5.53095006942749,-6.93105030059814,-0.75625002384186,-1.47344994544983,-1.12282502651215,-0.38307499885559,0.79351252317429,0.81427496671677,-0.0867625027895,-2.88323760032654,-5.76523733139038,24.8430004119873,23.0610008239746,8.83005046844482,28.5840015411377,28.7329521179199,15.6409511566162,-7.66995048522949,-5.79705047607422,-1.38900005817413,-0.7099124789238,-1.28645002841949,-1.24258744716644,-0.05321250110865,0.0409750007093,1.4580500125885,-6.02181243896484,-5.25951242446899,-3.37562489509583,3.61605024337769,-6.86205053329468,-15.2059507369995,8.56095027923584,-5.48700046539307,-8.68905067443848,-0.41700002551079,-0.64200001955032,1.24200010299683,-0.32381248474121,0.90639996528625,1.68107497692108,1.75381243228912,0.9950875043869,0.16926249861717,-0.7097749710083,2.15146255493164,4.56183767318726,-21.3940505981445,-22.9279518127441,-19.1419506072998,-8.71305084228516,-8.21295070648193,-7.13805055618286,4.46595001220703,4.52295017242432,1.32405006885529,1.80069994926453,1.32302498817444,0.5545374751091,-0.43064999580383,-0.7567999958992,-0.59193748235703,5.72371244430542,5.75918769836426,5.2778000831604,-10.6450500488281,-2.4060001373291,3.92895007133484,-5.33595037460327,-0.7540500164032,6.68505048751831,-2.28405022621155,-5.45895004272461,-7.0339503288269,-0.1357125043869,-0.48014998435974,-0.42033749818802,-0.40259999036789,0.16060000658035,0.79227501153946,4.43231248855591,2.25898742675781,-0.44714999198914,9.30900001525879,18.3270015716553,21.0790500640869,17.074951171875,23.6500511169434,27.1390514373779,-5.77500009536743,-4.19099998474121,-2.76495003700256,SHAKE
0.4129124879837,0.71348750591278,0.42267498373985,0.40136250853539,-0.39888748526573,-1.17961251735687,-3.68348741531372,-4.38350009918213,-4.79517507553101,10.1220006942749,6.02805042266846,3.11295008659363,21.7690505981445,15.9930009841919,10.1089506149292,-2.53305006027222,-3.22395014762878,-4.27905035018921,-0.57543748617172,-1.89859998226166,-2.66832494735718,-1.30542504787445,-0.41359999775887,1.27489995956421,-5.06151247024536,-5.03222513198853,-4.18563747406006,0.43095001578331,-3.21000003814697,-9.86205005645752,3.79395008087158,-2.69895005226135,-7.50705051422119,-5.04300022125244,-4.32495021820068,-1.6189501285553,-2.3347499370575,-0.92124998569489,0.57172501087189,2.34135007858276,2.10072493553162,0.93761247396469,-2.29927492141724,0.64020001888275,3.82029986381531,-17.2279510498047,-23.181001663208,-23.5039520263672,-9.32295036315918,-8.41095066070557,-6.88500022888184,2.70195007324219,6.22200012207031,5.72700023651123,1.21068751811981,0.93334996700287,0.01828750036657,-0.06421250104904,-0.57241249084473,-0.22907499969006,5.91305017471313,6.56301259994507,6.49453735351563,-15.6889505386353,-6.35895013809204,0.44295001029968,-6.74595022201538,-5.13795042037964,-0.10605000704527,1.66095006465912,-2.52300000190735,-5.89695024490356,-0.60720002651215,-0.28352499008179,0.37867498397827,0.40988749265671,0.78251248598099,0.72380000352859,6.04986238479614,4.2759747505188,1.56254994869232,6.12405014038086,16.1669998168945,22.6300506591797,9.07695007324219,18.2419509887695,25.7899513244629,-4.77705001831055,-0.99405002593994,0.18495000898838,0.85030001401901,1.02011251449585,-0.00976249948144,0.51122498512268,0.29012501239777,-0.50765001773834,-0.93334996700287,-2.76594996452332,-4.84041261672974,21.2970008850098,15.9919509887695,6.39405012130737,29.3050518035889,26.8690509796143,14.6580009460449,-1.33395004272461,-3.85095024108887,-7.74000024795532,-0.80148750543594,-1.79836249351501,-2.76237487792969,-0.89127498865128,-0.87174999713898,-0.22783750295639,-5.22651243209839,-5.43413734436035,-5.25579977035522,2.91195011138916,-0.12600000202656,-4.9549503326416,8.59200000762939,1.95105004310608,-4.78605031967163,-6.57405042648315,-5.13105010986328,-2.39895009994507,-2.88323760032654,-1.76426243782043,0.02928750030696,0.94985002279282,1.77209997177124,1.3029500246048,-4.03658771514893,-1.44044995307922,2.02675008773804,-12.7290010452271,-21.2220001220703,-25.4520015716553,-9.16695022583008,-10.0459508895874,-8.54805088043213,2.14500021934509,6.70995044708252,8.52600002288818,1.31326246261597,1.61012494564056,1.34626245498657,0.31459999084473,-0.36465001106262,-0.64074999094009,5.05051231384277,6.53977489471436,6.61429977416992,-21.6670513153076,-11.5140008926392,-1.1620500087738,-7.52805042266846,-6.81795024871826,-3.1519501209259,5.43495035171509,0.57195001840591,-2.9389500617981,0.82953751087189,-0.16747500002384,-0.06476250290871,-0.46488749980927,1.03180003166199,1.22718751430511,6.01438760757446,2.62789988517761,0.22605000436306,6.22605037689209,19.6440010070801,21.1390514373779,5.43105030059814,23.9020519256592,27.9979515075684,-4.41795015335083,-5.16000032424927,-3.58305025100708,SHAKE
0.82953751087189,-0.16747500002384,-0.06476250290871,-0.46488749980927,1.03180003166199,1.22718751430511,6.01438760757446,2.62789988517761,0.22605000436306,6.22605037689209,19.6440010070801,21.1390514373779,5.43105030059814,23.9020519256592,27.9979515075684,-4.41795015335083,-5.16000032424927,-3.58305025100708,1.1336874961853,1.17768752574921,-0.33481249213219,-0.7042750120163,-1.47276246547699,-2.25472497940063,-3.21681237220764,-4.10616254806519,-5.19722509384155,12.5800504684448,8.23905086517334,2.74695014953613,23.4040508270264,17.7040500640869,5.67495012283325,-2.74095010757446,-4.50705003738403,-5.02605009078979,-1.88265001773834,-3.22409987449646,-1.39521253108978,-1.77333748340607,1.53999996185303,2.15943741798401,-5.42808723449707,-3.37438750267029,-0.14904999732971,-1.26900005340576,-16.0699501037598,-24.8490009307861,-1.17495000362396,-11.6659507751465,-10.9069509506226,-3.82995009422302,4.37205028533936,10.2109508514404,1.80069994926453,1.50631248950958,0.57777500152588,0.19607499241829,-0.25959998369217,-0.12155000120401,6.43348741531372,7.34373760223389,6.86358737945557,-19.1400012969971,-6.76800012588501,4.19505023956299,-8.51895046234131,-7.62405014038086,-2.30505013465881,3.57105016708374,-2.41305017471313,-6.35400009155273,-0.49733749032021,-1.32687497138977,-1.70183753967285,0.56017500162125,1.22471249103546,1.50947499275208,5.81528759002686,4.29549980163574,1.87041246891022,11.6340007781982,17.8579502105713,23.7570018768311,7.5319504737854,18.8569507598877,26.5939521789551,-7.52205038070679,-6.22500038146973,-4.57605028152466,-1.57245004177094,-0.9590625166893,-0.2065249979496,1.34694993495941,0.54546248912811,-0.65298748016357,-0.66948747634888,-2.57166242599487,-3.79582500457764,23.1559505462646,17.2909507751465,11.3569507598877,29.5920009613037,27.5719509124756,22.2270011901855,-2.96595025062561,-1.32900011539459,-0.26399999856949,0.27114999294281,0.18562500178814,-0.5986750125885,-1.73786246776581,-2.3645875453949,-2.20096254348755,-4.48978757858276,-4.92841243743896,-5.24727487564087,6.60900020599365,3.1279501914978,0.0409500002861,15.9090003967285,9.58005046844482,2.77905011177063,0.00495000043884,0.14205001294613,0.14595000445843,-1.83631253242493,-2.40074992179871,-1.4221625328064,-1.08432495594025,0.72503751516342,2.00915002822876,-5.26679992675781,-4.27473735809326,-1.7910749912262,-4.54095029830933,-12.0040502548218,-21.2140502929688,-4.45800018310547,-9.31605052947998,-10.1680507659912,0.71595001220703,3.80505013465881,8.47605037689209,0.43972501158714,1.72617495059967,2.00722503662109,1.5020500421524,0.12526249885559,-0.88274997472763,1.7824125289917,4.9002251625061,6.4835376739502,-26.4240016937256,-22.5499515533447,-0.67095005512238,-7.84200048446655,-6.69300031661987,-1.11495006084442,10.5580501556396,6.7819504737854,-2.20995020866394,1.37073743343353,0.26510000228882,-1.15211248397827,-0.17531250417233,0.61269998550415,0.3255999982357,5.37432479858398,3.45991253852844,-0.72696250677109,9.4549503326416,16.9110012054443,18.7080001831055,7.33995056152344,17.2330513000488,28.1029510498047,-6.01695013046265,-8.86905002593994,-6.04500007629395,SHAKE
-0.95782500505447,-1.13382494449615,-1.44044995307922,-1.43494999408722,-1.68657493591309,-1.7048624753952,-4.25040006637573,-4.91988754272461,-5.49889993667603,9.56205081939697,5.9320502281189,3.1230001449585,17.8000507354736,12.1260004043579,5.77005004882813,-3.77700018882751,-1.67100012302399,0.4120500087738,-1.86683750152588,-2.13069987297058,-1.58578753471375,-1.27971243858337,-0.08497499674559,1.34942495822906,-5.8825249671936,-5.54413747787476,-3.88135004043579,-0.78900003433228,-7.43595027923584,-16.1459999084473,-1.0200001001358,-7.19295024871826,-10.0260000228882,2.73300004005432,4.62600040435791,7.46895027160645,-0.13928750157356,1.380499958992,2.09646248817444,1.80633747577667,0.93637502193451,-0.0042624999769,-0.66701251268387,3.10186243057251,5.89352512359619,-24.9139518737793,-27.4549522399902,-21.070951461792,-8.83500003814697,-6.96405029296875,-6.80295038223267,9.57195091247559,8.47395038604736,3.66600012779236,1.93393743038177,1.20449995994568,0.63524997234344,-0.61269998550415,-0.55522501468658,-0.14849999547005,7.13226222991943,7.23373746871948,6.18667507171631,-11.1709508895874,-2.37495017051697,7.8919506072998,-6.15195035934448,-3.05100011825562,3.10695004463196,-0.8479500412941,-4.64805030822754,-4.86105012893677,0.39572501182556,-0.08799999952316,-0.42405000329018,0.29136249423027,0.54670000076294,0.55288749933243,4.04868745803833,2.40432500839233,0.91629999876022,16.8199501037598,16.090051651001,16.2460498809814,12.5070009231567,22.4950504302979,27.4500007629395,-4.1100001335144,-5.28705024719238,-4.91805028915405,-0.24805000424385,-0.08318749815226,-0.21628749370575,0.16060000658035,-0.57722496986389,-1.01832497119904,-1.03606247901917,-2.80871248245239,-3.99863743782043,17.7270011901855,14.7739505767822,10.077000617981,27.6390018463135,24.8280010223389,19.4479503631592,-2.56095004081726,-1.89105010032654,-2.40105009078979,-0.53143751621246,-0.91629999876022,-1.42945003509521,-1.13437497615814,-1.15142500400543,-1.05613744258881,-4.6730751991272,-5.18622493743896,-5.5966625213623,5.97000026702881,3.29805016517639,0.0,13.6260004043579,7.50105047225952,1.34400010108948,-2.03295016288757,-0.73305004835129,1.0150500535965,-2.00983738899231,-1.08487498760223,1.36221253871918,0.63593751192093,1.85143744945526,0.49541249871254,-4.76588726043701,-2.05493760108948,5.24232482910156,-11.5690507888794,-21.6240005493164,-24.2170505523682,-9.57900047302246,-9.46905040740967,-6.9660005569458,4.67895030975342,7.04295015335083,5.57805013656616,1.74570000171661,1.8544625043869,1.2997875213623,-0.59798747301102,-1.08542501926422,-0.10807500034571,6.90263748168945,7.25821256637573,4.39449977874756,-13.9399509429932,-4.42095041275024,15.1399507522583,-7.17705011367798,-4.6279501914978,10.44105052948,1.96695005893707,-0.79995006322861,-5.26095008850098,0.08552499860525,-1.455162525177,-1.29263746738434,0.52717500925064,0.54670000076294,-0.06902500241995,2.58513736724854,-1.04087495803833,-2.72442507743835,16.5810012817383,17.0419502258301,14.2240505218506,20.6569519042969,27.2299518585205,24.5880012512207,-8.37405014038086,-4.73205041885376,-2.20500016212463,SHAKE
0.08552499860525,-1.455162525177,-1.29263746738434,0.52717500925064,0.54670000076294,-0.06902500241995,2.58513736724854,-1.04087495803833,-2.72442507743835,16.5810012817383,17.0419502258301,14.2240505218506,20.6569519042969,27.2299518585205,24.5880012512207,-8.37405014038086,-4.73205041885376,-2.20500016212463,-0.96277499198914,-0.95424997806549,-1.30611252784729,-1.00237500667572,-1.23942494392395,-1.2529000043869,-4.57173728942871,-5.02246236801147,-5.44280004501343,6.16200017929077,3.42000007629395,0.37305000424385,14.0710506439209,8.49405002593994,2.06895017623901,-0.09705000370741,1.16805005073547,1.96695005893707,-2.13922500610352,-1.22663748264313,0.17586250603199,0.6151750087738,2.22777509689331,1.98096251487732,-4.37249994277954,-1.12406253814697,3.09828758239746,-12.8389501571655,-24.4780502319336,-29.5300521850586,-9.65595054626465,-8.9209508895874,-6.88200044631958,5.23605012893677,8.42100048065186,9.86400032043457,1.17521250247955,1.76893746852875,2.00846242904663,0.55646252632141,-0.79722499847412,-1.17837500572205,6.19767475128174,7.32778739929199,7.1359748840332,-22.7430019378662,-10.6159505844116,-0.64305001497269,-7.33905029296875,-7.20000028610229,-3.26400017738342,7.19595050811768,3.99195027351379,0.76905006170273,1.94851243495941,1.47949993610382,0.45925000309944,-0.65670001506805,0.14107500016689,0.69946247339249,5.84581232070923,3.855637550354,1.885125041008,9.64605045318604,16.4590511322021,18.3780002593994,4.16700029373169,14.5999507904053,22.9609508514404,-1.63095009326935,-3.96795010566711,-7.12005043029785,-0.37152498960495,-0.72820001840591,-0.87725001573563,0.80327498912811,0.39283749461174,-0.21807499229908,-0.18328750133514,-2.09288740158081,-3.51738739013672,18.8320503234863,16.6810512542725,12.3640508651733,26.7750015258789,25.9549503326416,22.0180511474609,-7.02705049514771,-5.02395009994507,-3.44895005226135,-1.13258755207062,-2.40432500839233,-2.91499996185303,-0.66275000572205,-0.70922499895096,0.39888748526573,-4.5057373046875,-5.71271228790283,-5.31451225280762,8.14800071716309,-0.4200000166893,-8.1540002822876,16.0410003662109,1.557000041008,-5.69295024871826,-2.30505013465881,1.57695007324219,4.71900033950806,-2.11969995498657,1.45378744602203,2.5471875667572,1.98591244220734,1.70128750801086,0.33412501215935,-3.14599990844727,4.03287506103516,6.00462484359741,-19.0180511474609,-25.6009521484375,-15.5359506607056,-8.28900051116943,-6.64305019378662,-6.88695049285889,10.2610502243042,11.7259502410889,7.13895034790039,2.68771243095398,2.02193737030029,1.10797500610352,-0.05307500064373,0.51246249675751,0.32683750987053,5.8067626953125,4.52031230926514,2.67190003395081,3.62505006790161,11.4450006484985,16.4560508728027,0.55605000257492,8.3860502243042,16.606050491333,-4.75605010986328,-8.2369499206543,-10.5850505828857,-1.34763753414154,-2.26022505760193,-2.8466625213623,-0.70798748731613,-0.74222499132156,-0.66275000572205,-0.82472497224808,-2.52656245231628,-3.90953755378723,17.4109516143799,16.1040000915527,13.0009508132935,25.1650505065918,23.2080001831055,18.6280517578125,-11.4649505615234,-8.90295028686523,-5.28000020980835,SHAKE
-0.62919998168945,1.18497502803802,2.41284990310669,1.8356249332428,1.77086246013641,0.55041247606277,0.31886249780655,4.16597509384155,6.50925016403198,-25.4550018310547,-26.2129516601563,-17.320951461792,-6.29805040359497,-5.43000030517578,-5.89200019836426,15.8269510269165,15.4540510177612,12.070050239563,3.84463739395142,3.63082504272461,2.65842509269714,-0.52717500925064,0.30360001325607,0.9620875120163,6.03638744354248,4.14645004272461,2.45313739776611,4.89405012130737,13.6489505767822,15.4009504318237,-0.46395000815392,6.5310001373291,14.907000541687,2.92695021629334,-2.53695011138916,-7.83795022964478,1.20092499256134,-0.0489500015974,-1.05201244354248,1.03056252002716,0.4159374833107,-0.51493752002716,0.95658749341965,-0.72201251983643,-2.34698748588562,15.7189502716064,16.0590000152588,14.5200004577637,20.6710510253906,22.8990001678467,21.9180011749268,-11.9200506210327,-12.41100025177,-11.5060501098633,-1.95607495307922,-3.24128746986389,-3.79348754882813,-1.11608743667603,-1.67062497138977,-1.85391247272491,-3.63591241836548,-5.19598770141602,-5.72247505187988,11.7970504760742,5.14500045776367,1.28505003452301,18.4270515441895,8.64705085754395,2.0830500125885,-10.0030508041382,-2.53305006027222,1.74000012874603,-3.87777495384216,-2.62185001373291,-0.19181250035763,-1.39699995517731,0.15207499265671,1.49352502822876,-5.5503249168396,-3.4684374332428,0.57543748617172,-5.57400035858154,-17.5459499359131,-27.9240016937256,-5.32695007324219,-8.6050500869751,-7.82505035400391,7.48800039291382,14.8290004730225,19.5120010375977,2.09879994392395,3.50748753547669,4.32107496261597,1.16489994525909,-0.18012499809265,-0.90956246852875,4.81965017318726,7.22521257400513,7.50007486343384,-28.9720516204834,-18.295051574707,-4.85400009155273,-6.88695049285889,-7.75995016098022,-6.22395038604736,18.7849502563477,13.6090507507324,7.29195022583008,4.4090747833252,3.82139992713928,2.24180006980896,-0.40741249918938,0.61146247386932,1.14413750171661,6.36143732070923,4.26854991912842,2.20027494430542,6.42705011367798,15.8530511856079,18.3610515594482,-0.65595000982285,7.52700042724609,16.5150012969971,0.38595002889633,-5.78700017929077,-12.8989505767822,0.18081249296665,-1.363450050354,-2.34822487831116,1.02808749675751,0.21931250393391,-0.56141251325607,0.40920001268387,-1.34763753414154,-2.89176249504089,17.6410503387451,16.6810512542725,14.3740510940552,21.9780006408691,23.1430511474609,20.8309516906738,-16.7700004577637,-14.803050994873,-11.3790006637573,-3.01771259307861,-3.35115003585815,-3.72501254081726,-0.94861251115799,-1.34571254253387,-1.77457499504089,-4.0818247795105,-4.87217473983765,-5.76523733139038,11.5600509643555,7.77705049514771,-1.04700005054474,16.1560516357422,11.53005027771,-1.25400006771088,-7.98795032501221,-3.0090000629425,6.66495037078857,-3.09471249580383,-1.30239999294281,2.92352509498596,-0.6542249917984,1.04884994029999,0.67498749494553,-4.57283735275269,-1.47949993610382,5.62842512130737,-11.1810007095337,-22.3200016021729,-22.3890018463135,-6.61695051193237,-8.55000019073486,-7.31805038452148,13.1730003356934,18.5670013427734,16.6979999542236,SHAKE
-2.86494994163513,-0.47533750534058,1.97051250934601,-0.90227496623993,0.67993748188019,1.24066245555878,-4.35173749923706,-1.30239999294281,2.42013740539551,-10.4340009689331,-21.2770519256592,-25.4670009613037,-6.0400505065918,-7.2480001449585,-6.55200052261353,16.1880016326904,21.7830009460449,22.1160011291504,3.1959125995636,3.66753745079041,3.76034998893738,0.99879997968674,0.58822500705719,0.82279998064041,5.4109001159668,6.51172494888306,6.01081228256226,-21.0799503326416,-9.60195064544678,1.62000012397766,-6.35295009613037,-5.32695007324219,-1.55100011825562,15.5760011672974,9.54600048065186,3.50400018692017,3.52824997901917,3.02128744125366,1.94851243495941,1.39094996452332,1.6218124628067,1.00485002994537,4.61560010910034,2.88928747177124,1.29621243476868,10.1839504241943,14.9560508728027,15.8359508514404,4.94295024871826,11.8530006408691,17.4220504760742,-2.07600021362305,-7.22295045852661,-12.3940505981445,0.46667498350143,-0.94201248884201,-2.25527501106262,-0.22412499785423,-1.1061874628067,-1.3359500169754,0.00123749999329,-1.37692499160767,-2.73184990882874,14.3290510177612,14.4199504852295,13.642050743103,21.0589504241943,20.9490013122559,18.3360004425049,-15.7009506225586,-15.5479507446289,-13.372950553894,-4.16116237640381,-4.61931228637695,-2.78066253662109,-1.70981252193451,-2.11296248435974,0.0787874981761,-4.75131225585938,-5.51966238021851,-2.89547491073608,8.01900005340576,4.12095022201538,-17.5129508972168,9.35700035095215,2.59305024147034,-8.7180004119873,-3.22395014762878,2.99895024299622,19.5100517272949,0.45691248774529,5.29237508773804,5.62718725204468,1.44099998474121,-0.32683750987053,0.0922624990344,1.6603125333786,6.82563734054565,5.74928760528564,-29.3020515441895,-11.0920505523682,3.84600019454956,-7.5400505065918,-9.21105003356934,-4.8550500869751,26.5710010528564,16.7239513397217,5.44695043563843,2.37984991073608,0.77934998273849,-1.11306250095367,2.66763758659363,2.53082489967346,-0.6151750087738,3.03710007667542,1.55402493476868,-1.73854994773865,14.2279510498047,16.1909999847412,16.2889499664307,12.7360506057739,18.7069511413574,21.4390506744385,-13.8060007095337,-15.8400011062622,-13.5400505065918,-1.80936253070831,-2.41051244735718,-2.90523743629456,-1.29923748970032,-1.72438752651215,-2.29006242752075,-3.01028752326965,-4.01706266403198,-4.97612476348877,14.0320510864258,11.4100503921509,8.63595008850098,18.6970500946045,14.7799510955811,9.67995071411133,-10.9819507598877,-6.48795032501221,-0.97995007038116,-3.34262490272522,-3.31581258773804,-1.7850250005722,-2.6504499912262,-2.18377494812012,0.0787874981761,-5.63337516784668,-5.17027473449707,-2.4728000164032,3.43395018577576,-5.58600044250488,-18.445951461792,3.01605010032654,-4.46805000305176,-7.86795043945313,4.77705001831055,11.7880506515503,19.4910011291504,0.92963749170303,2.83071255683899,3.57582497596741,1.93586254119873,2.08972501754761,1.44471251964569,1.50755000114441,4.909987449646,6.34672498703003,-26.0959510803223,-23.2909507751465,-11.7430505752563,-6.98805046081543,-7.32705020904541,-7.06395053863525,24.7099514007568,19.9290008544922,11.9670009613037,SHAKE
2.76347494125366,0.87106251716614,0.26867499947548,0.02144999988377,0.9645624756813,0.35612499713898,4.72559976577759,2.26861238479614,0.25891250371933,6.25800037384033,15.5659503936768,18.6720008850098,3.20805025100708,19.8100509643555,23.7439517974854,-3.10200023651123,-7.2199501991272,-6.72705030441284,-0.91877502202988,-1.52102494239807,-2.15517497062683,-0.61641252040863,-0.59798747301102,-0.95356249809265,-3.14599990844727,-4.12568759918213,-4.87588739395142,13.4749507904053,9.52605056762695,5.55900049209595,21.1860008239746,16.2160511016846,10.3459501266479,-7.42905044555664,-5.91105031967163,-2.9320502281189,-2.8686625957489,-3.16676259040833,-2.34451246261597,-1.2199000120163,-0.84727501869202,0.4673624932766,-5.20574998855591,-4.5667872428894,-2.1099374294281,0.08400000631809,-8.23305034637451,-19.5730514526367,3.22005009651184,-3.59700012207031,-7.44495058059692,-0.05400000140071,4.65195035934448,9.95700073242188,-0.37152498960495,1.75917494297028,3.26920008659363,1.44595003128052,0.81427496671677,-0.19978749752045,1.76660001277924,4.53612518310547,5.08227491378784,-27.0840015411377,-20.3890514373779,-7.12995052337646,-7.27005052566528,-6.96795034408569,-4.80495023727417,13.8529510498047,13.957950592041,9.2590503692627,3.2569625377655,2.27727508544922,1.44526255130768,-0.21807499229908,0.58698749542236,0.77027499675751,5.01022481918335,4.75612497329712,2.98333740234375,-0.22605000436306,5.46795034408569,16.1040000915527,1.98705005645752,11.403000831604,19.3360500335693,0.13005000352859,-6.12195014953613,-6.56895017623901,0.93582499027252,0.04028749838471,-1.00801253318787,0.07631249725819,-0.47464999556541,-0.49541249871254,0.14052499830723,-2.01712489128113,-3.37809991836548,22.2880516052246,18.3109512329102,13.1400003433228,24.6529502868652,25.5979518890381,21.7360515594482,-6.12705039978027,-8.75895023345947,-9.41205024719238,-1.78131246566772,-3.15081238746643,-3.28281259536743,-0.51617497205734,-1.05861246585846,-0.59441250562668,-4.40426254272461,-5.67118740081787,-4.74512481689453,9.80895042419434,0.5100000500679,-9.39600086212158,15.6220502853394,0.21705001592636,-7.0620002746582,-6.81405019760132,0.4909500181675,5.8609504699707,-1.87907493114471,0.66577500104904,2.57290005683899,0.52112501859665,0.69451248645782,-0.01773750036955,-1.72026252746582,2.35056257247925,5.40842485427856,-21.4750518798828,-27.189001083374,-21.6310501098633,-9.24900054931641,-8.35905075073242,-8.18595027923584,12.2980508804321,16.5739517211914,12.831000328064,3.33767509460449,3.34248757362366,2.55942487716675,-0.53322499990463,-0.36107498407364,0.34759998321533,6.51406240463257,5.99238729476929,5.05422496795654,-9.71205043792725,2.04105019569397,8.92800045013428,-6.99000024795532,-1.40505003929138,7.85700035095215,6.25605010986328,0.42900002002716,-4.94895029067993,1.40978753566742,0.26633748412132,-0.47162500023842,0.83627498149872,0.81922501325607,0.2938374876976,3.46596240997314,1.26568746566772,-0.80877500772476,15.9490509033203,20.7040500640869,19.9570503234863,16.5169506072998,22.2430515289307,24.8250007629395,-7.97205018997192,-9.42405033111572,-8.26800060272217,SHAKE
-1.74707496166229,-2.10746240615845,-2.14788746833801,-0.57722496986389,-0.62975001335144,-0.53693747520447,-2.34698748588562,-3.79706239700317,-4.91741228103638,17.5260009765625,14.5200004577637,10.7160005569458,24.2250003814697,20.4460506439209,14.9400005340576,-6.88095045089722,-4.300950050354,0.13395000994205,-1.85954999923706,-1.46850001811981,-1.13382494449615,-0.83256250619888,-1.27600002288818,-1.05132496356964,-5.57713747024536,-5.75190019607544,-5.1874623298645,5.33400011062622,-0.78105002641678,-7.66095018386841,8.93895053863525,2.24295020103455,-4.93005037307739,5.2819504737854,9.00705051422119,10.6939506530762,-0.92729997634888,-0.41057500243187,0.38362500071526,0.5321249961853,2.09096240997314,2.13496255874634,-3.2045750617981,0.06352499872446,3.15315008163452,-17.0820007324219,-24.6769504547119,-23.6809520721436,-10.1080503463745,-10.5670509338379,-9.64605045318604,9.8569507598877,9.98400020599365,9.17505073547363,1.14839994907379,1.76536250114441,1.98274993896484,1.17589998245239,0.12402500212193,-0.23154999315739,4.85869979858398,5.07622480392456,4.9282751083374,-14.5309505462646,-3.70800018310547,2.12700009346008,-8.24595069885254,-4.45095014572144,3.77505016326904,6.29400014877319,2.66595005989075,-1.44600009918213,1.79217493534088,1.25950002670288,0.60472500324249,0.0787874981761,-0.23031249642372,-0.9645624756813,4.68393754959106,3.44024991989136,0.87835001945496,6.37500047683716,13.6350002288818,21.1699504852295,12.9400510787964,20.7480010986328,25.5139503479004,-5.40705013275146,-7.60995054244995,-8.61300086975098,-0.46681249141693,-1.62978744506836,-2.13069987297058,-1.25042498111725,-0.94379997253418,-0.9120374917984,-1.54426252841949,-3.1605749130249,-4.35050010681152,20.053050994873,14.7910509109497,10.9240503311157,27.3430519104004,24.363000869751,18.3310508728027,-10.1520004272461,-9.5149507522583,-4.15995025634766,-2.02812504768372,-1.93407499790192,-1.98660004138947,-1.4557124376297,-2.04572510719299,-1.95772504806519,-5.17646265029907,-5.69442510604858,-5.48432493209839,7.15305042266846,2.85195016860962,-3.85095024108887,11.836950302124,4.66500043869019,-3.00600004196167,1.62495005130768,5.27700042724609,7.84200048446655,-1.66649997234344,-0.77948749065399,0.61572498083115,-0.76298749446869,0.75322496891022,1.39218747615814,-4.00358724594116,-1.17534995079041,2.42137503623962,-12.7669506072998,-21.8490009307861,-26.6610012054443,-8.46900081634521,-11.0989503860474,-10.2919502258301,10.4959506988525,12.3480005264282,13.2619504928589,1.69812500476837,2.25403738021851,2.19779992103577,1.21013748645782,0.4281750023365,0.09955000132322,5.49518728256226,6.69129991531372,6.38824987411499,-22.5589504241943,-10.0060501098633,1.01205003261566,-9.43305015563965,-8.14305019378662,-3.21405005455017,9.71805000305176,5.7529501914978,0.58395004272461,1.5613124370575,0.73535001277924,0.06104999780655,0.4991250038147,1.08185005187988,1.10866248607636,5.5770001411438,4.32354974746704,2.36761260032654,7.80600023269653,13.1470508575439,18.0570011138916,5.77800035476685,16.125,23.67405128479,-3.64305019378662,-5.65500020980835,-6.10500049591064,SHAKE
-0.54614996910095,-0.8650124669075,-1.1643500328064,-0.43546250462532,-0.7763249874115,-0.95232498645782,-2.00970005989075,-3.6064875125885,-4.68902492523193,17.9040012359619,14.1139507293701,9.91395092010498,27.7159519195557,23.2669506072998,16.9600505828857,-4.78200006484985,-4.23900032043457,-2.25705003738403,-1.50150001049042,-1.89488744735718,-2.21869993209839,-1.20395004749298,-1.35794997215271,-1.14894998073578,-5.39027500152588,-5.77747488021851,-5.60037517547607,5.73105049133301,1.40505003929138,-4.27995014190674,10.3620004653931,3.03495025634766,-5.08500003814697,0.35505002737045,3.19500017166138,6.65805053710938,-2.01712489128113,-0.7429124712944,0.96992498636246,0.23512500524521,2.03472495079041,2.16548752784729,-4.04139995574951,-0.48867499828339,3.75306248664856,-13.91100025177,-25.3950004577637,-28.9630508422852,-11.5699501037598,-11.6629505157471,-9.87795066833496,9.43305015563965,12.2590503692627,12.8029508590698,2.09879994392395,2.71218752861023,2.56547498703003,1.07690000534058,-0.13502499461174,-0.36959999799728,6.67535018920898,7.27031230926514,6.46153736114502,-20.0440502166748,-5.51205015182495,5.35305023193359,-9.85395050048828,-8.25300025939941,-1.67295002937317,8.42100048065186,3.87705016136169,-1.71900010108948,1.644362449646,0.4129124879837,-0.52538752555847,0.16802500188351,0.94379997253418,1.16008746623993,5.25937509536743,3.63206243515015,1.36826252937317,11.6539506912231,16.7740516662598,21.1530017852783,9.0799503326416,19.4940013885498,25.8880519866943,-5.74395036697388,-8.09400081634521,-7.44495058059692,-0.89801251888275,-0.91753751039505,-0.85153746604919,0.60293751955032,-0.25588750839233,-0.84108752012253,-1.00182497501373,-2.86494994163513,-4.12582492828369,21.1530017852783,17.0500507354736,12.4030504226685,28.2180004119873,26.0500507354736,20.5849514007568,-4.95705032348633,-2.85105013847351,-1.32405006885529,-0.80877500772476,-0.90296250581741,-1.37568747997284,-1.21137499809265,-1.56681251525879,-1.70981252193451,-4.91988754272461,-5.34985017776489,-5.44280004501343,8.24100017547607,3.89295029640198,-0.64995002746582,14.2369508743286,7.88100051879883,1.10205006599426,0.34305000305176,2.18505001068115,3.61605024337769,-2.05865001678467,-1.97064995765686,-0.39710000157356,-1.17589998245239,0.43683749437332,1.98714995384216,-5.05669975280762,-3.28404998779297,0.47148749232292,-6.25395011901855,-15.646050453186,-26.7540016174316,-6.68400049209595,-12.5749502182007,-11.6200504302979,5.20005035400391,8.83500003814697,13.3530006408691,1.51731252670288,2.9467625617981,3.87763738632202,1.57052505016327,0.11302500218153,-0.85579997301102,4.56788730621338,6.55448722839355,5.76647520065308,-28.2930011749268,-14.6509504318237,3.331050157547,-9.83505058288574,-9.61305046081543,-5.24805021286011,13.2379503250122,8.87100028991699,3.56100010871887,3.24114990234375,1.34255003929138,-0.48867499828339,-0.56622499227524,0.4991250038147,1.09889996051788,4.45555019378662,3.61872506141663,1.83136248588562,10.2730503082275,11.2090501785278,16.9200000762939,7.28295040130615,20.355001449585,26.4210014343262,-5.08095026016235,-11.776050567627,-12.5850009918213,SHAKE
-0.40933749079704,-1.13258755207062,-2.31646251678467,-1.39328753948212,-1.77691245079041,-1.3309999704361,-4.47026252746582,-5.02493762969971,-5.03964996337891,6.20700025558472,2.75205016136169,-2.82000017166138,13.0780506134033,5.97900009155273,-2.25,0.44805002212524,0.30405002832413,1.75695013999939,-1.57478749752045,0.51301246881485,2.35290002822876,2.19972491264343,1.88333749771118,0.07273750007153,-0.45210000872612,3.33272504806519,5.8825249671936,-23.1289520263672,-26.4090003967285,-18.4390506744385,-8.20995044708252,-6.21705007553101,-5.32905006408691,12.0030002593994,14.6590509414673,11.9080505371094,3.7676374912262,4.36273765563965,3.7676374912262,-1.29442501068115,-1.34323751926422,-0.75446248054504,6.36748743057251,5.41213750839233,3.54653739929199,-5.54805040359497,5.31495046615601,13.1179504394531,-2.9719500541687,3.34395027160645,12.5449504852295,7.63395023345947,1.58505010604858,-4.92105007171631,1.9901750087738,-0.1710499972105,-1.94865000247955,0.01773750036955,0.56993746757507,0.54312497377396,1.2167375087738,-0.97982501983643,-2.79290008544922,17.3749504089355,16.8370513916016,13.5340509414673,19.5150012969971,22.9180507659912,21.6520519256592,-11.9490003585815,-14.9970006942749,-13.4370002746582,-3.42691254615784,-5.20327520370483,-5.43303728103638,0.15578749775887,-0.08607500046492,1.54247498512268,-4.36892509460449,-5.81666231155396,-2.48132491111755,9.74895000457764,4.81695032119751,-25.6129512786865,16.0930500030518,5.40900039672852,-11.3110504150391,-9.95505046844482,-6.51900053024292,14.9680509567261,-1.35492503643036,5.34242486953735,5.61618757247925,2.06896257400513,-0.35365000367165,-0.65670001506805,2.88199996948242,6.57525014877319,4.91741228103638,-35.8660507202148,-2.55405020713806,10.9090509414673,-9.8730001449585,-5.53695011138916,5.77500009536743,26.7700519561768,14.4180002212524,0.72795003652573,0.86129999160767,-1.27558743953705,-2.38603758811951,0.90584999322891,1.05008745193481,0.6982250213623,0.57172501087189,-1.92417502403259,-3.45262503623962,21.235050201416,20.2390518188477,13.5150003433228,23.5570507049561,24.8200511932373,21.3150005340576,-18.7230014801025,-16.6120510101318,-10.6969509124756,-2.66337490081787,-1.51373744010925,-0.12223749607801,-0.17531250417233,-1.07690000534058,0.10202500224113,-4.33097505569458,-3.71401238441467,-1.56254994869232,7.67895030975342,-7.77795028686523,-16.7400016784668,14.4109506607056,-1.97205007076263,-7.34895038604736,-2.84595012664795,11.6520004272461,15.8890504837036,1.84841251373291,3.31443738937378,3.99011254310608,1.30542504787445,1.31889998912811,0.45759999752045,1.59307503700256,4.17697477340698,4.80865001678467,-22.1860504150391,-18.8860511779785,-7.10100030899048,-7.50405025482178,-5.84805011749268,-2.57505011558533,17.8200016021729,13.3909502029419,6.48000049591064,3.58929991722107,0.43243750929832,-0.87725001573563,0.22055000066757,0.90832501649857,0.58574998378754,4.29921245574951,1.70912504196167,0.05252499878407,2.03205013275146,13.2400503158569,14.403000831604,4.51695013046265,18.5269508361816,21.6520519256592,-2.87205004692078,-14.6410503387451,-12.8959503173828,SHAKE
-2.66337490081787,-1.51373744010925,-0.12223749607801,-0.17531250417233,-1.07690000534058,0.10202500224113,-4.33097505569458,-3.71401238441467,-1.56254994869232,7.67895030975342,-7.77795028686523,-16.7400016784668,14.4109506607056,-1.97205007076263,-7.34895038604736,-2.84595012664795,11.6520004272461,15.8890504837036,1.84841251373291,3.31443738937378,3.99011254310608,1.30542504787445,1.31889998912811,0.45759999752045,1.59307503700256,4.17697477340698,4.80865001678467,-22.1860504150391,-18.8860511779785,-7.10100030899048,-7.50405025482178,-5.84805011749268,-2.57505011558533,17.8200016021729,13.3909502029419,6.48000049591064,3.58929991722107,0.43243750929832,-0.87725001573563,0.22055000066757,0.90832501649857,0.58574998378754,4.29921245574951,1.70912504196167,0.05252499878407,2.03205013275146,13.2400503158569,14.403000831604,4.51695013046265,18.5269508361816,21.6520519256592,-2.87205004692078,-14.6410503387451,-12.8959503173828,-1.54068744182587,-1.85707497596741,-2.04517507553101,-0.14107500016689,-0.61022502183914,-0.84232497215271,-1.41721248626709,-2.47637510299683,-3.23881244659424,12.9769506454468,10.0980005264282,7.34205055236816,21.5800514221191,18.7519512176514,14.5170011520386,-9.13005065917969,-5.9089503288269,-2.50395011901855,-2.47032499313354,-3.02500009536743,-2.47651243209839,-1.22237503528595,-0.89856249094009,0.23883749544621,-4.11358737945557,-4.21740007400513,-2.6389000415802,4.80300045013428,-3.27000021934509,-14.6820011138916,7.4239501953125,-1.22505009174347,-6.79605054855347,1.26195001602173,5.58105039596558,12.4360504150391,-0.72696250677109,1.22045004367828,2.45808744430542,1.05861246585846,0.69093751907349,0.09597499668598,0.29067498445511,3.1825749874115,4.74265003204346,-22.7359504699707,-22.582950592041,-13.9500007629395,-8.57205009460449,-7.30605030059814,-4.69005012512207,17.0950508117676,16.10205078125,10.1820001602173,2.64371252059937,1.59912502765656,0.17710000276566,-0.10683749616146,0.254787504673,0.93527501821518,4.76712512969971,4.1574501991272,3.3547248840332,-3.01395010948181,3.77100014686584,8.18400001525879,-0.10605000704527,6.99300050735474,14.076000213623,2.76705002784729,-4.99500036239624,-8.36205005645752,-0.95658749341965,-0.9285374879837,-0.87477499246597,0.78856247663498,0.17778749763966,-0.45388749241829,0.54243749380112,-0.90172499418259,-2.5558500289917,14.367000579834,13.3360509872437,8.34195041656494,21.1069507598877,21.4080009460449,16.6699504852295,-4.42095041275024,-2.84400010108948,-0.60405004024506,-0.9675874710083,-1.5052125453949,-1.60654997825623,-0.66893750429153,-0.52346247434616,-0.12649999558926,-3.2045750617981,-3.55272507667542,-2.89794993400574,6.09705018997192,-2.62605023384094,-7.48095035552979,12.4900503158569,3.43500018119812,-0.23505000770092,0.98205006122589,3.97305011749268,5.98305034637451,-1.44773745536804,0.63277500867844,1.82022500038147,0.15207499265671,0.66275000572205,0.38664999604225,-1.92183744907379,2.41532492637634,4.13668727874756,-11.1949501037598,-17.4859504699707,-12.6529502868652,-4.66605043411255,-3.35700011253357,-1.44300007820129,8.29905033111572,12.1159505844116,10.2799501419067,SHAKE
1.59912502765656,0.17710000276566,-0.95658749341965,0.254787504673,0.93527501821518,0.78856247663498,4.1574501991272,3.3547248840332,0.54243749380112,3.77100014686584,8.18400001525879,14.367000579834,6.99300050735474,14.076000213623,21.1069507598877,-4.99500036239624,-8.36205005645752,-4.42095041275024,-0.9285374879837,-0.87477499246597,-0.9675874710083,0.17778749763966,-0.45388749241829,-0.66893750429153,-0.90172499418259,-2.5558500289917,-3.2045750617981,13.3360509872437,8.34195041656494,6.09705018997192,21.4080009460449,16.6699504852295,12.4900503158569,-2.84400010108948,-0.60405004024506,0.98205006122589,-1.5052125453949,-1.60654997825623,-1.44773745536804,-0.52346247434616,-0.12649999558926,0.15207499265671,-3.55272507667542,-2.89794993400574,-1.92183744907379,-2.62605023384094,-7.48095035552979,-11.1949501037598,3.43500018119812,-0.23505000770092,-4.66605043411255,3.97305011749268,5.98305034637451,8.29905033111572,0.63277500867844,1.82022500038147,2.68042492866516,0.66275000572205,0.38664999604225,0.23154999315739,2.41532492637634,4.13668727874756,4.0511622428894,-17.4859504699707,-12.6529502868652,4.84095001220703,-3.35700011253357,-1.44300007820129,6.20595026016235,12.1159505844116,10.2799501419067,2.0419499874115,2.2980375289917,1.47702503204346,0.67925000190735,0.65174996852875,0.90351247787476,0.49046251177788,2.90523743629456,1.79960000514984,0.65848749876022,9.71805000305176,11.3110504150391,12.0940504074097,12.4870510101318,17.7019500732422,20.9269504547119,-3.10905003547669,-7.22295045852661,-8.45505046844482,0.22357499599457,-0.26152500510216,-0.85401248931885,-0.35365000367165,-1.04032504558563,-1.32866251468658,-0.68419998884201,-1.97669994831085,-2.86494994163513,13.0459508895874,12.3280506134033,9.48105049133301,21.7050018310547,20.0440502166748,17.0650501251221,-7.34700012207031,-7.20795011520386,-6.05700016021729,-1.39892494678497,-1.91331243515015,-2.34327507019043,-1.48623752593994,-1.62057495117188,-1.61204993724823,-3.53815007209778,-4.13668727874756,-4.43602514266968,7.15305042266846,4.26900005340576,0.01200000010431,13.1790008544922,8.17094993591309,2.37495017051697,-3.13305020332336,0.52200001478195,4.62405014038086,-2.47527503967285,-1.96707499027252,-0.66838747262955,-1.08432495594025,0.1387374997139,1.14042496681213,-3.89730000495911,-2.10264992713928,0.64748752117157,-6.72795009613037,-14.22705078125,-19.8030014038086,-2.58000016212463,-5.29605007171631,-4.55895042419434,8.33700084686279,11.5849504470825,14.4300003051758,0.96387499570847,2.16356253623962,2.75618743896484,0.9706124663353,0.37812501192093,0.01526249945164,3.13733744621277,4.41760015487671,4.40673732757568,-18.235050201416,-10.4370002746582,-2.07405018806458,-3.50595021247864,-2.32395005226135,0.58995002508163,14.8510503768921,11.0580005645752,6.23400020599365,1.77636253833771,0.99563747644424,0.49843749403954,1.01461243629456,1.43618750572205,0.92056250572205,3.2436249256134,2.28208756446838,1.21921253204346,6.17895030975342,9.22500038146973,10.1820001602173,10.5540008544922,14.5909509658813,17.9239501953125,-4.05194997787476,-6.66000032424927,-6.61695051193237,SHAKE
1.90464997291565,1.1336874961853,0.78677499294281,-0.14726249873638,0.85827499628067,0.19855000078678,3.20938754081726,2.75618743896484,1.36578750610352,1.09095001220703,7.28400039672852,12.8170509338379,4.15500020980835,14.7649507522583,18.2760009765625,1.53405010700226,-4.74600028991699,-5.7199501991272,-0.03918749839067,-0.83943748474121,-2.159987449646,-1.49723744392395,-1.5057624578476,-1.20518743991852,-1.56873750686646,-2.5618999004364,-4.14039993286133,11.9290504455566,9.77505016326904,5.08500003814697,21.445951461792,19.0200004577637,10.7209501266479,-7.05300045013428,-6.95205020904541,-0.6690000295639,-2.45451259613037,-1.42463743686676,-0.04399999976158,-1.30900001525879,-0.32065001130104,1.03289997577667,-4.70978736877441,-2.59984993934631,1.02863752841949,1.33800005912781,-17.7709503173828,-27.1369514465332,4.01205015182495,-8.18205070495605,-8.42805004119873,4.22895002365112,14.3320503234863,15.8530511856079,1.18250000476837,1.81293749809265,1.86917495727539,1.39576244354248,0.91327500343323,0.88151252269745,4.5801248550415,6.10857486724854,5.68576240539551,-26.2750511169434,-13.4280004501343,0.07395000010729,-7.98795032501221,-7.55700016021729,-3.29805016517639,14.0800504684448,9.87795066833496,4.14495038986206,1.42683744430542,1.00168752670288,0.8233500123024,1.52528750896454,1.55457496643066,0.62246251106262,4.98946237564087,3.90087509155273,1.91688752174377,6.15195035934448,12.07200050354,18.6070499420166,6.29505014419556,15.2989511489868,21.5059509277344,-1.34100008010864,-4.32300043106079,-5.62200021743774,0.50448751449585,-0.3616249859333,-1.56997501850128,-0.38912498950958,-0.94861251115799,-0.87174999713898,-0.27981248497963,-2.08298754692078,-3.4183874130249,19.85205078125,17.0190010070801,13.47705078125,24.7770004272461,24.1549510955811,20.2789516448975,-7.74000024795532,-10.0270500183105,-9.7470006942749,-2.56932497024536,-2.87842488288879,-2.53632497787476,-0.56141251325607,-0.65174996852875,-1.10385000705719,-4.35545015335083,-5.01393747329712,-5.3535623550415,10.0140008926392,6.50205039978027,1.56000006198883,15.0550508499146,9.18000030517578,1.87500011920929,-6.04305028915405,0.60795003175735,7.56705045700073,-1.77883744239807,-0.49967500567436,0.94916248321533,-1.21261250972748,-0.20336249470711,0.81674998998642,-4.75736236572266,-2.32498741149902,1.29373753070831,-6.81405019760132,-18.6540012359619,-25.3639507293701,-5.6380500793457,-8.94495010375977,-8.52105045318604,13.0969505310059,16.2889499664307,16.2049503326416,1.88622498512268,2.22461247444153,1.98769998550415,0.89980000257492,0.50146251916885,0.89608746767044,4.48483753204346,5.62966251373291,4.90146255493164,-22.7029514312744,0.2710500061512,6.65505027770996,-7.34895038604736,-1.50495004653931,6.35700035095215,12.5560503005981,2.24700021743774,-2.04900002479553,1.68712496757507,0.70358747243881,-0.52043747901917,0.91451251506805,-0.85208749771118,-1.30666244029999,3.7445375919342,0.05733750015497,-1.88141250610352,12.4909505844116,19.2510013580322,18.3270015716553,14.0929508209229,23.9110507965088,23.4229507446289,-5.54100036621094,-9.99600028991699,-11.9940004348755,SHAKE
-3.83501243591309,-3.52096247673035,-2.57179999351501,-0.4476999938488,-0.54793751239777,-0.70551252365112,-5.11898756027222,-5.56984996795654,-5.31203746795654,7.68600034713745,3.17100024223328,-4.56195020675659,8.54400062561035,1.96800005435944,-6.13305044174194,0.76905006170273,8.25405025482178,14.7930011749268,-0.85401248931885,1.27902495861053,2.92352509498596,0.02378750033677,0.8485124707222,0.20102499425411,-2.88695001602173,1.21316254138947,6.22696256637573,-18.3810005187988,-27.3589515686035,-12.9780006408691,-9.34905052185059,-8.6050500869751,-8.07900047302246,19.476001739502,20.3380508422852,8.56695079803467,2.60947489738464,2.15627503395081,2.04146242141724,0.29864999651909,0.93527501821518,0.57598751783371,6.02304983139038,5.51595020294189,3.12262487411499,-1.60395002365112,4.67805004119873,16.711950302124,-4.69500017166138,2.63100004196167,16.6630516052246,2.74500012397766,-1.14000010490417,-5.81595039367676,1.93146252632141,-0.8259624838829,-2.80018758773804,-0.84479999542236,-2.04091238975525,-1.46547496318817,1.16297495365143,-2.27246260643005,-3.49772500991821,20.131950378418,16.3680000305176,13.5150003433228,20.8720512390137,20.7430515289307,16.6440010070801,-8.53605079650879,-14.6620502471924,-12.1230001449585,-4.62550020217896,-4.19911241531372,-0.23223750293255,-0.65670001506805,-1.51923751831055,-1.00856244564056,-5.3388500213623,-5.99252510070801,-2.12822508811951,7.39695024490356,2.50800013542175,-21.939001083374,5.38305044174194,-1.97895014286041,-9.32805061340332,1.4190000295639,9.59595012664795,23.2399501800537,1.86422502994537,2.39208745956421,1.9461749792099,0.53693747520447,0.36217498779297,0.69574999809265,2.02675008773804,6.09991264343262,5.78847503662109,-27.42405128479,-8.31405067443848,2.20395016670227,-8.56695079803467,-7.21695041656494,-2.01495003700256,21.0820503234863,8.02605056762695,2.88600015640259,1.0506374835968,0.74277502298355,0.15510000288486,2.1264374256134,0.90227496623993,-0.58464998006821,3.92163753509521,1.94741249084473,-0.13076250255108,15.5800504684448,21.4330501556396,22.0200004577637,13.9830007553101,20.0659503936768,23.941951751709,-3.72195029258728,-5.514000415802,-8.03400039672852,-0.76367497444153,-1.90836250782013,-2.74161243438721,-0.97432500123978,-0.71046251058578,-0.50517499446869,-1.86683750152588,-3.38415002822876,-4.63278770446777,20.1010513305664,17.9370002746582,14.4199504852295,23.6689510345459,20.0269508361816,14.8399505615234,-9.46695041656494,-8.45700073242188,-3.77205014228821,-2.93947505950928,-2.63656258583069,-1.99636244773865,-0.59317499399185,-0.72503751516342,-0.518649995327,-5.48913764953613,-5.87028741836548,-5.54785013198853,9.79905033111572,3.84300017356873,-4.0620002746582,8.78595066070557,2.12100005149841,-5.50395011901855,2.67300009727478,8.7610502243042,13.7640008926392,-0.99935001134872,1.25345003604889,1.3034999370575,0.31459999084473,1.61204993724823,1.07566249370575,-3.65543746948242,3.22767496109009,5.61989974975586,-15.5310010910034,-25.324951171875,-18.3910503387451,-9.94005012512207,-9.21300029754639,-7.84200048446655,16.78005027771,13.992000579834,7.99005031585693,SHAKE
-2.74161243438721,-2.93947505950928,-2.63656258583069,-0.50517499446869,-0.59317499399185,-0.72503751516342,-4.63278770446777,-5.48913764953613,-5.87028741836548,14.4199504852295,9.79905033111572,3.84300017356873,14.8399505615234,8.78595066070557,2.12100005149841,-3.77205014228821,2.67300009727478,8.7610502243042,-1.99636244773865,-0.99935001134872,1.25345003604889,-0.518649995327,0.31459999084473,1.61204993724823,-5.54785013198853,-3.65543746948242,3.22767496109009,-4.0620002746582,-15.5310010910034,-25.324951171875,-5.50395011901855,-9.94005012512207,-9.21300029754639,13.7640008926392,16.78005027771,13.992000579834,1.3034999370575,1.38531243801117,1.76536250114441,1.07566249370575,0.50146251916885,1.19061243534088,5.61989974975586,6.20867490768433,5.13851261138916,-18.3910503387451,2.82105016708374,12.702000617981,-7.84200048446655,2.02995014190674,9.0100507736206,7.99005031585693,1.93905007839203,0.02205000072718,1.78117501735687,0.15262499451637,-1.05558753013611,1.10742497444153,-1.11237502098084,-1.25413751602173,3.2386748790741,-0.86377501487732,-2.58513736724854,19.8970508575439,21.2280006408691,19.2150001525879,15.7920007705688,24.5209503173828,22.5090007781982,-2.51805019378662,-6.90900039672852,-7.50705051422119,-2.91499996185303,-3.45991253852844,-2.26627492904663,-1.17589998245239,-1.14042496681213,0.99261248111725,-5.16298770904541,-6.19657516479492,-4.16968727111816,12.6780004501343,7.67400026321411,-17.1730499267578,11.9800510406494,3.48795008659363,-9.93105030059814,-0.34305000305176,4.80495023727417,17.1409511566162,-0.03671250119805,2.46784996986389,2.58747506141663,1.71228754520416,0.0629749968648,-0.22659999132156,-0.08552499860525,5.77005004882813,5.96433734893799,-27.8809509277344,-17.0509510040283,-4.2180004119873,-9.11505031585693,-7.76805019378662,-5.2020001411438,21.106050491333,11.5560007095337,6.00405025482178,1.69688749313354,1.40373754501343,1.29002499580383,1.29566252231598,1.77209997177124,1.17961251735687,4.29673767089844,2.9711000919342,1.48802495002747,11.5909509658813,16.4899501800537,18.65505027771,7.85895013809204,14.3659505844116,19.6759510040283,-1.96995007991791,-3.17205023765564,-3.15705013275146,1.20216250419617,0.79406249523163,-0.32257500290871,-0.31336250901222,-1.59981250762939,-1.85514998435974,-0.14300000667572,-1.81788754463196,-3.15081238746643,19.3129501342773,18.4489517211914,15.3150005340576,22.3099517822266,21.5560512542725,18.4860000610352,-3.32505011558533,-4.38000011444092,-6.74400043487549,-1.6970249414444,-2.88942503929138,-3.62614989280701,-1.54728746414185,-1.27723753452301,-0.81303751468658,-4.16116237640381,-5.15570020675659,-5.88376235961914,11.9689502716064,8.55705070495605,2.81400012969971,13.8199510574341,7.26405048370361,-0.62205004692078,-5.22000026702881,-1.0200001001358,4.55700016021729,-3.41109991073608,-1.79231250286102,2.26985001564026,0.20102499425411,1.27847504615784,0.3634124994278,-5.27174997329712,-2.41656255722046,4.73893737792969,-7.98195028305054,-21.5350513458252,-23.0740509033203,-6.90900039672852,-8.28194999694824,-7.14795017242432,10.8570003509521,17.7100505828857,16.6840515136719,SHAKE
-3.37081241607666,-4.29921245574951,-4.7060751914978,-0.6347000002861,-0.58822500705719,-0.65793746709824,-4.90269994735718,-5.99857473373413,-6.69624996185303,12.8359508514404,8.83005046844482,2.10105013847351,12.9090003967285,5.7679500579834,-2.74005007743835,-6.66495037078857,-1.12995004653931,5.77200031280518,-4.05363750457764,-1.69331252574921,2.75618743896484,-0.10449999570847,0.94737499952316,0.43312498927116,-5.78723764419556,-2.06717491149902,6.22943735122681,-10.032000541687,-25.6339511871338,-25.1530513763428,-9.88500022888184,-11.0050506591797,-10.5460500717163,13.6110010147095,22.2259502410889,17.3350505828857,3.11162495613098,3.04686260223389,2.07556247711182,-0.28531250357628,-0.12526249885559,1.73428750038147,7.49265003204346,7.13845014572144,4.43959999084473,-12.4729509353638,-0.15705001354218,17.6809501647949,-9.91395092010498,-5.60205030441284,10.6780500411987,9.96495056152344,4.59195041656494,-4.22700023651123,1.51126253604889,0.15510000288486,-2.09412503242493,1.42518746852875,-1.10013747215271,-1.37252497673035,2.4091374874115,-1.60902500152588,-4.68531227111816,22.6080017089844,22.9819507598877,16.1909999847412,18.3499507904053,24.2700004577637,16.2900009155273,-6.77505016326904,-8.75895023345947,-6.29400014877319,-2.90771245956421,-3.19000005722046,-2.12341237068176,-1.24547493457794,-0.85208749771118,0.33660000562668,-5.72989988327026,-7.04563760757446,-5.63695001602173,12.1300506591797,-0.6400500535965,-14.1030006408691,10.3030500411987,-6.10200023651123,-12.4819507598877,-1.22100007534027,10.6180505752563,16.7440509796143,1.86422502994537,2.88557505607605,3.86416244506836,1.21618747711182,0.13626250624657,-0.92661249637604,3.43048739433289,7.1519250869751,7.4218373298645,-34.6050033569336,-26.8500003814697,3.18300008773804,-11.1370506286621,-11.5099506378174,-6.37305021286011,20.2470016479492,14.2570505142212,3.13800024986267,3.48053741455078,0.97487497329712,-0.42886251211166,-0.07507500052452,0.96827501058578,0.36107498407364,5.84828758239746,1.93888747692108,-0.27857500314713,12.9340505599976,24.3030014038086,25.9150505065918,2.14995002746582,18.7450504302979,23.1450004577637,-3.49500012397766,-14.3269510269165,-14.6530504226685,-1.4832124710083,-2.39456248283386,-3.0494749546051,-0.43188750743866,-0.71898752450943,-0.81427496671677,-2.43251252174377,-3.98282504081726,-5.04075002670288,24.6880512237549,19.9450511932373,15.2290506362915,23.1169509887695,19.678050994873,14.9449510574341,-12.1879501342773,-8.98200035095215,-4.14795017242432,-3.22176241874695,-3.32914996147156,-3.50996255874634,-1.1281875371933,-1.25894999504089,-0.99137496948242,-5.94000005722046,-6.6559624671936,-6.99063730239868,11.7109508514404,7.18395042419434,0.12900000810623,9.65700054168701,2.76300024986267,-5.86995029449463,1.77600014209747,5.7460503578186,9.9529504776001,-3.20581245422363,-1.63721251487732,2.32979989051819,0.50393748283386,2.13001251220703,0.61874997615814,-5.58813762664795,-1.66526246070862,7.21049976348877,-13.4370002746582,-28.0920009613037,-26.1990013122559,-12.996000289917,-13.8460502624512,-11.0820007324219,14.4630002975464,20.0269508361816,16.582950592041,SHAKE
-5.27903747558594,-5.02988767623901,0.17833749949932,-0.16060000658035,-0.43917500972748,1.07937502861023,-6.16481256484985,-6.90511226654053,-0.64267498254776,10.5979509353638,3.04905009269714,-30.2880020141602,5.95005035400391,-4.88895034790039,-10.7950506210327,-0.4870500266552,10.6630506515503,28.969051361084,3.34372496604919,4.86351251602173,3.84106254577637,0.5906999707222,-1.05366253852844,-0.31707498431206,4.10368728637695,5.70652484893799,4.28573751449585,-30.5010013580322,-0.21405000984669,9.17895030975342,-9.47895050048828,-5.48700046539307,4.50705003738403,26.4090003967285,4.4389500617981,-6.04095029830933,2.36389994621277,0.90516251325607,-0.88948750495911,0.80451250076294,0.47464999556541,-0.7177500128746,3.07133746147156,1.3084499835968,-1.25468754768372,13.8600006103516,18.7129516601563,22.7380504608154,14.5330505371094,20.9509506225586,22.9300518035889,-13.1479501724243,-16.0810508728027,-17.4019508361816,-3.02747488021851,-4.87588739395142,-5.73471260070801,-0.87656247615814,0.13502499461174,1.10385000705719,-3.45496249198914,-4.70854997634888,-5.5075626373291,20.3950500488281,14.6160011291504,9.75600051879883,21.1350002288818,15.3610506057739,8.94600009918213,-16.3560009002686,-11.0710506439209,-2.19300007820129,-5.75066232681274,-4.75378751754761,-2.22970008850098,1.39699995517731,1.29442501068115,1.34447503089905,-6.43720006942749,-6.75606250762939,-4.14534997940063,5.60700035095215,-3.55995011329651,-22.2169513702393,-0.41700002551079,-11.6010007858276,-17.0310001373291,6.39405012130737,15.0520505905151,23.7859516143799,1.2667875289917,3.4134373664856,3.82511258125305,0.86927497386932,-0.28764998912811,-1.20271253585815,1.24973750114441,5.72728729248047,7.33631229400635,-36.0529518127441,-31.1809520721436,-14.7270002365112,-13.2949504852295,-11.9860506057739,-11.0650501251221,27.3199520111084,19.4670009613037,9.01500034332275,1.84593749046326,0.95658749341965,0.33591249585152,0.17531250417233,1.09284996986389,-0.25588750839233,5.08227491378784,3.69201254844666,-0.48262500762939,9.37095069885254,14.3029508590698,22.7209510803223,4.00005006790161,14.0500507354736,24.6390018463135,-4.71300029754639,-5.2630500793457,-5.42805004119873,-0.55110001564026,-3.00795006752014,-3.60415005683899,-0.87174999713898,0.17531250417233,0.59193748235703,-2.68537497520447,-5.10317516326904,-6.00600004196167,20.90505027771,11.5290002822876,8.31795024871826,23.7990016937256,14.0359506607056,6.61305046081543,-7.25895023345947,-3.78405022621155,2.13705015182495,-2.26627492904663,0.06352499872446,3.81040000915527,0.96813750267029,1.15018749237061,-0.16431249678135,-5.76042509078979,-1.98041248321533,6.59724998474121,-10.4080505371094,-27.7420520782471,-25.4260520935059,-12.5149507522583,-13.4269504547119,-11.0220003128052,16.3579502105713,22.276050567627,14.5330505371094,4.05721235275269,3.33396244049072,2.62899994850159,-0.9620875120163,-0.21807499229908,0.45746248960495,7.59165000915527,5.15198755264282,3.2289125919342,-10.9440002441406,11.5909509658813,17.7240009307861,-9.77505016326904,5.43300008773804,14.9809503555298,7.04295015335083,-3.32895016670227,-7.00995016098022,SHAKE
-4.28340005874634,-3.87406253814697,-2.0121750831604,0.51370000839233,0.79351252317429,0.98037499189377,-6.73048734664917,-6.53248739242554,-3.5294873714447,2.81895017623901,-7.24695014953613,-24.1960506439209,-2.73795008659363,-13.4629507064819,-16.0369510650635,6.33705043792725,11.7499504089355,19.9069499969482,0.66948747634888,2.25885009765625,2.33832502365112,0.52717500925064,0.01031249947846,-0.3951750099659,1.50026249885559,5.73952484130859,7.73946237564087,-34.6840515136719,-29.7330017089844,-16.1100006103516,-14.0710506439209,-13.3890008926392,-12.6949510574341,23.2690505981445,16.7700004577637,8.47395038604736,1.44278752803802,1.53807497024536,1.69083750247955,-0.37564998865128,0.81427496671677,1.06837499141693,7.40355014801025,5.333899974823,2.22475004196167,7.11405038833618,20.4810009002686,29.5330505371094,1.94700014591217,13.2550506591797,22.0710010528564,1.22100007534027,-0.72105002403259,-3.07095003128052,0.20281249284744,-1.56997501850128,-3.17281246185303,-1.62909996509552,-1.95043754577637,-1.3199999332428,-2.75618743896484,-3.9753999710083,-5.01765012741089,21.5910015106201,16.0999507904053,12.9409503936768,25.4020519256592,20.5630512237549,14.2920007705688,-9.75405025482178,-10.8720006942749,-6.31305027008057,-4.87465000152588,-3.73725008964539,-0.44604998826981,0.17655000090599,0.42941248416901,0.2413125038147,-7.25202512741089,-6.13910007476807,-1.75312495231628,1.61100006103516,-13.0110006332397,-30.4440021514893,-4.89405012130737,-13.4100008010864,-12.187050819397,6.83700037002563,16.5139503479004,26.9370021820068,2.86123752593994,4.33083724975586,3.88863754272461,-0.9560375213623,-1.26637494564056,-0.57722496986389,3.18133759498596,6.29914999008179,7.17749977111816,-33.8149528503418,-24.28005027771,-10.7239503860474,-11.7730503082275,-12.7230005264282,-11.1370506286621,27.1840515136719,17.4019508361816,6.75600051879883,2.42508745193481,1.06768751144409,0.48620000481606,0.65670001506805,1.64505004882813,1.88567495346069,6.42867517471313,5.18498754501343,3.88863754272461,1.71105003356934,9.7339506149292,14.2429504394531,-5.66700029373169,3.11205005645752,12.5830507278442,-0.76395004987717,-3.03300023078919,-2.7720000743866,0.5020124912262,0.62301248311996,0.48620000481606,1.23695003986359,-0.17049999535084,-1.56200003623962,2.22956252098084,0.18933749198914,-1.81431245803833,19.1269512176514,21.8449516296387,20.9380512237549,19.0060501098633,22.252950668335,22.5379505157471,-2.5570502281189,-3.46800017356873,-4.45905017852783,-0.20776249468327,-1.30363750457764,-2.50951242446899,-1.98838746547699,-1.66581249237061,-1.07937502861023,-3.32791256904602,-4.34197521209717,-5.37185001373291,17.3770503997803,13.3930501937866,10.6410007476807,19.6489505767822,15.4789505004883,9.71205043792725,-5.23695039749146,-3.65505027770996,-0.66105002164841,-3.66643738746643,-4.04511260986328,-2.68537497520447,-0.60293751955032,-0.1190750002861,0.80451250076294,-6.46291255950928,-6.81229972839355,-4.9576997756958,5.91105031967163,-2.72205018997192,-16.864049911499,1.82505011558533,-7.11195039749146,-12.832950592041,3.22095012664795,9.77295017242432,18.6529502868652,SHAKE
-2.50951242446899,-3.66643738746643,-4.04511260986328,-1.07937502861023,-0.60293751955032,-0.1190750002861,-5.37185001373291,-6.46291255950928,-6.81229972839355,10.6410007476807,5.91105031967163,-2.72205018997192,9.71205043792725,1.82505011558533,-7.11195039749146,-0.66105002164841,3.22095012664795,9.77295017242432,-2.68537497520447,0.03904999792576,2.29556250572205,0.80451250076294,1.12090003490448,0.45746248960495,-4.9576997756958,-0.63291251659393,3.94858741760254,-16.864049911499,-30.3619518280029,-31.4440517425537,-12.832950592041,-11.5579509735107,-10.1800508499146,18.6529502868652,24.351001739502,21.5920505523682,2.97604990005493,1.74459993839264,0.96992498636246,0.20831249654293,0.88151252269745,1.37747502326965,6.66682481765747,6.56053733825684,5.42808723449707,-20.2360515594482,4.63500022888184,11.7370510101318,-10.5240001678467,-2.48595023155212,6.73995018005371,12.8809509277344,0.2569500207901,-2.27700018882751,0.51067501306534,-0.26276248693466,-2.92847490310669,0.85579997301102,-0.27912500500679,-0.80079996585846,0.98339998722076,-1.25716245174408,-4.06092500686646,24.4870510101318,22.3450508117676,14.6400003433228,20.181001663208,22.4830513000488,16.8660011291504,-3.78195023536682,-6.72000026702881,-5.69400024414063,-4.16239976882935,-4.06463766098022,-1.49792504310608,-0.18026250600815,0.51988750696182,0.87779998779297,-5.2167501449585,-6.57648754119873,-4.16611242294312,11.7679510116577,-3.87105011940002,-19.6900501251221,10.4749507904053,-6.99000024795532,-11.7280502319336,-1.58505010604858,15.0139503479004,24.3240013122559,1.96927499771118,4.16597509384155,4.54588747024536,0.40617498755455,-0.34636250138283,-0.39765000343323,0.78182500600815,5.20808744430542,7.50255012512207,-32.8770027160645,-30.1810512542725,-18.0750007629395,-10.0939502716064,-10.2850503921509,-10.6150503158569,28.9069519042969,22.1490001678467,11.5270509719849,3.91558742523193,3.25091242790222,2.89052510261536,0.05555000156164,0.58451247215271,0.85084998607635,7.91917514801025,6.62653732299805,4.25397491455078,-4.99305009841919,8.50005054473877,18.784049987793,-7.99995040893555,-1.22505009174347,8.84805011749268,3.71400022506714,-0.05100000277162,-2.16705012321472,2.45190000534058,1.54907500743866,0.24186250567436,0.7262749671936,0.17655000090599,-0.81056249141693,1.85941243171692,-0.16857500374317,-1.88388752937317,22.6710014343262,22.1149501800537,19.969051361084,16.3500003814697,20.0539512634277,20.8579502105713,-5.42100048065186,-9.64905071258545,-11.4919509887695,-1.32192504405975,-2.74037504196167,-3.94006252288818,-1.44828748703003,-1.3249499797821,-0.89856249094009,-3.2876250743866,-4.42873764038086,-5.7017126083374,17.1690006256104,14.4940509796143,11.907000541687,18.6420001983643,14.248950958252,8.01000022888184,-11.1810007095337,-7.33800029754639,-2.31705021858215,-4.70002508163452,-4.3102126121521,-2.21251249313354,-0.29754999279976,0.61022502183914,1.62428748607636,-6.89534997940063,-6.87830018997192,-4.21973752975464,6.16200017929077,-5.69205045700073,-21.9060001373291,-0.37095001339912,-8.84205055236816,-12.4909505844116,3.93195009231567,12.7450504302979,22.3120517730713,SHAKE
0.73053747415543,2.26503753662109,3.03228759765625,1.73786246776581,1.47276246547699,0.8289874792099,1.90946245193481,5.53189992904663,6.76830005645752,-29.6800518035889,-24.7729511260986,-9.75,-11.1730508804321,-10.4449501037598,-10.1220006942749,17.5240516662598,14.6089506149292,8.66805076599121,3.15809988975525,2.52271246910095,1.7604124546051,0.27788749337196,0.67498749494553,1.08432495594025,5.94233751296997,5.28632497787476,4.63759994506836,3.92205023765564,7.83705043792725,11.7730503082275,-5.92500019073486,3.27705025672913,11.8920001983643,3.02700018882751,-3.31305027008057,-6.14595031738281,1.45749998092651,1.14097499847412,-0.06118749827147,0.76546251773834,-0.31336250901222,-1.04390001296997,2.91623759269714,0.22110000252724,-2.06964993476868,19.1290512084961,23.7280502319336,20.4070510864258,18.7969512939453,22.9129505157471,23.3920516967773,-6.61005020141602,-7.99095058441162,-11.5870504379272,-1.94383752346039,-3.49414992332459,-4.34321260452271,-0.70798748731613,-0.14478750526905,-0.1032624989748,-3.54914999008179,-4.59359979629517,-5.66389989852905,15.3169507980347,11.332950592041,8.08095073699951,20.0539512634277,14.7270002365112,7.49295043945313,-13.0540504455566,-8.425950050354,-1.71900010108948,-4.67431259155273,-3.93029999732971,-1.49668753147125,-0.67003750801086,-0.71046251058578,0.72503751516342,-6.68524980545044,-5.85076236724854,-1.85088753700256,2.07195019721985,-11.2500009536743,-27.9430503845215,-2.61105012893677,-11.5480508804321,-11.131950378418,6.05205011367798,14.403000831604,20.5009517669678,1.26568746566772,2.56795001029968,2.64123749732971,1.18937504291534,1.06961250305176,1.0231374502182,2.75247502326965,5.55747509002686,5.97533750534058,-31.408052444458,-20.2999515533447,-4.96695041656494,-8.08305072784424,-7.68600034713745,-5.0590500831604,21.0529518127441,13.1230506896973,5.56605005264282,1.9901750087738,0.84658747911453,1.00539994239807,1.22237503528595,1.29071247577667,0.29864999651909,5.38408756256104,3.90692496299744,1.65164995193481,3.79095029830933,13.6399507522583,21.8740501403809,2.82000017166138,19.4170513153076,24.4590015411377,-0.18300001323223,-2.78895020484924,-1.7980500459671,0.856350004673,0.09886249899864,-0.74648749828339,-0.54670000076294,-0.50888746976852,-0.25836250185966,-0.84177500009537,-2.53756237030029,-3.73601245880127,22.8910503387451,18.1290016174316,13.9990510940552,27.0769519805908,25.4260520935059,20.9080505371094,-3.44895005226135,-5.63895034790039,-3.92295026779175,-1.38668751716614,-1.08377504348755,-0.45457500219345,-0.44165000319481,-0.78127497434616,-1.04032504558563,-5.23998737335205,-5.69689989089966,-5.65042495727539,6.99705028533936,3.48900008201599,-3.16500020027161,9.74505043029785,2.67900013923645,-4.66200017929077,3.54900026321411,7.11900043487549,10.2010507583618,-0.22852499783039,-0.53638750314713,-0.42638748884201,-0.55398750305176,0.5429875254631,1.10632503032684,-4.74388742446899,-2.27480006217957,1.71888744831085,-11.3239507675171,-21.5490016937256,-29.5129508972168,-11.4169502258301,-14.451000213623,-12.2500505447388,8.83305072784424,5.67405033111572,6.83505010604858,SHAKE
0.856350004673,0.09886249899864,-0.74648749828339,-0.54670000076294,-0.50888746976852,-0.25836250185966,-0.84177500009537,-2.53756237030029,-3.73601245880127,22.8910503387451,18.1290016174316,13.9990510940552,27.0769519805908,25.4260520935059,20.9080505371094,-3.44895005226135,-5.63895034790039,-3.92295026779175,-1.38668751716614,-1.08377504348755,-0.45457500219345,-0.44165000319481,-0.78127497434616,-1.04032504558563,-5.23998737335205,-5.69689989089966,-5.65042495727539,6.99705028533936,3.48900008201599,-3.16500020027161,9.74505043029785,2.67900013923645,-4.66200017929077,3.54900026321411,7.11900043487549,10.2010507583618,-0.22852499783039,-0.53638750314713,-0.42638748884201,-0.55398750305176,0.5429875254631,1.10632503032684,-4.74388742446899,-2.27480006217957,1.71888744831085,-11.3239507675171,-21.5490016937256,-29.5129508972168,-11.4169502258301,-14.451000213623,-12.2500505447388,8.83305072784424,5.67405033111572,6.83505010604858,0.00357499998063,0.29919999837875,0.84411251544952,1.04884994029999,0.41483750939369,-0.56622499227524,5.59899997711182,7.12497472763062,6.53372478485107,-26.9860515594482,-11.731050491333,2.84505009651184,-11.1630001068115,-11.331000328064,-5.87505006790161,7.27695035934448,5.74305009841919,5.53005027770996,1.54412496089935,2.05727505683899,2.24180006980896,-0.88880002498627,-0.72751247882843,-0.5711749792099,6.10486268997192,5.24603748321533,2.42137503623962,6.99000024795532,14.695050239563,26.7600021362305,5.9239501953125,15.7369508743286,21.9490509033203,5.44005012512207,3.62295007705688,1.07205009460449,1.74212503433228,0.52896249294281,-0.64391249418259,-0.38060000538826,-0.05678749829531,0.20460000634193,-1.12282502651215,-3.34386253356934,-4.43478727340698,29.5999507904053,21.0120010375977,13.0969505310059,25.1170520782471,23.4799518585205,18.5700016021729,-2.94195008277893,-6.27000045776367,-5.800950050354,-1.38063752651215,-1.96212494373322,-2.72442507743835,-0.04702499881387,-0.2938374876976,0.43917500972748,-5.42684984207153,-6.2123875617981,-5.84595012664795,9.23400020599365,3.17295026779175,-7.24905014038086,11.2770004272461,1.92300009727478,-7.24095010757446,-2.18595004081726,1.38405001163483,2.03895020484924,-2.57056260108948,-1.21563744544983,0.21986250579357,1.81610000133514,1.52281248569489,-0.18754999339581,-3.15809988975525,1.0066374540329,4.61188745498657,-21.0679512023926,-29.4820518493652,-26.2630519866943,-8.34405040740967,-5.72205018997192,-5.06805038452148,4.96095037460327,9.36900043487549,8.61705017089844,1.30473744869232,2.22227501869202,2.48613739013672,-1.60352504253387,-2.14472508430481,-1.9406750202179,6.32596254348755,6.07433748245239,5.19351243972778,-14.5000505447388,-1.29105007648468,5.97300004959106,-4.52805042266846,-0.01200000010431,9.13500022888184,5.96400022506714,3.81195020675659,1.05105006694794,2.07679986953735,1.45749998092651,0.58148747682571,-1.40799999237061,-0.92908751964569,-0.48193749785423,3.76034998893738,1.37321245670319,-1.33897495269775,13.1850004196167,21.1129512786865,23.9410514831543,18.4939517974854,25.4380512237549,28.0129508972168,-1.74300003051758,-3.04905009269714,-4.12905025482178,SHAKE
0.65230000019073,0.00852499995381,-0.7429124712944,-0.50765001773834,-0.49169999361038,-0.39888748526573,0.82458752393723,-1.58826243877411,-3.29738759994507,25.1620502471924,24.1489505767822,18.8200511932373,26.0220012664795,27.7369518280029,25.0930519104004,-4.12905025482178,-4.62405014038086,-4.32300043106079,-1.17040002346039,-1.14482498168945,-1.06782495975494,-0.39393749833107,-0.76298749446869,-1.13808751106262,-4.48002481460571,-5.26679992675781,-5.72866249084473,14.0440502166748,9.80595016479492,4.95600032806396,19.5060005187988,13.2030010223389,5.97900009155273,-1.49895012378693,2.56800007820129,4.92000007629395,-1.44773745536804,-1.27063751220703,-0.24805000424385,-0.34264999628067,0.72998750209808,0.90584999322891,-5.08475017547607,-2.65842509269714,1.29621243476868,-10.5730504989624,-21.901050567627,-30.6109523773193,-8.82000064849854,-11.4430503845215,-10.6750507354736,6.22200012207031,7.68900012969971,9.96495056152344,0.90516251325607,1.61012494564056,1.92541253566742,0.31459999084473,-0.68722498416901,-1.50328743457794,5.18484973907471,6.85492515563965,6.61553764343262,-28.8310508728027,-14.8039503097534,-1.17900002002716,-9.73695087432861,-9.51705074310303,-4.99905014038086,8.64600086212158,4.71705007553101,1.60605013370514,1.74941253662109,1.19226253032684,0.58630001544952,-1.31271255016327,-0.55288749933243,0.06173750013113,6.18186235427856,5.48542499542236,3.3547248840332,6.06405019760132,13.0819501876831,23.4289512634277,4.72200012207031,14.8639507293701,21.9630012512207,-1.22595000267029,-3.07305026054382,-3.97305011749268,0.16005000472069,-0.24681249260902,-0.63043749332428,-0.06655000150204,-0.56374996900558,-0.8790374994278,0.57172501087189,-1.69331252574921,-3.23138737678528,26.953950881958,22.8720016479492,17.4540004730225,26.8039512634277,26.6149520874023,21.9420013427734,-3.30105018615723,-3.47100019454956,-2.82495021820068,-1.03482496738434,-1.45873749256134,-1.79836249351501,-1.27613747119904,-1.63157498836517,-1.38118743896484,-4.43244981765747,-5.26556253433228,-5.22898769378662,12.6780004501343,6.34905052185059,-2.6380500793457,14.1820507049561,5.35395002365112,-3.73095011711121,-0.51794999837875,3.3600001335144,7.20600032806396,-1.70183753967285,-0.83324998617172,0.46048748493195,-0.25588750839233,0.4476999938488,0.01649999991059,-3.69943737983704,-0.74524998664856,2.29061245918274,-13.6000509262085,-22.6759510040283,-23.67405128479,-9.69900035858154,-9.85905075073242,-8.20305061340332,9.67005062103272,11.4769506454468,11.5939502716064,1.26568746566772,1.54412496089935,0.60953748226166,-0.46970000863075,-1.14166247844696,-1.13561248779297,4.18316268920898,4.6998872756958,4.44578742980957,-15.7300510406494,-5.85900020599365,7.62195014953613,-7.08300018310547,-3.58005023002625,9.90795040130615,6.89700031280518,2.81205010414124,-2.11605000495911,0.03409999981523,-0.60486251115799,-0.39338749647141,-0.40741249918938,-0.07631249725819,-0.80451250076294,2.9528124332428,-0.3103374838829,-1.42326247692108,16.4899501800537,17.026050567627,15.0540008544922,15.4980010986328,22.5060005187988,22.1670017242432,-2.20500016212463,-0.91995006799698,0.78795003890991,SHAKE
-0.83324998617172,0.46048748493195,1.26568746566772,0.4476999938488,0.01649999991059,-0.46970000863075,-0.74524998664856,2.29061245918274,4.18316268920898,-22.6759510040283,-23.67405128479,-15.7300510406494,-9.85905075073242,-8.20305061340332,-7.08300018310547,11.4769506454468,11.5939502716064,6.89700031280518,1.54412496089935,0.60953748226166,0.03409999981523,-1.14166247844696,-1.13561248779297,-0.40741249918938,4.6998872756958,4.44578742980957,2.9528124332428,-5.85900020599365,7.62195014953613,16.4899501800537,-3.58005023002625,9.90795040130615,15.4980010986328,2.81205010414124,-2.11605000495911,-2.20500016212463,-0.60486251115799,-0.39338749647141,-0.49114999175072,-0.07631249725819,-0.80451250076294,-1.36771249771118,-0.3103374838829,-1.42326247692108,-3.70053744316101,17.026050567627,15.0540008544922,9.99105072021484,22.5060005187988,22.1670017242432,13.7629508972168,-0.91995006799698,0.78795003890991,0.13005000352859,-1.6579749584198,-1.91936254501343,-0.07699999958277,-1.45447504520416,0.89980000257492,1.18813753128052,-4.60102510452271,-0.30538749694824,3.4964873790741,3.75705027580261,-24.2959518432617,-26.0670013427734,4.23900032043457,-7.4850001335144,-6.33405017852783,0.67500001192093,10.0150508880615,12.7930507659912,2.92105007171631,2.63271260261536,-0.22481249272823,-1.92114996910095,-2.04448747634888,-0.07507500052452,4.60954999923706,4.37731266021729,0.66453748941422,-0.15705001354218,6.09000015258789,25.5280513763428,0.74100005626678,10.5630006790161,25.2799510955811,5.41995048522949,-2.82705020904541,-8.93100070953369,-1.03729999065399,-1.21316254138947,-0.95301246643066,0.02254999987781,-0.03602499887347,-0.27912500500679,-1.76288747787476,-3.3353374004364,-4.31392478942871,25.2169513702393,19.3849506378174,14.1060009002686,27.748950958252,24.7290019989014,19.4389514923096,-5.51205015182495,-2.2020001411438,0.69900006055832,-0.49238750338554,-0.46915000677109,-1.02506244182587,-0.74951249361038,-1.27366244792938,-0.77027499675751,-5.10551261901855,-5.73718738555908,-5.70047473907471,10.8330001831055,5.92695045471191,-1.80795013904572,13.582950592041,6.23505020141602,-2.25705003738403,3.77205014228821,5.34405040740967,5.46795034408569,-1.48444998264313,-1.38668751716614,-0.40438750386238,0.83380001783371,2.11901259422302,2.24125003814697,-4.3810248374939,-1.80936253070831,1.83741247653961,-11.2260007858276,-20.4630012512207,-26.1940517425537,-8.71005058288574,-12.6949510574341,-12.373950958252,6.48000049591064,8.04300022125244,10.113000869751,0.67430001497269,1.32426249980927,1.83864998817444,1.72204995155334,0.52964997291565,-0.35488748550415,5.35961246490479,7.04192495346069,6.93563747406006,-23.5549507141113,-10.9060506820679,2.757000207901,-11.3880004882813,-10.6390504837036,-6.01095008850098,8.25405025482178,4.98495006561279,2.66595005989075,2.11227488517761,2.11832499504089,1.73112499713898,-0.36217498779297,0.05431250110269,0.43917500972748,6.40901231765747,5.06151247024536,2.52642488479614,10.8330001831055,19.9159507751465,28.4020519256592,3.80100011825562,14.1960010528564,22.0969505310059,0.88800007104874,-0.86700004339218,-3.82500028610229,SHAKE
2.11227488517761,2.11832499504089,1.73112499713898,-0.36217498779297,0.05431250110269,0.43917500972748,6.40901231765747,5.06151247024536,2.52642488479614,10.8330001831055,19.9159507751465,28.4020519256592,3.80100011825562,14.1960010528564,22.0969505310059,0.88800007104874,-0.86700004339218,-3.82500028610229,1.02740001678467,0.03052499890327,-1.74226248264313,0.53570002317429,0.3438875079155,-0.15702499449253,-0.20033749938011,-2.36279988288879,-4.79764986038208,29.1000022888184,23.9629516601563,11.6940002441406,26.5390510559082,25.6360511779785,13.9230003356934,-6.43995046615601,-8.27100086212158,-4.69800043106079,-2.4227499961853,-2.933424949646,-1.68850004673004,-0.53322499990463,0.44536250829697,1.83686244487762,-5.33527517318726,-4.42749977111816,-1.42326247692108,6.28905010223389,-9.86700057983398,-21.0919513702393,6.26595020294189,-9.84195041656494,-11.9839506149292,-0.56100004911423,9.05805015563965,13.4490003585815,1.24602496623993,1.80564999580383,2.40061259269714,1.39947497844696,0.30841249227524,-0.29507499933243,6.11957502365112,7.26055002212524,6.66682481765747,-21.5160007476807,-6.53895044326782,7.35405015945435,-9.48105049133301,-8.20499992370605,-2.06505012512207,9.96705055236816,5.81295013427734,3.40995025634766,2.57771253585815,2.06346249580383,0.8428750038147,-0.29988750815392,0.17778749763966,0.4281750023365,5.56118726730347,3.71277499198914,0.73906248807907,15.3840007781982,23.6800518035889,30.586051940918,9.01995086669922,19.314001083374,25.8330020904541,0.34695002436638,-4.47300004959106,-8.99805068969727,-0.70248746871948,-2.0769374370575,-2.73542499542236,0.52469998598099,0.8093249797821,0.07755000144243,-1.87536251544952,-3.73477506637573,-5.93505001068115,27.9520511627197,21.6370506286621,10.8330001831055,28.5730514526367,25.0980014801025,11.7690010070801,-10.7980508804321,-9.93105030059814,0.52905005216599,-2.36898756027222,-2.09041237831116,-1.69207501411438,-0.65917497873306,-0.75322496891022,0.23031249642372,-6.37972497940063,-6.4409122467041,-5.52213764190674,6.52995014190674,0.5460000038147,-7.63005018234253,5.11200046539307,-2.41500020027161,-9.53595066070557,5.59500026702881,7.93095016479492,9.81900024414062,-0.88948750495911,0.39091250300407,1.36826252937317,1.32742500305176,1.79038751125336,1.64505004882813,-3.11176252365112,0.52525001764297,4.4152626991272,-18.1200008392334,-25.312952041626,-25.6720504760742,-11.7810001373291,-11.8480501174927,-10.3969507217407,11.532000541687,12.2640008926392,9.17700004577637,1.61259996891022,1.56983745098114,1.50136244297028,1.17589998245239,0.48193749785423,0.04331250116229,6.99063730239868,7.56965017318726,6.87582492828369,-16.885950088501,-3.61500024795532,7.27200031280518,-9.96405029296875,-8.71305084228516,-3.03195023536682,4.61595010757446,2.06295013427734,1.10805010795593,1.45749998092651,1.14963746070862,0.49472498893738,0.10449999570847,0.51012498140335,1.05366253852844,5.58195018768311,3.78358745574951,1.43673753738403,15.5830507278442,21.7399501800537,26.8530006408691,6.96900033950806,17.5290012359619,24.4180507659912,1.09395003318787,-0.16395001113415,-2.37900018692017,SHAKE
-2.4777500629425,-2.49108743667603,-2.25651240348816,-1.13437497615814,-1.91509997844696,-1.63405001163483,-6.32486248016357,-6.43967485427856,-5.49532508850098,5.91105031967163,-0.99900007247925,-10.1260509490967,6.00495052337646,-1.5289500951767,-8.50005054473877,3.62295007705688,6.94500017166138,11.0749502182007,-1.22911250591278,0.74524998664856,2.28813743591309,-0.19731250405312,1.15266251564026,1.10137498378754,-2.92599987983704,1.28273749351501,5.27903747558594,-20.9580001831055,-29.776050567627,-28.8190517425537,-12.7690505981445,-11.6299505233765,-10.5169506072998,15.2269506454468,17.5600509643555,14.0130004882813,2.74518752098084,2.82947492599487,2.95157504081726,0.19731250405312,-0.38060000538826,-0.16183750331402,7.23250007629395,7.26921224594116,6.20867490768433,-16.885950088501,-2.97105002403259,9.15105056762695,-9.94005012512207,-5.70000028610229,3.22200012207031,7.47405052185059,3.19995021820068,0.82605004310608,2.87828755378723,0.14781250059605,-1.99759995937347,0.06531249731779,-0.37083750963211,-0.30360001325607,4.48978757858276,-1.20587503910065,-3.71277499198914,18.0619506835938,28.4350509643555,23.8069515228271,14.9329509735107,26.392951965332,24.0280513763428,-1.81500005722046,-12.3360004425049,-14.2939510345459,-3.87529993057251,-5.40608739852905,-4.54850006103516,0.24612499773502,0.10807500034571,0.35117501020432,-5.29374980926514,-7.25092506408691,-6.61801242828369,16.9080009460449,2.70705008506775,-9.19500064849854,16.8109512329102,-2.21595001220703,-11.086950302124,-11.6350507736206,4.34595012664795,13.4220008850098,1.53436243534088,3.99011254310608,4.13668727874756,0.67993748188019,-0.56374996900558,-1.27971243858337,1.92417502403259,5.60147476196289,7.09568738937378,-34.6669502258301,-27.4909515380859,-1.47300004959106,-11.6460008621216,-11.4859504699707,-4.77405023574829,24.9870014190674,18.201000213623,-0.4870500266552,3.34619998931885,2.16974997520447,0.30414998531342,-0.7567999958992,-0.40988749265671,-0.13983750343323,5.93505001068115,3.58572506904602,0.81730002164841,10.9330501556396,22.1269512176514,26.7790508270264,4.11195039749146,14.110050201416,21.7930507659912,-4.94505023956299,-8.58705043792725,-12.5059509277344,-1.68726253509521,-3.05552506446838,-3.72996258735657,0.35488748550415,0.82527500391006,0.81180000305176,-1.64078748226166,-3.61748743057251,-5.11898756027222,25.5760517120361,21.0859508514404,15.399001121521,24.1380004882813,21.2670001983643,15.7750511169434,-13.1809501647949,-9.50295066833496,-4.71000003814697,-3.99134993553162,-4.37621259689331,-4.02806234359741,0.05555000156164,-0.63346248865128,0.09955000132322,-6.24057483673096,-6.90140008926392,-5.9252872467041,8.62395000457764,0.32295000553131,-11.5350008010864,9.11100006103516,0.73800003528595,-6.94200038909912,1.1869500875473,5.18400001525879,11.1349506378174,-1.78983747959137,1.28273749351501,3.45743751525879,1.60599994659424,1.50823748111725,0.21683749556541,-2.40556240081787,1.92046248912811,5.10922479629517,-24.937952041626,-30.1639518737793,-24.8179512023926,-8.67705059051514,-8.55195045471191,-9.14400005340576,19.5,22.1320514678955,16.6810512542725,SHAKE
2.38590002059937,-1.73607504367828,-3.13981246948242,-0.02749999985099,0.79598748683929,1.35176253318787,2.33337497711182,-2.91871237754822,-4.37002515792847,24.9370517730713,22.7160015106201,16.5589504241943,16.3399505615234,21.4369506835938,17.4240016937256,-8.19405078887939,-12.7500009536743,-8.625,-3.67867493629456,-3.58214998245239,-3.24981236457825,1.35671246051788,0.60541248321533,-0.18878750503063,-5.3695125579834,-6.10376262664795,-6.32486248016357,10.9290008544922,5.05200004577637,-2.22405004501343,11.7619504928589,5.88105010986328,-0.7590000629425,-2.65500020980835,3.61605024337769,7.89900016784668,-2.37875008583069,-0.44714999198914,1.6883624792099,-0.05926249921322,0.91327500343323,1.14785003662109,-5.24232482910156,-2.15269994735718,1.98646247386932,-12.2670001983643,-23.5740013122559,-29.5489521026611,-6.80805015563965,-8.89905071258545,-8.2369499206543,12.7590007781982,17.5759506225586,17.4709510803223,2.73528742790222,2.86728739738464,2.78423738479614,0.51122498512268,-0.19607499241829,-0.65546250343323,5.17027473449707,6.63753747940063,6.90263748168945,-24.9070510864258,-14.6080503463745,-4.38705015182495,-8.52105045318604,-7.60005044937134,-4.0489501953125,11.4150009155273,5.48295021057129,1.78605008125305,2.74628758430481,2.37737488746643,1.28645002841949,-0.90832501649857,-0.63827496767044,-0.10078749805689,6.16715002059937,4.39326238632202,2.17222499847412,6.45900011062622,17.0020503997803,23.4289512634277,2.19300007820129,10.4959506988525,18.6660003662109,0.04800000041723,-2.99895024299622,-6.46695041656494,-0.29809999465942,-1.66526246070862,-2.40198755264282,0.59193748235703,0.93761247396469,1.06589996814728,-0.26386249065399,-2.54237508773804,-4.27363729476929,25.7550010681152,23.5969505310059,18.3990001678467,22.6600513458252,22.5499515533447,18.4860000610352,-9.36900043487549,-8.2300500869751,-4.9830002784729,-2.63532495498657,-2.51061248779297,-2.41903758049011,0.81551247835159,0.07631249725819,-0.49293750524521,-5.48680019378662,-6.36886262893677,-6.80735015869141,12.4500007629395,6.15195035934448,-0.86700004339218,12.7150506973267,5.99505043029785,-0.50505000352859,-1.44405007362366,2.99895024299622,6.44505023956299,-2.32127499580383,-1.85707497596741,-0.71719998121262,0.39160001277924,2.02248740196228,2.11667490005493,-6.23315000534058,-3.95958757400513,0.02076249942183,-9.01095008850098,-19.3459510803223,-29.7210006713867,-7.02795028686523,-10.5430507659912,-9.58905029296875,8.57400035858154,9.87405014038086,12.2190008163452,0.66577500104904,1.77512502670288,2.75976252555847,0.71403747797012,-0.61998748779297,-1.6938624382019,4.15373754501343,6.73406267166138,7.80065011978149,-30.8290519714355,-20.9580001831055,-9.68805027008057,-7.8870005607605,-7.52805042266846,-4.72905015945435,12.1300506591797,9.1560001373291,6.94500017166138,3.84463739395142,4.04868745803833,2.47637510299683,-2.59187507629395,-2.54416251182556,-1.41652500629425,7.50365018844604,5.18361234664917,1.98398745059967,1.6800000667572,16.5229511260986,25.9699516296387,0.8479500412941,8.69700050354004,18.5130004882813,6.16500043869019,0.4120500087738,-7.88100051879883,SHAKE
