gyro_x_0,gyro_y_0,gyro_z_0,acc_x_0,acc_y_0,acc_z_0,gyro_x_1,gyro_y_1,gyro_z_1,acc_x_1,acc_y_1,acc_z_1,gyro_x_2,gyro_y_2,gyro_z_2,acc_x_2,acc_y_2,acc_z_2,gyro_x_3,gyro_y_3,gyro_z_3,acc_x_3,acc_y_3,acc_z_3,gyro_x_4,gyro_y_4,gyro_z_4,acc_x_4,acc_y_4,acc_z_4,gyro_x_5,gyro_y_5,gyro_z_5,acc_x_5,acc_y_5,acc_z_5,gyro_x_6,gyro_y_6,gyro_z_6,acc_x_6,acc_y_6,acc_z_6,gyro_x_7,gyro_y_7,gyro_z_7,acc_x_7,acc_y_7,acc_z_7,gyro_x_8,gyro_y_8,gyro_z_8,acc_x_8,acc_y_8,acc_z_8,gyro_x_9,gyro_y_9,gyro_z_9,acc_x_9,acc_y_9,acc_z_9,gyro_x_10,gyro_y_10,gyro_z_10,acc_x_10,acc_y_10,acc_z_10,gyro_x_11,gyro_y_11,gyro_z_11,acc_x_11,acc_y_11,acc_z_11,gyro_x_12,gyro_y_12,gyro_z_12,acc_x_12,acc_y_12,acc_z_12,gyro_x_13,gyro_y_13,gyro_z_13,acc_x_13,acc_y_13,acc_z_13,gyro_x_14,gyro_y_14,gyro_z_14,acc_x_14,acc_y_14,acc_z_14,gyro_x_15,gyro_y_15,gyro_z_15,acc_x_15,acc_y_15,acc_z_15,gyro_x_16,gyro_y_16,gyro_z_16,acc_x_16,acc_y_16,acc_z_16,gyro_x_17,gyro_y_17,gyro_z_17,acc_x_17,acc_y_17,acc_z_17,gyro_x_18,gyro_y_18,gyro_z_18,acc_x_18,acc_y_18,acc_z_18,gyro_x_19,gyro_y_19,gyro_z_19,acc_x_19,acc_y_19,acc_z_19,gyro_x_20,gyro_y_20,gyro_z_20,acc_x_20,acc_y_20,acc_z_20,gyro_x_21,gyro_y_21,gyro_z_21,acc_x_21,acc_y_21,acc_z_21,gyro_x_22,gyro_y_22,gyro_z_22,acc_x_22,acc_y_22,acc_z_22,gyro_x_23,gyro_y_23,gyro_z_23,acc_x_23,acc_y_23,acc_z_23,gyro_x_24,gyro_y_24,gyro_z_24,acc_x_24,acc_y_24,acc_z_24,gyro_x_25,gyro_y_25,gyro_z_25,acc_x_25,acc_y_25,acc_z_25,gyro_x_26,gyro_y_26,gyro_z_26,acc_x_26,acc_y_26,acc_z_26,gyro_x_27,gyro_y_27,gyro_z_27,acc_x_27,acc_y_27,acc_z_27,gyro_x_28,gyro_y_28,gyro_z_28,acc_x_28,acc_y_28,acc_z_28,gyro_x_29,gyro_y_29,gyro_z_29,acc_x_29,acc_y_29,acc_z_29,motion_type
-0.12581250071526,-0.36533749103546,-0.70496249198914,-0.13089999556541,0.17696249485016,0.15619999170303,-2.79688739776611,-3.38813757896423,-3.64347505569458,2.08695006370544,2.03400015830994,-0.39405003190041,5.27295017242432,3.48495006561279,3.96600008010864,7.91100025177002,7.85205030441284,7.77705049514771,-1.10206246376038,-1.43673753738403,-1.85336244106293,-0.04042499884963,-0.16266250610352,-0.19923749566078,-3.88176250457764,-4.11757516860962,-4.40343761444092,-1.44705009460449,-2.13300013542175,-2.32695007324219,2.41800022125244,1.55895006656647,-0.00705000013113,7.62900018692017,7.9980001449585,7.56900024414063,-2.3066999912262,-2.67190003395081,-2.73418760299683,-0.18095000088215,-0.36300000548363,-0.60238748788834,-4.7100625038147,-4.88234996795654,-4.76506233215332,-1.7940000295639,-2.83395004272461,-4.70295000076294,-2.79000020027161,-5.20005035400391,-7.31505012512207,7.22505044937134,8.06895065307617,9.74895000457764,-2.34451246261597,-0.30676248669624,0.93706250190735,-0.77838748693466,0.77563750743866,2.75357508659363,-4.27762508392334,-1.28067493438721,2.28552508354187,-6.9190502166748,-13.8060007095337,-21.3439502716064,-9.1360502243042,-13.8979511260986,-14.0110502243042,12.3220510482788,15.5209503173828,16.7959499359131,0.79901248216629,-0.37881249189377,-1.79712498188019,4.09626245498657,3.340012550354,2.13537502288818,10.5784254074097,14.0358619689941,17.1683864593506,-22.4230518341064,-17.9340000152588,-14.4259510040283,-19.9360504150391,-26.2500019073486,-35.7360000610352,11.4150009155273,8.34495067596436,6.42495012283325,-0.95177501440048,2.27480006217957,6.1403374671936,-2.59146237373352,-3.91943740844727,-5.5075626373291,18.9715633392334,16.1543254852295,8.34638786315918,5.53500032424927,18.3799514770508,26.8530006408691,-55.4650535583496,-51.0409507751465,-18.0190505981445,13.5589504241943,18.5359516143799,6.81495046615601,4.47136259078979,2.03527498245239,0.75858747959137,-4.0257248878479,-0.49857500195503,3.19948744773865,6.41244983673096,5.23586225509644,2.72167491912842,22.6369514465332,23.9719505310059,24.1210517883301,-7.84200048446655,-4.19700002670288,-0.74400001764297,-5.96205043792725,-10.0099506378174,3.95400023460388,0.87958747148514,0.59125000238419,0.0671000033617,2.44694995880127,1.23378753662109,0.3920125067234,1.68190002441406,0.97583746910095,0.52745002508163,20.814001083374,17.3650512695313,14.8579511642456,0.12105000764132,0.74100005626678,1.34805011749268,4.69305038452148,2.81205010414124,2.42895007133484,-0.40081250667572,-0.66343748569489,-0.71719998121262,0.21615000069141,0.58134996891022,0.9979749917984,0.10711249709129,-0.27403751015663,-0.55137497186661,13.7400007247925,12.538950920105,10.9570503234863,1.25505006313324,1.27695000171661,1.19805002212524,3.50100016593933,5.36295032501221,7.17405033111572,-0.64872497320175,-0.55715000629425,-0.42638748884201,1.17631244659424,0.94421249628067,0.42872500419617,-0.63813751935959,-0.58684998750687,-0.518374979496,9.04095077514648,7.08300018310547,5.76495027542114,1.17599999904633,1.50195002555847,2.24805021286011,8.2369499206543,9.0100507736206,9.70095062255859,SWING_LEFT
-1.43797504901886,-1.75436246395111,-1.75326251983643,0.50325000286102,0.79516249895096,1.0089750289917,-4.71982479095459,-4.95811223983765,-5.04721260070801,-0.69000005722046,-2.16405010223389,-3.37005019187927,0.44100001454353,-0.80205005407333,-2.15895009040833,6.46605014801025,7.41795015335083,8.23905086517334,-1.63597500324249,-1.59431254863739,-1.64697504043579,1.01750004291534,0.62658751010895,0.10491249710321,-5.00939989089966,-4.86639976501465,-4.50848770141602,-4.42605018615723,-4.95195007324219,-6.13905048370361,-3.73800015449524,-5.26905012130737,-6.85395050048828,8.53095054626465,8.83995056152344,9.153000831604,-1.47592496871948,-1.0225875377655,-0.23100000619888,-0.23223750293255,-0.20171250402927,0.60582500696182,-3.94776248931885,-3.14751243591309,-1.79987502098084,-7.92405033111572,-9.38895034790039,-11.2930507659912,-7.23405027389526,-7.86600017547607,-9.98100090026856,10.5870008468628,11.8549509048462,13.1280002593994,0.82829999923706,1.72259998321533,2.24908757209778,2.26861238479614,3.46335005760193,2.8110499382019,0.93059998750687,4.92676258087158,9.43731212615967,-16.8109512329102,-23.026050567627,-26.2300510406494,-11.497950553894,-13.2690010070801,-16.8299999237061,14.2669506072998,15.3340511322021,15.5520009994507,2.15503740310669,1.84841251373291,1.72864997386932,0.33343750238419,-1.45158743858337,-1.52116250991821,13.8110494613647,17.4700622558594,20.1249122619629,-25.2820510864258,-19.6249504089355,-9.35295009613037,-23.5080013275146,-34.6849517822266,-47.7049522399902,12.9720010757446,8.55795001983643,5.41305017471313,1.62112498283386,4.11097478866577,5.13727474212646,-0.82238751649857,-1.5859249830246,-3.82538747787476,20.4583492279053,12.4610748291016,6.20592498779297,4.90305042266846,39.153003692627,43.0030517578125,-59.0209541320801,-38.169002532959,-12.2140502929688,4.93005037307739,15.7339506149292,11.3260507583618,1.21192502975464,0.44591251015663,0.83682501316071,-0.69891250133514,2.23561239242554,2.53247499465942,3.44726252555847,2.5029125213623,0.54944998025894,20.6149501800537,23.826000213623,18.7510509490967,1.30305004119873,0.90300005674362,1.69800007343292,-10.2430505752563,-1.57995009422302,4.19505023956299,0.45319998264313,-0.45814999938011,-0.63414996862411,1.39383745193481,0.37619999051094,0.82445001602173,0.17682500183582,-0.35461249947548,-0.67842501401901,14.60205078125,11.5890007019043,10.0459508895874,2.26005005836487,2.4250500202179,2.21205019950867,2.16795015335083,3.87000012397766,5.5620002746582,-0.63291251659393,-0.52662497758865,-0.38733750581741,1.22883749008179,1.21302497386932,0.71692502498627,-0.73466247320175,-0.55494999885559,-0.2398000061512,7.19295024871826,4.79595041275024,3.22800016403198,2.29395008087158,1.92300009727478,1.66905009746552,7.34205055236816,8.67000007629395,9.34995079040527,-0.32752498984337,-0.31886249780655,-0.28228750824928,0.04509999975562,-0.42405000329018,-0.59633749723434,0.05101250112057,0.1560624986887,0.0851124972105,2.65395021438599,3.1279501914978,3.97695016860962,2.05200004577637,2.53995013237,2.7529501914978,9.37305068969727,9.41400051116943,9.55500030517578,SWING_LEFT
0.04757500067353,-0.8955374956131,-2.04036259651184,-0.57433748245239,-1.1253000497818,-1.0922999382019,-3.80723738670349,-3.79747486114502,-4.0613374710083,-3.19605016708374,-2.58300018310547,-1.57800006866455,-0.07005000114441,-0.24405001103878,-2.87400007247925,8.7180004119873,7.46895027160645,7.03305053710938,-2.77818751335144,-2.63161253929138,-1.70060002803802,-0.61957502365112,-0.11137499660254,0.59235000610352,-4.06738758087158,-3.62395000457764,-2.75536251068115,-2.37000012397766,-4.25804996490479,-6.34995031356812,-5.67405033111572,-6.68100023269653,-6.33900022506714,8.82299995422363,13.1730003356934,16.0020008087158,-0.3603875041008,0.87353748083115,1.50878751277924,1.59046244621277,2.56905007362366,3.03215003013611,-1.68272495269775,-0.59166252613068,0.31611248850822,-7.58895015716553,-7.48605012893677,-6.71595048904419,-6.71700048446655,-7.14300012588501,-8.21295070648193,16.2460498809814,14.8390502929688,11.9550008773804,1.34997498989105,0.95534998178482,0.65972501039505,3.12248754501343,3.37782502174377,3.11396241188049,1.3642749786377,2.89877510070801,5.82106256484985,-6.86400032043457,-9.4680004119873,-17.1010513305664,-10.6249504089355,-12.9310503005981,-14.0560503005981,8.66805076599121,7.12905025482178,8.05695056915283,0.81606251001358,1.49531245231628,2.14032506942749,0.61682498455048,-2.76003742218018,-1.53339993953705,10.0689878463745,14.1470994949341,19.5164756774902,-26.2300510406494,-25.7059516906738,-3.65805006027222,-16.0330505371094,-22.1149501800537,-47.4490509033203,11.6800508499146,12.4789505004883,3.74505019187927,2.46661257743835,4.90146255493164,4.99922513961792,0.57887500524521,-2.20659995079041,-4.38968753814697,19.0851383209229,12.0834999084473,7.28227472305298,8.71005058288574,31.4980506896973,33.9079513549805,-53.1750030517578,-33.6330032348633,-14.3119506835938,7.23405027389526,12.5920505523682,5.15505027770996,0.72682499885559,0.45814999938011,0.70606249570847,-0.43023750185966,3.42182493209839,2.51528739929199,3.51573753356934,1.67461252212524,1.23475003242493,24.4870510101318,19.2580509185791,16.4560508728027,-0.43305000662804,0.49395000934601,0.4650000333786,-10.1560506820679,5.30295038223267,5.28600025177002,-0.02199999988079,-0.3091000020504,-0.29205000400543,1.02368748188019,0.94668751955032,1.03949999809265,0.05101250112057,-0.34127500653267,-0.31556248664856,14.0989503860474,11.6419506072998,7.63800048828125,2.11199998855591,1.72905004024506,1.17599999904633,3.09195017814636,4.82505035400391,7.8870005607605,-0.27376249432564,-0.49362498521805,-0.48014998435974,0.9259250164032,-0.02708750031888,-0.44604998826981,-0.21422499418259,-0.45732501149178,-0.59289997816086,6.56595039367676,6.07605028152466,5.5009503364563,1.38900005817413,2.21205019950867,1.99005007743835,8.29395008087158,8.81400012969971,9.48405075073242,-0.45567500591278,-0.44591251015663,-0.39462500810623,-0.40081250667572,-0.12361250072718,0.05719999969006,-0.54642498493195,-0.38156250119209,-0.23856249451637,4.51800012588501,3.70905017852783,3.48405027389526,2.02605009078979,2.13600015640259,1.95900011062622,9.37604999542236,9.28995037078857,9.66495037078857,SWING_LEFT
-0.05018749833107,-0.68419998884201,-1.25839996337891,0.28448748588562,0.50929999351501,0.78058749437332,-4.68324995040894,-5.4064998626709,-5.75588750839233,5.66400003433228,3.31005024909973,0.14400000870228,4.88295030593872,3.25605010986328,1.5090000629425,5.78400039672852,5.61900043487549,5.87505006790161,-1.69207501411438,-2.06112504005432,-2.35798740386963,1.27902495861053,1.67117500305176,1.6356999874115,-5.82298755645752,-5.95251226425171,-6.13456249237061,-2.49000000953674,-3.63795018196106,-3.99495029449463,0.0709500014782,-1.99095010757446,-5.23605012893677,5.91300010681152,5.63100004196167,5.86305046081543,-2.53632497787476,-2.32127499580383,-1.81431245803833,1.05668747425079,0.27348750829697,-0.02213750034571,-6.11875009536743,-5.74612474441528,-4.7711124420166,-4.85205030441284,-7.07895040512085,-9.80505084991455,-8.29200077056885,-9.32805061340332,-10.2970504760742,7.18395042419434,10.0600500106812,11.7859506607056,-1.0225875377655,0.68406248092651,0.92729997634888,0.42625001072884,1.71751248836517,1.74693751335144,-2.94593739509583,3.43997502326965,6.89493751525879,-14.3110504150391,-23.881950378418,-22.0830001831055,-10.7250003814697,-9.62700080871582,-11.2440004348755,13.5439510345459,14.5849504470825,12.7140007019043,0.59619998931885,0.41662499308586,1.14097499847412,1.43412494659424,0.08786249905825,-1.23406255245209,9.81736278533936,15.0083999633789,17.1133880615234,-18.0559501647949,-11.9730005264282,-7.58700037002563,-14.8939504623413,-25.4340019226074,-33.3649520874023,9.62505054473877,10.0030508041382,11.2759504318237,3.4684374332428,3.84958744049072,3.51243758201599,-1.67145001888275,-1.60545003414154,-2.51570010185242,16.5109996795654,12.4953126907349,8.44167518615723,12.4650001525879,27.2749519348145,30.3660011291504,-44.6730003356934,-32.9170532226563,-14.3430004119873,9.33795070648193,7.27995014190674,4.36995029449463,1.00292503833771,0.40314999222755,0.52401250600815,-0.9787250161171,1.41707503795624,2.46042490005493,3.91159987449646,2.72896242141724,1.22374999523163,24.8580017089844,22.7040004730225,16.2049503326416,-1.69905006885529,-0.24195000529289,-0.37800002098083,-3.02595019340515,0.6439500451088,4.66395044326782,0.47891250252724,0.19415000081062,-0.40081250667572,1.55141246318817,0.82816249132156,0.3920125067234,1.00141251087189,0.84631252288818,0.14258749783039,13.0870504379272,11.4259510040283,11.0340003967285,0.41505002975464,1.27695000171661,1.74300003051758,4.82895040512085,4.44405031204224,6.52800035476685,-0.45210000872612,-0.3103374838829,-0.22605000436306,0.41648748517036,0.09019999951124,-0.15166249871254,-0.10793749988079,-0.01746249943972,0.03135000169277,9.42105007171631,6.27405023574829,5.90295028686523,1.52805006504059,1.20000004768372,1.49205005168915,8.05305004119873,9.5149507522583,9.53595066070557,-0.18081249296665,-0.20899999141693,-0.29686251282692,-0.26166251301765,-0.26042500138283,-0.13695000112057,0.00577499996871,-0.08470000326633,-0.2043250054121,5.73795032501221,5.84805011749268,5.94195032119751,2.00400018692017,2.36805009841919,2.36505007743835,9.3420000076294,8.9040002822876,8.32095050811768,SWING_LEFT
0.47643750905991,0.25533750653267,-0.10504999756813,-0.24818749725819,-0.25176250934601,-0.18466250598431,-2.5280749797821,-3.47118759155273,-4.38019990921021,5.29995012283325,5.58795022964478,4.72605037689209,6.02400016784668,5.81595039367676,4.62195014953613,10.4530506134033,9.20100021362305,8.34495067596436,-0.34938749670982,-0.62796247005463,-1.0922999382019,0.1379124969244,0.44453749060631,0.604587495327,-5.02163743972778,-5.45902490615845,-5.8927001953125,2.86695003509521,1.02404999732971,-0.09000000357628,3.61905026435852,2.10900020599365,-0.4240500330925,8.52405071258545,8.18205070495605,7.72200059890747,-1.48692500591278,-1.42697501182556,-1.29263746738434,1.22031247615814,1.24959993362427,0.83668750524521,-6.28856229782104,-6.08932495117188,-5.46136236190796,-3.47100019454956,-5.58195018768311,-8.3929500579834,-4.63500022888184,-7.21200037002563,-8.74905014038086,8.28194999694824,8.99505043029785,9.99300003051758,-0.54119998216629,0.30414998531342,1.05916249752045,0.73535001277924,1.05421245098114,1.47207498550415,-1.66072499752045,1.19198751449585,7.23332500457764,-17.6800498962402,-20.6950511932373,-18.1039505004883,-8.98305034637451,-9.6409502029419,-12.151050567627,13.2859506607056,14.881950378418,11.8090505599976,0.81730002164841,0.77824997901917,1.45378744602203,1.63088750839233,0.2771999835968,-1.5969250202179,9.86122512817383,15.5043621063232,17.7974491119385,-15.6199502944946,-13.2030010223389,-8.33295059204102,-14.473051071167,-26.5090503692627,-36.9250526428223,10.0939502716064,11.5459508895874,11.4820508956909,3.47201251983643,5.08832502365112,3.74687504768372,-1.86697494983673,-1.14730000495911,-0.69657498598099,16.7040500640869,13.3639001846313,7.27608728408813,9.99105072021484,22.2040519714355,24.1470012664795,-45.7810516357422,-35.9899520874023,-8.94705009460449,10.0819501876831,13.498950958252,-4.89000034332275,1.5613124370575,0.93706250190735,1.04334998130798,0.14643749594688,0.54106247425079,0.97597497701645,5.35562515258789,3.47297501564026,1.76261246204376,24.5130004882813,26.0569515228271,25.5210018157959,-4.15904998779297,-1.59900009632111,-0.72795003652573,-7.11495018005371,0.56805002689362,3.95805025100708,0.76958751678467,0.27843749523163,-0.03918749839067,1.82022500038147,2.40666246414185,2.12437510490417,0.65931248664856,0.24639999866486,0.20982499420643,21.4069519042969,15.8839511871338,11.9190006256104,-0.69195002317429,-0.26805001497269,0.30495002865791,1.93605005741119,1.76595008373261,3.93900012969971,-0.13199999928474,-0.3103374838829,-0.60967499017715,1.24726247787476,0.5020124912262,0.22948749363422,0.19016249477863,0.007012499962,-0.20556250214577,10.1010007858276,9.78000068664551,9.17895030975342,1.24995005130768,1.74795007705688,1.45395004749298,6.01395034790039,6.27195024490356,6.2440505027771,-0.63896250724792,-0.47286251187325,-0.40438750386238,0.06943749636412,-0.11866249889135,-0.16018749773502,-0.20074999332428,-0.0662750005722,0.00329999998212,7.47600030899048,6.12405014038086,5.87505006790161,1.16895008087158,1.36005008220673,1.87005007266998,8.40000057220459,9.80400085449219,9.67305088043213,SWING_LEFT
0.27967500686646,0.19538749754429,-0.16981250047684,-0.1907124966383,-0.07218749821186,-0.14190000295639,-0.24103750288486,-1.02300000190735,-2.25197505950928,2.26605010032654,4.92705011367798,6.57300043106079,5.9520001411438,6.48600053787231,6.58200025558472,8.82299995422363,7.92300033569336,6.79905033111572,-1.25592494010925,-1.65549993515015,-2.41298747062683,-0.13818749785423,0.4433000087738,2.10237503051758,-4.14438724517822,-4.97763729095459,-6.29708766937256,4.30695009231567,4.05600023269653,1.49100005626678,5.36805009841919,4.04295015335083,-0.99795007705688,7.36305046081543,8.12700080871582,7.70595026016235,-2.35798740386963,-1.48073744773865,-1.00801253318787,2.18542504310608,1.02726244926453,0.41525000333786,-6.44737482070923,-5.81817483901978,-5.19749975204468,-1.55400002002716,-7.02405023574829,-8.14695072174072,-3.25200009346008,-6.63300037384033,-8.80395030975342,9.72495079040527,12.2550001144409,12.5560503005981,0.19786250591278,0.78677499294281,0.80258750915527,0.19415000081062,0.68516248464584,2.0963249206543,-1.96611249446869,0.95864999294281,7.56813764572144,-15.9739503860474,-19.6810512542725,-20.3460006713867,-10.4359502792358,-10.6339502334595,-13.921950340271,14.4199504852295,13.6590003967285,10.2540006637573,0.58877497911453,1.93022501468658,2.99186253547669,1.19955003261566,-3.05690002441406,-3.27676248550415,10.5234251022339,15.8769874572754,17.7743492126465,-17.5650005340576,-11.0209503173828,-5.04795026779175,-17.7439498901367,-30.0930023193359,-39.6240005493164,10.0630502700806,10.0870504379272,7.84200048446655,4.42626237869263,4.89898729324341,5.04322481155396,-2.05259990692139,-2.15531253814697,-3.0494749546051,16.0797996520996,12.7274122238159,8.88758754730225,15.2089509963989,24.4600505828857,28.7770519256592,-46.501953125,-32.9479522705078,-16.1160011291504,5.87505006790161,5.77005004882813,4.389000415802,3.65282487869263,1.638312458992,0.44591251015663,-2.61098742485046,-0.56704998016357,1.41707503795624,5.93106269836426,3.90183758735657,2.18033742904663,27.9540004730225,26.4870014190674,25.4749507904053,-5.57805013656616,-1.26105010509491,0.44895002245903,-5.90205049514771,-9.77400016784668,-5.14800024032593,0.32120001316071,0.4629625082016,0.39696249365807,2.09013748168945,2.04256248474121,1.98508751392365,0.93788748979568,0.27692499756813,0.01058750040829,22.3210506439209,18.318000793457,14.6880006790161,0.18300001323223,-0.33300000429153,0.34605002403259,1.03694999217987,3.21195006370544,3.38895010948181,0.11728750169277,-0.38981249928474,-0.54491251707077,1.74927496910095,0.8123499751091,0.54229998588562,-0.1567499935627,-0.60637497901917,-0.71995002031326,12.1990509033203,9.65100002288818,8.20995044708252,1.28100001811981,1.39605009555817,1.31205010414124,4.08000040054321,6.61005020141602,7.31595039367676,-0.50586247444153,-0.4325749874115,-0.4130499958992,0.09638749808073,-0.259187489748,-0.5157625079155,-0.54408746957779,-0.36203750967979,-0.2080374956131,4.99905014038086,4.40505027770996,4.4170503616333,1.61205005645752,1.55895006656647,1.49400007724762,8.76600074768066,8.9239501953125,8.75100040435791,SWING_LEFT
-2.50937509536743,-2.18074989318848,-1.9071249961853,1.72370004653931,1.68464994430542,1.2227874994278,-4.4522500038147,-4.04909992218018,-3.87557506561279,-3.61905026435852,-5.20305013656616,-5.55795049667358,1.65495002269745,-0.68205004930496,-2.20905017852783,8.29905033111572,10.242000579834,10.7899503707886,-1.69455003738403,-1.37692499160767,-0.9675874710083,0.74758750200272,0.54106247425079,0.54834997653961,-3.68142509460449,-3.39061236381531,-2.91293740272522,-5.96205043792725,-6.73200035095215,-8.31405067443848,-3.85500025749207,-5.58795022964478,-7.35405015945435,10.9909505844116,11.2570505142212,11.4310503005981,-0.46667498350143,0.02309999987483,0.5350124835968,0.54711252450943,0.26867499947548,0.08910000324249,-2.02716255187988,-0.63442498445511,1.01364994049072,-10.6710004806519,-12.6450004577637,-13.9380006790161,-9.43095016479492,-11.5009508132935,-12.5490007400513,11.5339508056641,12.0220508575439,11.860050201416,0.6182000041008,0.17833749949932,-0.21628749370575,0.03891250118613,0.24296249449253,0.1891999989748,3.02211236953735,5.40196228027344,8.02381229400635,-15.2509508132935,-15.8710508346558,-16.6849498748779,-13.0030508041382,-13.9320011138916,-15.4819507598877,9.74400043487549,6.84900045394897,6.80805015563965,0.35186249017715,1.54178750514984,3.25462508201599,-2.228600025177,-3.51986241340637,-4.51563739776611,14.4219627380371,17.3772506713867,19.1168994903564,-17.9980506896973,-13.3489503860474,-3.82005023956299,-24.7069511413574,-34.8619499206543,-47.2819519042969,9.97395038604736,10.4809503555298,9.54600048065186,4.19402503967285,3.22286248207092,1.32550001144409,-4.0257248878479,-3.75567507743835,-1.16077494621277,14.2019624710083,9.38107490539551,4.20475006103516,26.2500019073486,32.6419525146484,19.3060512542725,-43.8859519958496,-20.2830009460449,-1.6560001373291,-2.89200019836426,-3.61200022697449,-3.02805018424988,1.13863754272461,1.6603125333786,1.57107496261597,0.38719999790192,1.42065000534058,1.2667875289917,3.97746253013611,3.11492490768433,2.50538754463196,15.2410507202148,16.1449508666992,15.3750009536743,-2.76195001602173,-4.36695003509521,-3.71400022506714,1.9410001039505,6.40095043182373,5.61705017089844,1.3084499835968,0.78429996967316,0.62177497148514,0.91973751783371,0.43724998831749,0.42377498745918,1.88100004196167,0.86088746786118,0.62755000591278,14.3740510940552,11.9220008850098,9.96195030212402,-2.5530002117157,-1.23000001907349,-0.88800007104874,5.17200040817261,5.21895027160645,5.94705009460449,0.47767499089241,0.18933749198914,0.17957499623299,0.47506248950958,0.11591249704361,-0.20899999141693,0.57626247406006,0.82307499647141,0.86460000276566,8.24100017547607,6.49695014953613,6.80595016479492,-0.60795003175735,-0.28005000948906,0.11100000888109,6.50205039978027,7.08795022964478,7.44000053405762,-0.08071249723434,-0.1380500048399,-0.04276249930263,-0.32023748755455,-0.36671251058578,-0.45100000500679,0.71183747053146,0.59097498655319,0.51026248931885,7.55700016021729,8.03805065155029,7.91295051574707,0.5950500369072,0.23595000803471,0.69495004415512,7.12200021743774,7.81305027008057,8.65995025634766,SWING_LEFT
-0.90282499790192,-2.19422507286072,-3.29257488250732,0.18796250224113,1.55512499809265,1.79575002193451,-3.95009994506836,-4.83463764190674,-5.72646236419678,1.51695013046265,-1.25295007228851,-3.79395008087158,4.23705005645752,1.93005013465881,-4.39800024032593,6.34605026245117,5.18100023269653,6.11700010299683,-3.66877508163452,-3.27181243896484,-2.64261245727539,1.30955004692078,0.72916251420975,1.14950001239777,-5.78022480010986,-3.65694999694824,-2.03334999084473,-5.58405017852783,-14.4300003051758,-16.3519515991211,-7.80795049667358,-6.64305019378662,-7.81995058059692,7.37295055389404,13.9320011138916,15.247950553894,-0.87725001573563,-0.20281249284744,0.20391249656677,2.0596125125885,1.62841248512268,0.74882501363754,1.84566247463226,3.67578744888306,5.10386228561401,-18.256950378418,-16.0150508880615,-12.4680004119873,-9.69105052947998,-11.8500003814697,-14.7910509109497,16.17405128479,14.451000213623,12.4009504318237,0.57777500152588,0.90530002117157,1.4745500087738,-0.174899995327,-0.61338752508163,-0.48757499456406,6.29145002365112,7.59494972229004,9.56931209564209,-9.97695064544678,-9.5110502243042,-11.3599500656128,-17.1769504547119,-19.2559509277344,-21.2130012512207,11.0560503005981,9.92100048065186,10.4719505310059,1.9852249622345,2.0622251033783,2.14156246185303,-0.11495000123978,-0.48757499456406,-1.35258746147156,12.5173120498657,15.6069374084473,17.4700622558594,-14.1739511489868,-11.9730005264282,-2.36295008659363,-25.9129505157471,-34.5850524902344,-44.9560508728027,10.6819505691528,9.91695022583008,9.2160005569458,2.32856249809265,5.21661233901978,5.30461263656616,-1.71545004844666,-3.73491239547729,-3.24252510070801,17.8634490966797,13.0083246231079,9.85146236419678,6.56895017623901,24.8430004119873,28.0519504547119,-51.7990531921387,-38.9020500183105,-25.0519504547119,9.1200008392334,11.2830009460449,1.26405000686646,1.38902497291565,1.12144994735718,2.23685002326965,2.19889998435974,2.37971258163452,0.39077499508858,6.01892518997192,4.90723752975464,3.04040002822876,25.5880508422852,23.1439514160156,19.7629508972168,-9.10800075531006,-8.14305019378662,-8.42295074462891,-8.56800079345703,3.55605006217957,6.96900033950806,1.92774999141693,1.71641254425049,1.59431254863739,0.770687520504,1.28260004520416,1.09078752994537,2.41862487792969,1.94452500343323,1.54756247997284,17.6569499969482,15.7429504394531,10.8900003433228,-7.81500053405762,-6.57105016708374,-3.42405009269714,4.53299999237061,5.45205020904541,6.38505029678345,1.40497493743896,0.7598249912262,0.32986250519753,0.81344997882843,-0.03437500074506,-0.2419999986887,1.45103752613068,0.90612500905991,0.57254999876022,10.3450508117676,9.69600009918213,9.22500038146973,-2.00805020332336,1.65705013275146,2.71500015258789,5.61705017089844,4.80300045013428,4.72905015945435,-0.10999999940395,-0.42391249537468,-0.55962496995926,-0.28118750452995,-0.18218749761581,-0.15647499263287,0.18658749759197,-0.12498749792576,-0.34127500653267,9.14100074768066,8.16000080108643,7.06605052947998,3.16200017929077,3.1189501285553,3.16500020027161,4.93905019760132,5.72895050048828,7.17405033111572,SWING_LEFT
0.13681249320507,-0.15771250426769,-0.49486249685287,-1.24382495880127,-0.16142499446869,1.23255002498627,-1.36867499351501,-2.15545010566711,-3.34179997444153,3.39600014686584,5.88705015182495,6.8730001449585,4.41795015335083,4.13100004196167,3.24795007705688,10.5079507827759,9.96900081634522,9.4480504989624,-0.72201251983643,-0.71472501754761,-0.84796249866486,2.2893750667572,2.69004988670349,2.0596125125885,-4.30319976806641,-5.43578767776489,-5.94522476196289,4.51095008850098,0.57405000925064,-0.22095000743866,2.15205001831055,-2.05305004119873,-4.40295028686523,9.24900054931641,8.60100078582764,7.93995046615601,-1.55278754234314,-1.71902501583099,-1.49792504310608,1.64188754558563,1.89227497577667,2.12190008163452,-6.44737482070923,-6.31661224365234,-5.41860008239746,-3.31095004081726,-5.39205026626587,-9.07500076293945,-7.68900012969971,-8.86395072937012,-11.6460008621216,6.23205041885376,6.66000032424927,7.82505035400391,-1.23516249656677,-1.01406252384186,-0.84796249866486,2.07308745384216,0.862399995327,0.61187499761581,-4.16762495040894,0.40645000338554,3.70383739471436,-12.5860509872437,-19.4080505371094,-21.5779514312744,-13.4910001754761,-15.6190509796143,-17.4400501251221,8.29200077056885,9.18900012969971,8.45700073242188,-1.21192502975464,-0.50214999914169,0.86858749389648,0.01814999990165,-2.60122489929199,-4.22111225128174,10.0164623260498,16.7382869720459,19.5640506744385,-18.1249504089355,-14.3629503250122,-8.23500061035156,-22.9939517974854,-33.1279525756836,-44.0899505615234,5.2819504737854,7.38495016098022,7.213050365448,2.99804997444153,3.60030007362366,3.82634997367859,-2.44117498397827,-2.2506000995636,-3.97072505950928,19.2867126464844,15.216025352478,9.3297872543335,17.0950508117676,31.5390014648438,39.1480522155762,-62.3380546569824,-52.101001739502,-28.078950881958,5.45400047302246,6.49005031585693,5.46105003356934,3.18491244316101,1.49160003662109,0.16981250047684,-4.94683742523193,-2.48393750190735,0.42872500419617,6.00682497024536,4.86447477340698,4.83271265029907,27.1000518798828,19.0170001983643,16.4749507904053,-9.97605037689209,-4.79295015335083,-3.82395029067993,0.81600004434586,-6.35205030441284,-2.31195020675659,0.19304999709129,0.95782500505447,1.47083747386932,2.02784991264343,2.24289989471436,1.810462474823,4.55413770675659,3.79912495613098,2.89753746986389,18.9210014343262,20.695951461792,19.8160514831543,-4.16595029830933,-3.5029501914978,-2.62995004653931,5.98305034637451,10.4890508651733,9.32295036315918,1.40497493743896,1.01034998893738,0.63648748397827,1.11402499675751,0.53006249666214,0.42377498745918,2.06923747062683,1.46685004234314,1.09917497634888,17.9179515838623,15.5440511703491,13.6300506591797,-1.74705004692078,-1.05300009250641,-0.85395002365112,6.42105007171631,4.83405017852783,4.78605031967163,0.35062500834465,0.07809999585152,-0.10271249711514,0.62534999847412,0.81963747739792,0.6876375079155,0.90736252069473,0.7070249915123,0.57378751039505,11.6899509429932,10.5580501556396,9.20595073699951,-0.06495000422001,0.32700002193451,0.55605000257492,5.28900003433228,5.55900049209595,6.43695020675659,SWING_LEFT
0.10257499665022,-0.09404999762774,-0.3091000020504,0.20996250212193,0.20267499983311,0.41525000333786,-1.5274875164032,-1.85982501506805,-2.25445008277893,0.29895001649857,0.2710500061512,0.26100000739098,1.49205005168915,1.54005002975464,1.61400008201599,10.0699501037598,9.76605033874512,9.67995071411133,-0.51067501306534,-0.46309998631477,-0.43738749623299,1.54659998416901,1.88979995250702,1.95098745822906,-3.15851259231567,-3.67166256904602,-4.2421498298645,-0.52995002269745,-0.58799999952316,-0.85095006227493,1.07805001735687,-0.2710500061512,-1.98900008201599,9.65295028686523,9.53595066070557,9.06494998931885,-0.37757501006126,-0.20281249284744,0.34443750977516,1.65041244029999,1.63693749904633,1.86779999732971,-4.97144985198975,-4.69053745269775,-3.55918741226196,-3.73395013809204,-6.26295042037964,-8.43405055999756,-5.65200042724609,-6.49905014038086,-10.0219507217407,8.16000080108643,7.81095027923584,6.59295034408569,0.84534996747971,0.62548750638962,-1.0702999830246,0.3077250123024,-0.89072501659393,-0.14794999361038,-0.79942500591278,2.11199998855591,9.23573780059814,-13.4250001907349,-18.8569507598877,-20.5039501190186,-13.3840503692627,-12.9480009078979,-16.605001449585,7.20795011520386,7.33695030212402,4.42694997787476,-1.36963748931885,0.598537504673,1.77265000343323,-0.06242499873042,-3.14971256256104,-2.61332488059998,12.7249374389648,18.8457508087158,20.1297245025635,-18.7399501800537,-11.1310501098633,-0.93900007009506,-21.6660003662109,-39.9670524597168,-53.0490036010742,7.08105039596558,10.5150003433228,7.29600048065186,3.15191245079041,4.08897495269775,4.39078760147095,-3.26576256752014,-4.76849985122681,-5.05931234359741,16.671049118042,13.2123746871948,9.35907459259033,19.2510013580322,25.4149513244629,29.7919521331787,-52.5439529418945,-35.4319534301758,-20.4910507202148,6.13305044174194,7.87605047225952,4.02104997634888,3.23262500762939,1.94493746757507,1.810462474823,-2.72456240653992,-0.18823750317097,0.52882498502731,7.38361263275146,5.90411233901978,4.33551263809204,23.0770511627197,23.355001449585,24.8860511779785,-10.16100025177,-7.19295024871826,-5.63295030593872,-4.13295030593872,-3.25500011444092,3.96600008010864,1.64312493801117,0.97487497329712,0.48620000481606,0.99316251277924,1.82875001430511,1.35107493400574,1.78694999217987,1.08446252346039,0.66054999828339,21.9070510864258,18.2869510650635,12.0079507827759,-3.32205009460449,-1.75200009346008,-0.27795001864433,1.86705005168915,1.08195006847382,6.42105007171631,0.33109998703003,-0.38362500071526,-0.46791249513626,0.65106248855591,0.31501248478889,0.07562500238419,0.41139999032021,-0.02364999987185,-0.01622499898076,11.2990503311157,8.67705059051514,6.95400047302246,0.18105000257492,1.00905001163483,1.36995005607605,6.4680004119873,6.088050365448,8.00699996948242,-0.36533749103546,-0.20033749938011,-0.11247500032187,-0.22247499227524,-0.08689999580383,0.12691250443459,0.01911249943078,0.00934999994934,-0.08470000326633,6.6259503364563,7.41795015335083,7.27200031280518,0.85800004005432,0.63795000314713,0.67095005512238,9.20400047302246,9.04095077514648,9.04800033569336,SWING_LEFT
0.15138749778271,0.28709998726845,0.4129124879837,-0.20542499423027,-0.1870000064373,-0.35928750038147,-0.18727499246597,-0.63566249608994,-1.14138746261597,2.14394998550415,1.68705010414124,1.7370001077652,1.52505004405975,1.81005012989044,2.28194999694824,10.9650001525879,11.1750001907349,11.0010004043579,0.37496250867844,-0.09899999946356,-0.98477500677109,-0.42405000329018,0.01333750039339,0.73039996623993,-1.9404000043869,-3.19508743286133,-4.57572507858276,2.58705019950867,4.68495035171509,4.25505018234253,2.58300018310547,1.60395002365112,-0.22800001502037,9.44295024871826,6.64605045318604,4.24500036239624,-2.48861241340637,-2.56437492370605,-1.07153749465942,1.70665001869202,1.80798745155334,1.51964998245239,-6.01975011825562,-6.08203744888306,-5.47002506256104,-0.77205002307892,-2.87505006790161,-7.15095043182373,-5.91300010681152,-9.07395076751709,-12.2880001068115,5.26995038986206,7.27695035934448,11.3209505081177,0.05376249924302,0.46543750166893,0.90530002117157,0.90763747692108,-0.45828750729561,-0.00508749997243,-2.42054986953735,2.76924991607666,7.58766269683838,-14.4900007247925,-18.4650001525879,-13.2750005722046,-13.2190504074097,-13.6350002288818,-17.2600517272949,10.113000869751,10.0990505218506,8.95500087738037,1.51607501506805,3.00286245346069,3.44148755073547,0.07067500054836,-1.80454993247986,-1.970787525177,10.0310373306274,15.0352125167847,17.3344879150391,-12.9970502853394,-10.6140003204346,-7.04400014877319,-19.5690002441406,-30.0889511108398,-38.9160003662109,10.0099506378174,9.58395004272461,5.92995023727417,3.90816259384155,3.7725875377655,4.26002502441406,-3.21076250076294,-3.50638747215271,-3.76915001869202,18.7919864654541,16.0956115722656,11.6632995605469,7.66695022583008,21.5670013427734,32.1510009765625,-57.1000518798828,-51.2160034179688,-30.0810012817383,4.63800001144409,0.49605002999306,4.0639500617981,4.13421249389648,2.81352496147156,1.80193746089935,-4.01953744888306,-2.19793748855591,0.17215000092983,8.20215034484863,6.63478755950928,5.58524990081787,28.8730506896973,24.6019515991211,25.2670516967773,-11.0599508285522,-9.02100086212158,-6.01095008850098,1.07504999637604,-6.15495014190674,-3.66000008583069,1.72136247158051,1.98893749713898,1.92774999141693,1.83122503757477,2.25513744354248,1.82998752593994,4.03122520446777,2.7497251033783,1.98247504234314,28.045051574707,24.6040515899658,20.2200012207031,-5.99895048141479,-4.51800012588501,-2.30205011367798,1.732950091362,3.92205023765564,2.64195013046265,1.2974499464035,0.30291250348091,-0.48014998435974,1.27407503128052,0.83063751459122,0.6375874876976,1.46451246738434,0.99041247367859,0.44549998641014,17.5090503692627,15.5350503921509,14.4409503936768,-1.45305001735687,-0.09600000083447,0.54900002479553,0.46200001239777,-0.11805000901222,2.02995014190674,-0.77219998836517,-0.62438750267029,-0.23952500522137,0.5850625038147,0.50929999351501,0.36272498965263,-0.10546249896288,-0.35351249575615,-0.088275000453,12.9910507202148,10.2820501327515,7.11705017089844,0.6810000538826,0.54900002479553,0.14699999988079,5.45595026016235,8.5290002822876,8.95005035400391,SWING_LEFT
0.2773374915123,0.41662499308586,0.32615000009537,0.66934996843338,1.03949999809265,1.73593747615814,-0.10298749804497,-0.68942499160767,-2.94841241836548,3.15900015830994,3.91695022583008,6.58995008468628,0.72600001096725,1.43700003623962,1.42995011806488,11.5129508972168,11.1490507125854,9.22800064086914,0.28091248869896,0.38843750953674,0.04881250113249,1.70651245117188,0.41648748517036,-0.07342500239611,-4.26896238327026,-5.52859973907471,-5.97451257705688,4.87200021743774,-1.42005002498627,-2.38905000686646,0.54405003786087,-1.93800008296967,-3.99405026435852,8.89995002746582,8.64795017242432,7.31295013427734,-1.13629996776581,-1.18387496471405,1.29126250743866,-0.08813749998808,0.04743750020862,0.17215000092983,-5.87193727493286,-5.48212480545044,-3.77671241760254,-6.08400011062622,-7.90005016326904,-12.8940010070801,-7.28400039672852,-9.40904998779297,-14.4799509048462,7.17705011367798,9.54600048065186,17.2560005187988,3.73353743553162,3.94116258621216,3.23991250991821,1.75546252727509,2.42371249198914,1.94603753089905,4.08498764038086,8.66401290893555,12.6345996856689,-29.1589508056641,-27.3900012969971,-22.0140018463135,-13.5919504165649,-16.9950008392334,-22.2520503997803,16.7080516815186,13.4440507888794,9.24900054931641,2.2710874080658,1.60654997825623,0.98958748579025,0.4433000087738,-0.81386250257492,-0.42776250839233,16.0943756103516,19.3674240112305,21.4406490325928,-16.8930015563965,-12.4710006713867,-2.59305024147034,-29.416051864624,-38.5600509643555,-53.9719543457031,6.31305027008057,4.21905040740967,1.90995013713837,0.11357499659061,0.18081249296665,3.03833746910095,1.63088750839233,2.5482873916626,0.60211247205734,20.064962387085,15.6558876037598,10.0286998748779,18.6000003814697,33.5940017700195,40.1170501708984,-63.4890022277832,-48.1840515136719,-22.3309516906738,0.8400000333786,10.2490501403809,25.8010520935059,4.58631229400635,3.8923499584198,2.26861238479614,-2.77832508087158,-3.29999995231628,-1.41734993457794,6.9889874458313,6.17292499542236,5.6451997756958,28.1410522460938,18.6389999389648,19.6099510192871,-10.687050819397,-7.74105024337768,-6.93000030517578,15.9540004730225,0.64695000648499,-4.67895030975342,1.22292494773865,1.20449995994568,0.95534998178482,0.79763752222061,1.83727502822876,1.23378753662109,4.42337512969971,2.87677502632141,0.8731250166893,23.5729503631592,24.1300506591797,17.0710506439209,-5.69505023956299,-3.57795023918152,-0.67005002498627,-0.51794999837875,5.29395008087158,3.50805020332336,0.21257500350475,-0.34938749670982,-0.31157499551773,0.76711249351501,0.47506248950958,0.19538749754429,0.43092501163483,0.20487499237061,0.01058750040829,13.6830005645752,11.1919507980347,8.79600048065186,-0.22305001318455,-0.04605000093579,0.14505000412464,2.16795015335083,3.74295020103455,8.76600074768066,-0.23223750293255,-0.6182000041008,-0.67196249961853,0.2771999835968,0.21848750114441,-0.11618749797344,-0.16169999539852,-0.35585001111031,-0.28132501244545,8.36295032501221,6.09000015258789,5.21895027160645,0.39105001091957,0.52305001020432,0.51794999837875,8.78700065612793,7.95405054092407,9.09405040740967,SWING_LEFT
-0.77577501535416,-1.2694000005722,-1.71050000190735,0.22591249644756,0.18314999341965,0.12196250259876,-6.55118751525879,-6.57800006866455,-6.16027498245239,-1.72200012207031,-3.63105010986328,-6.18495035171509,-4.31895017623901,-5.91105031967163,-6.43995046615601,5.38905048370361,5.34900045394897,6.44700050354004,-1.82283747196198,-1.42573750019073,-0.69519996643066,0.22824999690056,0.39696249365807,0.45553749799728,-5.27573728561401,-4.04057502746582,-2.54636240005493,-9.24495029449463,-12.492000579834,-14.5480508804321,-6.60495042800903,-6.27000045776367,-6.79800033569336,8.59305000305176,11.3839502334595,12.9870004653931,-0.10752499848604,0.1220999956131,0.32738751173019,0.39696249365807,0.09638749808073,-0.01484999991953,-0.7871875166893,1.06122493743896,2.96587491035461,-15.6720008850098,-15.9049510955811,-15.3210010528564,-8.1739501953125,-10.042950630188,-11.8909502029419,12.3790502548218,11.4940509796143,11.2230005264282,0.48372501134872,0.64625000953674,0.77934998273849,0.29672500491142,0.42996248602867,0.18548749387264,5.11857509613037,7.73547506332397,11.0573377609253,-15.2010011672974,-16.9069499969482,-19.4959506988525,-13.6020002365112,-14.8909511566162,-17.4900016784668,10.4380502700806,10.6350002288818,10.4959506988525,0.98711252212524,1.19350004196167,1.48431253433228,-0.59633749723434,-1.02643752098084,-1.05077505111694,14.6845874786377,18.2055492401123,20.0149116516113,-18.9649505615234,-15.646050453186,-4.01700019836426,-23.3809509277344,-34.0609512329102,-47.7360038757324,10.5889501571655,9.06704998016357,7.59105014801025,2.04270005226135,3.07738757133484,5.06522512435913,-1.77278745174408,-2.65856242179871,-4.64021253585815,19.439474105835,16.0833740234375,7.11851263046265,9.52395057678223,24.8890514373779,25.7050514221191,-57.844051361084,-51.153003692627,-8.87805080413818,8.74905014038086,9.16499996185303,2.94105005264282,3.09704995155334,1.37073743343353,2.15256237983704,-2.4314124584198,0.36877501010895,1.55017495155334,6.50526237487793,5.88582515716553,2.90358757972717,17.623950958252,20.5099506378174,23.0389518737793,-5.71200037002563,-5.25495004653931,-2.30505013465881,-8.68200016021729,-5.61705017089844,8.16300010681152,1.93641245365143,0.91740000247955,-0.15028749406338,1.37555003166199,1.17754995822906,0.42748749256134,1.81994998455048,1.19693744182587,0.34416249394417,19.4470500946045,15.9079504013062,11.9290504455566,-1.2679500579834,-0.6889500617981,0.40305000543594,3.05595016479492,-0.15900000929832,5.21700048446655,-0.14671249687672,-0.21257500350475,-0.27004998922348,0.38719999790192,0.52758747339249,0.28325000405312,0.08387500047684,-0.00646249996498,0.04977500066161,10.1940002441406,7.5930004119873,6.53505039215088,0.62595003843307,0.73605000972748,1.42005002498627,6.88005018234253,7.68405055999756,8.19600009918213,-0.3603875041008,-0.42281249165535,-0.3286249935627,-0.33495000004768,-0.38005000352859,-0.21023750305176,-0.06998749822378,-0.1530375033617,-0.14946250617504,5.9389500617981,5.74995040893555,5.40300035476685,2.2150502204895,2.12400007247925,1.69095003604889,8.74695014953613,8.93805027008057,9.41895008087158,SWING_LEFT
-1.44292497634888,-1.60778748989105,-1.57602500915527,0.8318749666214,0.75858747959137,0.64363747835159,-5.47236251831055,-5.48336267471313,-5.08268737792969,-2.61705017089844,-4.43100023269653,-6.82095050811768,-4.64205026626587,-6.19500017166138,-7.31505012512207,7.31595039367676,8.17500019073486,9.45195007324219,-1.34516251087189,-0.66591250896454,0.55343747138977,0.43848749995232,0.14519999921322,-0.04661250114441,-4.20310020446777,-2.91293740272522,-1.472487449646,-9.56595039367676,-11.8129501342773,-13.9519510269165,-7.47300052642822,-7.81500053405762,-8.55705070495605,10.8790502548218,13.4560508728027,16.3920001983643,1.91193747520447,2.85147500038147,3.21915006637573,-0.14794999361038,0.16238750517368,0.9344499707222,0.2231625020504,2.5309624671936,4.98176240921021,-15.6559505462646,-17.1150016784668,-15.8950510025024,-9.12195014953613,-9.57900047302246,-10.4689502716064,17.635950088501,15.7080011367798,12.5730009078979,2.96009993553162,2.21484994888306,1.25716245174408,1.94851243495941,2.53728747367859,2.45066237449646,7.28461265563965,9.76964950561523,12.7334623336792,-13.3459510803223,-12.9040508270264,-14.4829511642456,-12.2299509048462,-14.9100008010864,-18.5599517822266,9.24195003509522,7.5450005531311,6.9660005569458,0.38238748908043,0.07328750193119,0.47643750905991,1.52817499637604,0.40424999594688,-0.81991249322891,16.1665630340576,19.2721366882324,19.981912612915,-15.5890502929688,-11.731050491333,1.24200010299683,-26.064001083374,-39.5740509033203,-54.376953125,7.76100015640259,8.25600051879883,9.45195007324219,1.75917494297028,4.6998872756958,6.75839996337891,-1.97560000419617,-3.49428749084473,-4.4446873664856,17.5373001098633,13.5924253463745,9.83922481536865,18.0810012817383,26.2600517272949,28.6219520568848,-55.4029541015625,-38.6220016479492,-22.6420516967773,11.8570508956909,19.689001083374,13.0110006332397,5.849524974823,3.35115003585815,0.27238750457764,-3.84119987487793,-1.10825002193451,2.85614991188049,7.38361263275146,5.39962482452393,1.45351254940033,25.9849510192871,28.9639511108398,27.7789516448975,-13.3570508956909,-6.95205020904541,-1.38795006275177,-2.83200001716614,-11.7880506515503,-3.04200005531311,0.28833749890327,0.75253748893738,0.42872500419617,2.84762501716614,1.41212499141693,0.89897501468658,0.45416250824928,0.18163749575615,0.14258749783039,21.5890502929688,12.4240503311157,11.1060009002686,-1.75905013084412,-0.82605004310608,-0.34200000762939,2.46300005912781,5.00205039978027,4.37505006790161,-0.0867625027895,-0.1515250056982,-0.17476250231266,0.65958750247955,0.59482496976852,0.03891250118613,-0.21656249463558,-0.34979999065399,-0.19098749756813,9.74895000457764,8.3299503326416,5.44905042648315,0.70005005598068,0.8890500664711,1.44195008277893,6.88695049285889,7.6080002784729,8.50995063781738,-0.16623750329018,-0.23333749175072,-0.20405000448227,-0.25176250934601,-0.25671249628067,-0.05513750016689,-0.12251249700785,-0.02598750032485,-0.03822499886155,5.29800033569336,4.91295003890991,5.22900009155273,1.53705012798309,2.10900020599365,1.99695014953613,8.54295063018799,8.36400032043457,8.49300003051758,SWING_LEFT
-0.74896252155304,-1.36097502708435,-2.22722506523132,0.53006249666214,0.70235002040863,0.80987501144409,-5.14497518539429,-5.99293756484985,-5.8157000541687,3.60600018501282,0.15105000138283,-4.18905019760132,1.74300003051758,-1.85700011253357,-5.68800020217896,6.19095039367676,6.58800029754639,6.99705028533936,-2.60356259346008,-2.05369997024536,-1.37692499160767,1.03826248645782,1.00650000572205,0.65463751554489,-5.41131258010864,-3.99052500724792,-2.60631251335144,-6.24900007247925,-10.1569509506226,-13.5480003356934,-7.53300046920776,-11.368950843811,-12.1039505004883,7.7920503616333,12.2830505371094,13.7500505447388,-0.64996248483658,-0.13076250255108,0.45925000309944,0.49953749775887,1.11154997348785,1.64793753623962,-0.3827999830246,2.82177495956421,5.97616243362427,-17.5720500946045,-22.3129501342773,-21.0949516296387,-11.6580009460449,-11.7090005874634,-14.0680503845215,14.7460508346558,13.5630006790161,13.6759510040283,0.64130002260208,0.27238750457764,-0.32257500290871,1.65164995193481,1.37183749675751,0.95644998550415,8.63101291656494,11.1428623199463,13.8575248718262,-17.3760013580322,-14.3130006790161,-13.1740503311157,-17.8560009002686,-20.943000793457,-25.5780010223389,11.3860502243042,8.17005062103271,6.88200044631958,-0.45210000872612,0.07328750193119,1.37802493572235,-0.10889999568462,-2.47046256065369,-4.18206262588501,16.2226619720459,18.1358375549316,19.4699993133545,-10.0710000991821,-5.98095035552979,-1.56105005741119,-31.9930515289307,-40.126953125,-49.3800010681152,8.22705078125,9.91695022583008,10.44105052948,3.42567491531372,5.15927505493164,3.63948750495911,-3.77396249771118,-2.18459987640381,-0.61105000972748,18.3118381500244,10.679762840271,7.31885004043579,11.0410509109497,33.4169998168945,32.7300033569336,-55.936954498291,-23.1010513305664,-8.31300067901611,11.94105052948,4.70504999160767,-4.86300039291382,0.74648749828339,0.80134999752045,0.25162500143051,1.30955004692078,0.54353749752045,0.73658752441406,3.28363752365112,1.77113747596741,0.17916250228882,26.7580509185791,25.6230010986328,17.7100505828857,-1.64895009994507,-1.74495005607605,-0.7870500087738,-0.78300005197525,3.84600019454956,2.71605014801025,-0.11976250261068,-0.4838624894619,-0.62191247940063,1.11526250839233,0.99192500114441,0.54711252450943,-0.06517499685287,-0.54408746957779,-0.56237500905991,13.6800003051758,8.61195087432861,6.3270001411438,0.52500003576279,1.75995004177094,1.47795009613037,4.92000007629395,8.4190502166748,8.98605060577393,-0.54009997844696,-0.27252501249313,0.06586249917746,-0.46323749423027,-0.7233874797821,-0.10889999568462,0.00934999994934,0.14739999175072,-0.03575000166893,3.85305023193359,4.22805023193359,5.08500003814697,1.69305002689362,2.15505003929138,2.26200008392334,10.6729507446289,11.3020505905151,9.57405090332031,0.03904999792576,0.05857500061393,0.12828749418259,0.29672500491142,0.54477500915527,0.49829998612404,-0.05541250109673,-0.01264999993145,0.03753750026226,4.21200037002563,3.77895021438599,3.17295026779175,2.49000000953674,2.26200008392334,2.45595002174377,8.95995044708252,8.98305034637451,9.12495040893555,SWING_LEFT
-1.37444996833801,-1.81678748130798,-2.0952250957489,0.87821251153946,0.19291250407696,-0.2419999986887,-5.22321224212646,-5.23421239852905,-5.2377872467041,-2.6050500869751,-2.96805024147034,-2.91795015335083,-0.98805004358292,-2.62005019187927,-4.15395021438599,5.53800010681152,5.92800045013428,6.91800022125244,-2.30174994468689,-2.46661257743835,-2.39951252937317,-0.35928750038147,-0.22247499227524,0.04633750021458,-5.02768754959106,-4.42667484283447,-3.54942488670349,-3.58305025100708,-5.7199501991272,-7.85700035095215,-5.77695035934448,-6.61695051193237,-6.75795030593872,7.60305023193359,8.3899507522583,10.0939502716064,-2.1929874420166,-2.04641246795654,-1.92912495136261,0.45306250452995,0.97721248865128,1.38531243801117,-2.47554993629456,-1.04857504367828,0.52126252651215,-9.45600032806396,-11.4319505691528,-12.3919506072998,-7.0570502281189,-7.09305047988892,-8.02395057678223,10.921950340271,10.5840005874634,10.6249504089355,-2.2760374546051,-2.48132491111755,-2.23698759078979,1.4218875169754,1.36454999446869,1.13726246356964,3.18092489242554,4.95371246337891,7.66095018386841,-10.2619504928589,-10.7980508804321,-14.0910005569458,-12.9220504760742,-15.0439510345459,-15.9300003051758,8.43795013427734,8.16300010681152,10.2559509277344,-1.53450000286102,1.58083748817444,3.83487486839294,0.17462499439716,-3.5871000289917,-4.58892488479614,11.0158128738403,16.7320995330811,18.1920757293701,-17.9239501953125,-9.61605072021484,-2.59500002861023,-18.9109516143799,-36.0850524902344,-47.0419540405273,13.0630502700806,13.9890003204346,12.4080009460449,6.56177473068237,6.39567518234253,5.59418725967407,-5.99994993209839,-4.93831253051758,-2.48627495765686,16.9606246948242,15.308837890625,9.47883701324463,9.6340503692627,15.0750007629395,30.3640518188477,-53.8170013427734,-43.245002746582,-16.4130001068115,2.07300019264221,-2.67405009269714,-5.60805034637451,4.06339979171753,0.09033749997616,-0.61462497711182,-1.13148748874664,1.94727504253387,2.17813754081726,6.60178756713867,1.79795002937317,0.43450000882149,32.6419525146484,29.3179512023926,21.8230514526367,-8.41604995727539,-1.5700501203537,-0.46395000815392,-9.97695064544678,-9.1200008392334,-1.73595011234283,-0.47162500023842,-0.18452499806881,-0.19304999709129,1.30336248874664,0.61558747291565,0.82211250066757,-0.12251249700785,-0.33151251077652,-0.53184998035431,16.7820014953613,13.7880010604858,12.2809505462646,-1.99605011940002,-1.59105002880096,-0.28500002622604,4.45095014572144,6.2440505027771,5.57595014572144,-0.37386250495911,-0.45086249709129,-0.45691248774529,1.35107493400574,1.57836246490479,1.30336248874664,-0.82994997501373,-0.91423749923706,-0.76999998092651,10.8280506134033,8.57205009460449,6.59505033493042,0.10395000129938,0.72900003194809,0.25995001196861,5.79105043411255,7.014000415802,7.69095039367676,-0.42157500982285,-0.37881249189377,-0.35433748364449,0.58258748054504,-0.09913749992847,-0.33852499723434,-0.5378999710083,-0.28256249427795,-0.0369874984026,5.23605012893677,4.5130500793457,4.389000415802,0.82005006074905,1.44405007362366,1.89195013046265,8.33700084686279,8.57205009460449,8.42400074005127,SWING_LEFT
-1.67750000953674,-1.84236252307892,-1.58331251144409,3.12372493743896,2.93933749198914,2.06937503814697,-8.04663753509521,-8.04663753509521,-7.5517749786377,1.35195004940033,-4.40205001831055,-8.20394992828369,-6.8580002784729,-8.34000015258789,-8.92800045013428,4.26195001602173,5.84895038604736,8.72700023651123,-0.92248749732971,-0.25533750653267,-0.01718750037253,1.00045001506805,-0.24076250195503,-0.57062500715256,-6.64400005340576,-5.36854982376099,-3.62766242027283,-11.0179500579834,-13.7629508972168,-16.396951675415,-9.77805042266846,-9.31605052947998,-9.57705020904541,11.1870002746582,12.3670501708984,11.0680503845215,0.00357499998063,0.12828749418259,0.48496249318123,-0.42405000329018,-0.10642500221729,0.256437510252,-1.3026750087738,1.07593750953674,5.23957490921021,-18.4189510345459,-18.340051651001,-14.1430511474609,-9.09600067138672,-9.67500019073486,-12.3430509567261,10.3399505615234,10.8589506149292,10.5150003433228,0.37014999985695,0.04399999976158,0.10862500220537,0.01333750039339,-0.60486251115799,-0.90048748254776,6.99517488479614,11.2699127197266,13.4921875,-11.9250001907349,-12.985050201416,-11.2050008773804,-13.627950668335,-17.5570507049561,-22.5010509490967,8.51700019836426,7.66995048522949,6.75795030593872,0.50572502613068,1.75683748722076,1.91069996356964,-1.46134996414185,-2.32746243476868,-1.50163745880127,15.6204128265381,18.0967864990234,15.8060369491577,-8.97705078125,1.91700005531311,19.1190013885498,-28.3080005645752,-42.8209533691406,-44.0389518737793,7.46400022506714,6.29400014877319,3.18300008773804,1.83988749980927,2.78423738479614,2.09398746490479,-0.67210000753403,-1.53711247444153,-0.5157625079155,10.3450870513916,3.26397490501404,2.74477505683899,40.3800010681152,26.9899520874023,19.465950012207,-27.6790504455566,0.15000000596046,2.06400012969971,5.61405038833618,7.87605047225952,1.73505008220673,0.68529999256134,-0.34209999442101,-0.38486251235008,1.78722500801086,3.21172499656677,2.81228756904602,2.20604991912842,1.05270004272461,-0.17146250605583,19.8949508666992,21.094051361084,18.5790004730225,2.49000000953674,2.43705010414124,3.22695016860962,-2.29305005073547,0.76095002889633,6.71700048446655,-0.18823750317097,-0.28352499008179,-0.43491250276566,1.34612500667572,0.08415000140667,-0.41676250100136,-0.98257499933243,-1.30515003204346,-1.25014996528625,14.1349506378174,10.1580009460449,6.61395025253296,3.28395009040833,2.64795017242432,2.22405004501343,8.48295021057129,7.42995023727417,7.76100015640259,-0.43491250276566,-0.51686251163483,-0.71719998121262,-0.21876250207424,0.15496249496937,0.35777500271797,-0.99481248855591,-0.73342502117157,-0.51590001583099,4.30005025863647,3.08700013160706,2.46705007553101,1.97295010089874,1.80105006694794,2.13105010986328,9.01200008392334,9.09405040740967,9.02700042724609,-0.75625002384186,-0.52910000085831,-0.18081249296665,0.05609999969602,-0.45457500219345,-0.68186247348785,-0.41084998846054,-0.39256250858307,-0.42184999585152,2.29995012283325,2.27805018424988,2.20395016670227,1.95900011062622,1.95900011062622,1.77195012569427,10.3590002059937,11.6659507751465,11.9629507064819,SWING_LEFT
-0.76601248979568,-2.60837507247925,-3.46362495422363,-0.5352874994278,1.26059997081757,1.82875001430511,-6.1443247795105,-6.33984994888306,-6.2543249130249,5.06100034713745,1.13205003738403,-0.72405004501343,2.20995020866394,-1.50105011463165,-2.92695021629334,4.11105012893677,3.28395009040833,3.91995024681091,-3.8313000202179,-3.36833739280701,-2.6168999671936,2.00832509994507,1.61370003223419,0.74263751506805,-5.53836250305176,-4.73934984207153,-3.73518753051758,-5.04795026779175,-7.68705034255981,-9.66405010223389,-5.52105045318604,-5.79300022125244,-4.95105028152466,8.34899997711182,10.6630506515503,13.0920009613037,-1.90341246128082,-1.66649997234344,-1.76178753376007,0.22714999318123,0.26620000600815,0.82445001602173,-2.52449989318848,-1.04252505302429,0.67650002241135,-10.9339504241943,-12.0619506835938,-13.0930509567261,-5.29305028915405,-6.15705013275146,-7.74600028991699,13.0150508880615,11.202000617981,9.77505016326904,-1.78983747959137,-1.62978744506836,-1.60421252250671,1.68698751926422,2.30395007133484,2.19408750534058,2.92558741569519,5.84787511825562,8.89116287231445,-15.3780002593994,-19.40505027771,-20.2620010375977,-9.23400020599365,-10.2300004959106,-12.5610008239746,10.0290002822876,11.6850004196167,11.8480501174927,-2.01093745231628,-2.26022505760193,-1.54178750514984,2.03527498245239,-0.07342500239611,-1.59444999694824,11.7695875167847,17.0876750946045,18.669750213623,-17.8999500274658,-12.72705078125,-4.76805019378662,-16.9609508514404,-30.9910507202148,-40.3780517578125,8.97900009155273,9.74400043487549,10.0170001983643,1.62607502937317,4.56912517547607,4.7011251449585,-2.11488747596741,-3.06542491912842,-3.45881247520447,15.2110748291016,11.8453502655029,6.24621248245239,19.9879512786865,25.1470508575439,22.7809505462646,-43.6609535217285,-28.4659519195557,-6.47505044937134,16.3180503845215,21.2059516906738,-1.56105005741119,1.9901750087738,0.03176249936223,0.58148747682571,-0.84438747167587,1.8434624671936,1.61493754386902,4.81195020675659,2.11805009841919,1.21522498130798,22.8979511260986,21.5290508270264,19.1220016479492,-1.04595005512238,1.78605008125305,2.20005011558533,-10.4719505310059,4.03995037078857,6.53295040130615,-0.05747500061989,-0.52662497758865,-0.77824997901917,1.02849996089935,0.69863748550415,0.35653749108315,0.40892499685287,0.18892499804497,-0.26056250929832,12.9270009994507,11.3430004119873,8.88705062866211,2.56905007362366,2.65305018424988,2.36505007743835,2.3929500579834,3.80295014381409,7.12395048141479,-0.85277497768402,-0.77219998836517,-0.56691247224808,0.19896249473095,-0.10395000129938,-0.27623748779297,-0.30098751187325,-0.14327499270439,0.01553750038147,7.36305046081543,6.13095045089722,5.57100009918213,1.61400008201599,1.41300010681152,1.41795003414154,8.11995029449463,9.76095008850098,10.7920503616333,-0.29452499747276,-0.06971249729395,0.12086249887943,-0.35447499155998,-0.31171250343323,0.12319999933243,0.05335000157356,-0.01869999989867,-0.09198749810457,5.59200048446655,5.66205024719238,5.60205030441284,1.87200009822845,2.2150502204895,2.19495010375977,11.2450504302979,10.9360504150391,10.1370000839233,SWING_LEFT
-1.64326250553131,-1.13506245613098,-0.87848746776581,-0.00261249998584,0.3602499961853,0.63882499933243,-4.18357515335083,-5.09245014190674,-5.56407499313354,5.87205028533936,5.34600019454956,4.37895011901855,3.77205014228821,1.87500011920929,0.54900002479553,8.55795001983643,9.77805042266846,9.12495040893555,-0.88330000638962,-1.46492505073547,-1.73731243610382,0.67058748006821,1.19955003261566,1.61864995956421,-5.99774980545044,-6.51337480545044,-6.57194995880127,3.06105017662048,0.23700001835823,-1.52805006504059,-0.25394999980927,-2.16105008125305,-3.21405005455017,8.46900081634521,6.6190505027771,6.2839503288269,-1.85088753700256,-1.77402496337891,-1.86807501316071,1.9875625371933,1.71998751163483,0.26496249437332,-6.49494981765747,-6.21527481079102,-4.25686264038086,-4.300950050354,-6.20100021362305,-11.9920501708984,-6.53805017471313,-7.94700050354004,-9.56205081939697,6.76995038986206,7.14105033874512,8.35395050048828,-1.39645004272461,-0.90653747320175,-0.25533750653267,-0.59138751029968,-0.23100000619888,0.52882498502731,-0.03217500075698,3.16744995117188,9.13440036773682,-18.316951751709,-21.6430511474609,-17.8519515991211,-10.7779502868652,-11.017050743103,-15.0180006027222,11.4240007400513,12.0460510253906,10.9459505081177,0.17462499439716,0.53267496824265,1.18745005130768,0.21615000069141,-0.54986250400543,-1.09353744983673,14.7871627807617,17.376012802124,18.7309379577637,-15.4189510345459,-12.7480506896973,-5.07195043563843,-23.3170509338379,-31.548002243042,-41.6989517211914,11.1160507202148,11.0100002288818,11.1130504608154,2.68647503852844,3.7872998714447,4.03644990921021,-1.90726244449615,-2.49603748321533,-2.76608753204346,18.0185489654541,15.6094121932983,12.0407371520996,7.32195043563843,18.0139503479004,27.0070514678955,-48.0810012817383,-43.1950531005859,-28.94700050354,13.6260004043579,11.017050743103,5.39595031738281,3.28515005111694,1.98646247386932,0.40796250104904,-2.9603750705719,-2.05988740921021,0.77687501907349,7.97376251220703,5.85158729553223,6.20097494125366,32.5150527954102,23.8549518585205,14.8339509963989,-15.364951133728,-4.99905014038086,-5.91300010681152,0.68700003623962,-2.86005020141602,3.76500010490417,1.30102503299713,2.6168999671936,2.11474990844727,1.11402499675751,0.81963747739792,0.96373748779297,5.96035003662109,3.70260000228882,2.47486257553101,16.3939514160156,19.3129501342773,18.0739517211914,-7.03095054626465,-5.49900007247925,-2.16600012779236,10.5510005950928,7.42995023727417,3.73800015449524,0.51796251535416,0.40067499876022,0.22481249272823,1.57588744163513,0.88192498683929,0.52401250600815,0.67402499914169,-0.32903748750687,-0.41703748703003,14.2620010375977,10.0099506378174,7.4520001411438,0.04395000264049,0.41295000910759,0.99705004692078,3.29805016517639,7.48095035552979,6.49695014953613,-0.43491250276566,-0.49114999175072,-0.44591251015663,0.05115000158548,-0.2396624982357,-0.55233746767044,-0.2593249976635,-0.2435124963522,-0.18975000083447,5.47800016403198,5.47500038146973,4.87200021743774,1.52505004405975,1.28595006465912,1.68600010871887,6.4680004119873,7.69095039367676,8.50695037841797,SWING_LEFT
-0.64267498254776,-0.66343748569489,-0.54862499237061,1.7274124622345,1.53312504291534,1.3498375415802,-5.08763742446899,-5.96722507476807,-6.31180000305176,4.03200006484985,2.13705015182495,-0.69495004415512,-0.21300001442432,-2.16795015335083,-4.57500028610229,9.27495002746582,8.98095035552979,9.23205089569092,-0.39338749647141,-0.35557499527931,-0.37028750777245,1.20449995994568,1.05173754692078,1.16902494430542,-6.34961223602295,-6.18585014343262,-5.66664981842041,-3.22905015945435,-5.50005006790161,-7.47900056838989,-6.40095043182373,-8.20995044708252,-10.1700000762939,9.3880500793457,8.90895080566406,8.33505058288574,-0.43491250276566,-0.4838624894619,-0.44591251015663,1.294837474823,1.23378753662109,1.36454999446869,-4.85306262969971,-3.41756248474121,-0.76147496700287,-9.24705028533936,-12.3919506072998,-18.6559505462646,-12.2659502029419,-13.3840503692627,-12.7279510498047,7.89705038070679,8.46405029296875,9.14400005340576,-0.53886252641678,-0.56086248159409,-0.33962500095367,1.24107503890991,0.78911250829697,0.23567499220371,2.76801252365112,6.16068744659424,9.11721229553223,-23.3490009307861,-22.8610515594482,-19.1800518035889,-11.943000793457,-13.9249505996704,-17.5500011444092,9.83805084228516,10.4790000915527,10.6300506591797,0.20762500166893,1.86188745498657,2.70366239547729,-0.16390000283718,-2.01836252212524,-1.32330000400543,11.8831624984741,16.5622882843018,17.7021617889404,-16.396951675415,-8.94405078887939,7.14495038986206,-21.7879505157471,-32.9340019226074,-47.8369522094727,10.5799503326416,9.57900047302246,7.26795053482056,2.5141875743866,3.90582489967346,3.95711255073547,-0.85043752193451,-2.37517499923706,-2.39346241950989,15.6668872833252,9.57783699035644,7.59137487411499,19.0570507049561,22.2880516052246,19.5910511016846,-45.1810531616211,-18.2989501953125,-10.2679500579834,5.6569504737854,11.3620510101318,4.58295011520386,1.63583743572235,1.16668748855591,1.46973752975464,-0.14794999361038,1.0920250415802,3.33025002479553,6.0494499206543,5.09409999847412,2.09233736991882,18.3970508575439,20.5459518432617,21.3469505310059,-7.45905017852783,-6.15705013275146,-1.07504999637604,-0.85305005311966,4.24095010757446,7.91895055770874,1.55636250972748,0.43848749995232,-0.11728750169277,3.71387505531311,2.76086258888245,1.43783748149872,1.15293753147125,0.68860000371933,0.79378747940063,16.498950958252,7.97100019454956,6.50595045089722,-0.13695000112057,0.4650000333786,0.57495003938675,7.41105031967163,4.60200023651123,5.91600036621094,-0.04523750022054,-0.05142499879003,-0.2419999986887,-1.09848749637604,-1.57616245746613,-1.41240000724792,0.9843624830246,0.90983748435974,0.71802496910095,6.6670503616333,7.55205059051514,8.25795078277588,0.75495004653931,0.99195003509521,1.24095010757446,8.67495059967041,7.57395029067993,6.34605026245117,-0.47409999370575,-0.60596251487732,-0.7012500166893,-0.92372500896454,-0.40576249361038,-0.01237499993294,0.42721250653267,0.0961124971509,-0.20074999332428,8.78505039215088,8.61495018005371,7.75995016098022,1.58805012702942,1.41300010681152,1.54905009269714,6.35100030899048,7.26300048828125,8.11200046539307,SWING_LEFT
-0.90777498483658,-1.11539995670319,-1.62607502937317,0.98573750257492,1.32054996490479,1.20807504653931,-3.05222487449646,-3.71689987182617,-6.00874996185303,2.37900018692017,2.8090500831604,2.75205016136169,1.84905004501343,1.03995001316071,-3.68505024909973,7.8870005607605,7.39005041122437,7.22700023651123,-1.70183753967285,-1.27063751220703,-1.26211249828339,0.84039998054504,0.47025001049042,0.45553749799728,-6.35085010528564,-4.90187501907349,-3.53237509727478,-0.73605000972748,-8.90505027770996,-11.896050453186,-5.81295013427734,-6.69105052947998,-7.44000053405762,8.05305004119873,10.2400503158569,10.1730003356934,-1.22292494773865,-1.01653754711151,-0.7209125161171,0.53253751993179,0.5545374751091,0.59606248140335,-1.75724995136261,0.1913999915123,2.33557510375977,-13.8870010375977,-15.1080007553101,-15.1080007553101,-8.44995021820068,-9.34500026702881,-10.9860000610352,10.6030502319336,11.8759508132935,12.538950920105,-0.42391249537468,-0.15647499263287,0.38843750953674,1.20573747158051,2.4701874256134,3.35225009918213,4.45513725280762,6.80088758468628,10.0175628662109,-13.7149505615234,-14.6460008621216,-19.7430000305176,-13.3450508117676,-15.6810007095337,-18.1669502258301,12.1129503250122,12.3840007781982,15.3439502716064,1.31078743934631,2.31879997253418,3.51848745346069,2.65704989433289,0.13186250627041,-2.2786500453949,13.7560501098633,17.1121501922607,19.1706619262695,-23.086051940918,-19.1329517364502,-9.0130500793457,-23.4100513458252,-34.2690010070801,-48.3870010375977,18.5460014343262,17.9590511322021,13.4680509567261,3.57706236839294,3.66382503509521,5.01751232147217,-2.93589997291565,0.01209999993443,0.21491250395775,18.7614631652832,13.1916122436523,11.6498250961304,4.85295009613037,22.9819507598877,17.4610500335693,-56.7619514465332,-34.3669509887695,-23.7040519714355,4.61400032043457,11.7930002212524,15.9919509887695,4.6571249961853,3.30838751792908,3.56248736381531,0.21615000069141,-0.05637500062585,-0.07342500239611,11.520299911499,9.22226238250732,7.30056238174438,12.4290008544922,22.5010509490967,24.1950016021729,-22.7140502929688,-16.8030014038086,-11.7139501571655,5.84205007553101,3.99195027351379,5.24295043945313,2.4641375541687,1.70788753032684,1.12639999389648,2.16356253623962,2.53852510452271,1.05173754692078,4.0862250328064,2.77282500267029,0.99288749694824,22.6159515380859,20.7130508422852,16.699951171875,-6.50700044631958,-4.86705017089844,-4.24995040893555,0.09900000691414,1.63695013523102,4.65195035934448,0.73177498579025,0.22962500154972,-0.05871250107884,0.6766374707222,0.57653748989105,0.49706250429153,0.5322625041008,-0.19580000638962,-0.52456247806549,14.7739505767822,13.2810010910034,12.2280006408691,-3.64005017280579,-1.80705010890961,-1.02404999732971,4.68300008773804,5.81805038452148,5.66700029373169,-0.2223374992609,-0.32504999637604,-0.39833748340607,0.39324998855591,0.34443750977516,0.40424999594688,-0.68942499160767,-0.75295001268387,-0.68213748931885,10.4280004501343,8.53995037078857,6.73095035552979,-0.69705003499985,-0.55305004119873,0.0730499997735,6.60495042800903,7.33200025558472,7.79400014877319,SWING_LEFT
-2.98223757743835,-2.81613755226135,-0.2065249979496,1.66141247749329,3.48658752441406,2.56547498703003,-7.64706230163574,-7.5237250328064,-4.457200050354,-1.45905005931854,-5.12205028533936,-16.3450508117676,-9.57705020904541,-12.1320009231567,-12.1660509109497,8.26095008850098,8.78205013275146,16.8030014038086,1.12887501716614,0.09033749997616,-1.43192493915558,0.96621251106262,0.53253751993179,0.85992497205734,-2.30821251869202,0.52621251344681,1.45461249351501,-15.8710508346558,-8.90505027770996,-6.8710503578186,-12.2590503692627,-12.2260503768921,-12.4339504241943,15.3060007095337,3.20205020904541,1.50105011463165,-2.25169992446899,-2.35427498817444,-1.92541253566742,0.9344499707222,0.7011125087738,-0.03684999793768,2.22928738594055,3.39473748207092,4.66647481918335,-6.01695013046265,-7.68495035171509,-8.52495002746582,-12.9870004653931,-13.6330509185791,-14.4889507293701,4.84095001220703,8.13600063323975,10.6489505767822,-1.07511246204376,-0.24681249260902,0.35062500834465,-0.80038750171661,-1.20353746414185,-1.12901246547699,5.88953733444214,7.2308497428894,8.84235000610352,-7.86900043487549,-7.69695043563843,-7.87605047225952,-15.7219505310059,-16.94700050354,-17.6310005187988,11.2060508728027,9.52905082702637,7.24095010757446,0.7012500166893,0.73301249742508,0.50696247816086,-0.52181249856949,-1.12406253814697,-3.78496241569519,10.6847124099731,13.355375289917,14.1274375915527,-7.84500026702881,1.35705006122589,6.088050365448,-18.9040508270264,-26.3989505767822,-28.1530513763428,5.10495042800903,3.21195006370544,0.23505000770092,0.10628750175238,0.19057500362396,1.2277375459671,-2.57922506332397,-0.52676248550415,-1.40511250495911,13.4531373977661,10.2753753662109,9.12697505950928,13.7190008163452,18.4230003356934,15.8269510269165,-29.8660507202148,-20.9929504394531,-15.7770004272461,-0.7620000243187,10.6390504837036,14.7769508361816,2.46289992332459,2.07570004463196,1.65055000782013,-1.74473750591278,-1.58963751792908,-0.93348747491837,6.91088724136353,6.50526237487793,6.2645001411438,14.3050508499146,11.3040008544922,12.2899503707886,-9.82800006866455,-7.45395040512085,-7.18905019760132,9.02895069122314,6.00900030136108,5.38200044631958,1.34255003929138,1.12144994735718,0.76835000514984,1.037024974823,1.12749993801117,0.06462500244379,3.91036248207092,2.70201253890991,1.84800004959106,18.7129516601563,17.4949512481689,12.8550004959106,-3.09405016899109,-1.52205002307892,-1.30395007133484,6.86100053787231,7.27500057220459,7.19400024414063,0.54243749380112,0.30538749694824,0.36286249756813,0.13914999365807,0.54106247425079,0.20748749375343,1.70871245861053,1.45461249351501,1.17617499828339,11.6869506835938,10.3140001296997,10.8330001831055,-1.31895005702972,0.04395000264049,0.22395001351833,6.7819504737854,8.44500064849854,9.49305057525635,0.42996248602867,0.33838748931885,0.11233749985695,-0.12594999372959,-0.24323749542236,-0.03918749839067,0.7265499830246,0.30497500300407,-0.04564999789,11.2800006866455,10.6990509033203,9.7339506149292,0.96300005912781,1.82895004749298,2.15205001831055,9.07905006408691,7.94295024871826,7.14300012588501,SWING_LEFT
-1.48926246166229,-1.3171124458313,-1.25963747501373,-0.23594999313354,-0.00618749996647,0.94668751955032,-6.34590005874634,-6.45466232299805,-6.16274976730347,-6.01500034332275,-5.98095035552979,-7.78800058364868,-6.33900022506714,-7.77195024490356,-9.34500026702881,9.83100032806396,9.96705055236816,9.19200038909912,-1.11058747768402,-0.82829999923706,-0.57186251878738,1.92774999141693,1.55512499809265,0.80134999752045,-5.34173727035522,-4.47919988632202,-3.71689987182617,-10.0800008773804,-9.48705005645752,-7.81605052947998,-9.20595073699951,-10.6150503158569,-13.1299505233765,9.48405075073242,11.7520503997803,12.7399501800537,-0.35557499527931,-0.25657498836517,-0.67814999818802,0.33701249957085,0.46406251192093,0.68406248092651,-2.72731256484985,-1.10233747959137,0.97941249608994,-8.46300029754639,-10.9489507675171,-11.6860504150391,-13.7590503692627,-12.4189510345459,-11.4310503005981,13.1590509414673,12.5370006561279,10.4310007095337,-2.38122487068176,-2.56561255455017,-0.53143751621246,1.40483748912811,1.69441246986389,-0.65986251831055,4.30608749389648,6.26945018768311,11.1916751861572,-7.33800029754639,-10.4509506225586,-13.0330505371094,-15.693000793457,-16.6210498809814,-18.1030502319336,7.62405014038086,10.0960502624512,13.4269504547119,0.12457499653101,-0.87972497940063,-2.52037501335144,-1.88402497768402,-0.67210000753403,1.31560003757477,13.3809499740601,16.1213245391846,16.3889007568359,-9.63300037384033,3.59700012207031,11.4600009918213,-20.9119510650635,-29.9500522613525,-33.892951965332,8.27805042266846,-1.64505004882813,-2.47995018959045,-1.9901750087738,0.95411247014999,4.45555019378662,-0.97501248121262,-4.05748748779297,-5.78984975814819,14.4072494506836,11.9784498214722,6.05068731307983,17.0089511871338,20.4949512481689,21.4530010223389,-35.6209526062012,-28.8829517364502,-13.312050819397,14.9110507965088,21.4120502471924,9.51000022888184,3.41948747634888,0.36519998311996,0.68048751354218,-2.95295000076294,1.13602495193481,1.22883749008179,5.16738748550415,5.91387510299683,5.62677478790283,14.1810007095337,9.69600009918213,12.867000579834,-7.05900049209595,-5.61900043487549,-5.65905046463013,0.2490000128746,2.67795014381409,9.54600048065186,2.39085006713867,2.11474990844727,1.36578750610352,0.05609999969602,-0.39599999785423,-0.33728748559952,3.12111258506775,2.36733746528625,2.14252495765686,15.1830005645752,12.0220508575439,10.0170001983643,-1.03905010223389,-0.61305004358292,-0.93795001506805,9.89505004882812,5.95395040512085,4.01100015640259,0.72448748350143,0.50091248750687,0.61930000782013,0.18796250224113,0.65834999084473,0.67540001869202,2.09852504730225,1.86642503738403,1.47179996967316,9.06704998016357,9.43095016479492,9.64395046234131,-0.4240500330925,0.52005004882813,1.51095008850098,4.31205034255981,6.29100036621094,7.75305032730103,0.70606249570847,0.7207750082016,0.68406248092651,0.03767500072718,-0.45223748683929,-0.37276250123978,1.13341248035431,0.92688751220703,0.83531248569489,9.36795043945312,9.00705051422119,8.63595008850098,1.48200011253357,1.49895012378693,1.9080001115799,7.94295024871826,7.4040002822876,6.9330005645752,SWING_LEFT
-2.85395002365112,-2.76594996452332,-2.21017503738403,-0.10889999568462,0.79640001058578,2.07061243057251,-5.6923623085022,-5.27078723907471,-4.57929992675781,-4.97400045394897,-6.75600051879883,-9.07005023956299,-5.56605005264282,-6.35100030899048,-7.32495021820068,10.3000507354736,12.0420007705688,13.7310009002686,-1.53573751449585,-1.02877497673035,-0.65614998340607,2.39318752288818,1.65041244029999,1.06026244163513,-3.79018759727478,-2.42549991607666,-0.86418747901917,-10.3549509048462,-12.6720008850098,-14.1510009765625,-6.50205039978027,-5.99205017089844,-5.17605018615723,15.0730504989624,15.7600507736206,14.7690010070801,-0.11604999750853,0.03533750027418,-0.26028749346733,1.03221249580383,1.17631244659424,1.35712504386902,0.29892501235008,1.22127497196198,2.0460000038147,-12.44700050354,-10.9420509338379,-10.276050567627,-5.46600008010864,-5.75805044174194,-5.48505020141602,14.6929502487183,12.4440002441406,9.89505004882812,-1.22292494773865,-1.72259998321533,-2.12822508811951,1.47083747386932,1.71641254425049,1.89474999904633,3.40821242332459,4.6018500328064,6.66641235351563,-8.82600021362305,-10.6309509277344,-13.6549510955811,-7.80300045013428,-9.17505073547363,-11.4049501419067,7.91895055770874,7.57905054092407,8.27805042266846,-2.55337500572205,-2.61208748817444,-2.64385008811951,0.99440002441406,1.3388375043869,2.1513249874115,12.0652122497559,14.5501127243042,17.3478240966797,-13.243950843811,-9.06599998474121,2.31600022315979,-22.2180004119873,-29.8999519348145,-46.7290534973145,9.57705020904541,8.95695018768311,10.2210006713867,-2.37256240844727,2.98210000991821,4.8232250213623,0.79035001993179,-6.8954873085022,-7.55397510528564,15.8585624694824,9.14416217803955,7.60842514038086,13.8259506225586,21.6940517425537,15.5850009918213,-50.7270011901855,-26.7769508361816,-17.6500511169434,12.6709508895874,23.3860511779785,14.3959503173828,3.23386240005493,1.69207501411438,1.48926246166229,0.65230000019073,3.00891256332397,1.17026245594025,6.60659980773926,5.84182500839233,3.68554997444153,19.0600509643555,20.6080513000488,20.1169509887695,-9.56700038909912,-6.81795024871826,-1.85205006599426,-2.82195019721985,-0.82200002670288,7.39695024490356,1.56502497196198,0.99687498807907,0.24791249632835,-0.12471249699593,-0.52786248922348,0.02186249941587,2.32457494735718,1.42656254768372,1.06493747234344,18.8130016326904,15.5710506439209,12.1750507354736,0.85995006561279,0.89595001935959,0.59700000286102,6.01605033874512,3.26895022392273,3.01605010032654,-0.21876250207424,-0.14781250059605,0.20514999330044,0.88563752174377,1.21426248550415,0.8758749961853,1.00017499923706,1.02093744277954,1.02712500095367,9.7630500793457,8.53305053710938,7.9350004196167,0.69000005722046,0.65400004386902,0.62295001745224,5.19495010375977,8.71995067596436,10.5319509506226,0.40067499876022,0.27486249804497,0.15138749778271,0.39820000529289,0.02914999984205,-0.12594999372959,0.99646252393723,0.91465002298355,0.86941248178482,7.57605028152466,7.2460503578186,6.78600025177002,0.95400005578995,1.09500002861023,1.29105007648468,9.76800060272217,8.15505027770996,8.08095073699951,SWING_LEFT
-0.33852499723434,-0.88096249103546,-2.09646248817444,-0.86872500181198,-1.62139999866486,-1.73373746871948,-8.22126293182373,-8.26897525787354,-7.15838766098022,0.2490000128746,-2.48700022697449,-7.41405057907104,-8.68395042419434,-11.7090005874634,-11.9479503631592,10.4980506896973,7.76805019378662,7.31100034713745,-2.65732502937317,-2.05493760108948,-1.35987496376038,-0.62314999103546,1.15073752403259,2.07308745384216,-5.30873727798462,-3.28308749198914,-1.10728752613068,-11.8510503768921,-14.6029510498047,-16.1749515533447,-9.09794998168945,-7.61700057983398,-7.60695028305054,10.4980506896973,14.1259508132935,14.4660005569458,-1.06782495975494,-1.16558754444122,-1.35121250152588,1.69564998149872,0.47506248950958,-0.54505002498627,0.79860001802444,2.39415001869202,3.73559999465942,-14.3950510025024,-11.5249509811401,-9.31395053863525,-8.66295051574707,-10.4260501861572,-12.3480005264282,12.9919509887695,11.0890502929688,10.3090505599976,-1.46726250648499,-1.56997501850128,-1.76660001277924,-0.29699999094009,0.86487501859665,1.53065001964569,5.4777250289917,7.808762550354,10.577187538147,-10.5970506668091,-13.6579504013062,-15.3090009689331,-13.3410005569458,-14.6620502471924,-17.8270511627197,9.79905033111572,9.9529504776001,10.6750507354736,-1.55897498130798,0.70248746871948,1.60283744335175,1.28878748416901,-1.89873743057251,-1.97683751583099,13.5324745178223,17.5628757476807,17.1549129486084,-14.9590511322021,-2.26005005836487,8.53995037078857,-23.355001449585,-41.5510520935059,-47.8219528198242,12.7810506820679,13.396050453186,8.73900032043457,1.76412498950958,1.70417499542236,2.36761260032654,-1.41487503051758,-0.92496252059937,-1.53463745117188,15.1977376937866,9.97369956970215,7.92976236343384,17.7460517883301,23.826000213623,19.7700004577637,-46.5900039672851,-24.8239517211914,-14.7019510269165,6.18105030059814,10.6819505691528,11.7160501480103,2.93933749198914,2.66447496414185,1.96074998378754,-2.46427488327026,-1.18277502059937,0.36396250128746,6.91569995880127,6.23768758773804,5.59143733978271,14.5729503631592,13.558051109314,16.1830501556396,-9.46395015716553,-8.5620002746582,-5.83200025558472,10.6350002288818,3.38595008850098,1.74000012874603,1.56859993934631,1.79341244697571,1.79712498188019,0.31748750805855,0.30043751001358,0.64487498998642,3.91269993782043,3.0685875415802,2.24262499809265,16.7940006256104,17.0500507354736,16.1520004272461,-3.14205026626587,-2.8050000667572,-1.95300006866455,6.14100027084351,6.73200035095215,5.84400033950806,1.1446875333786,0.96882498264313,0.86487501859665,1.06768751144409,0.80739998817444,0.51782500743866,1.54756247997284,1.49380004405975,1.36675000190735,10.8420009613037,9.71805000305176,9.35400009155273,-0.04605000093579,-0.52695000171661,-0.31395000219345,5.26200008392334,6.48000049591064,6.91395044326782,0.67553746700287,0.42515000700951,0.20638750493526,0.36148750782013,0.2894375026226,0.13062499463558,1.24698746204376,1.12117505073547,0.97088748216629,8.51895046234131,7.97595024108887,7.67400026321411,0.64695000648499,1.48995006084442,1.62105011940002,6.59805011749268,6.34200048446655,6.62895011901855,SWING_LEFT
-0.50833749771118,-0.50462502241135,-1.11539995670319,-1.7850250005722,-1.12777495384216,-0.49733749032021,-3.56537508964539,-4.09805011749268,-5.39055013656616,1.25400006771088,2.03895020484924,2.74995017051697,4.5,4.00500011444092,1.8600001335144,9.03795051574707,9.09105014801025,7.89900016784668,-1.44649994373322,-2.25293755531311,-2.47156238555908,0.18067499995232,1.33402502536774,1.26802504062653,-5.94274997711182,-6.80776262283325,-6.79552507400513,2.95305013656616,1.38105010986328,-1.64805006980896,0.87195003032684,-3.16605019569397,-4.07295036315918,6.90405035018921,5.06895017623901,5.53305006027222,-3.36091256141663,-4.16858768463135,-4.95412492752075,0.21738749742508,0.05609999969602,1.17521250247955,-5.43826246261597,-4.17738771438599,-1.29786252975464,-7.10295057296753,-8.94105052947998,-12.7530002593994,-5.40300035476685,-6.66900014877319,-12.0289506912231,5.6980504989624,6.39900016784668,9.08400058746338,-4.58755016326904,-1.85336244106293,-0.42281249165535,1.01873743534088,-0.82238751649857,-1.61521244049072,0.80465000867844,5.96282482147217,8.45748710632324,-16.3830013275146,-18.1630516052246,-15.318000793457,-14.3839502334595,-18.8490009307861,-21.7210502624512,12.3600006103516,17.4450016021729,16.0879516601563,2.62913751602173,3.61006259918213,4.13173770904541,-2.43127489089966,-1.85707497596741,-1.94754993915558,12.34255027771,13.8708620071411,14.999737739563,-7.24500036239624,-3.46605014801025,1.3330500125885,-27.3610515594482,-30.8020515441895,-35.1979522705078,12.9130506515503,9.58905029296875,7.27500057220459,4.27349996566772,3.55753755569458,2.85752487182617,-3.60909986495972,-3.6761999130249,-1.58344995975494,14.6185874938965,13.6570501327515,12.8862247467041,10.7950506210327,14.695050239563,15.6709508895874,-38.683952331543,-34.0230026245117,-26.5110015869141,3.43200016021729,-1.72605013847351,0.57705003023148,3.09704995155334,3.89358758926392,4.09873723983765,0.2246749997139,0.26991251111031,-0.6708624958992,12.1237878799438,11.176962852478,9.15626239776611,15.2860507965088,15.3600006103516,20.0380516052246,-23.5060520172119,-22.0200004577637,-17.3580017089844,7.94505023956299,12.1519508361816,7.16700029373169,3.54296255111694,2.74394989013672,1.84112501144409,-1.04596245288849,-0.53157502412796,1.17149996757507,7.44232511520386,6.19740009307861,4.27556228637695,19.5880508422852,18.5569515228271,17.7460517883301,-10.8090009689331,-6.32205009460449,-3.94605016708374,2.38394999504089,0.47400003671646,3.26700019836426,1.67131245136261,1.66636252403259,1.58812499046326,1.24231255054474,0.61558747291565,0.69258749485016,3.68183755874634,2.34162497520447,1.63666248321533,16.1569499969482,16.1569499969482,15.1740007400513,-3.11295008659363,-1.84500002861023,-0.54795002937317,5.05395030975342,7.1700005531311,6.39900016784668,1.29373753070831,0.80258750915527,0.38362500071526,0.8233500123024,0.86487501859665,0.90997499227524,1.06493747234344,0.70331251621246,0.52126252651215,13.678050994873,11.9380502700806,10.0549507141113,0.28800001740456,0.51600003242493,0.29595002532005,5.26200008392334,4.36500024795532,4.85805034637451,SWING_LEFT
-0.19552500545979,-0.38609999418259,-0.50943750143051,0.84411251544952,1.14702498912811,1.42312502861023,-3.21832489967346,-3.84999990463257,-4.46448755264282,1.125,0.98805004358292,-0.07800000160933,2.47995018959045,1.53705012798309,0.29595002532005,9.53595066070557,8.85705089569092,8.35605049133301,-0.67443752288818,-1.13987493515015,-1.1533499956131,1.34860002994537,1.21302497386932,1.22883749008179,-4.68324995040894,-3.91105008125305,-4.5622501373291,-3.00195002555847,-11.9950504302979,-5.64405012130737,-2.24205017089844,-5.9800500869751,-8.36805057525635,7.9830002784729,5.40105009078979,8.80605030059814,-0.99082499742508,-0.27252501249313,-0.32133749127388,1.00292503833771,-0.04784999787807,0.03657500073314,-4.94711256027222,-2.75659990310669,-0.27527499198914,-4.77705001831055,-14.8470010757446,-16.6300506591797,-8.78700065612793,-7.60200023651123,-11.4859504699707,9.41400051116943,10.0990505218506,11.2780504226685,0.64006251096725,1.01034998893738,0.05857500061393,1.17521250247955,0.88811248540878,0.92344999313354,4.32079982757568,5.5815372467041,7.10146236419678,-11.635950088501,-6.67005014419556,-3.73695015907288,-15.399001121521,-14.7930011749268,-12.7999505996704,17.4589500427246,15.937050819397,8.86395072937012,0.43243750929832,2.00722503662109,1.66512501239777,0.7401624917984,-0.63414996862411,-0.66357499361038,9.14773750305176,15.1219749450684,18.8798503875732,-10.828950881958,-15.9190511703491,-0.22605000436306,-13.16100025177,-23.8840503692627,-44.3770523071289,11.9650506973267,11.1660003662109,1.14900004863739,1.27792501449585,3.3706750869751,4.06821250915527,-0.54862499237061,-1.63349997997284,-3.86925005912781,18.0967864990234,10.8373374938965,8.96211242675781,11.5360507965088,29.8920021057129,17.6500511169434,-50.7199516296387,-28.4470520019531,-17.0659503936768,3.07800006866455,14.8080005645752,9.27795028686523,3.28638744354248,2.10980010032654,1.58083748817444,-3.57857489585876,-1.77649998664856,-0.30428749322891,8.47220039367676,7.85028743743896,6.68717479705811,12.8880004882813,15.0520505905151,19.1839504241943,-16.1950511932373,-13.8190507888794,-11.8360509872437,-0.99405002593994,-2.36295008659363,2.33100008964539,1.84841251373291,2.12203741073608,2.02922487258911,0.29672500491142,0.55577498674393,0.79516249895096,5.15281248092651,3.77341246604919,2.71301245689392,22.6800003051758,21.855001449585,19.3159503936768,-9.47595024108887,-6.94200038909912,-5.02095031738281,6.28200006484985,6.19095039367676,4.70295000076294,1.80936253070831,1.72617495059967,1.59431254863739,0.69987499713898,0.52882498502731,0.77563750743866,1.92623746395111,1.34103751182556,0.8816499710083,16.8220500946045,14.8459510803223,13.8529510498047,-3.89100027084351,-3.64905023574829,-2.9320502281189,4.81695032119751,5.73405027389526,5.20500040054321,1.3084499835968,0.96139997243881,0.64130002260208,1.35107493400574,1.65646255016327,0.62782502174377,0.53831249475479,0.23787499964237,-0.24227499961853,12.8359508514404,12.0649509429932,9.60000038146973,-2.19705009460449,-1.11495006084442,-0.17700000107288,4.2529501914978,4.14000034332275,5.85795021057129,SWING_LEFT
0.2576749920845,0.33838748931885,0.15633749961853,0.20143750309944,0.17820000648499,0.35777500271797,-0.53308749198914,-1.14152503013611,-2.63436245918274,2.18204998970032,3.10095024108887,2.82600021362305,2.58795022964478,2.87295007705688,2.68395018577576,12.1680002212524,11.4120006561279,9.50505065917969,-0.06599999964237,-0.54614996910095,-0.77096247673035,0.50077497959137,-0.01718750037253,-0.52057498693466,-3.28679990768433,-4.20433759689331,-4.72230005264282,1.75695013999939,-0.43395000696182,-0.0709500014782,1.93005013465881,0.79800003767014,0.42495003342628,8.59605026245117,8.23200035095215,7.9069504737854,-1.30363750457764,-1.79478752613068,-2.71466255187988,-0.14313749969006,0.25891250371933,1.55512499809265,-6.30561256408691,-6.46813726425171,-5.4955997467041,2.38095021247864,0.55500000715256,-4.78695011138916,-3.46005010604858,-7.09800052642822,-13.1370010375977,6.48795032501221,6.06195020675659,6.89895009994507,-2.5008499622345,-0.8234875202179,0.00976249948144,1.84222495555878,0.14286249876022,-0.42033749818802,-4.09805011749268,2.36115002632141,6.60412502288818,-10.2840003967285,-24.6840019226074,-26.1100521087646,-14.9100008010864,-15.7170009613037,-17.5740013122559,10.3860006332397,16.6600513458252,15.7510509490967,1.18621253967285,2.01698756217957,3.36091256141663,-0.57681250572205,-0.76738750934601,-0.45223748683929,12.4903621673584,14.4940128326416,16.4401874542236,-12.3030004501343,-6.93795013427734,4.26405000686646,-25.5450019836426,-30.5220012664795,-42.5700035095215,12.2880001068115,11.2950000762939,9.74205017089844,4.13916254043579,4.87341260910034,5.65042495727539,-1.53092503547668,-2.85890007019043,-2.99818754196167,16.1566619873047,15.1964998245239,13.6619997024536,8.62395000457764,11.3470506668091,14.5780506134033,-45.0439529418945,-43.1710510253906,-37.6069526672363,10.8310508728027,9.51195049285889,8.14095020294189,6.14762496948242,5.54042482376099,4.45060014724731,-2.35922503471375,-1.69221246242523,-0.74538749456406,11.5960626602173,9.64383697509766,8.21809959411621,18.5929508209229,18.6619510650635,17.9250011444092,-29.2969512939453,-18.6940517425537,-14.0230503082275,6.15000009536743,0.34305000305176,-2.5729501247406,3.63824987411499,3.26067495346069,3.10062503814697,-0.35571250319481,-1.24629998207092,-1.50534999370575,7.12580013275146,5.2956748008728,4.45032501220703,17.0160007476807,16.6720504760742,17.7030010223389,-11.1199502944946,-8.01405048370361,-7.84200048446655,-1.03500008583069,3.06300020217896,2.60595011711121,1.95222496986389,1.38297498226166,0.73548752069473,-0.04537500068545,0.67787498235703,1.11045002937317,2.53948760032654,1.82490003108978,1.05517494678497,18.5280017852783,17.3340015411377,14.6110506057739,-4.19505023956299,-3.53700017929077,-3.26700019836426,-0.0679500028491,0.72600001096725,2.90805006027222,0.57653748989105,0.3091000020504,0.08428750187159,1.07249999046326,0.66082501411438,0.5460125207901,0.68860000371933,0.28916248679161,0.33316248655319,13.606050491333,11.7160501480103,11.017050743103,-2.23800015449524,-1.40205001831055,-1.66995012760162,3.45600008964539,4.2529501914978,4.16205024719238,SWING_LEFT
0.55948752164841,0.38967499136925,0.03781250119209,1.10549998283386,0.68158751726151,0.35420000553131,-2.35826253890991,-3.3576123714447,-4.2433876991272,4.52505016326904,3.74295020103455,2.4340500831604,3.34605026245117,2.581050157547,0.43905001878738,9.57405090332031,8.25405025482178,7.26495027542114,-0.32628750801086,-1.25716245174408,-1.6493124961853,0.33948749303818,1.00650000572205,1.26307499408722,-4.91906261444092,-5.6336498260498,-5.65565013885498,0.35895001888275,-3.53295016288757,-4.95705032348633,-1.01205003261566,-5.43900012969971,-7.90395021438599,7.09305047988892,6.18900012969971,6.93795013427734,-1.627312541008,-0.18452499806881,1.09092497825623,1.37912499904633,1.42065000534058,1.40483748912811,-5.48955011367798,-4.12486267089844,-2.12863755226135,-6.43605041503906,-12.3529510498047,-17.6370010375977,-9.81105041503906,-11.8740005493164,-12.0960006713867,8.56005001068115,13.9129505157471,15.5380506515503,1.84222495555878,1.88993752002716,1.23268747329712,0.83792501688004,-0.68062502145767,-0.70633751153946,0.52126252651215,5.62430000305176,8.00181198120117,-21.3679504394531,-17.6749515533447,-14.4540004730225,-12.5989503860474,-16.1160011291504,-18.5809516906738,14.0230503082275,9.48795032501221,7.09305047988892,0.78429996967316,0.90282499790192,1.80564999580383,-0.07466249912977,0.22591249644756,-0.72710001468658,10.7860498428345,14.0919628143311,18.7467498779297,-14.1670503616333,-15.4450511932373,-0.24105000495911,-20.9569511413574,-25.8079509735107,-46.4299507141113,7.65495014190674,10.8570003509521,8.45700073242188,1.52336251735687,1.74459993839264,3.76530003547669,0.47753748297691,0.84534996747971,-0.69410002231598,18.138313293457,15.4676494598389,12.1067371368408,12.939001083374,23.1540012359619,27.6310520172119,-52.8259506225586,-47.6929512023926,-33.5130004882813,6.21495008468628,10.8379507064819,19.8780002593994,5.99128723144531,6.16591262817383,4.46654987335205,-3.1264750957489,-3.67510008811951,-1.44539999961853,9.85751247406006,8.59801292419434,7.50337505340576,22.0530014038086,17.3650512695313,18.1069507598877,-22.6200008392334,-17.3419513702393,-12.9910507202148,18.6580505371094,5.47095012664795,-4.91805028915405,2.62295007705688,2.08051252365112,2.34684991836548,0.90997499227524,1.64917504787445,1.63446247577667,6.1875,4.95247507095337,4.08374977111816,20.9839515686035,21.0700511932373,18.5280017852783,-8.96205043792725,-7.20000028610229,-7.04295015335083,-3.60000014305115,4.38195037841797,7.48800039291382,2.51666259765625,2.21608757972717,1.86669993400574,1.65893745422363,1.23007500171661,0.32477501034737,3.75512504577637,3.63907504081726,3.36421251296997,14.0299510955811,11.8189506530762,13.2040510177612,-6.18300008773804,-5.32905006408691,-5.1739501953125,6.66495037078857,5.45400047302246,5.49705028533936,1.61878752708435,1.32921254634857,0.86129999160767,-0.33605000376701,-0.21271249651909,0.72806251049042,2.68619990348816,1.88594996929169,1.37651252746582,14.9490003585815,15.4609508514404,13.8139505386353,-3.34800004959106,-1.54095005989075,-0.04800000041723,5.64795017242432,4.875,3.34800004959106,SWING_LEFT
0.27238750457764,-0.18452499806881,-0.61462497711182,1.56117498874664,1.386549949646,1.15678751468658,-4.22757482528687,-4.81634998321533,-5.26968765258789,0.43095001578331,-0.13500000536442,-1.20000004768372,1.25700008869171,0.4870500266552,-0.40005001425743,4.85805034637451,4.32705020904541,4.06800031661987,-1.05558753013611,-1.363450050354,-1.58578753471375,0.62782502174377,-0.09666249901056,-0.77962499856949,-5.34778738021851,-5.09121227264404,-4.88606262207031,-2.7199501991272,-4.14300012588501,-4.27500009536743,-1.29705011844635,-2.09400010108948,-3.53700017929077,4.40595006942749,5.27400016784668,6.39900016784668,-1.76783752441406,-2.40680003166199,-2.46303749084473,-0.89319998025894,0.45429998636246,0.76092499494553,-4.86406230926514,-4.68324995040894,-4.21781253814697,-4.12695026397705,-5.36595010757446,-7.5319504737854,-4.41795015335083,-7.76505041122437,-8.66700077056885,7.28400039672852,6.37005043029785,8.02905082702637,-2.20646238327026,-1.94865000247955,-1.43797504901886,0.26124998927116,-0.01718750037253,-0.49981248378754,-2.2789249420166,-0.57461249828339,2.03500008583069,-10.7500505447388,-13.5280504226685,-18.5299510955811,-11.7640504837036,-13.1659507751465,-14.2279510498047,9.28995037078857,10.5940504074097,12.8790006637573,0.49472498893738,1.88141250610352,6.10486268997192,-1.04472494125366,-1.54068744182587,-3.55891251564026,9.17826271057129,12.8262748718262,19.6043376922607,-23.5000514984131,-20.5849514007568,-11.5590009689331,-19.0840511322021,-25.3390502929688,-51.1150512695313,15.6960010528564,16.0950012207031,15.2700004577637,6.52148723602295,3.78963756561279,3.76887488365173,-3.58214998245239,-1.23653745651245,-2.1038875579834,20.0271492004395,11.870924949646,8.02133750915527,2.18700003623962,35.5470008850098,30.4210510253906,-66.0880508422852,-33.1750526428223,-10.7640008926392,2.96805024147034,0.10305000841618,3.42195010185242,1.2997875213623,0.72448748350143,1.31821250915527,0.09143749624491,0.86721247434616,0.42872500419617,5.28962516784668,4.42832517623901,3.75388741493225,18.9880504608154,17.6670017242432,15.456000328064,-4.39604997634888,-3.82905006408691,-2.62995004653931,-6.08595037460327,1.27800011634827,8.63595008850098,1.6993625164032,1.33155000209808,0.83311247825623,0.21972499787807,0.62053751945496,0.9149249792099,3.19921255111694,2.60424995422363,2.20481252670288,13.6159505844116,12.3619508743286,10.5310506820679,-2.09595012664795,-0.84495002031326,-0.43800002336502,7.62195014953613,4.29795026779175,4.27905035018921,0.64501249790192,0.66701251268387,0.59496247768402,0.64982497692108,0.49829998612404,0.86721247434616,2.11557507514954,1.94576251506805,1.63913750648499,8.58600044250488,8.14095020294189,7.60005044937134,-0.67500001192093,-0.55500000715256,-0.0430500023067,6.4830002784729,7.90395021438599,7.95900058746338,0.32120001316071,0.00852499995381,0.16005000472069,1.40964996814728,1.128737449646,-0.01113750040531,1.43756246566772,1.59032499790192,2.06552505493164,5.75505018234253,3.89295029640198,2.62500023841858,0.93900007009506,0.39105001091957,-0.76395004987717,7.49505043029785,8.06505012512207,11.1990003585815,SWING_LEFT
-1.22663748264313,-1.38421249389648,-1.37568747997284,1.4108874797821,1.1727374792099,0.77563750743866,-4.24462509155273,-4.71253728866577,-4.85911226272583,0.72795003652573,-0.31005001068115,-2.14995002746582,-1.3620001077652,-2.18505001068115,-2.82405018806458,7.46205043792725,7.74600028991699,8.37105083465576,-1.29387497901917,-1.38668751716614,-1.66526246070862,0.39930000901222,0.22220000624657,0.19538749754429,-4.62948751449585,-4.24091243743896,-3.78166246414185,-3.83895015716553,-5.01000022888184,-6.03600025177002,-3.78300023078919,-3.94905018806458,-4.93005037307739,8.66295051574707,8.06895065307617,7.74900054931641,-1.95593750476837,-2.07941246032715,-1.21934998035431,0.256437510252,0.22714999318123,0.03891250118613,-3.40284991264343,-2.98388743400574,-1.33691251277924,-7.0770001411438,-7.68000030517578,-10.0039501190186,-6.05205011367798,-8.00699996948242,-11.9959506988525,8.26800060272217,9.26805019378662,12.5730009078979,-0.47533750534058,1.64312493801117,2.69376254081726,-0.00618749996647,0.05733750015497,0.53982502222061,0.00687499996275,4.73742485046387,7.64376258850098,-11.7619504928589,-17.215950012207,-16.8040504455566,-13.8030004501343,-16.7599506378174,-19.9210510253906,13.6020002365112,16.8589515686035,16.3339500427246,3.48425006866455,3.33643746376038,2.75371241569519,0.43724998831749,-0.48757499456406,-2.72332501411438,12.9522247314453,15.5079374313354,17.6679248809814,-11.767050743103,-9.92700004577637,3.39105010032654,-27.4759521484375,-33.1590003967285,-46.935001373291,10.8570003509521,8.72504997253418,1.45305001735687,2.00117492675781,3.3206250667572,4.3102126121521,-1.14853751659393,-0.46076250076294,-1.28287494182587,16.6490497589111,12.6809377670288,10.5368995666504,10.9930505752563,18.0640506744385,18.8850002288818,-48.9730529785156,-33.0270004272461,-24.2140502929688,-0.34605002403259,12.2160005569458,10.6030502319336,3.24843740463257,2.75976252555847,3.27538752555847,-1.9267874956131,-1.63968753814697,0.65106248855591,8.23143768310547,7.89676237106323,5.42891263961792,15.0439510345459,17.2049999237061,26.4370517730713,-15.9079504013062,-16.1640014648438,-11.4379501342773,0.48105001449585,2.9320502281189,5.9800500869751,3.19962501525879,2.31879997253418,1.89722502231598,1.65646255016327,1.64917504787445,1.05173754692078,3.62202501296997,1.5303750038147,1.25551247596741,26.5350017547607,17.9970016479492,14.6110506057739,-7.7029504776001,-5.41500043869019,-5.41995048522949,4.0009503364563,2.41995000839233,3.56400012969971,1.71283745765686,1.53202497959137,1.13121247291565,0.64130002260208,0.48853749036789,0.45801249146461,1.06369996070862,0.77288746833801,0.45402500033379,13.4530506134033,13.2109508514404,12.6850509643555,-4.88400030136108,-3.40800023078919,-2.68995022773743,5.16000032424927,5.39595031738281,4.29105043411255,0.66329997777939,0.38719999790192,0.20638750493526,0.53377497196198,0.37496250867844,0.17943750321865,0.2231625020504,0.06916250288486,-0.05169999971986,11.532000541687,10.1200504302979,9.08100032806396,-2.03700017929077,-0.7540500164032,-0.02400000020862,3.47295022010803,4.56405019760132,5.13300037384033,SWING_LEFT
-1.65907502174377,-1.96693754196167,-2.29075002670288,0.68158751726151,0.82940000295639,1.53188753128052,-4.30814981460571,-4.24462509155273,-4.14809989929199,-2.02800011634827,-2.94495010375977,-3.20805025100708,-0.00705000013113,-0.05295000225306,-3.56100010871887,8.28495025634766,7.7440505027771,7.20300054550171,-2.63766241073608,-2.24070000648499,-1.72507500648499,1.43288743495941,0.90021246671677,0.83668750524521,-4.29715013504028,-4.40096235275269,-3.3235125541687,-3.18105006217957,-6.46395015716553,-11.6280002593994,-6.93495035171509,-11.2369508743286,-11.260950088501,7.27305030822754,11.5459508895874,12.1489505767822,-1.66402494907379,-0.73425000905991,0.02309999987483,0.70482498407364,0.25891250371933,0.28201249241829,-1.31009995937347,3.72831249237061,5.53396224975586,-16.9500007629395,-19.2019500732422,-14.5930509567261,-11.0940008163452,-14.5590009689331,-17.9610004425049,11.4720001220703,15.9160509109497,15.082950592041,0.97363752126694,1.88498747348785,3.26920008659363,-0.03066249936819,-0.57805001735687,-1.02643752098084,7.41661262512207,8.37320041656494,11.2552003860474,-7.66800022125244,-7.85700035095215,-8.63505077362061,-22.756950378418,-23.7120018005371,-28.4730014801025,12.3000001907349,13.3500003814697,9.59595012664795,3.2436249256134,3.03462505340576,2.79276251792908,-0.86019998788834,-0.88948750495911,-0.90667498111725,12.8788003921509,14.0553874969482,14.4084873199463,-6.58905029296875,-2.31795001029968,2.11304998397827,-32.9119529724121,-37.8079528808594,-41.4169502258301,6.95895051956177,5.7049503326416,4.41795015335083,2.77323746681213,2.91623759269714,2.96752500534058,-0.865149974823,-1.52487504482269,-1.59568750858307,14.1664876937866,13.6742372512817,12.1580247879028,5.23095035552979,8.51205062866211,15.0919504165649,-42.0150032043457,-40.6339530944824,-36.351001739502,4.64505004882813,5.65995025634766,4.35795021057129,2.83428740501404,2.73418760299683,3.04562497138977,-1.36234998703003,-1.17658746242523,-0.52181249856949,9.72441291809082,8.01281261444092,7.33713722229004,20.4739513397217,20.3610000610352,18.7870502471924,-26.1760520935059,-19.6290016174316,-17.0380516052246,3.98505020141602,5.81505012512207,8.45895004272461,3.40724992752075,3.35843753814697,3.41948747634888,0.88068747520447,1.83974993228912,1.58441245555878,6.82522487640381,5.91882514953613,5.15514993667603,19.8370513916016,21.8260517120361,22.5580501556396,-15.9250507354736,-13.3740005493164,-12.796950340271,8.60805034637451,7.55700016021729,9.00705051422119,3.23510003089905,2.56437492370605,1.95593750476837,1.20573747158051,1.70541250705719,1.81898748874664,3.05139994621277,2.2121000289917,1.78942501544952,23.1199512481689,19.969051361084,16.4149513244629,-8.59605026245117,-6.03300046920776,-4.73805046081543,5.8560004234314,3.83895015716553,4.40595006942749,1.72012495994568,1.53807497024536,-0.14052499830723,-0.01718750037253,-1.20229995250702,-1.61150002479553,1.66361248493195,1.51084995269775,0.07535000145435,12.2490005493164,13.2619504928589,17.1070499420166,-2.54595017433167,-1.20405006408691,1.81500005722046,6.72705030441284,4.99005031585693,-1.11600005626678,SWING_LEFT
-2.10017490386963,-2.18322491645813,-2.01341247558594,3.72968745231628,3.37796258926392,2.83662509918213,-5.98798751831055,-6.64895009994507,-6.92628765106201,-2.9520001411438,-5.93100023269653,-8.31195068359375,-2.77395009994507,-5.27400016784668,-9.04500007629394,3.5590500831604,5.7480001449585,6.78900051116943,-1.94136250019073,-1.8631249666214,-1.72507500648499,2.25142502784729,1.65522503852844,0.85511249303818,-6.54142475128174,-5.64464998245239,-4.69053745269775,-11.1379508972168,-13.1790008544922,-14.3659505844116,-11.6920509338379,-13.0560007095337,-13.8310508728027,6.50700044631958,6.46395015716553,6.74805021286011,-1.51868748664856,-1.32192504405975,-0.65367501974106,-0.27252501249313,-1.46616244316101,-1.73249995708466,-3.62642502784729,-1.85130000114441,3.93965005874634,-14.6200504302979,-16.9980010986328,-22.4610004425049,-16.0930500030518,-16.5420017242432,-15.8340005874634,7.7509503364563,8.88105010986328,10.0530004501343,-0.30552500486374,-0.18452499806881,-0.19428749382496,-1.1583000421524,-0.93348747491837,-0.81743746995926,7.21861267089844,9.85751247406006,11.8159246444702,-20.8390502929688,-14.2819509506226,-7.83300018310547,-17.7630004882813,-21.8620510101318,-26.1379508972168,9.44505023956299,8.03295040130615,6.49995040893555,-0.22852499783039,-0.11728750169277,0.22481249272823,-0.70867496728897,-0.93596249818802,-1.1950124502182,13.5459499359131,14.9899749755859,15.788987159729,-4.20600032806396,-0.8440500497818,3.45795011520386,-30.3690013885498,-35.6500511169434,-40.7040023803711,6.046950340271,6.61005020141602,6.94005012512207,1.35726249217987,2.29308748245239,3.07862496376038,-2.44598746299744,-2.44598746299744,-2.39841246604919,15.0205001831055,12.7725124359131,10.6162376403809,12.9340505599976,21.1219501495361,21.9190502166748,-41.9910011291504,-36.7890014648438,-25.441951751709,8.84505081176758,9.95700073242188,10.8210000991821,3.49401259422302,2.95528745651245,2.56671237945557,-1.25482499599457,-0.14547500014305,0.18562500178814,8.52596282958984,7.77094984054565,6.94498729705811,19.5,19.8130512237549,21.0670509338379,-15.8479509353638,-12.9820508956909,-10.9050006866455,6.74100017547607,4.75500011444092,5.86305046081543,2.8550500869751,2.66571259498596,1.94246244430542,0.04138749837875,0.5545374751091,1.47564995288849,4.285325050354,2.89506244659424,1.99828743934631,24.609001159668,22.4820003509521,18.4230003356934,-6.2839503288269,-3.64200019836426,-1.70595002174377,6.95895051956177,4.28400039672852,1.42905008792877,0.99082499742508,0.20762500166893,-0.25299999117851,2.02784991264343,1.86175000667572,1.30102503299713,1.50713753700256,1.40084993839264,1.28851246833801,14.6850004196167,11.4210004806519,10.113000869751,-0.97200006246567,-0.21105000376701,0.40605002641678,0.80895006656647,2.3929500579834,4.33200025558472,-0.43862500786781,-0.48138749599457,-0.48867499828339,0.77192497253418,0.43724998831749,0.1024374961853,1.09175002574921,0.87793749570847,0.68612498044968,9.49995040893555,8.73900032043457,7.94505023956299,1.24500000476837,1.8840000629425,1.62105011940002,5.671950340271,6.25605010986328,7.05195045471191,SWING_LEFT
-1.03853750228882,-1.22787499427795,-1.8130749464035,0.47025001049042,0.24543750286102,-0.00508749997243,-5.38697481155396,-5.52378749847412,-5.73264980316162,-1.93005013465881,-3.58605027198792,-3.80805015563965,-2.52000021934509,-3.59700012207031,-6.53805017471313,9.28305053710938,8.20604991912842,6.76995038986206,-2.45327496528625,-3.03847503662109,-3.57115006446838,-0.04537500068545,0.25891250371933,0.94916248321533,-5.9782247543335,-6.2702751159668,-5.96598768234253,-3.55005025863647,-3.78900027275085,-6.03900051116943,-9.38295078277588,-13.1989507675171,-17.1880512237549,6.53505039215088,6.69105052947998,6.91800022125244,-3.59424996376038,-2.37627506256104,-0.14904999732971,1.42312502861023,1.21302497386932,0.65463751554489,-4.56720018386841,-0.94847500324249,4.41732501983643,-12.4849510192871,-26.2180519104004,-36.8710517883301,-20.3830509185791,-16.6480503082275,-13.7310009002686,10.4380502700806,18.526050567627,23.5230007171631,1.49283754825592,2.05975008010864,1.79588747024536,-0.19799999892712,-0.28847500681877,0.17462499439716,9.2295503616333,12.3156003952026,14.2850122451782,-31.5730514526367,-17.4649505615234,-7.33800029754639,-18.5929508209229,-25.9750518798828,-32.2660522460938,19.6960506439209,11.461950302124,6.09000015258789,0.80877500772476,-0.66838747262955,-2.04765009880066,1.34502494335175,3.06996250152588,3.70287489891052,16.2141380310059,18.2091255187988,19.3184757232666,-5.12205028533936,-4.67204999923706,-1.19805002212524,-36.7819519042969,-44.1300010681152,-52.0990524291992,2.54400014877319,2.11605000495911,6.10695028305054,0.45567500591278,3.81906247138977,4.74017477035522,-3.08618760108948,-6.46538734436035,-3.73972487449646,16.2141380310059,12.9729871749878,8.46119976043701,16.0570507049561,20.7990016937256,20.6460018157959,-52.0960540771484,-39.832950592041,-19.4089508056641,20.7490501403809,20.8690509796143,0.27300000190735,2.79647493362427,1.45626246929169,1.9901750087738,0.18438750505447,2.2624249458313,1.11045002937317,7.27732515335083,4.96099996566772,4.17051267623901,22.3429508209229,20.7130508422852,19.4640007019043,-13.7430009841919,-7.72005033493042,-7.79595041275024,-3.64305019378662,8.10000038146973,9.98400020599365,1.63212502002716,0.70001250505447,-0.71843749284744,0.34801250696182,0.93321251869202,0.90392500162125,2.54924988746643,1.810187458992,0.9316999912262,15.9420003890991,14.2549505233765,10.9120502471924,-4.14195013046265,-1.89105010032654,-1.75905013084412,4.15500020980835,2.38095021247864,5.9520001411438,-0.65972501039505,-0.3812874853611,-0.12099999934435,0.22096249461174,-0.45100000500679,-0.64762496948242,0.80341249704361,0.85236251354218,0.89883750677109,9.09600067138672,7.2049503326416,6.84900045394897,-1.87605011463165,-0.63405001163483,0.17805001139641,8.77500057220459,10.3069505691528,10.2450008392334,0.00728749996051,0.07328750193119,0.08057499676943,-0.46076250076294,-0.05513750016689,0.35901248455048,0.7900750041008,0.57873749732971,0.38692501187325,7.2460503578186,7.54995012283325,7.14300012588501,0.4609500169754,1.03305006027222,1.18995010852814,9.66300010681152,9.12705039978027,8.71095085144043,SWING_LEFT
-0.12223749607801,-1.33416247367859,-1.65783751010895,0.81840002536774,1.52817499637604,2.10732507705688,-4.37043762207031,-5.34049987792969,-5.7534122467041,0.01005000062287,-1.9780501127243,-2.20005011558533,1.10699999332428,-1.34295010566711,-4.53495025634766,5.83905029296875,5.82495021820068,5.83695030212402,-2.08793759346008,-2.24193739891052,-2.12217497825623,1.95827496051788,1.49517500400543,1.0419750213623,-6.02470016479492,-5.56778764724731,-4.70153760910034,-5.70600032806396,-8.08395004272461,-10.2880506515503,-9.37604999542236,-10.3110008239746,-10.8450002670288,6.88005018234253,7.45905017852783,8.78205013275146,-1.74954998493195,-1.16187500953674,-0.4961000084877,0.51177501678467,0.1134374961257,0.04757500067353,-3.44190001487732,-1.71806252002716,0.48344999551773,-12.0520505905151,-14.5090503692627,-16.2829513549805,-11.6490001678467,-11.7349510192871,-12.9289503097534,10.1490001678467,11.7019510269165,11.7160501480103,0.07204999774694,0.37138751149178,0.30414998531342,-0.10147500038147,-0.30428749322891,-0.5878124833107,3.27497506141663,6.48326253890991,9.75012493133545,-18.8359508514404,-19.7640018463135,-17.659049987793,-14.1379508972168,-16.8030014038086,-20.7040500640869,12.0679502487183,11.3190002441406,10.2469501495361,0.16005000472069,0.36643749475479,1.36578750610352,-0.8259624838829,-1.06548750400543,-2.27741241455078,12.5246000289917,16.7345752716064,17.956262588501,-12.3940505981445,-4.53299999237061,0.26595002412796,-26.2069511413574,-38.4970512390137,-45.7620010375977,9.51195049285889,10.8040504455566,11.4840002059937,3.44643759727478,3.88135004043579,2.78905010223389,-2.12588739395142,-1.48087501525879,-0.27500000596046,16.431661605835,12.5929374694824,6.36102485656738,16.7389507293701,29.5000514984131,24.7480506896973,-51.2250022888184,-36.6859512329102,-10.4359502792358,9.37305068969727,7.47405052185059,2.06805014610291,2.07074999809265,1.80193746089935,1.67488753795624,0.74758750200272,1.294837474823,1.19473743438721,6.02868747711182,5.5107250213623,3.7233624458313,13.7689504623413,16.336950302124,19.6459503173828,-6.1360502243042,-6.64095020294189,-5.01300001144409,4.87695026397705,4.94700002670288,7.05495023727417,1.51126253604889,1.07387495040894,0.3286249935627,1.10302495956421,1.44264996051788,1.84827494621277,2.65801239013672,1.81266248226166,1.15527498722076,19.006950378418,16.5810012817383,9.82800006866455,-3.16605019569397,-2.02005004882813,-0.47205001115799,6.17400026321411,4.77405023574829,6.15705013275146,0.28215000033379,0.28586250543594,0.12581250071526,1.16902494430542,0.38472500443459,-0.15289999544621,1.37527501583099,1.54384994506836,1.54508745670319,7.60695028305054,7.27695035934448,7.76295042037964,-0.29700002074242,-0.05805000290275,0.16395001113415,7.91400051116943,8.26800060272217,7.60500049591064,-0.16499999165535,-0.40438750386238,-0.49967500567436,-0.40204998850822,-0.51810002326965,-0.83091247081757,1.3886125087738,1.18470001220703,1.02946245670319,8.2339506149292,8.45400047302246,8.49495029449463,0.8320500254631,1.46100008487701,1.10400009155273,7.0090503692627,7.33695030212402,8.45205020904541,SWING_LEFT
-0.60114997625351,-1.32439994812012,-1.87660002708435,0.42253750562668,1.07497501373291,1.09573745727539,-3.17803740501404,-4.23486232757568,-4.63196229934692,4.33605003356934,4.13505029678345,2.52705001831055,4.51695013046265,2.17905020713806,0.87495005130768,8.89500045776367,6.94905042648315,7.34205055236816,-2.43003749847412,-2.71466255187988,-3.10681247711182,2.37971258163452,3.05414986610413,2.9381000995636,-4.96663761138916,-5.06068754196167,-5.49807500839233,-0.37500002980232,-1.42695009708405,-3.35400009155273,-1.02195000648499,-2.51295018196106,-7.53795051574707,8.0310001373291,7.28700017929077,7.91400051116943,-2.53027486801147,0.10628750175238,1.12516248226166,1.62593746185303,-0.33247500658035,0.48124998807907,-5.58607482910156,-1.38091254234314,2.73872494697571,-4.70100021362305,-20.2309513092041,-27.775951385498,-10.9789505004883,-6.91305017471313,-5.54700040817261,12.0199508666992,18.0810012817383,17.377950668335,1.65783751010895,1.83493745326996,1.38902497291565,1.62964999675751,2.23561239242554,2.30766248703003,6.95598745346069,10.7457628250122,14.2899627685547,-27.7060508728027,-22.8540019989014,-19.3380012512207,-8.99505043029785,-16.10205078125,-24.0870018005371,15.4009504318237,13.627950668335,10.0990505218506,0.40796250104904,-0.27610000967979,-0.28228750824928,1.5856499671936,-0.3812874853611,-2.44227504730225,17.64963722229,20.194486618042,20.1297245025635,-16.7280006408691,-11.3440504074097,-0.0730499997735,-34.1140518188477,-47.4829521179199,-58.7680511474609,7.39005041122437,6.8779501914978,6.39705038070679,1.15568745136261,2.9808623790741,4.2332124710083,-3.9059624671936,-4.12582492828369,-3.10571241378784,17.186674118042,13.2966623306274,8.88387489318848,16.5330009460449,25.0320014953613,33.7740020751953,-55.9849510192871,-38.1739501953125,-18.7249507904053,9.48795032501221,10.1419506072998,8.29200077056885,2.10003757476807,1.0115875005722,0.7402999997139,1.27654993534088,2.20261240005493,1.22650003433228,4.40385007858276,3.48507499694824,1.89818751811981,23.1300010681152,19.1029510498047,16.123950958252,-4.26900005340576,-1.55805003643036,-2.61105012893677,-3.73605012893677,-0.97695004940033,7.12905025482178,1.30597496032715,1.35602498054504,1.34626245498657,0.31748750805855,0.64735001325607,1.17149996757507,1.03441250324249,0.74978750944138,0.37592500448227,13.1350507736206,11.3380508422852,8.22495079040527,-2.37900018692017,-1.15605008602142,-0.06195000186563,8.55795001983643,7.92795038223267,7.80900049209595,1.21921253204346,0.45567500591278,0.2088624984026,0.86487501859665,-0.0331375002861,-0.12718750536442,0.32092499732971,0.05211250111461,-0.05293750017881,6.95595026016235,5.88195037841797,5.48700046539307,0.49905002117157,2.02605009078979,2.52105021476746,7.16700029373169,6.74805021286011,7.2460503578186,-0.03671250119805,-0.02571249939501,-0.10504999756813,-0.21271249651909,-0.42033749818802,-0.52181249856949,0.13887499272823,0.43821248412132,0.66302502155304,3.72105026245117,3.40305018424988,3.92700028419495,2.08500003814697,2.05200004577637,1.62600004673004,7.94700050354004,8.074049949646,7.54800033569336,SWING_LEFT
-1.13629996776581,-1.34268748760223,-1.94136250019073,1.48183751106262,1.03468751907349,0.29191249608994,-4.51467514038086,-4.73948764801025,-5.09121227264404,-0.97305005788803,-1.01595008373261,-0.72600001096725,2.49495005607605,1.96305012702942,-0.14400000870228,7.45905017852783,7.54305028915405,7.22505044937134,-2.54237508773804,-2.87842488288879,-2.90647506713867,0.02914999984205,0.4824874997139,1.34007501602173,-5.39673757553101,-5.42850017547607,-5.31973743438721,-1.04205000400543,-2.17905020713806,-3.65505027770996,-1.58895003795624,-2.38095021247864,-3.03195023536682,7.66005039215088,8.58105087280273,9.0100507736206,-2.88695001602173,-2.64632487297058,-2.25046253204346,1.65412497520447,1.17026245594025,0.86844998598099,-5.28550004959106,-5.58360004425049,-5.39426231384277,-4.27995014190674,-4.6840500831604,-5.56695032119751,-4.8600001335144,-9.70095062255859,-12.6520509719849,9.3880500793457,9.81900024414062,9.74895000457764,-1.12887501716614,-0.38609999418259,1.06892502307892,0.28696250915527,0.25025001168251,0.08415000140667,-2.36802506446838,1.78199994564056,9.97851276397705,-16.0050010681152,-25.85205078125,-21.3889503479004,-15.2100009918213,-13.3930501937866,-19.5790500640869,12.3360004425049,13.9150505065918,12.7450504302979,1.5332624912262,2.31027507781982,2.00117492675781,-0.8454874753952,-3.1411874294281,-2.84913754463196,12.7419872283936,17.072961807251,18.5609874725342,-14.2080011367798,-5.89995050430298,-2.14500021934509,-24.1759510040283,-36.1260032653809,-44.2909507751465,10.6390504837036,5.70000028610229,1.35495007038116,0.19415000081062,0.57653748989105,2.2710874080658,0.10491249710321,0.06091250106692,-1.04830002784729,15.6252250671387,12.7921752929688,9.15145015716553,19.6699504852295,22.6440010070801,29.8639507293701,-45.2140502929688,-31.0390510559082,-17.6809501647949,2.12100005149841,10.2370500564575,16.0639514923096,2.92723751068115,1.94246244430542,0.17215000092983,-1.39411246776581,-0.16018749773502,1.24973750114441,3.98722505569458,3.47654986381531,3.62312507629395,22.7809505462646,16.4590511322021,14.0940008163452,-3.95805025100708,-0.80895006656647,-1.53900003433228,3.4459502696991,0.02400000020862,3.66405010223389,0.49472498893738,1.40497493743896,0.90158748626709,1.13849997520447,0.26372501254082,0.12443749606609,3.05263757705688,1.14317500591278,0.36973750591278,14.7949504852295,14.2999505996704,12.0340509414673,-1.66605007648468,0.87495005130768,1.27905011177063,8.50500011444092,8.00505065917969,4.75500011444092,0.12581250071526,-0.35928750038147,-0.33357501029968,0.56677502393723,0.82568746805191,0.35653749108315,0.02158750034869,0.18535000085831,0.67636251449585,8.72504997253418,5.46600008010864,3.79800009727478,2.0350501537323,2.25495004653931,1.61400008201599,3.64695024490356,5.57595014572144,8.77995014190674,-0.0354750007391,0.18081249296665,0.14409999549389,-0.30195000767708,-0.61338752508163,-0.57309997081757,0.98546248674393,1.07469999790192,0.90117502212524,4.52295017242432,5.47800016403198,6.49200010299683,0.5830500125885,0.63795000314713,1.55895006656647,10.1820001602173,9.5910005569458,8.34495067596436,SWING_LEFT
