gyro_x_0,gyro_y_0,gyro_z_0,acc_x_0,acc_y_0,acc_z_0,gyro_x_1,gyro_y_1,gyro_z_1,acc_x_1,acc_y_1,acc_z_1,gyro_x_2,gyro_y_2,gyro_z_2,acc_x_2,acc_y_2,acc_z_2,gyro_x_3,gyro_y_3,gyro_z_3,acc_x_3,acc_y_3,acc_z_3,gyro_x_4,gyro_y_4,gyro_z_4,acc_x_4,acc_y_4,acc_z_4,gyro_x_5,gyro_y_5,gyro_z_5,acc_x_5,acc_y_5,acc_z_5,gyro_x_6,gyro_y_6,gyro_z_6,acc_x_6,acc_y_6,acc_z_6,gyro_x_7,gyro_y_7,gyro_z_7,acc_x_7,acc_y_7,acc_z_7,gyro_x_8,gyro_y_8,gyro_z_8,acc_x_8,acc_y_8,acc_z_8,gyro_x_9,gyro_y_9,gyro_z_9,acc_x_9,acc_y_9,acc_z_9,gyro_x_10,gyro_y_10,gyro_z_10,acc_x_10,acc_y_10,acc_z_10,gyro_x_11,gyro_y_11,gyro_z_11,acc_x_11,acc_y_11,acc_z_11,gyro_x_12,gyro_y_12,gyro_z_12,acc_x_12,acc_y_12,acc_z_12,gyro_x_13,gyro_y_13,gyro_z_13,acc_x_13,acc_y_13,acc_z_13,gyro_x_14,gyro_y_14,gyro_z_14,acc_x_14,acc_y_14,acc_z_14,gyro_x_15,gyro_y_15,gyro_z_15,acc_x_15,acc_y_15,acc_z_15,gyro_x_16,gyro_y_16,gyro_z_16,acc_x_16,acc_y_16,acc_z_16,gyro_x_17,gyro_y_17,gyro_z_17,acc_x_17,acc_y_17,acc_z_17,gyro_x_18,gyro_y_18,gyro_z_18,acc_x_18,acc_y_18,acc_z_18,gyro_x_19,gyro_y_19,gyro_z_19,acc_x_19,acc_y_19,acc_z_19,gyro_x_20,gyro_y_20,gyro_z_20,acc_x_20,acc_y_20,acc_z_20,gyro_x_21,gyro_y_21,gyro_z_21,acc_x_21,acc_y_21,acc_z_21,gyro_x_22,gyro_y_22,gyro_z_22,acc_x_22,acc_y_22,acc_z_22,gyro_x_23,gyro_y_23,gyro_z_23,acc_x_23,acc_y_23,acc_z_23,gyro_x_24,gyro_y_24,gyro_z_24,acc_x_24,acc_y_24,acc_z_24,gyro_x_25,gyro_y_25,gyro_z_25,acc_x_25,acc_y_25,acc_z_25,gyro_x_26,gyro_y_26,gyro_z_26,acc_x_26,acc_y_26,acc_z_26,gyro_x_27,gyro_y_27,gyro_z_27,acc_x_27,acc_y_27,acc_z_27,gyro_x_28,gyro_y_28,gyro_z_28,acc_x_28,acc_y_28,acc_z_28,gyro_x_29,gyro_y_29,gyro_z_29,acc_x_29,acc_y_29,acc_z_29,motion_type
0.05555000156164,0.00852499995381,-0.03272499889135,0.16376249492168,0.29576250910759,0.50998747348785,0.04028749838471,0.12911249697208,0.30071249604225,0.3649500310421,0.09195000678301,-0.19905000925064,1.42395007610321,1.27995002269745,1.06500005722046,10.2150001525879,10.1290502548218,9.86805057525635,-0.0969374999404,-0.08167500048876,0.10422500222921,0.75006252527237,1.26128745079041,1.13794994354248,0.49706250429153,0.91245001554489,0.91822499036789,-0.67605000734329,-0.3570000231266,2.75805020332336,1.23000001907349,2.14500021934509,2.73105001449585,9.7669506072998,10.7230501174927,11.3910007476807,0.42157500982285,0.6679750084877,0.1119249984622,0.07191249728203,-2.30944991111755,-7.83598756790161,0.35310000181198,-1.13616251945496,-5.10496234893799,8.02395057678223,11.8639507293701,18.3040504455566,3.32505011558533,4.6429500579834,6.63495016098022,11.3479509353638,11.896050453186,17.0410499572754,-0.99921250343323,-2.41009998321533,-3.48246240615845,-9.27588748931885,-9.38932514190674,-8.2945499420166,-6.05343723297119,-5.57328748703003,-3.80379986763,24.6940517425537,30.3960018157959,32.1370506286621,5.29395008087158,1.37595009803772,-3.78000020980835,17.0239505767822,16.6380004882813,18.6000003814697,-3.87543749809265,-3.91586256027222,-3.94405007362366,-6.44187498092651,-4.48868751525879,-2.60273742675781,-1.47386252880096,0.84301251173019,2.81270003318787,29.9790019989014,27.3109512329102,24.3010520935059,-10.6960506439209,-18.44700050354,-25.5580520629883,19.6420516967773,18.0390014648438,15.1699504852295,-4.5266375541687,-5.85007476806641,-9.99240016937256,-1.29827499389648,-0.33605000376701,4.3471999168396,4.16858768463135,5.05614995956421,5.03305006027222,20.8090515136719,13.2100505828857,-2.81505012512207,-33.3270034790039,-37.7580032348633,-35.5180511474609,11.5420503616333,7.85595035552979,3.175950050354,-11.7543249130249,-11.6098127365112,-9.37639999389648,8.86091232299805,12.7270002365112,14.1601619720459,4.43300008773804,4.38308763504028,5.21248769760132,-11.0200500488281,-19.627950668335,-24.0220508575439,-35.7529525756836,-31.4040012359619,-26.203950881958,4.28700017929077,8.0779504776001,8.20305061340332,-2.23121237754822,0.03808749839664,0.8787624835968,9.36925029754639,5.45421266555786,2.78932499885559,7.88342475891113,7.84299993515015,6.96753740310669,-16.8109512329102,-13.9630508422852,-11.8249502182007,-19.4290504455566,-15.4890003204346,-11.3070001602173,4.70895004272461,3.9019501209259,4.25400018692017,1.08377504348755,0.9179499745369,1.63349997997284,1.17397499084473,-0.33742499351501,-0.64625000953674,5.58813762664795,3.17226243019104,2.43306255340576,-10.3440008163452,-7.34805011749268,-4.58400011062622,-7.8919506072998,-2.58900022506714,-1.24800002574921,4.77300024032593,5.62095022201538,6.44700050354004,3.4375,6.56755018234253,9.52489948272705,-0.80286252498627,-1.35918748378754,-3.13362503051758,1.74707496166229,0.3632749915123,-1.65838754177094,-1.06605005264282,2.33100008964539,2.89695024490356,-1.65000009536743,-2.2110002040863,0.41805002093315,7.94400024414063,10.0930500030518,12.6360006332397,SWING_RIGHT
0.26826250553131,0.35777500271797,0.37674999237061,-0.53583747148514,-0.62782502174377,-0.69588750600815,0.47712498903275,0.51493752002716,0.54711252450943,-0.41505002975464,-0.46305000782013,0.93705004453659,2.11395001411438,2.47005009651184,1.41705012321472,10.4380502700806,10.3750505447388,9.53205013275146,0.02433750033379,-0.06971249729395,-0.12540000677109,-0.71527498960495,-0.34938749670982,0.13846249878407,0.60362499952316,0.83943748474121,1.13849997520447,-0.04605000093579,-0.98505002260208,-1.79895007610321,1.91205012798309,2.26695013046265,2.56605005264282,10.7389507293701,11.5219507217407,11.6209506988525,-0.02639999985695,0.08607500046492,0.0662750005722,0.77275002002716,1.06411254405975,0.61751252412796,1.54742503166199,1.78474998474121,1.65412497520447,-1.48995006084442,1.84005010128021,5.2630500793457,2.69805002212524,1.6030501127243,1.4760000705719,11.2710008621216,10.8349504470825,10.9290008544922,-0.03726249933243,-0.46268749237061,-1.71943747997284,-0.79818749427795,-3.81273746490479,-8.9641752243042,1.1119624376297,-0.1104125007987,-2.17772507667542,10.8100509643555,21.3840007781982,31.5289516448975,0.83700001239777,0.47805002331734,1.17900002002716,10.0690507888794,5.42505025863647,0.91695004701614,-4.37923765182495,-3.91105008125305,-2.33131241798401,-15.2572746276855,-13.4908123016357,-8.68958759307861,-2.92008757591248,-1.54632496833801,0.74098747968674,31.0519523620605,30.8560523986816,34.4940032958984,-4.40700006484985,-6.06405019760132,-10.6699504852295,7.30695056915283,14.8399505615234,16.219051361084,-0.40191251039505,-0.40191251039505,-1.86037504673004,-3.63907504081726,1.17603754997253,2.29982495307922,2.44805002212524,3.85041236877441,4.54767513275146,33.082950592041,21.2980518341064,17.0149517059326,-17.2660503387451,-27.5929508209229,-33.234001159668,14.6050510406494,9.93705081939697,8.47395038604736,-3.67826247215271,-5.94192504882813,-10.6503372192383,3.20938754081726,4.43643760681152,14.3097620010376,5.07086229324341,5.34311246871948,3.62243747711182,10.4290504455566,0.22605000436306,-10.7209501266479,-37.6020011901855,-35.2170028686523,-30.8460006713867,7.86300039291382,10.2120008468628,11.5339508056641,-10.0849370956421,-7.44878768920898,-3.26026248931885,18.9454364776611,20.3366622924805,17.7596378326416,2.98677492141724,3.04383754730225,4.08704996109009,-15.4650011062622,-22.3320007324219,-22.9260005950928,-29.1120014190674,-24.552001953125,-21.1270503997803,12.7990503311157,16.1209506988525,14.4520511627197,0.77275002002716,2.41023755073547,2.32388758659363,11.6518878936768,6.64661264419556,3.77932500839233,5.63392496109009,5.98276233673096,5.19653749465942,-17.4769515991211,-11.2350006103516,-9.08205032348633,-18.8159999847412,-16.7149505615234,-13.0170001983643,10.6410007476807,7.57500028610229,6.75900030136108,1.69042503833771,0.95796251296997,0.54766249656677,1.99952495098114,0.69478750228882,-0.96607500314713,3.94143748283386,2.82136249542236,1.41322493553162,-8.67795085906982,-8.27505016326904,-5.89500045776367,-9.4079999923706,-6.78300046920776,-2.66100001335144,7.37895011901855,8.0110502243042,6.71295022964478,SWING_RIGHT
-0.47863748669624,-0.55137497186661,-0.62328749895096,0.4976125061512,0.88247501850128,1.51236248016357,0.30057498812675,0.4641999900341,0.71170002222061,-1.99500012397766,-2.90295004844666,-3.73695015907288,2.35995006561279,2.16900014877319,2.19000005722046,9.63000011444092,9.40500068664551,9.00795078277588,-0.55563747882843,-0.4644750058651,-0.31075000762939,2.92146253585815,3.03751254081726,2.50566244125366,1.2673374414444,1.34763753414154,1.24822497367859,-3.25005006790161,-1.84005010128021,-1.6270500421524,2.52105021476746,2.46300005912781,3.05505013465881,9.22095012664795,9.60195064544678,10.6909503936768,-0.08291249722242,0.11055000126362,0.41717499494553,1.48981249332428,0.03739999979734,-2.12781238555908,1.08033752441406,0.85511249303818,0.52098751068115,-1.1050500869751,2.0179500579834,9.33405017852783,3.25605010986328,3.21795010566711,4.68105030059814,11.4790506362915,10.3849506378174,8.75594997406006,0.92482501268387,0.68928748369217,-0.48661249876022,-5.76592493057251,-10.3378000259399,-13.6897745132446,-0.41236248612404,-2.12437510490417,-3.34716248512268,18.5620517730713,23.6569519042969,26.3010005950928,6.60195016860962,6.68805027008057,5.56995010375977,9.13695049285889,10.1260509490967,12.4950008392334,-3.63343739509583,-4.22977495193481,-3.78675007820129,-13.0538377761841,-9.06303787231445,-5.20905017852783,-2.51982498168945,-0.15070000290871,2.04874992370605,41.5110015869141,36.8800506591797,32.5999526977539,-2.69505023956299,-10.9669504165649,-19.5409507751465,19.2010517120361,18.8010005950928,20.0130004882813,-3.31402492523193,-3.33973741531372,-4.31351232528687,-2.23066258430481,0.09391249716282,1.56172502040863,3.73326253890991,4.85746240615845,5.35672473907471,28.4370021820068,21.8910007476807,20.215051651001,-27.5050506591797,-33.9330024719238,-39.5590515136719,23.7919502258301,19.3780517578125,12.4540510177612,-6.17210006713867,-8.70498752593994,-11.4582872390747,2.72676253318787,4.71556234359741,8.26333713531494,5.3503999710083,4.55551242828369,2.94401240348816,15.5659503936768,5.80695009231567,1.18395006656647,-41.7000007629395,-34.4929504394531,-26.7739505767822,6.42300033569336,0.22305001318455,-0.9709500670433,-13.2862119674683,-13.0528745651245,-10.4532995223999,12.6351499557495,15.2966003417969,14.9780120849609,1.42298746109009,0.77467501163483,1.06809997558594,-0.06000000238419,-1.47300004959106,-4.87695026397705,-25.6390514373779,-26.6230506896973,-26.5039520263672,3.09000015258789,10.0380001068115,14.5879507064819,-6.23906230926514,-1.78639996051788,1.6299250125885,12.0368871688843,7.98489999771118,5.29264974594116,2.59352493286133,4.27872514724731,4.89898729324341,-9.14505004882812,-13.0939502716064,-13.6740007400513,-25.605001449585,-22.8559513092041,-19.9170017242432,14.4349508285522,11.8890008926392,9.28995037078857,3.39129996299744,3.84436249732971,3.3932249546051,4.3738751411438,4.15937519073486,3.92452502250671,4.70648765563965,3.94418740272522,3.10282492637634,-12.0859508514404,-10.2850503921509,-9.52095031738281,-17.320951461792,-14.8450508117676,-12.5770502090454,8.12400054931641,8.50500011444092,7.9680004119873,SWING_RIGHT
-0.09171249717474,-0.0629749968648,-0.16032500565052,0.00577499996871,0.21312500536442,0.69561249017715,0.16417500376701,0.33728748559952,0.65450000762939,-0.82695001363754,-1.51605010032654,-2.92200016975403,1.95495009422302,1.4479501247406,0.95895004272461,10.2600002288818,10.2940502166748,11.0700006484985,-0.35832500457764,-0.607337474823,-0.78031247854233,1.57574999332428,2.55089998245239,3.30673742294312,1.19033753871918,1.77154994010925,2.28250002861023,-4.71405029296875,-4.7310004234314,-4.02195024490356,1.43295001983643,1.96500015258789,2.33400011062622,12.1210508346558,10.7629508972168,8.04705047607422,-0.7430499792099,-0.47451248764992,-1.36564993858337,3.76859998703003,2.24083757400513,-14.3488121032715,2.68510007858276,2.32842493057251,-4.38748741149902,1.22205007076263,15.6450004577637,31.267951965332,1.32105004787445,0.66495001316071,3.10305023193359,4.83795022964478,1.04700005054474,7.68105030059814,-3.09498739242554,-3.19178748130798,-3.69916248321533,-19.3556003570557,-19.1620006561279,-13.8685245513916,-5.36497497558594,-4.94670009613037,-2.96092510223389,29.2830009460449,31.7250022888184,33.7110023498535,2.46105003356934,1.48395001888275,-2.38305020332336,17.5600509643555,21.9169502258301,19.0810508728027,-0.4507249891758,-1.01131248474121,-2.24248743057251,0.06517499685287,1.17686247825623,1.49049997329712,2.30216240882874,2.83057498931885,3.44932508468628,33.5310020446777,27.9100513458252,25.2540016174316,-16.840051651001,-23.2200012207031,-28.3690509796143,13.19700050354,12.997950553894,11.4889507293701,-3.84752488136292,-7.18190002441406,-8.78528785705566,1.28645002841949,1.10522496700287,3.15342497825623,4.19856262207031,5.09547519683838,4.86117506027222,23.1559505462646,13.2169504165649,6.67800045013428,-33.9310531616211,-34.0890007019043,-28.185001373291,6.59805011749268,4.79700040817261,5.64300012588501,-10.3446750640869,-11.2402124404907,-8.40894985198975,7.4511251449585,12.2322750091553,15.1650123596191,3.97168755531311,2.64728736877441,1.60490000247955,4.91595029830933,4.51800012588501,-1.42800009250641,-25.3300514221191,-25.4070014953613,-24.4870510101318,5.39595031738281,5.32695007324219,7.95405054092407,-4.95494985580444,-1.54123747348785,0.8320124745369,12.4411373138428,8.79559993743896,6.11517477035522,2.29418754577637,3.2155749797821,3.80751252174377,-5.36505031585693,-8.81895065307617,-10.7130002975464,-23.4310512542725,-22.3720512390137,-20.5729503631592,9.74100017547607,11.6350507736206,12.7699508666992,2.11667490005493,3.19659996032715,3.47201251983643,4.90242481231689,4.87492513656616,5.07237482070923,4.027512550354,3.22753739356995,2.31783747673035,-10.900050163269,-6.91995048522949,-5.45100021362305,-18.1620006561279,-12.9120006561279,-9.8700008392334,11.9560508728027,7.75500059127808,6.74205017089844,3.43131256103516,2.91596245765686,2.19738745689392,4.86062479019165,3.80806255340576,2.23671245574951,1.32563745975494,0.74414998292923,0.78581249713898,-5.14695024490356,-5.6100001335144,-6.00705051422119,-7.41000032424927,-5.80305004119873,-5.15700006484985,5.8609504699707,6.10995006561279,6.98400020599365,SWING_RIGHT
0.18479999899864,0.28077501058578,0.3812874853611,0.25959998369217,0.2895750105381,0.32188749313354,0.35323750972748,0.42267498373985,0.51713746786118,0.73395001888275,0.75105005502701,0.56100004911423,2.10195016860962,2.18805003166199,2.75505018234253,9.87705039978027,10.0420503616333,10.5600004196167,0.49004998803139,0.607337474823,0.59908747673035,0.29177498817444,-0.17613749206066,-1.56708753108978,0.60857498645782,0.45718750357628,-0.28709998726845,1.76895010471344,5.58900022506714,9.43305015563965,3.05505013465881,3.13905024528503,2.98800015449524,10.7370004653931,10.3180503845215,10.7080507278442,0.22522500157356,-0.46639999747276,-1.47661244869232,-3.63220000267029,-5.73649978637695,-7.4632248878479,-1.49352502822876,-2.73446249961853,-3.67358756065369,11.7169504165649,15.2170505523682,20.7660007476807,3.35400009155273,3.92700028419495,3.90705013275146,12.2790002822876,13.9459505081177,14.6860504150391,-2.63491249084473,-3.40587496757507,-3.66341257095337,-8.29977512359619,-8.11359977722168,-7.29506254196167,-3.83061242103577,-3.12743759155273,-1.97587502002716,26.7270011901855,29.1960010528564,31.7920513153076,3.18705010414124,0.91605001688004,-3.36795020103455,13.9530010223389,12.7440004348755,11.917950630188,-3.12977504730225,-2.92833757400513,-3.35018754005432,-4.62467479705811,-3.26246237754822,-2.26201248168945,1.28713750839233,2.9412624835968,4.38501262664795,27.0910511016846,24.9640502929688,24.8299503326416,-17.521951675415,-24.6330013275146,-31.7509517669678,11.4550504684448,10.8930006027222,9.56595039367676,-4.42584991455078,-6.33737516403198,-9.03292465209961,-1.10343754291534,0.96799999475479,4.88840007781982,5.5075626373291,5.94783735275269,5.39976263046265,21.7999515533447,11.238000869751,3.51900005340576,-38.5030517578125,-37.8700523376465,-33.6720008850098,9.37905025482178,11.331000328064,9.79095077514648,-11.3279371261597,-12.0246496200562,-10.758412361145,9.90673732757568,13.7813501358032,15.1718873977661,4.07989978790283,2.82507491111755,2.38191246986389,0.38205000758171,-3.23100018501282,-7.89405059814453,-31.4640007019043,-28.54905128479,-24.5089511871338,4.77795028686523,1.73400008678436,2.64405012130737,-3.96618747711182,-0.96318751573563,1.2447874546051,9.35137462615967,5.60724973678589,3.20306253433228,4.95550012588501,6.31936264038086,6.49907493591309,-13.6500005722046,-11.7649507522583,-8.074049949646,-20.8150501251221,-19.3879508972168,-17.3640003204346,14.3700008392334,16.4899501800537,14.0520009994507,3.07669997215271,4.52278757095337,5.39206266403198,2.29102492332459,2.63614988327026,3.271399974823,5.40210008621216,3.2548999786377,0.97432500123978,-5.7679500579834,-5.69100046157837,-5.46300029754639,-14.377950668335,-10.7560501098633,-7.81800031661987,10.3200006484985,7.08495044708252,4.90500020980835,5.15528726577759,3.8480749130249,2.3645875453949,3.22987508773804,2.26737499237061,0.8953999876976,-0.42129999399185,-0.85291248559952,-0.24461250007153,-5.0590500831604,-4.20405006408691,-3.72195029258728,-5.37705039978027,-3.39405012130737,-1.6030501127243,4.97205018997192,6.16200017929077,6.86400032043457,SWING_RIGHT
0.3075875043869,0.45512500405312,0.5575624704361,0.45278748869896,0.45925000309944,0.34911251068115,0.4796000123024,0.4974749982357,0.43821248412132,0.27405002713203,0.69105005264282,0.77205002307892,2.39400005340576,2.22405004501343,2.09895014762878,9.88395023345947,9.68295001983643,9.95100021362305,0.58630001544952,0.53899997472763,0.03575000166893,0.20927499234676,-0.02557500079274,-1.42229998111725,0.39710000157356,0.30332499742508,-0.57406252622604,0.85800004005432,1.74900007247925,7.05405044555664,2.20005011558533,2.35500001907349,1.9410001039505,10.5310506820679,11.2090501785278,11.7240009307861,-0.50366252660751,-1.18676245212555,-2.09866237640381,-2.99378752708435,-4.89582490921021,-6.97345018386841,-1.6828625202179,-2.97948741912842,-4.27886247634888,10.9510507583618,15.0370502471924,21.1590003967285,2.23095011711121,2.64000010490417,2.81295013427734,11.9899501800537,11.5180501937866,9.87495040893555,-3.10282492637634,-3.66176247596741,-3.84436249732971,-8.70127487182617,-9.22130012512207,-8.7345495223999,-4.88881254196167,-4.39958763122559,-3.16236257553101,23.3640003204346,27.0070514678955,32.8099517822266,2.28405022621155,1.01895010471344,-3.55200028419495,9.55905055999756,11.3400001525879,12.3660001754761,-3.6539249420166,-3.13596248626709,-3.55506253242493,-7.26935005187988,-4.97502517700195,-0.90749996900558,-1.1944625377655,1.01296246051788,4.45830011367798,32.5609512329102,30.7669506072998,19.8490505218506,-11.6040000915527,-20.5110015869141,-34.3879508972168,14.6959505081177,18.3319511413574,11.2830009460449,-4.75268745422363,-6.62653732299805,-8.77868747711182,0.74854999780655,2.31275010108948,4.51701259613037,5.39027500152588,5.61467504501343,5.25497484207153,16.945951461792,10.0000505447388,2.11094999313354,-38.2060508728027,-36.5580024719238,-31.0300521850586,4.98405027389526,0.90105003118515,-1.39305007457733,-10.5411624908447,-11.0316247940063,-9.71162509918213,7.38416242599487,10.2026376724243,11.5603122711182,4.59181261062622,4.37277507781982,4.61491250991821,-4.33995008468628,-6.38100051879883,-6.00195026397705,-24.0559520721436,-19.8979511260986,-19.7899513244629,-0.1950000077486,3.55695009231567,6.70800018310547,-6.90813732147217,-3.12358736991882,0.81180000305176,10.7758750915527,8.44222450256348,5.8749623298645,5.12269973754883,5.80126237869263,5.80401229858398,-5.35095024108887,-6.20100021362305,-8.91195011138916,-21.8190002441406,-22.4850006103516,-21.7020015716553,9.85995006561279,14.1400508880615,14.7840003967285,3.83776259422302,5.43510007858276,5.45118761062622,4.50298738479614,4.23623752593994,4.29123735427856,4.86584997177124,3.34922504425049,1.85941243171692,-11.5560007095337,-12.3540010452271,-11.5060501098633,-19.3020000457764,-16.2859516143799,-13.2330007553101,12.3780002593994,8.70600032806396,5.9850001335144,4.3306999206543,0.26578751206398,-1.5908750295639,4.16267490386963,1.7135249376297,-0.05788749828935,0.96937501430511,2.65732502937317,3.98887491226196,-10.1650505065918,-7.47495031356812,-6.52905035018921,-10.6270503997803,-7.16595029830933,-5.82705020904541,4.4089503288269,4.95105028152466,5.16105031967163,SWING_RIGHT
0.38225001096725,0.45223748683929,0.41057500243187,0.71637499332428,-0.26207500696182,-1.5801500082016,1.1064624786377,0.52401250600815,-0.30813750624657,2.4100501537323,3.09105014801025,5.11905002593994,1.69905006885529,1.91700005531311,2.09895014762878,7.45305013656616,9.12705039978027,11.731050491333,-0.00508749997243,-1.10797500610352,-2.42316246032715,-3.41109991073608,-5.82092475891113,-7.80147504806519,-1.54536247253418,-3.06130003929138,-3.97031259536743,10.1700000762939,18.1549510955811,23.4769515991211,1.43595004081726,1.1869500875473,1.34700012207031,13.2900009155273,14.7100505828857,17.5170001983643,-3.31663751602173,-3.69366240501404,-3.37053751945496,-8.51262474060059,-7.98256254196167,-6.49068737030029,-3.96880006790161,-3.03242492675781,-1.48596251010895,26.7250518798828,28.7220020294189,27.8260517120361,-0.3120000064373,-2.01195001602173,-3.06600022315979,19.3780517578125,15.6750011444092,10.4449501037598,-2.76141238212585,-2.42659997940063,-2.21567487716675,-5.07196235656738,-4.41003751754761,-3.94748759269714,-0.26633748412132,0.53336250782013,1.43494999408722,26.017951965332,21.8320503234863,18.3250503540039,-6.08595037460327,-11.1540002822876,-15.3139505386353,6.84705018997192,5.57595014572144,5.80995035171509,-2.2207624912262,-2.62033748626709,-3.53567504882813,-3.38855004310608,-2.71053743362427,-1.54219996929169,2.67643737792969,4.02558755874634,5.1544623374939,17.8870506286621,17.8420505523682,14.19105052948,-19.0620002746582,-21.7570514678955,-26.5080013275146,6.70095014572144,7.42695045471191,11.2140007019043,-5.04129981994629,-6.62901258468628,-7.65036249160767,0.86075001955032,4.76313734054565,9.05313777923584,5.77967500686646,5.40553760528564,4.18041229248047,9.2359504699707,5.23200035095215,2.62395024299622,-28.6470012664795,-28.3530006408691,-27.4830017089844,14.2170009613037,12.9790506362915,9.48705005645752,-6.82714986801147,-4.96003770828247,-3.0387499332428,13.6668128967285,12.890625,10.9141998291016,1.42546248435974,1.25839996337891,1.96363747119904,-4.46700000762939,-7.47495031356812,-9.31695079803467,-22.8130512237549,-20.4630012512207,-18.9310512542725,7.31700038909912,8.50005054473877,9.84600067138672,-1.4499374628067,-0.1553750038147,0.88384997844696,8.76631259918213,6.85506248474121,5.44637489318848,2.97907495498657,3.70947504043579,3.96549987792969,-10.1890506744385,-10.5840005874634,-10.9600505828857,-17.5390510559082,-16.2960014343262,-14.7250509262085,10.4809503555298,9.7600507736206,8.25300025939941,1.68877494335175,2.2710874080658,2.35757493972778,4.56073760986328,3.94941258430481,3.32832503318787,3.85769987106323,3.42210006713867,2.93039989471436,-11.2810506820679,-10.8640508651733,-9.98295021057129,-12.8209505081177,-10.7370004653931,-9.02505016326904,7.05600023269653,6.5310001373291,5.9520001411438,1.80592501163483,0.80836248397827,-0.07906249910593,2.43677496910095,1.26912498474121,0.18424999713898,2.59118747711182,2.68276238441467,2.99103736877441,-9.19200038909912,-8.24400043487549,-7.07505035400391,-7.40805053710938,-6.08100032806396,-5.29605007171631,5.69100046157837,5.57295036315918,5.27100038528442,SWING_RIGHT
-0.95067501068115,-1.76123750209808,-2.63284993171692,-1.30239999294281,-1.98618745803833,-3.47654986381531,-0.07067500054836,-0.43505001068115,-1.58248746395111,3.39705014228821,7.2480001449585,21.8149509429932,-1.97895014286041,-1.60995006561279,-0.95805007219315,13.0960502624512,15.9940509796143,13.6230010986328,-3.71098756790161,-4.12445020675659,-3.88794994354248,-6.16618728637695,-7.69271230697632,-7.54847478866577,-3.86952495574951,-5.17343759536743,-5.60216236114502,31.840051651001,29.6490020751953,38.7240028381348,-0.03105000220239,0.85905003547668,-5.19000005722046,15.4290008544922,18.6880512237549,13.9680004119873,-3.42086243629456,-3.03517508506775,-3.05057501792908,-5.70721244812012,-4.44771242141724,-3.65763759613037,-3.45413756370544,-1.29882502555847,0.94723749160767,36.9079513549805,30.5329513549805,23.7930011749268,-15.4860010147095,-25.5240020751953,-32.980052947998,10.0159502029419,10.336950302124,9.550950050354,-3.23028755187988,-3.84065008163452,-5.17659997940063,-2.65925002098084,-1.49833750724792,0.08030000329018,3.49992489814758,5.47469997406006,6.58707475662231,21.1590003967285,19.9950008392334,15.8149509429932,-36.2920532226563,-38.9890518188477,-40.9069519042969,5.81505012512207,3.6979501247406,3.37005019187927,-7.21916246414185,-9.20163726806641,-10.3779497146606,2.49631237983704,6.48862504959106,11.492525100708,6.70422506332397,6.16756248474121,6.11998748779297,12.6829509735107,-2.06505012512207,-36.2040023803711,-49.0570526123047,-60.6420021057129,-53.2660522460938,2.26800012588501,-4.16400003433228,3.99300026893616,-8.91714954376221,-5.75231266021729,-2.31275010108948,14.576512336731,14.1607122421265,11.1490497589111,7.29437494277954,9.02233791351318,9.60025024414062,-61.476001739502,-38.4090003967285,-17.731050491333,-41.9350509643555,-47.2369537353516,-47.8500022888184,17.0890502929688,12.8299503326416,10.1239500045776,0.86927497386932,1.75450003147125,1.65426254272461,6.9239501953125,3.74866247177124,2.53605008125305,8.72368717193604,6.17924976348877,2.48132491111755,-1.68900012969971,9.40395069122314,13.3170003890991,-46.7010040283203,-43.2060012817383,-35.3910026550293,2.12400007247925,-3.54795026779175,-3.13395023345947,0.88027501106262,-0.34718748927116,-1.00017499923706,1.88471245765686,1.01846253871918,-0.31845000386238,-1.51428747177124,-6.22022485733032,-10.4010496139526,22.6840515136719,32.6449508666992,24.480001449585,-25.252950668335,-13.864951133728,-6.66600036621094,-2.28600001335144,-1.01700007915497,9.91995048522949,0.59509998559952,9.78958702087402,17.2771492004395,-3.81576251983643,-11.0406999588013,-12.4201002120972,-12.9793128967285,-12.3166999816895,-9.4989128112793,19.8529510498047,23.7480010986328,33.4759521484375,-0.45795002579689,-0.66405004262924,-2.00505018234253,28.0860004425049,34.0050010681152,26.6779518127441,20.7037868499756,20.1425132751465,12.4183120727539,-11.1472625732422,-6.6884126663208,2.27961254119873,-6.96478748321533,-4.65066242218018,-3.37975001335144,19.7239513397217,5.44005012512207,6.42000007629395,-0.73605000972748,3.27795004844666,5.54295015335083,21.4309501647949,17.7450008392334,11.8549509048462,SWING_RIGHT
0.00096249999478,0.04303750023246,0.06036249920726,0.21738749742508,0.04152499884367,-0.22110000252724,0.25396248698235,0.16775000095367,0.01209999993443,1.81905007362366,1.97400009632111,1.94595015048981,1.42095005512238,1.41705012321472,1.40700006484985,10.0759506225586,9.85800075531006,9.95100021362305,0.07411249727011,0.10779999941587,0.13750000298023,-0.42872500419617,-0.56058752536774,-0.62851250171661,-0.09707500040531,-0.13117499649525,-0.07342500239611,1.90995013713837,2.07300019264221,3.16500020027161,1.52700006961823,1.68495011329651,1.43595004081726,10.0639505386353,10.2600002288818,10.4160003662109,0.02516249939799,-0.33384999632835,-2.55736255645752,-0.95342499017715,-1.79767501354218,-7.24817514419556,-0.16733749210835,-0.60720002651215,-3.88341236114502,5.97900009155273,12.1050004959106,40.7190017700195,0.89895004034042,0.5380499958992,3.68505024909973,11.4049501419067,12.1860008239746,14.2189502716064,-3.8315749168396,-4.41471242904663,-4.21286249160767,-9.78120040893555,-10.6530876159668,-9.4041748046875,-4.7221622467041,-4.21822500228882,-2.17923760414124,46.5000038146973,43.1980514526367,34.7119522094727,0.6690000295639,-9.13695049285889,-20.1019515991211,12.8160009384155,12.9640502929688,13.873950958252,-3.32887506484985,-2.69665002822876,-3.35128736495972,-6.19080018997192,-3.17226243019104,-1.14166247844696,0.97679996490479,3.40601253509521,5.46287488937378,23.8309516906738,20.9020519256592,17.1949501037598,-28.1440505981445,-40.3420524597168,-58.2760543823242,15.4260005950928,9.63300037384033,2.01195001602173,-5.69002485275269,-9.2219877243042,-10.6686248779297,1.03468751907349,6.29543733596802,13.2936372756958,7.51341247558594,9.26103782653809,10.5451498031616,-10.6489505767822,-41.3530502319336,-41.7100524902344,-67.281005859375,-51.060001373291,-36.6820526123047,2.2390501499176,7.59705018997192,10.981050491333,-9.2800121307373,-6.13868761062622,-1.66127502918243,17.1444625854492,17.8337497711182,13.9567995071411,10.8084621429443,9.69361209869385,8.42118740081787,-27.0690021514893,-15.5560503005981,-7.06305027008057,-28.4269504547119,-20.6650505065918,-12.9840002059937,10.9260005950928,8.24100017547607,2.757000207901,1.12928748130798,2.07625007629395,1.35354995727539,7.48000001907349,2.10553741455078,1.41267502307892,7.55246257781982,4.65066242218018,1.9909999370575,-3.27705025672913,-0.77895003557205,3.93600010871887,-6.48600053787231,-1.12800002098084,-1.36500000953674,-0.73200005292892,-2.58795022964478,-1.1580001115799,-0.37276250123978,-1.07690000534058,8.37209987640381,1.38696253299713,1.17094993591309,-2.29721260070801,-1.85803747177124,-5.67723751068115,-4.80617475509644,3.04500007629395,-2.54205012321472,-0.73995006084442,-0.37095001339912,1.91505014896393,1.38105010986328,3.78195023536682,9.24495029449463,12.9499502182007,15.4504623413086,16.9859256744385,17.4053001403809,-5.9221248626709,-8.8666877746582,-9.44789981842041,-3.82511258125305,-0.91547501087189,2.62872505187988,4.88895034790039,7.91895055770874,6.50595045089722,-1.32705008983612,-1.60995006561279,0.6690000295639,15.2400007247925,16.5420017242432,17.4409503936768,SWING_RIGHT
0.0314874984324,0.262212485075,0.30305001139641,-0.81001251935959,-1.32756245136261,-1.54288744926453,0.19689999520779,0.16417500376701,0.2771999835968,1.01205003261566,1.33695006370544,0.16095000505447,1.76400005817413,0.60495001077652,0.32895001769066,10.381950378418,10.4280004501343,11.038950920105,0.2389750033617,-0.11123749613762,-0.30442500114441,-1.203125,0.15936249494553,0.11453749984503,0.66976249217987,1.58111250400543,1.51841247081757,-1.11195003986359,2.33400011062622,6.4680004119873,0.6810000538826,0.55200004577637,0.71700000762939,11.1370506286621,9.63300037384033,10.1910009384155,-0.41538751125336,-0.6182000041008,-1.43137502670288,-1.19542503356934,-3.74371242523193,-7.09224987030029,0.64762496948242,-1.19404995441437,-4.02366256713867,12.0169506072998,17.9640007019043,26.9020519256592,1.45995008945465,2.69805002212524,3.79200029373169,12.5119504928589,13.1220006942749,12.5860509872437,-3.18175005912781,-4.66908740997314,-5.65881252288818,-9.86548709869385,-10.514349937439,-9.538649559021,-6.63740015029907,-7.47147512435913,-6.7922248840332,30.1020011901855,31.3399505615234,33.949951171875,3.36900019645691,1.95795011520386,-2.8000500202179,14.2339506149292,14.6650505065918,13.5970506668091,-5.64547491073608,-2.96133756637573,-2.7219500541687,-7.25546264648438,-2.33227491378784,-0.82293748855591,-4.32684993743896,1.9988374710083,4.13806247711182,35.7949523925781,25.7430019378662,23.9920520782471,-11.4840002059937,-27.3970508575439,-34.0530014038086,14.2549505233765,18.844051361084,12.7890005111694,-3.51889991760254,-5.14923763275146,-7.39736223220825,0.3269749879837,1.60379993915558,3.53842496871948,5.56737518310547,5.98647499084473,5.36579990386963,22.3660507202148,15.6070508956909,9.27705001831055,-38.8240509033203,-37.6000518798828,-33.1519508361816,7.55595016479492,6.57900047302246,9.23295021057129,-9.29500007629394,-10.1329250335693,-9.58594989776611,6.63740015029907,9.8784122467041,12.1372623443604,4.01114988327026,2.36073756217957,1.1258499622345,7.88505029678345,7.50495052337646,3.43305015563965,-30.4980010986328,-31.7940006256104,-32.3040008544922,10.5430507659912,11.1660003662109,9.59205055236816,-7.69670009613037,-2.14610004425049,-0.27087500691414,12.4055252075195,8.53957462310791,6.57964992523193,0.77893751859665,2.45588755607605,3.28707504272461,-2.9890501499176,-10.021050453186,-10.9789505004883,-30.060001373291,-24.2590503692627,-22.2210006713867,9.33600044250488,10.7749509811401,9.09899997711182,0.60046249628067,0.63029998540878,0.35461249947548,5.09891223907471,3.8999125957489,2.76402497291565,3.95642495155334,4.5222373008728,5.06494998931885,-11.9659509658813,-12.5340003967285,-11.8680009841919,-19.2510013580322,-15.7260007858276,-12.6799507141113,6.45195007324219,4.96695041656494,5.050950050354,0.05348749831319,-0.49334999918938,-1.02506244182587,1.56942498683929,0.16362500190735,-1.11636245250702,5.42341232299805,5.44912481307983,5.22609996795654,-10.2130508422852,-8.85000038146973,-7.67895030975342,-10.2150001525879,-7.59195041656494,-4.63200044631958,5.27895021438599,5.40795040130615,5.92500019073486,SWING_RIGHT
-2.16136240959167,-2.1987624168396,-2.54870009422302,-7.8221001625061,-7.04948759078979,-5.88582515716553,-3.9279625415802,-3.69201254844666,-3.17899990081787,21.0769500732422,26.3250007629395,26.1790504455566,0.78000003099442,0.18300001323223,-1.61505007743835,18.1570510864258,16.0590000152588,14.578950881958,-2.88736248016357,-2.98333740234375,-2.90193748474121,-4.95082473754883,-4.02916240692139,-2.90179991722107,-2.70723748207092,-2.08271241188049,-0.84081250429153,24.2629508972168,24.7920017242432,24.6100521087646,-3.53295016288757,-7.74300050735474,-12.7030506134033,15.1270503997803,17.2060508728027,19.6459503173828,-2.64838743209839,-2.75151252746582,-3.25160002708435,-1.7546374797821,-0.9149249792099,-0.21587499976158,0.64597499370575,2.04104995727539,3.15700006484985,23.2470016479492,22.090051651001,21.8869514465332,-18.0370502471924,-22.219051361084,-24.9760513305664,18.6960010528564,16.8130512237549,15.5490007400513,-3.84614992141724,-4.68462514877319,-5.84787511825562,0.56237500905991,1.3171124458313,2.11021256446838,3.68871259689331,3.6845874786377,3.13376259803772,21.6660003662109,22.045051574707,17.8489513397217,-28.9990520477295,-35.683952331543,-42.8830528259277,13.9969511032104,11.5780506134033,10.0639505386353,-7.38526248931885,-9.11803722381592,-10.2950372695923,3.66987490653992,6.74121236801147,10.5370378494263,2.21320009231567,1.06301248073578,-0.00714999996126,9.796950340271,7.26495027542114,5.89995050430298,-43.0240516662598,-40.4640007019043,-44.0329513549805,8.55300045013428,7.99905061721802,9.48000049591064,-10.1611127853394,-8.46064949035645,-5.57356262207031,13.4689502716064,14.2741498947144,12.6484870910645,-0.39091250300407,0.17682500183582,1.84525001049042,-1.18095004558563,-14.2080011367798,-21.6829509735107,-46.2460517883301,-40.5979537963867,-33.904052734375,11.8290004730225,13.7449502944946,11.7720003128052,-2.69720005989075,-0.80079996585846,-0.05884999781847,9.61111259460449,6.64056253433228,4.40728759765625,3.77423739433289,5.01902484893799,5.62223768234253,-20.1829509735107,-17.4190502166748,-16.0930500030518,-31.3369522094727,-27.9649505615234,-23.0160007476807,5.6380500793457,2.11695003509521,1.18605005741119,-0.27101248502731,-1.07690000534058,-2.25238752365112,2.54278755187988,0.5849249958992,-1.44498753547668,5.78091239929199,5.71436262130737,5.25194978713989,-14.3110504150391,-11.7379503250122,-8.75699996948242,-18.271951675415,-14.743950843811,-11.8560009002686,3.75795006752014,5.41800022125244,4.22700023651123,-2.98113751411438,-2.70503759384155,-1.17947494983673,-2.8000500202179,-3.12386250495911,-2.37476253509521,4.22716236114502,3.05360007286072,2.10264992713928,-7.15005016326904,-6.10095024108887,-4.77795028686523,-7.79400014877319,-4.03095006942749,-1.92795014381409,2.49600005149841,2.31105017662048,3.78705024719238,1.78557503223419,4.96925020217896,8.80618762969971,-0.78044998645782,0.48056250810623,1.20367503166199,1.57698750495911,1.59156250953674,1.54536247253418,-4.24695014953613,-5.13105010986328,-3.84195017814636,-0.91305005550385,0.55200004577637,1.05705010890961,5.26395034790039,7.35495042800903,9.35295009613037,SWING_RIGHT
0.40136250853539,0.53748750686646,0.55220001935959,0.03135000169277,-0.39696249365807,-0.60183751583099,0.34278750419617,0.12856249511242,0.08882500231266,1.08600008487701,0.22605000436306,-0.07695000618696,2.62095022201538,2.53305006027222,2.17305016517639,9.7600507736206,10.4830503463745,10.6890001296997,0.43986248970032,0.30195000767708,0.09088750183582,-0.61421251296997,-0.56086248159409,-0.7235249876976,0.18645000457764,0.3271124958992,0.31143748760223,0.65700000524521,2.11800003051758,4.23105001449585,2.08500003814697,2.35500001907349,2.2020001411438,9.87195014953613,9.41700077056885,10.5070505142212,-0.22371250391006,-0.59606248140335,-1.20587503910065,-1.39479994773865,-2.48545002937317,-4.20378732681274,-0.07136250287294,-0.74882501363754,-1.85047495365143,6.17295026779175,8.88705062866211,15.2980508804321,2.12100005149841,1.77600014209747,1.45995008945465,11.5920009613037,11.7019510269165,13.3380002975464,-3.4964873790741,-4.12884998321533,-4.39463758468628,-8.07826232910156,-8.35491275787354,-7.61997509002686,-3.78235006332397,-3.52096247673035,-2.51542496681213,26.3970012664795,28.3170013427734,30.480001449585,0.18105000257492,-1.60500001907349,-5.28600025177002,15.8550004959106,14.7940511703491,13.7880010604858,-4.044837474823,-3.43365001678467,-3.17074990272522,-5.97905015945435,-4.46132516860962,-3.5069375038147,-0.92468750476837,0.45182499289513,1.67777502536774,32.7360000610352,32.5279502868652,31.8790512084961,-9.90795040130615,-16.4800510406494,-23.2510509490967,12.4159507751465,11.7690010070801,11.7259502410889,-3.13596248626709,-3.49098753929138,-4.35242509841919,-2.63092494010925,-1.71228754520416,-0.3951750099659,2.92228746414185,4.03122520446777,4.72917509078979,30.4870510101318,25.3000507354736,17.5969505310059,-31.045051574707,-35.0200500488281,-38.1270027160645,11.7520503997803,11.0910005569458,14.5999507904053,-7.60086250305176,-9.19187450408936,-9.73871231079102,5.31258726119995,9.03773784637451,12.0142002105713,4.10437488555908,2.95432496070862,2.13166260719299,9.89505004882812,3.6889500617981,-2.4190502166748,-40.8259506225586,-36.9199523925781,-30.7189521789551,8.72700023651123,3.04200005531311,4.34505033493042,-8.67473697662354,-6.45878744125366,-4.10107517242432,12.8669748306274,11.4295501708984,8.60337448120117,1.98261249065399,2.39167499542236,2.84322500228882,-3.39705014228821,-0.59700000286102,1.23405003547668,-24.9559516906738,-22.8780002593994,-23.7280502319336,5.60205030441284,5.62800025939941,9.49395084381104,-2.02180004119873,0.03643750026822,2.03183746337891,5.50151252746582,3.53760004043579,3.17047500610352,3.0688624382019,2.99200010299683,2.57702493667603,-2.62305021286011,-7.90905046463013,-9.81795024871826,-22.6759510040283,-20.1900005340576,-18.0060005187988,15.1609506607056,17.4479999542236,14.3290510177612,3.65901255607605,4.52567481994629,4.15071249008179,3.71126246452332,4.44372510910034,4.77936267852783,1.95731246471405,1.36564993858337,1.07731246948242,-9.22605037689209,-7.84905052185059,-7.25700044631958,-15.3949508666992,-12.247950553894,-8.93595027923584,9.43200016021728,5.48205041885376,3.98805022239685,SWING_RIGHT
-0.42748749256134,-0.18713749945164,0.04743750020862,-2.24427509307861,-1.36207497119904,-0.39875000715256,-1.22223746776581,-0.48908749222755,0.2953499853611,1.35900008678436,1.29705011844635,1.80900013446808,1.39995002746582,1.15995001792908,0.94500005245209,9.85605049133301,9.81705093383789,9.38595008850098,0.25066250562668,0.48551249504089,0.70097500085831,0.36643749475479,1.24959993362427,2.16177487373352,0.91038751602173,1.61796247959137,2.31673741340637,1.52700006961823,-0.16995000839233,-1.05705010890961,1.15305006504059,1.86195003986359,1.51500010490417,9.90105056762695,11.7120008468628,12.3199510574341,0.71678751707077,0.61159998178482,0.68337500095367,2.76924991607666,2.89973759651184,2.25885009765625,2.71741247177124,2.76594996452332,2.31701254844666,-0.73800003528595,0.36000001430511,4.93695020675659,1.46895003318787,2.57100009918213,4.7310004234314,11.998950958252,11.3089504241943,10.8570003509521,1.49325001239777,0.72476249933243,-1.52845001220703,-2.69114995002747,-6.48477506637573,-10.0189371109009,-1.26857495307922,-4.7341251373291,-7.88411235809326,16.1669998168945,21.211051940918,26.32200050354,7.12605047225952,6.3550500869751,2.16900014877319,14.671950340271,17.0550003051758,19.7779502868652,-3.8999125957489,-5.54083728790283,-4.60858726501465,-11.252724647522,-7.22122478485107,-4.21189975738525,-8.41238784790039,-2.54045009613037,1.35671246051788,26.8830013275146,29.5909519195557,29.6820011138916,-2.28795003890991,-12.3229503631592,-18.2530517578125,22.3380012512207,17.7640514373779,14.437050819397,-4.19278764724731,-4.54547500610352,-6.33764982223511,-2.60768747329712,-1.92445003986359,-0.81606251001358,3.31539988517761,4.17422485351563,4.36315011978149,26.7769508361816,21.5920505523682,16.6680011749268,-24.0820503234863,-26.1709518432617,-29.9719505310059,11.2330503463745,8.87100028991699,3.95895028114319,-7.6128249168396,-9.34986209869385,-11.1848001480103,0.66728746891022,3.35293745994568,7.50571250915527,4.0359001159668,3.35995006561279,2.75013756752014,11.7100505828857,7.77300024032593,3.45900011062622,-30.6210021972656,-29.1979522705078,-28.8120021820068,3.03495025634766,1.69095003604889,-0.55200004577637,-11.2235746383667,-8.49612522125244,-4.63980007171631,13.5632753372192,12.8045501708984,9.73554992675781,3.03696250915527,4.22014999389648,5.67875003814697,-6.75195026397705,-12.9499502182007,-14.9569511413574,-30.9220523834229,-29.0230522155762,-27.1980018615723,2.91195011138916,9.13005065917969,11.4190502166748,-1.04651248455048,2.70462489128113,3.31760001182556,6.29983758926392,3.2300124168396,3.11726260185242,6.62213754653931,5.71890020370483,4.3529748916626,-12.9070510864258,-9.78900051116943,-8.12205028533936,-25.4830513000488,-18.3580513000488,-14.5639505386353,10.3900508880615,5.30700016021729,3.96405029296875,3.20691251754761,2.45355010032654,0.10271249711514,2.86068749427795,2.04008746147156,-0.69795000553131,2.94593739509583,1.93655002117157,1.71943747997284,-6.37800025939941,-6.19200038909912,-5.13495016098022,-11.0220003128052,-7.48200035095215,-1.57395005226135,4.11195039749146,4.66605043411255,3.80295014381409,SWING_RIGHT
-0.13255000114441,-0.04386249929667,0.01526249945164,0.72764998674393,0.47244998812675,-0.27802500128746,0.94407498836517,0.83297497034073,0.37454998493195,1.52700006961823,3.06705021858215,4.48395013809204,1.75695013999939,1.73505008220673,1.72800004482269,8.93595027923584,8.76300048828125,9.64695072174072,-0.04193750023842,-0.41071251034737,-1.27380001544952,-1.62195003032684,-3.47160005569458,-5.52474975585938,-0.52002501487732,-1.84153747558594,-3.3371250629425,6.5779504776001,9.84900093078613,11.7799501419067,1.43295001983643,1.08600008487701,1.0069500207901,10.2460508346558,10.0140008926392,12.6430501937866,-2.42797493934631,-2.71507501602173,-2.916100025177,-6.0526123046875,-5.29622507095337,-4.32630014419556,-3.76887488365173,-3.42333745956421,-2.83676242828369,16.7779502868652,24.7800006866455,26.6650505065918,2.99295020103455,2.31705021858215,-0.48900002241135,19.1890506744385,18.4660511016846,16.8199501037598,-3.03407502174377,-3.33643746376038,-3.58338737487793,-3.68307495117188,-3.51133751869202,-3.31539988517761,-2.3454749584198,-1.92596244812012,-0.99976247549057,24.8850002288818,24.5070018768311,25.9150505065918,-3.55005025863647,-7.35105037689209,-11.7739505767822,15.5599508285522,13.2610502243042,9.66900062561035,-3.67785000801086,-3.91971254348755,-4.47287511825562,-3.12592506408691,-3.10034990310669,-2.86288738250732,0.45567500591278,1.98220002651215,3.37424993515015,25.3309516906738,20.6389503479004,18.0949516296387,-17.8219509124756,-22.0750503540039,-23.0070018768311,7.53705024719238,8.03999996185303,8.91195011138916,-6.07048749923706,-7.30523729324341,-8.69068717956543,-0.11893749982119,2.24578738212585,5.0226001739502,4.62976264953613,4.10602474212646,3.15081238746643,18.1339511871338,14.9340009689331,8.98995018005371,-28.3860015869141,-29.8350009918213,-28.3759517669678,6.64605045318604,3.70995020866394,1.19505000114441,-9.52558708190918,-9.41256237030029,-8.31228733062744,7.81384992599487,9.77996253967285,10.4471120834351,2.38342499732971,1.97188746929169,1.99746251106262,3.71805024147034,1.3090500831604,1.36905002593994,-24.1540508270264,-20.8489513397217,-20.6209506988525,1.43700003623962,2.72295022010803,3.74295020103455,-6.45988750457764,-4.23761224746704,-1.90808749198914,9.57041263580322,7.78222513198853,6.13304996490479,2.3839750289917,3.0969123840332,3.97746253013611,0.3790500164032,-3.07800006866455,-7.66395044326782,-21.939001083374,-23.0119514465332,-22.6759510040283,4.87604999542236,7.53000020980835,10.2960004806519,2.18858742713928,3.28872489929199,3.67743754386902,4.98231267929077,5.18993759155273,5.54028749465942,4.72133731842041,4.26800012588501,3.38662505149841,-12.1380004882813,-9.375,-7.15905046463013,-18.3390007019043,-15.6349506378174,-12.5329504013062,9.91305065155029,7.41300058364868,5.82000017166138,3.60415005683899,3.19068741798401,2.27507495880127,5.69029998779297,5.11665010452271,3.36586236953735,2.47898745536804,1.88113749027252,1.84469997882843,-5.89905023574829,-4.87395000457764,-4.28295040130615,-9.45795059204102,-7.24005031585693,-5.33400011062622,5.03400039672852,4.84800004959106,5.60400009155273,SWING_RIGHT
0.08868750184774,0.2413125038147,0.4507249891758,-0.05128749832511,0.05169999971986,0.30414998531342,0.05788749828935,0.14423750340939,0.3634124994278,0.66195005178452,0.40800002217293,0.25500002503395,2.13705015182495,2.4250500202179,2.37900018692017,9.95595073699951,9.84600067138672,9.99405002593994,0.55825001001358,0.51136249303818,0.43202498555183,0.73177498579025,1.0422500371933,1.34722495079041,0.75116246938705,1.01419997215271,1.25496244430542,-0.52695000171661,-0.74805003404617,-0.64500004053116,2.25,2.41305017471313,2.03400015830994,10.701000213623,10.4089508056641,9.67605018615723,0.2579500079155,0.03135000169277,-0.41263750195503,1.53683745861053,1.64298748970032,1.62043750286102,1.369500041008,1.40112495422363,1.35396254062653,-1.15694999694824,-1.54305005073547,-1.51905012130737,1.78500008583069,1.66305005550385,1.71795010566711,9.3190507888794,9.35295009613037,10.0969505310059,-0.50833749771118,-0.36107498407364,0.06668750196695,1.45433747768402,0.61297500133514,-5.53135013580322,1.30913746356964,0.93279999494553,-3.0772500038147,0.29805001616478,5.04705047607422,20.6719512939453,1.97700011730194,2.90595006942749,3.10005021095276,9.64695072174072,8.67705059051514,10.85205078125,-1.69798743724823,-3.87928748130798,-4.99757480621338,-10.8414621353149,-14.2781372070313,-13.5185871124268,-6.56974983215332,-7.48769998550415,-6.06045007705688,34.6669502258301,34.7190017700195,33.001953125,1.1869500875473,-3.175950050354,-6.02400016784668,12.0490503311157,21.0000019073486,30.2850017547607,-5.38106250762939,-4.3044376373291,-3.24554991722107,-10.0560626983643,-5.09547519683838,-1.45213747024536,-2.95927500724792,0.99041247367859,2.77062487602234,36.2809524536133,33.4930534362793,30.9640522003174,-12.8110504150391,-20.2189502716064,-28.0630512237549,26.4870014190674,18.0900001525879,11.0719509124756,-3.72377490997315,-4.7812876701355,-7.72653722763062,-0.53006249666214,-0.12278749793768,1.28741252422333,3.29312491416931,3.9279625415802,4.50051259994507,26.0040016174316,19.2829513549805,11.4199504852295,-35.1570014953613,-37.6360511779785,-31.6150512695313,7.75005054473877,6.81105041503906,0.94395005702972,-9.57591247558594,-10.9447250366211,-10.7271995544434,3.5706000328064,6.95241260528564,10.2946252822876,4.1735372543335,3.44134998321533,3.0049250125885,8.07000064849854,7.06905031204224,2.50605010986328,-28.0530014038086,-29.215051651001,-32.7090034484863,3.04695010185242,5.4060001373291,6.82095050811768,-8.86806201934814,-2.38741254806519,0.12663750350475,12.2674751281738,9.47993755340576,6.74464988708496,2.9884250164032,4.86639976501465,5.99238729476929,-7.20000028610229,-18.5020503997803,-16.2049503326416,-31.6290016174316,-24.8509502410889,-22.806001663208,8.85705089569092,8.51399993896484,8.41394996643066,1.54233753681183,2.28882503509521,2.51075005531311,4.76203727722168,3.56784987449646,2.8909375667572,6.52176237106323,6.41904973983765,5.50769996643066,-12.7729501724243,-10.6489505767822,-9.0799503326416,-20.6760005950928,-17.5339508056641,-14.5600509643555,10.2990007400513,10.2240009307861,7.67595052719116,SWING_RIGHT
0.17531250417233,0.09253749996424,0.04124999791384,-0.00783750042319,-0.03203750029206,0.10491249710321,0.00096249999478,0.02268750034273,0.18108749389648,0.03705000132322,-0.15105000138283,-0.34995001554489,0.98505002260208,1.00905001163483,1.09305000305176,10.4610004425049,10.2600002288818,9.9660005569458,-0.02598750032485,-0.0354750007391,-0.07672499865294,0.39091250300407,0.71142500638962,0.81936252117157,0.47740000486374,0.80629998445511,0.95163750648499,-0.34500002861023,-0.23505000770092,-0.32400000095367,1.00200009346008,0.80595004558563,0.86805003881454,10.1239500045776,10.3470001220703,10.3969507217407,-0.04798749834299,0.00604999996722,0.18246249854565,0.50792497396469,0.08964999765158,-0.33274999260902,0.8760125041008,0.64556246995926,0.46777498722076,0.6360000371933,0.94905006885529,1.07595002651215,1.00005006790161,1.76595008373261,2.48505020141602,10.2790508270264,10.0540504455566,11.1850509643555,0.53611248731613,0.81180000305176,0.44962498545647,-0.69973748922348,-1.36454999446869,-3.14324998855591,0.38940000534058,0.05664999783039,-1.27448749542236,1.9939501285553,6.42000007629395,16.1389503479004,3.15795016288757,0.59700000286102,-0.17805001139641,11.6059503555298,9.85305023193359,7.87200021743774,-1.02918744087219,-3.09127497673035,-4.23197507858276,-6.73516225814819,-10.3410997390747,-11.8489246368408,-3.90170001983643,-5.68136262893677,-5.81432485580444,25.9290008544922,29.1150016784668,27.6730518341064,0.3120000064373,0.92295002937317,0.66195005178452,7.93995046615601,11.7000007629395,15.0070505142212,-3.30220007896423,-1.76824998855591,-1.04458749294281,-8.12913703918457,-4.62715005874634,-2.17689990997314,-1.34640002250671,0.90612500905991,2.21801257133484,37.2100524902344,30.1570510864258,25.1920509338379,-7.1370005607605,-15.937050819397,-20.6260509490967,15.5989503860474,17.8410015106201,16.8679504394531,-1.18057501316071,-3.6539249420166,-5.9782247543335,-0.54065001010895,1.15183746814728,1.91097497940063,3.19811248779297,4.9531626701355,5.31423759460449,24.1159515380859,16.3350009918213,10.5060005187988,-26.1610507965088,-35.8440017700195,-35.6190032958984,11.0670003890991,5.39100027084351,2.24700021743774,-8.6422872543335,-11.1447877883911,-10.8486127853394,3.99657487869263,7.65283727645874,13.6455001831055,5.08832502365112,4.20227479934692,3.41109991073608,5.85900020599365,1.49295008182526,-4.97505044937134,-29.5740013122559,-24.2140502929688,-30.2779521942139,-2.63595008850098,-2.82495021820068,20.4970512390137,-6.85629987716675,-1.74006247520447,2.85408759117126,12.8038625717163,10.4013252258301,7.39433765411377,3.88808751106262,5.01283740997314,5.49147510528564,-10.993950843811,-14.0950508117676,-12.7440004348755,-27.6049518585205,-24.1729507446289,-21.5239505767822,24.8629512786865,20.275951385498,13.6210508346558,5.45888757705688,4.57476234436035,2.53797507286072,5.73182487487793,5.49284982681274,4.24187517166138,3.37136244773865,2.22268748283386,2.06524991989136,-9.95400047302246,-8.11695003509521,-6.35400009155273,-13.0579509735107,-9.78900051116943,-7.9830002784729,4.22700023651123,4.23000001907349,5.66895008087158,SWING_RIGHT
-0.41387498378754,-0.29301249980927,-0.16005000472069,0.28118750452995,0.20171250402927,0.11797499656677,0.36217498779297,0.29370000958443,0.21312500536442,1.34700012207031,1.32105004787445,1.14105010032654,2.21399998664856,2.32905006408691,2.37900018692017,10.0590000152588,9.96300029754639,9.96105003356934,-0.05431250110269,-0.07122500240803,-0.06599999964237,-0.06366249918938,-0.20446249842644,-0.24186250567436,0.04991250112653,-0.06751249730587,-0.10064999759197,1.08795011043549,1.15995001792908,1.3090500831604,2.23800015449524,2.25195002555847,2.19495010375977,10.0470008850098,10.1620502471924,9.98505020141602,-0.03382499888539,-0.02653750032187,-0.00192499998957,-0.13433749973774,0.09295000135899,0.19497500360012,-0.02309999987483,0.14451250433922,0.24227499961853,1.17705011367798,0.75105005502701,0.5020500421524,2.14904999732971,2.31705021858215,2.65005016326904,9.84105014801025,9.96795082092285,9.75495052337646,0.13983750343323,0.39462500810623,0.68557500839233,0.33811250329018,0.47643750905991,0.52029997110367,0.39544999599457,0.56787496805191,0.7071624994278,0.58799999952316,0.98505002260208,2.53500008583069,3.05700016021729,3.69900012016296,4.12800025939941,9.72900009155273,10.7610006332397,11.4460506439209,0.91808748245239,0.77494996786118,-0.37564998865128,-0.01209999993443,-1.815962433815,-6.1964373588562,0.49032500386238,-0.58822500705719,-3.41783738136292,6.37695026397705,15.4009504318237,28.0540504455566,3.82605028152466,3.79200029373169,4.28595018386841,11.038950920105,7.86495018005371,7.60905027389526,-2.76429986953735,-4.97763729095459,-4.49968767166138,-11.0427627563477,-12.5621376037598,-8.98342514038086,-5.42245006561279,-3.44011259078979,-0.00838750042021,34.4220008850098,29.7280521392822,31.5310516357422,1.55505001544952,-4.64400005340576,-9.63495063781738,11.7960004806519,16.4419498443604,13.9849510192871,-2.87773752212524,-2.13578748703003,-2.35812497138977,-4.71226263046265,-2.28098750114441,-0.88824999332428,2.72084999084473,3.71992492675781,4.62123727798462,29.5150508880615,23.5819511413574,17.2879505157471,-17.0430011749268,-23.6940002441406,-27.142951965332,10.6120500564575,9.28800010681152,9.51300048828125,-3.28404998779297,-4.86433744430542,-7.05856227874756,0.27829998731613,1.60325002670288,3.34317493438721,5.48611259460449,6.07832479476929,6.02841234207153,13.3579502105713,11.4199504852295,8.67600059509277,-31.1380519866943,-33.2910003662109,-34.4929504394531,8.50995063781738,5.29095029830933,0.68505001068115,-9.48323726654053,-11.0173254013062,-10.512149810791,6.25611257553101,10.1370496749878,13.1418371200562,5.39742517471313,4.67637491226196,4.43203735351563,4.45605039596558,-3.28200006484985,-12.3780002593994,-35.5620002746582,-35.3800506591797,-30.211051940918,-2.20995020866394,1.94700014591217,8.78700065612793,-8.05296230316162,-4.40811252593994,-0.80465000867844,13.9068870544434,12.1229619979858,8.57422542572021,4.79641246795654,5.55884981155396,6.38123750686646,-17.1460514068604,-17.5990505218506,-17.2249507904053,-24.9469509124756,-23.1840019226074,-22.5349502563477,12.6840009689331,12.2719507217407,10.7940006256104,SWING_RIGHT
-2.2818124294281,-3.7311999797821,-4.46036243438721,-7.29478740692139,-8.38901233673096,-8.0884370803833,-5.15253734588623,-5.53753757476807,-4.64034986495972,17.590051651001,20.7850513458252,23.8939514160156,2.10600018501282,2.25195002555847,1.21995007991791,10.85205078125,13.5679502487183,15.1410007476807,-4.43973731994629,-3.68610000610352,-2.96381258964539,-6.75675010681152,-4.67500019073486,-2.74986243247986,-2.9603750705719,-0.98078751564026,0.55343747138977,25.8310508728027,24.8830509185791,22.2150001525879,-1.73895013332367,-5.49900007247925,-10.2199506759644,15.5959510803223,15.1080007553101,13.0819501876831,-3.10186243057251,-3.90032505989075,-5.08337497711182,-0.66962498426437,-0.26179999113083,0.22178749740124,2.48366260528564,3.23193740844727,3.82634997367859,16.8330001831055,14.2320003509521,13.1620502471924,-17.3470516204834,-19.1029510498047,-21.6780014038086,8.35605049133301,7.64700031280518,6.43800020217896,-6.61801242828369,-8.26842498779297,-9.63105010986328,1.02918744087219,2.57331252098084,4.95178747177124,4.14755010604858,4.06697511672974,3.55410003662109,12.0259504318237,9.54000091552734,5.95995044708252,-24.5730018615723,-26.2570514678955,-25.359001159668,4.8120002746582,3.21195006370544,2.27805018424988,-10.1968622207642,-9.60918712615967,-7.75610017776489,7.50626230239868,9.30256271362305,9.7746000289917,2.95941257476807,2.55970001220703,2.69747495651245,3.6820502281189,1.42800009250641,-4.50104999542236,-25.2940521240234,-28.3069515228271,-29.0350513458252,1.63095009326935,4.19099998474121,9.54900074005127,-1.95758748054504,0.48056250810623,2.04957509040833,7.20197486877441,5.54702520370483,4.23885011672974,4.63223743438721,5.68809986114502,6.23892498016357,-15.7690505981445,-16.8330001831055,-14.7229509353638,-23.6629505157471,-20.9059505462646,-18.246000289917,12.1789503097534,9.98205089569092,8.48295021057129,2.74986243247986,2.70407509803772,1.68808746337891,3.32323741912842,2.52449989318848,1.26610004901886,6.14184999465942,5.58249998092651,4.97626256942749,-11.9419507980347,-9.05595016479492,-7.23795032501221,-15.2590503692627,-12.6340503692627,-10.3420505523682,7.07295036315918,5.92095041275024,3.72900009155273,-0.17297500371933,-1.73800003528595,-2.08051252365112,-0.46805000305176,-1.69372498989105,-1.88966250419617,4.50903749465942,3.72707486152649,2.40858745574951,-6.28995037078857,-5.7940502166748,-4.53900003433228,-8.59605026245117,-7.48695039749146,-6.85200023651123,2.48100018501282,3.46095013618469,5.9089503288269,2.03898739814758,4.9117751121521,7.1346001625061,0.4641999900341,0.82774996757507,-0.58052498102188,-1.57987499237061,-3.6981999874115,-5.44142484664917,0.91095006465912,3.43500018119812,4.05299997329712,-5.06100034713745,-4.0770001411438,-3.09705018997192,9.30495071411133,11.1340503692627,12.528000831604,8.20462512969971,8.40785026550293,7.9774751663208,-3.00657486915588,-5.1059250831604,-6.06182479858398,-6.03776264190674,-5.30777502059937,-3.53306245803833,4.12005043029785,3.53400015830994,4.03695011138916,-2.37600016593933,-0.77595001459122,0.0679500028491,13.3519506454468,14.3989505767822,14.2480506896973,SWING_RIGHT
-0.10917499661446,-0.1530375033617,-0.12828749418259,0.48771250247955,0.44852501153946,0.40273749828339,0.61338752508163,0.56980001926422,0.52071249485016,-0.01995000056922,0.34800001978874,0.48495003581047,1.71600008010864,1.66800010204315,1.90995013713837,9.70905017852783,9.26895046234131,9.13695049285889,-0.00783750042319,0.17710000276566,0.31872498989105,0.37042498588562,0.24708749353886,-0.09624999761581,0.48688748478889,0.40081250667572,0.15812499821186,0.32400000095367,0.64500004053116,1.08600008487701,2.32395005226135,2.10900020599365,1.70400011539459,9.13005065917969,8.92905044555664,8.9209508895874,0.32133749127388,0.18535000085831,-0.01223750039935,-0.54821246862411,-0.85112500190735,-0.83641248941422,-0.13516250252724,-0.2773374915123,-0.15070000290871,1.1910001039505,0.75105005502701,0.56595003604889,1.42905008792877,1.69905006885529,1.77300012111664,9.55605030059814,10.4299507141113,11.0820007324219,-0.30483749508858,-0.34883749485016,-0.52731251716614,-0.09267500042915,-0.26702499389648,-2.056725025177,0.68199998140335,0.64583748579025,-0.78058749437332,1.89495003223419,8.56095027923584,17.7910499572754,2.40795016288757,2.39895009994507,3.93105030059815,13.242000579834,14.1520509719849,13.8700504302979,-0.93197500705719,-1.56846249103546,-2.38892507553101,-4.98478746414185,-7.80642509460449,-10.0310373306274,-3.18202495574951,-5.2626748085022,-6.35442495346069,21.0529518127441,23.4169502258301,31.4959506988525,6.07005023956299,5.95500040054321,4.54200029373169,13.1389503479004,11.3170509338379,7.76505041122437,-3.14544987678528,-3.23083758354187,-2.73129987716675,-10.949125289917,-10.0830125808716,-8.17409992218018,-5.48336267471313,-2.80857491493225,0.02309999987483,37.1809501647949,30.4270515441895,25.6180515289307,-0.4909500181675,-9.07500076293945,-13.7449502944946,5.0179500579834,7.5949501991272,12.1500005722046,-2.12794995307922,-1.86339998245239,-2.58706259727478,-5.75409984588623,-3.04383754730225,-0.71761250495911,2.54388737678528,4.52787494659424,5.70047473907471,24.6720008850098,21.1440010070801,17.7430515289307,-18.6289501190186,-24.0870018005371,-27.526050567627,13.3860006332397,11.2210502624512,8.84505081176758,-4.42887496948242,-6.76843738555908,-10.1774749755859,1.32591247558594,3.82566237449646,9.24055004119873,6.38714981079102,6.3549747467041,4.37249994277954,15.3960008621216,10.312050819397,0.9300000667572,-31.5190505981445,-31.0180511474609,-27.8760013580322,6.90495014190674,4.56494998931885,3.06600022315979,-9.96379947662354,-7.88906240463257,-4.7519998550415,10.8358249664307,10.6409873962402,9.30490016937256,3.64306259155273,3.78633737564087,5.10936260223389,-4.77105045318604,-13.9320011138916,-17.613000869751,-28.3069515228271,-23.7469520568848,-19.8070507049561,8.63400077819824,13.1179504394531,15.3900003433228,-1.20780003070831,1.70733749866486,3.56661248207092,7.10806226730347,4.76079988479614,3.25916242599487,6.68249988555908,7.1978497505188,6.26876258850098,-12.8140506744385,-6.36195039749146,-2.9320502281189,-18.9349517822266,-17.9580001831055,-15.4290008544922,14.5669507980347,13.4100008010864,12.3870010375977,SWING_RIGHT
-0.10216250270605,-0.49568748474121,-1.01241254806519,1.46299993991852,1.60008752346039,1.08693754673004,1.13533747196198,1.11154997348785,0.57653748989105,-1.04205000400543,-0.14400000870228,2.59200000762939,0.69105005264282,0.58095002174377,0.6240000128746,9.05805015563965,11.1370506286621,12.9640502929688,-1.43948745727539,-1.65673744678497,-1.8154125213623,-0.40232500433922,-2.64660000801086,-5.14978742599487,-0.70894998311996,-2.65374994277954,-4.93886232376099,6.63795042037964,10.9249505996704,15.4969511032104,1.24200010299683,1.99605011940002,2.27595019340515,14.7960004806519,15.3070507049561,16.0180511474609,-2.12767505645752,-2.63807487487793,-3.24788737297058,-7.06516265869141,-7.89208745956421,-7.77081251144409,-6.76156234741211,-7.44947481155396,-6.84158754348755,18.6169509887695,21.6109504699707,22.2720012664795,2.4300000667572,0.81795001029968,-2.13405013084412,17.0430011749268,17.29905128479,17.1720008850098,-3.53237509727478,-3.41206240653992,-3.17666244506836,-6.70876264572144,-5.11018753051758,-3.57170009613037,-4.98946237564087,-2.55832505226135,-0.37386250495911,19.6069507598877,18.6130504608154,19.2550506591797,-5.62395048141479,-8.26095008850098,-9.89205074310303,17.7229499816895,15.7759504318237,12.318000793457,-3.08962488174438,-3.48425006866455,-4.31571245193481,-2.35193753242493,-1.70665001869202,-1.30638754367828,1.19556248188019,2.20151257514954,2.77557492256165,19.3770008087158,17.5350017547607,17.0200500488281,-12.598051071167,-16.6360511779785,-20.0779514312744,9.68100070953369,8.71305084228516,6.81900024414063,-5.53327512741089,-6.99874973297119,-8.33030033111572,-0.92042499780655,-0.23677499592304,1.30460000038147,3.01771259307861,2.97838759422302,2.64852499961853,16.9189510345459,14.1289510726929,12.6250505447388,-23.9860515594482,-25.7250003814697,-26.67405128479,4.98900032043457,5.00100040435791,3.88695025444031,-9.41352462768555,-9.47746276855469,-8.2054500579834,3.36696243286133,7.40464973449707,7.95932483673096,2.20302510261536,2.11695003509521,2.64151239395142,7.78200054168701,2.29995012283325,-0.91500002145767,-24.0390014648438,-21.0019512176514,-22.5520515441895,0.69495004415512,-1.182000041008,3.3270001411438,-6.05000019073486,-3.57926249504089,0.8124874830246,7.3715124130249,6.12686252593994,4.15263748168945,3.53430008888245,4.72518730163574,6.67974996566772,-6.25605010986328,-10.5649509429932,-10.3680000305176,-22.6240501403809,-21.9409503936768,-18.3199501037598,7.13205051422119,7.96605014801025,4.49505043029785,2.09371256828308,2.71493744850159,2.61236238479614,3.85701251029968,3.71662497520447,3.2818500995636,6.40722513198853,5.43248748779297,4.09653759002686,-7.94895029067993,-6.3400502204895,-6.24900007247925,-15.7140007019043,-12.9259510040283,-10.3900508880615,3.31005024909973,3.70500016212463,4.15500020980835,1.6935875415802,0.43738749623299,-0.02543750032783,1.98962497711182,0.12278749793768,-1.0674124956131,3.11299991607666,2.52133750915527,1.94026243686676,-5.93505048751831,-5.19300031661987,-4.29704999923706,-8.59800052642822,-6.78795051574707,-5.49405002593994,4.24200010299683,4.34895038604736,4.49295043945313,SWING_RIGHT
-0.22935000061989,-0.13969999551773,-0.07177499681711,1.39342498779297,1.38531243801117,1.15376245975494,0.98229998350143,0.91396248340607,0.71280002593994,0.15705001354218,-0.20895001292229,0.04695000126958,1.70595002174377,1.82895004749298,1.92405009269714,9.80505084991455,9.85800075531006,10.0519504547119,0.02791249938309,0.18287499248981,0.51961249113083,0.69011247158051,-0.15180000662804,-2.57166242599487,0.38623750209808,-0.17820000648499,-1.896399974823,1.5289500951767,3.74895024299622,5.54295015335083,2.28795003890991,2.83905005455017,3.85500025749207,9.95595073699951,10.2100505828857,11.7520503997803,0.52813750505447,0.01457499992102,-0.93816250562668,-3.79912495613098,-5.51251268386841,-7.14064979553223,-2.86027503013611,-4.26923751831055,-5.41144990921021,9.68895053863525,14.377950668335,14.4409503936768,4.56405019760132,5.23905038833618,5.47605037689209,11.9700002670288,11.6520004272461,11.1580505371094,-1.73923754692078,-2.24248743057251,-2.63945007324219,-7.84052515029907,-7.6203875541687,-7.10256242752075,-5.68122482299805,-5.18361234664917,-3.81933736801147,13.1160001754761,18.1270503997803,31.2799510955811,5.13600015640259,5.52405023574829,2.44905018806458,11.2110004425049,11.3760004043579,10.1530504226685,-2.72442507743835,-2.60631251335144,-2.59971237182617,-6.46621227264404,-5.72577476501465,-2.58032488822937,-1.7355250120163,0.02639999985695,3.26754999160767,28.3560009002686,21.6139507293701,22.4280014038086,-1.90200006961823,-5.33205032348633,-18.4630508422852,8.97405052185059,13.3950004577637,18.3240013122559,-3.19536256790161,-4.75021266937256,-6.88049983978271,-0.49692499637604,1.20614993572235,2.94786238670349,4.2536997795105,4.7920126914978,4.90833759307861,21.3310508728027,15.3580503463745,10.6780500411987,-25.006950378418,-29.4229507446289,-29.5159511566162,16.5450000762939,14.0490007400513,9.66405010223389,-8.70278739929199,-10.0057373046875,-10.5217752456665,4.87024974822998,6.8189001083374,8.31613731384277,4.17642498016357,3.02445006370544,2.01286244392395,6.90105009078979,4.95900011062622,1.02105009555817,-27.8620510101318,-26.9590511322021,-26.3449516296387,4.39305019378662,1.00095009803772,3.14895009994507,-9.77638721466064,-8.15581226348877,-2.77846240997314,8.81058788299561,8.40441226959229,5.87564992904663,1.75532495975494,2.60411238670349,5.63818740844727,-4.74495029449463,-10.1149501800537,-13.6260004043579,-23.8500003814697,-21.5989513397217,-18.8419513702393,5.45595026016235,7.3840503692627,10.7850008010864,-0.15317499637604,1.89076244831085,3.11932492256165,4.19773769378662,2.9915874004364,2.30147504806519,6.4751501083374,6.57868766784668,6.0543999671936,-12.7950010299683,-11.5879507064819,-10.0950002670288,-17.0340003967285,-14.2410011291504,-11.3550004959106,9.421950340271,9.21105003356934,9.08400058746338,3.89564990997315,4.40673732757568,4.40481233596802,2.22818756103516,2.52422499656677,2.49988746643066,4.69686269760132,2.91678738594055,1.35368752479553,-8.68695068359375,-7.04400014877319,-5.26905012130737,-8.64900016784668,-6.23205041885376,-4.43295001983643,8.77305030822754,7.65900039672852,6.70605039596558,SWING_RIGHT
-0.13048750162125,-0.13310000300407,-0.10903749614954,0.09844999760389,0.22013749182224,0.29122498631477,0.2758249938488,0.37331250309944,0.44178751111031,0.46305000782013,0.7579500079155,1.08600008487701,2.11800003051758,2.00805020332336,2.13300013542175,10.0690507888794,10.3200006484985,10.2030000686646,-0.0582999996841,0.06270000338554,0.16224999725819,0.03726249933243,-0.0599500015378,-0.19799999892712,0.3257375061512,0.28118750452995,0.2056999951601,1.35405004024506,1.25100004673004,1.38795006275177,2.47800016403198,2.49195003509521,2.31495022773743,9.54705047607422,9.46995067596436,9.91500091552734,0.24089999496937,0.27527499198914,0.27197501063347,-0.35447499155998,-0.90502500534058,-1.40387499332428,0.11261250078678,-0.24529999494553,-0.57736247777939,1.62000012397766,3.61305022239685,6.5029501914978,2.59500002861023,3.23895025253296,3.67305016517639,10.3750505447388,10.5120000839233,10.5169506072998,0.1214125007391,-0.20514999330044,-1.97518754005432,-2.50799989700317,-3.91599988937378,-7.75183725357056,-1.386274933815,-2.48847508430481,-5.44926261901855,8.54594993591309,10.5970506668091,14.568000793457,4.18800020217896,4.76700019836426,3.76395010948181,10.5289506912231,9.06795024871826,7.59900045394897,-3.09388756752014,-3.81947493553162,-3.99231243133545,-8.65149974822998,-8.37897491455078,-6.69473743438721,-5.61604976654053,-4.74416255950928,-2.86481237411499,15.9040508270264,16.6680011749268,17.8530006408691,3.14805006980896,1.932000041008,-0.77895003557205,9.5149507522583,12.9480009078979,18.1260013580322,-3.05937504768372,-3.22616243362427,-3.96728754043579,-0.66481250524521,1.46478748321533,2.36898756027222,1.55718743801117,2.50909996032715,2.69389986991882,18.7350006103516,18.7920017242432,17.203950881958,-7.99500036239624,-12.3319501876831,-15.1180505752563,24.973051071167,18.0580501556396,11.4240007400513,-5.02177476882935,-7.13968753814697,-8.31311225891113,2.22818756103516,0.59729999303818,0.24956250190735,2.27727508544922,1.03509998321533,0.73108750581741,15.4420509338379,11.6340007781982,10.0480508804321,-15.457950592041,-16.4470500946045,-18.3580513000488,6.26805019378662,4.64895009994507,3.6979501247406,-9.75370025634766,-11.1227874755859,-10.4871253967285,0.92386251688004,2.8466625213623,7.56648731231689,0.56498748064041,0.57997500896454,2.24812507629395,7.47105026245117,2.69100022315979,-2.35695004463196,-18.1069507598877,-16.5240001678467,-19.6590003967285,1.557000041008,-0.23400001227856,5.03700017929077,-7.64926242828369,-3.9059624671936,-0.31776249408722,8.33401203155518,7.66865015029907,6.36075019836426,3.70356249809265,5.37102508544922,6.53743743896484,-5.86800050735474,-9.39405059814453,-11.4730501174927,-21.2490005493164,-21.1750507354736,-21.0550518035889,10.4110507965088,12.9330005645752,11.4100503921509,3.38057494163513,3.64925003051758,3.02871251106262,5.10427474975586,4.95508766174316,4.36205005645752,5.79218769073486,4.36975002288818,3.08907508850098,-12.0090007781982,-10.4160003662109,-8.36895084381104,-17.4580516815186,-14.6290502548218,-12.1549501419067,6.88305044174194,5.31195020675659,4.8070502281189,SWING_RIGHT
0.30731248855591,0.25850000977516,0.08222500234842,-1.10412502288818,-1.88856244087219,-3.25655007362366,-0.428312510252,-1.01117503643036,-2.07941246032715,4.80300045013428,6.6589503288269,5.3299503326416,3.6870002746582,4.03905010223389,4.08000040054321,9.92700004577637,7.96095037460327,6.7350001335144,-0.07823749631643,-0.28572499752045,-0.87711250782013,-4.25493764877319,-4.63539981842041,-4.81195020675659,-2.99378752708435,-3.51449990272522,-3.85027503967285,3.33705019950867,5.30100011825562,9.97605037689209,3.40005016326904,3.69705009460449,3.33705019950867,6.35205030441284,8.88600063323975,12.0900001525879,-1.91894996166229,-2.92654991149902,-4.00400018692017,-4.68888759613037,-4.06697511672974,-2.18322491645813,-3.66464996337891,-2.85945010185242,-1.10976254940033,12.3379507064819,12.6280508041382,19.1920509338379,2.50200009346008,1.76400005817413,1.15095007419586,15.5890502929688,17.1000003814697,17.8090515136719,-4.00881242752075,-4.07962512969971,-4.35214996337891,-1.63638746738434,-1.95813751220703,-2.86824989318848,-0.75542497634888,-0.90846252441406,-1.02506244182587,22.7440509796143,24.7920017242432,22.6840515136719,-0.83895003795624,-5.08995008468628,-9.50595092773438,16.6210498809814,15.0120010375977,14.4559507369995,-4.48250007629395,-4.64048767089844,-5.15872478485107,-3.10777497291565,-2.73184990882874,-2.12960004806519,-0.41098749637604,0.67168748378754,1.63721251487732,18.6580505371094,16.2220516204834,16.6630516052246,-13.3050003051758,-16.090051651001,-19.1800518035889,13.8360004425049,11.7090005874634,8.63895034790039,-6.23562479019165,-7.96482515335083,-11.6887378692627,-1.34901249408722,-0.14630000293255,4.60253763198853,2.23698759078979,2.50566244125366,2.41546249389648,17.2309513092041,13.2859506607056,1.91505014896393,-23.4930019378662,-26.2140007019043,-19.6750507354736,4.62495040893555,0.99600005149841,-0.31305000185966,-12.1382246017456,-7.58381223678589,-3.83570003509521,6.9502124786377,8.29345035552979,7.30345010757446,2.51666259765625,4.1498875617981,5.57603740692139,-0.09600000083447,-6.43605041503906,-9.63600063323975,-20.7220516204834,-22.1539516448975,-22.1659507751465,4.00200033187866,10.1449508666992,8.50200080871582,-0.40782499313354,1.79712498188019,2.75426244735718,6.19891262054443,5.45833730697632,5.06206226348877,6.62103748321533,6.83856248855591,6.23727512359619,-12.6700506210327,-14.1450004577637,-13.1659507751465,-20.4660015106201,-17.8909511566162,-15.3499507904053,6.33195018768311,4.46400022506714,4.23705005645752,2.61277508735657,1.39259994029999,-0.31432500481606,4.57709980010986,3.29408740997314,1.27380001544952,5.2288498878479,4.44427490234375,4.13105010986328,-11.1199502944946,-9.44895076751709,-7.95195055007935,-13.1779508590698,-11.2999505996704,-9.85800075531006,4.07895040512085,4.38795042037964,4.60995006561279,-1.69372498989105,-1.99677503108978,-0.81592500209808,-0.77742499113083,-2.0711624622345,-2.02358746528625,3.95546245574951,3.42044997215271,2.42343759536743,-7.11795043945313,-6.82605028152466,-5.86605024337769,-8.20995044708252,-6.83295011520386,-5.49195003509521,4.6080002784729,4.63200044631958,5.22405004501343,SWING_RIGHT
