gyro_x_0,gyro_y_0,gyro_z_0,acc_x_0,acc_y_0,acc_z_0,gyro_x_1,gyro_y_1,gyro_z_1,acc_x_1,acc_y_1,acc_z_1,gyro_x_2,gyro_y_2,gyro_z_2,acc_x_2,acc_y_2,acc_z_2,gyro_x_3,gyro_y_3,gyro_z_3,acc_x_3,acc_y_3,acc_z_3,gyro_x_4,gyro_y_4,gyro_z_4,acc_x_4,acc_y_4,acc_z_4,gyro_x_5,gyro_y_5,gyro_z_5,acc_x_5,acc_y_5,acc_z_5,gyro_x_6,gyro_y_6,gyro_z_6,acc_x_6,acc_y_6,acc_z_6,gyro_x_7,gyro_y_7,gyro_z_7,acc_x_7,acc_y_7,acc_z_7,gyro_x_8,gyro_y_8,gyro_z_8,acc_x_8,acc_y_8,acc_z_8,gyro_x_9,gyro_y_9,gyro_z_9,acc_x_9,acc_y_9,acc_z_9,gyro_x_10,gyro_y_10,gyro_z_10,acc_x_10,acc_y_10,acc_z_10,gyro_x_11,gyro_y_11,gyro_z_11,acc_x_11,acc_y_11,acc_z_11,gyro_x_12,gyro_y_12,gyro_z_12,acc_x_12,acc_y_12,acc_z_12,gyro_x_13,gyro_y_13,gyro_z_13,acc_x_13,acc_y_13,acc_z_13,gyro_x_14,gyro_y_14,gyro_z_14,acc_x_14,acc_y_14,acc_z_14,gyro_x_15,gyro_y_15,gyro_z_15,acc_x_15,acc_y_15,acc_z_15,gyro_x_16,gyro_y_16,gyro_z_16,acc_x_16,acc_y_16,acc_z_16,gyro_x_17,gyro_y_17,gyro_z_17,acc_x_17,acc_y_17,acc_z_17,gyro_x_18,gyro_y_18,gyro_z_18,acc_x_18,acc_y_18,acc_z_18,gyro_x_19,gyro_y_19,gyro_z_19,acc_x_19,acc_y_19,acc_z_19,gyro_x_20,gyro_y_20,gyro_z_20,acc_x_20,acc_y_20,acc_z_20,gyro_x_21,gyro_y_21,gyro_z_21,acc_x_21,acc_y_21,acc_z_21,gyro_x_22,gyro_y_22,gyro_z_22,acc_x_22,acc_y_22,acc_z_22,gyro_x_23,gyro_y_23,gyro_z_23,acc_x_23,acc_y_23,acc_z_23,gyro_x_24,gyro_y_24,gyro_z_24,acc_x_24,acc_y_24,acc_z_24,gyro_x_25,gyro_y_25,gyro_z_25,acc_x_25,acc_y_25,acc_z_25,gyro_x_26,gyro_y_26,gyro_z_26,acc_x_26,acc_y_26,acc_z_26,gyro_x_27,gyro_y_27,gyro_z_27,acc_x_27,acc_y_27,acc_z_27,gyro_x_28,gyro_y_28,gyro_z_28,acc_x_28,acc_y_28,acc_z_28,gyro_x_29,gyro_y_29,gyro_z_29,acc_x_29,acc_y_29,acc_z_29,motion_type
2.21927332878113,-0.10140363126993,-1.93155586719513,-0.27046057581902,1.76982927322388,2.28539967536926,6.23548316955566,11.5872735977173,15.2274198532104,-29.3514156341553,-14.6240835189819,16.0944232940674,-17.5261554718018,-12.624924659729,2.94965648651123,0.85473001003265,-1.4676456451416,-6.05523538589478,-3.26507472991943,-4.8105640411377,-1.36284041404724,1.91582608222961,1.83702445030212,1.21821796894073,12.1523237228394,1.50372111797333,-5.10339736938477,52.5063400268555,37.6356544494629,16.4176387786865,34.9278106689453,40.5924911499023,26.1934642791748,-2.33674097061157,17.6267108917236,25.5494232177734,3.3903021812439,4.21863555908203,1.86680424213409,1.16629445552826,0.00992656033486,-0.37003162503242,-7.56640577316284,-9.73619937896728,-10.500391960144,12.1939687728882,8.0448169708252,-1.85550630092621,10.8987054824829,-3.68228220939636,-15.9076747894287,8.52126312255859,-4.74530792236328,-6.9530611038208,-0.88331115245819,-2.24615144729614,-1.52960658073425,0.46379944682121,-0.17394387722015,-0.44761151075363,-8.70628070831299,-4.19076442718506,3.2825608253479,-17.9283809661865,-36.9197883605957,-37.7697296142578,-23.3225173950195,-29.6147785186768,-27.7185707092285,-5.20050525665283,2.12126278877258,6.68730449676514,-0.82772243022919,-0.00733038317412,1.50211763381958,0.49922960996628,0.40637809038162,-1.73103940486908,9.85730361938477,14.5676851272583,16.8498783111572,-29.9834861755371,-9.78061294555664,28.8103275299072,-23.7822036743164,-17.1742076873779,1.54665434360504,6.58914232254028,0.66079968214035,-8.05918216705322,0.0549778714776,-5.50328493118286,-5.61079740524292,-0.77625703811646,0.11316278576851,0.36728271842003,9.67404365539551,-2.35083842277527,-6.5303783416748,68.2128982543945,40.4751777648926,13.1348896026611,36.0387191772461,39.3690567016602,25.8319396972656,-21.0169010162354,3.83072280883789,25.1017093658447,-0.94928461313248,3.07081961631775,2.39031577110291,0.96104377508163,0.68798696994781,0.33368512988091,-8.2163667678833,-10.0410213470459,-9.93717384338379,12.8763160705566,10.2450885772705,-25.5566062927246,8.13100814819336,-6.44549036026001,-23.6457347869873,17.6961441040039,5.40401268005371,0.43335050344467,0.13744467496872,-0.90285885334015,-1.25654983520508,1.46561849117279,1.5034921169281,1.19256162643433,-3.86517357826233,5.1835732460022,11.8701047897339,-46.5232315063477,-40.6762886047363,-20.2603340148926,-25.2716960906982,-23.7534732818604,-19.6809368133545,1.37666594982147,2.64798712730408,2.4013843536377,-0.23762658238411,1.18630027770996,-1.79777646064758,-0.11468994617462,-0.74265944957733,-0.52763485908508,15.3349323272705,15.1180744171143,4.30759286880493,6.07678318023682,49.432186126709,54.560863494873,-12.1796035766602,20.7918453216553,36.6707916259766,-2.91134929656982,-9.97214889526367,-8.00411510467529,-4.43366003036499,-2.71101999282837,2.7079656124115,-0.22892175614834,-0.26862800121307,0.14737124741077,-5.33674764633179,-8.70628070831299,-10.3391237258911,28.09446144104,11.8228673934937,0.31603461503983,28.5493583679199,14.7201509475708,-10.7957544326782,10.2618474960327,18.3042697906494,2.68390011787415,SHAKE
-0.42882740497589,-0.07391469180584,0.76480329036713,0.73991054296494,0.47784933447838,-0.16355916857719,9.81026649475098,13.4449148178101,14.5194272994995,-21.9027557373047,-0.16998831927776,33.0791893005371,-16.4679183959961,-11.4661312103271,8.70801067352295,3.37821865081787,-0.14125789701939,-1.62566292285919,0.16737708449364,-2.35122036933899,-1.74035513401031,0.30558532476425,0.00076358154183,0.15164729952812,7.60504341125488,-2.22255682945251,-6.69836664199829,51.7018890380859,35.0092124938965,13.7430171966553,32.66259765625,31.7408294677734,20.7295970916748,-5.52611684799194,8.49253273010254,14.4995851516724,0.20952677726746,1.40865528583527,1.67254900932312,1.2402092218399,1.38498425483704,0.82237732410431,-7.8706169128418,-8.6653528213501,-9.0666913986206,7.32655668258667,3.29920983314514,-1.26174426078796,7.93947219848633,-1.89141929149628,-8.90912342071533,8.8564510345459,2.21224236488342,0.50757074356079,1.30664074420929,0.25411993265152,-0.41050145030022,0.95798939466476,0.80588400363922,0.36545014381409,-8.17543888092041,-4.09119367599487,2.90504598617554,-14.8470430374146,-36.2134971618652,-40.0585861206055,-14.6336603164673,-17.6027698516846,-16.1877956390381,-0.92176765203476,-0.49081134796143,2.28167414665222,-0.81428337097168,-0.70554935932159,-0.09957103431225,0.70386946201324,0.59513545036316,0.15836681425571,9.06623268127441,13.1633062362671,14.6507625579834,-27.2301540374756,-5.51175165176392,23.0687313079834,-15.0840692520142,-12.7135105133057,0.57939678430557,2.54024791717529,0.39504328370094,-3.99352836608887,-0.07269296050072,-3.01828527450562,-3.193603515625,0.11194105446339,-0.4922046661377,-0.32849279046059,10.9446439743042,-0.72349351644516,-6.66293621063232,53.9431610107422,37.8870429992676,12.7111158370972,31.7336463928223,30.2899436950684,18.9818286895752,-7.03685808181763,6.46943235397339,15.1415300369263,-0.84421575069427,1.16186571121216,1.49661982059479,0.2689334154129,0.58963769674301,0.15164729952812,-7.59328413009644,-7.97812938690186,-8.46376705169678,5.8421516418457,2.37983655929565,-3.63679242134094,7.26670122146606,-1.91296720504761,-9.78540134429932,11.5211982727051,3.52187061309814,1.33357036113739,1.16308736801147,0.69577550888062,0.62735861539841,0.30986139178276,-0.14706580340862,-0.11468994617462,-7.42896127700806,-2.85174798965454,4.02537298202515,-21.3592720031738,-38.2198371887207,-38.2198371887207,-15.0912523269653,-16.8509902954102,-16.8509902954102,0.23942017555237,2.782062292099,2.782062292099,0.38606682419777,0.51618111133575,-1.05435335636139,0.83520549535751,0.59513545036316,-0.11774427443743,13.5023365020752,13.5701427459717,4.89096879959106,4.3646297454834,38.7896575927734,47.8615875244141,-10.4246530532837,13.5059909820557,31.4295825958252,-0.85233581066132,-3.75650238990784,-4.65432786941528,-2.97002673149109,-2.03357028961182,-0.13500121235847,-0.71394872665405,0.15836681425571,0.84314674139023,-3.1358003616333,-6.08017063140869,-7.18095016479492,27.6946296691895,12.2777652740479,10.1876277923584,29.4926738739014,19.8078289031982,8.68646335601807,10.3240966796875,13.5227508544922,5.67216300964355,SHAKE
0.57848936319351,1.02808618545532,1.5968017578125,-1.0212140083313,0.07651086896658,1.60184133052826,-2.86274361610413,4.5061240196228,10.6831932067871,-38.8997917175293,-40.154354095459,-23.6768589019775,-18.1223106384277,-16.484676361084,-14.9332342147827,8.29381370544434,11.9066638946533,6.78546667098999,2.07633090019226,2.28585767745972,-1.17041778564453,1.84985268115997,1.65987360477448,-0.66874474287033,13.8102121353149,13.3587827682495,1.51716017723084,10.7598419189453,56.7132530212402,46.4035186767578,-7.45105504989624,28.8151149749756,31.6953392028809,-2.20505976676941,-16.3984851837158,-5.91637182235718,-3.50331211090088,-2.47828030586243,-0.00427605677396,-0.62781673669815,0.02641992270947,0.57070088386536,-6.27259349822998,-7.41124629974365,-7.27991008758545,12.6823854446411,4.0270471572876,3.5506010055542,25.0466423034668,10.872368812561,1.08457338809967,9.95778369903564,12.5219745635986,5.76793098449707,1.29442346096039,1.53876960277557,0.75075340270996,-0.1262963861227,-0.54229563474655,-0.19410243630409,-7.98790311813354,-7.39597463607788,-3.44062209129334,-1.52031803131104,-16.5588970184326,-41.2269554138184,-7.01531028747559,-13.338397026062,-17.8541603088379,2.48518133163452,1.47482824325562,4.54419469833374,0.18020524084568,-0.31826078891754,-0.50152039527893,0.8150469660759,1.71179711818695,1.62444341182709,4.58431482315063,11.5817756652832,15.5884408950806,-42.7951583862305,-19.0273189544678,16.080057144165,-17.0999870300293,-17.7105083465576,-9.39993476867676,6.07438898086548,2.67911171913147,-2.34152936935425,-0.53817230463028,-2.27058601379395,-1.638951420784,0.7722864151001,-1.7823520898819,-2.07434558868408,12.2244062423706,-0.9861655831337,-7.94086647033691,62.1289367675781,48.0555191040039,18.6274871826172,26.6842765808105,31.3673343658447,21.608268737793,-6.37127017974854,8.22677612304688,20.7870578765869,1.20645880699158,3.47337985038757,3.59921813011169,-0.10919216275215,0.48701232671738,0.90912020206451,-9.23345756530762,-9.45886611938477,-8.9982738494873,7.64977359771729,2.02070617675781,-11.2458648681641,8.38958168029785,-1.48201084136963,-9.20600509643555,15.8023300170898,6.13663816452026,-2.71023631095886,-4.81972694396973,-7.77692556381226,-6.56313610076904,5.74289703369141,5.54375457763672,0.48945578932762,1.64849627017975,6.95508241653442,8.49018669128418,-37.2046966552734,-21.0528144836426,-1.57059633731842,-13.9010343551636,-13.5227508544922,-5.44231986999512,-8.03524017333984,-4.3454761505127,4.03901815414429,-0.56688296794891,5.58269739151001,6.54419946670532,-5.7804651260376,-6.83542919158936,-5.39989614486694,6.69913005828857,2.22515296936035,-1.17125773429871,14.9116868972778,22.1373882293701,17.8972568511963,9.90271759033203,21.2180137634277,27.5318241119385,11.2722005844116,10.0487642288208,-0.53390699625015,2.5302038192749,-3.40984988212585,-6.54114484786987,-2.548987865448,1.36360394954681,2.95063185691834,-3.52003455162048,-4.2035927772522,-4.47237348556519,11.6385135650635,4.29998636245728,2.44208574295044,24.3472347259521,16.3625736236572,6.69688129425049,-8.32733249664307,-5.75595998764038,0.37110126018524,SHAKE
1.17713737487793,3.16000580787659,3.65114164352417,-1.07924616336823,-1.87520360946655,-0.78297650814056,-5.68738460540771,-3.51026082038879,1.77677798271179,-13.4772605895996,-28.8246917724609,-34.5902290344238,-10.6999864578247,-14.7201509475708,-13.1277074813843,8.55238819122314,10.6568908691406,12.2610063552856,3.12274312973022,2.31456851959229,1.07145762443542,1.87062203884125,4.37700223922729,4.2047381401062,7.53845882415771,11.2690134048462,9.5005578994751,-21.692066192627,7.17572164535522,42.6515045166016,-9.60344219207764,-0.13407529890537,31.8677215576172,8.8372974395752,-1.18273568153381,-11.8444147109985,-0.61636304855347,-1.44836151599884,-0.86498516798019,0.0080939643085,-2.0822868347168,-2.52577495574951,-0.92202472686768,-7.08565521240234,-7.15590476989746,42.6515045166016,5.39922428131104,-3.26808524131775,31.8677215576172,20.9091625213623,6.5460467338562,-11.8444147109985,2.3319525718689,0.55784898996353,-1.21134579181671,-2.16673898696899,-3.009122133255,-2.8379271030426,-2.32968735694885,-1.96744418144226,-6.26831722259521,-5.36973476409912,-3.71673321723938,-3.9576153755188,-6.94348430633545,-13.309666633606,-1.721431016922,-8.00890350341797,-12.7302694320679,0.08379705995321,0.94810384511948,6.28986692428589,-2.58762526512146,-0.01221730466932,2.93887257575989,-1.08596563339233,0.50106221437454,1.38131904602051,-0.64163756370544,5.04857206344604,10.2439813613892,-27.3259220123291,-32.2220649719238,-19.7096672058105,-16.7360687255859,-16.4200344085693,-13.4150114059448,19.1182994842529,23.3967380523682,16.4559459686279,4.48802709579468,-0.4886921942234,-3.2003231048584,4.18457984924316,1.63910412788391,-0.95035362243652,12.8676471710205,1.3412309885025,-6.49067211151123,55.5161514282227,44.7802505493164,11.1070013046265,30.9459552764893,36.7952880859375,26.6052665710449,-18.9674644470215,-15.2205390930176,5.50935745239258,-1.84298050403595,-0.36163222789764,-0.56688296794891,-0.61865377426147,-0.43783766031265,-0.58933222293854,-7.57617998123169,-7.20904970169067,-7.42529630661011,0.70628952980042,2.02788877487183,-2.08056116104126,11.7462530136108,-0.22984336316586,-8.83250904083252,8.66970348358154,2.01591777801514,0.04309562966228,-1.32618844509125,-1.33290791511536,1.4611896276474,-0.36270123720169,0.42653664946556,1.8345810174942,-6.45340967178345,-3.70085072517395,7.25990438461304,-12.1245365142822,-27.8526458740234,-25.4967517852783,-13.678373336792,-16.8653545379639,-13.6328840255737,3.5003228187561,11.3823337554932,8.86602783203125,1.84053695201874,1.44591808319092,0.40927970409393,2.22553491592407,3.01538348197937,2.26401925086975,11.1975421905518,11.8426151275635,2.44262099266052,-1.98958158493042,38.1767425537109,45.2566986083984,-6.1390323638916,22.7503032684326,35.6843795776367,3.42849683761597,0.07422025501728,-2.37744235992432,1.62490153312683,1.91384077072144,1.02869701385498,-0.2105957865715,0.0209221355617,-0.43111816048622,-6.92194318771362,-6.59024333953857,-6.60795831680298,-1.34314715862274,-1.2641384601593,-2.58094954490662,13.0822172164917,2.4396915435791,-5.54287624359131,5.09037208557129,-2.22181916236877,-5.96665000915527,SHAKE
1.33596229553223,2.30601620674133,2.74706101417542,-2.09022808074951,-1.1079568862915,0.89323770999908,5.46945810317993,9.47123622894287,12.9372863769531,-32.5404930114746,-17.2987060546875,13.9896202087402,-16.2572288513184,-11.7414646148682,1.57059633731842,11.4134588241577,8.15255641937256,-2.38223075866699,0.63102382421494,-3.38052821159363,-3.09708690643311,3.27439045906067,1.75150334835052,0.04474587738514,11.3191041946411,0.94539034366608,-5.24328565597534,51.1895294189453,32.8062477111816,6.91475391387939,33.8620910644531,39.6252365112305,26.7082176208496,-13.4844436645508,1.95606279373169,14.0638399124146,-0.07941248267889,1.56809103488922,1.26998889446259,-0.2105957865715,-0.46838092803955,-1.07741355895996,-6.50655460357666,-7.17300891876221,-7.80769777297974,3.38779544830322,4.51067590713501,2.29364514350891,12.4884557723999,0.97922849655151,-8.37521648406982,9.2155818939209,0.33997663855553,-4.42927312850952,-0.06719517707825,-1.0690141916275,-0.00916297826916,-1.5367842912674,-1.12750446796417,-0.55206948518753,-7.51998043060303,-4.81690168380737,1.15980398654938,-9.07192993164062,-29.1143913269043,-38.1887130737305,-15.4192571640015,-19.8940200805664,-20.5356674194336,-1.36708915233612,7.81976222991943,13.5442981719971,1.86558246612549,3.05921316146851,3.02622652053833,0.03313944116235,0.61468315124512,1.83580279350281,7.54090261459351,12.1095638275146,14.0997629165649,-29.0976314544678,-7.13502025604248,34.3172912597656,-16.9826717376709,-11.2362880706787,12.9505367279053,10.4557781219482,2.15238738059998,-11.6624555587769,-0.49663344025612,-3.90098547935486,-2.42757844924927,1.71729493141174,0.39293906092644,-0.11896600574255,5.92333126068115,-3.45222854614258,-5.96777153015137,53.4616279602051,18.9818286895752,3.57454323768616,37.4824256896973,36.2829284667969,21.2754745483398,-16.4439754486084,4.83389329910278,13.2976951599121,0.40622538328171,1.04641211032867,-0.15332718193531,-0.33765575289726,-1.04259431362152,-1.13911092281342,-6.38743591308594,-7.21515846252441,-7.55602121353149,4.69024133682251,3.89776039123535,-1.67594122886658,7.73357057571411,-3.17471146583557,-10.5132389068604,5.07600688934326,-1.38624274730682,-3.15316367149353,-1.70675754547119,-1.78983521461487,0.46914452314377,-0.95707315206528,-0.32604932785034,-0.08781187981367,-6.3672776222229,-2.52982211112976,4.07974004745483,-13.6975269317627,-32.2364311218262,-37.5710105895996,-16.0225963592529,-18.8525428771973,-18.9243679046631,1.19231247901917,11.1931924819946,14.7704286575317,1.92300379276276,3.08059334754944,2.88633823394775,0.20601430535316,1.00808036327362,2.91336917877197,8.63129711151123,12.9617204666138,14.5059881210327,-23.8396644592285,2.40377855300903,47.7969436645508,-15.9340105056763,-9.9889087677002,21.0384483337402,10.2810010910034,2.44687414169312,-10.503662109375,-0.40378192067146,-2.34816598892212,-0.61330872774124,2.06915330886841,-0.39019018411636,-0.88315844535828,4.92334461212158,-4.2145881652832,-6.48456382751465,50.2342414855957,16.3769378662109,3.50989961624146,37.1161117553711,34.2714996337891,19.4151802062988,-10.7143516540527,7.48457384109497,10.489296913147,SHAKE
0.46914452314377,1.92300379276276,3.08059334754944,-0.08781187981367,0.20601430535316,1.00808036327362,4.07974004745483,8.63129711151123,12.9617204666138,-37.5710105895996,-23.8396644592285,2.40377855300903,-18.9243679046631,-15.9340105056763,-9.9889087677002,14.7704286575317,10.2810010910034,2.44687414169312,2.88633823394775,-0.40378192067146,-2.34816598892212,2.91336917877197,2.06915330886841,-0.39019018411636,14.5059881210327,4.92334461212158,-4.2145881652832,47.7969436645508,50.2342414855957,16.3769378662109,21.0384483337402,37.1161117553711,34.2714996337891,-10.503662109375,-10.7143516540527,7.48457384109497,-0.61330872774124,1.29198002815247,0.90408056974411,-0.88315844535828,-0.93996888399124,-1.71821117401123,-6.48456382751465,-6.73135328292847,-7.55479955673218,3.50989961624146,5.8206033706665,4.44363832473755,19.4151802062988,7.41753625869751,-2.39899015426636,10.489296913147,0.89782565832138,-3.35906505584717,-0.83993971347809,-2.51371049880981,-0.97982788085938,-1.80923008918762,-1.3712397813797,-0.13790282607079,-7.88466691970825,-6.97875356674194,1.38276982307434,-0.78290396928787,-9.15812110900879,-37.8631019592285,-9.30656147003174,-14.4277591705322,-17.8948612213135,-2.78445649147034,0.60812723636627,17.8637371063232,1.7623462677002,3.49292755126953,4.26383924484253,-0.06582073122263,0.51266866922379,2.03066873550415,7.58427381515503,11.9977750778198,14.3416652679443,-28.2931785583496,-8.37761116027832,27.1439628601074,-15.5413618087769,-12.7949132919312,1.78607451915741,14.0422925949097,6.59393072128296,-5.86369943618774,2.3023509979248,-1.74829638004303,-1.72141826152802,2.83701086044312,0.74785178899765,-0.34681874513626,8.98559856414795,-1.7790687084198,-6.30985641479492,54.4028472900391,32.5644340515137,7.69765758514404,32.6673851013184,36.8695106506348,25.082555770874,-18.7064971923828,-5.52132844924927,7.32176828384399,0.1362229436636,0.41233405470848,-0.72326445579529,-0.622318983078,-1.20508444309235,-1.23501682281494,-6.70508623123169,-7.02151441574097,-7.37948131561279,3.16274046897888,3.17231726646423,-0.16759411990643,12.3831100463867,2.92810869216919,-4.68545293807983,4.12999773025513,-0.91219085454941,-1.77649760246277,-1.99691843986511,-2.5436429977417,-1.93705368041992,-0.7683157324791,-0.58078014850616,-0.22098049521446,-6.95920610427856,-5.92989778518677,-2.72652077674866,-4.44842672348022,-14.9523878097534,-28.9755268096924,-9.40232944488525,-13.6304893493652,-15.1439247131348,-0.82121115922928,4.48673391342163,12.1532669067383,0.36224308609962,2.10870671272278,3.13923645019531,-0.31322115659714,-0.14767667651176,0.64278292655945,2.64848256111145,7.72843790054321,11.3270454406738,-30.9148292541504,-19.506160736084,-2.57855534553528,-15.6658601760864,-13.6807680130005,-10.3815574645996,13.254599571228,9.59386539459228,4.47476291656494,3.61998748779297,2.50454759597778,-1.15942227840424,1.92315649986267,2.87854981422424,0.50656002759933,13.1700258255005,9.71313953399658,0.15493069589138,23.1309814453125,45.8552474975586,29.5740776062012,2.73657250404358,30.5149993896484,34.9828796386719,-5.0975546836853,-15.6874084472656,-5.6434326171875,SHAKE
2.03784656524658,1.44652891159058,-1.02075576782227,1.23959827423096,1.60245227813721,1.2701416015625,8.61785793304443,8.36373805999756,2.61610674858093,2.72699570655823,23.9019145965576,23.4853229522705,4.39575433731079,24.28977394104,27.7592716217041,-2.90656089782715,-8.60266590118408,-8.47816753387451,-2.84235596656799,-1.93399941921234,-0.31826078891754,0.55787271261215,0.30497446656227,-0.1244637966156,-2.11199021339417,-3.90549063682556,-4.69228506088257,9.24431228637695,2.89458990097046,2.15717577934265,25.570972442627,17.123929977417,9.51485729217529,4.39096593856812,7.88679981231689,5.07121849060059,0.39767327904701,0.1050688251853,-0.58093285560608,-0.50747632980347,-0.59238654375076,-0.3798054754734,-5.35568475723267,-5.6104154586792,-5.14921236038208,0.44532153010368,-3.15795207023621,-8.36563968658447,2.90416669845581,-2.51391172409058,-6.27310752868652,1.73819041252136,0.14844051003456,0.62488663196564,-0.83749628067017,-0.2119702398777,0.93889987468719,-0.35598170757294,-0.51541757583618,-0.45494189858437,-3.652592420578,-1.03931081295013,2.62954568862915,-15.0673093795776,-22.1373882293701,-23.8923377990723,-8.42788887023926,-9.56513500213623,-9.0575647354126,3.28963303565979,7.12065505981445,7.89877080917358,1.67865765094757,1.96881866455078,1.81610238552094,0.11255192011595,0.96898502111435,2.23408699035645,6.38453435897827,9.29408550262451,10.7552757263184,-17.6530475616455,-6.71842908859253,16.7169151306152,-6.37605857849121,-2.61207413673401,10.9298295974731,6.37845277786255,3.45483303070068,-4.19224739074707,0.16737708449364,-2.18323230743408,-1.62856674194336,2.36420130729675,0.74235397577286,-0.19104810059071,6.37048435211182,-1.06130194664001,-4.62386798858643,36.4457359313965,23.3201236724854,6.91475391387939,29.6842098236084,30.8286380767822,23.4158916473389,-10.5347871780396,-0.50996494293213,8.30339050292969,0.22540926933289,0.94378679990768,0.54305922985077,-0.43478333950043,-0.84528475999832,-1.12872624397278,-5.45220136642456,-5.96777153015137,-6.3361234664917,2.92332029342651,2.48278713226318,-0.20829555392265,13.417405128479,5.99777460098267,-0.71107792854309,5.98580360412598,1.04626619815826,-0.93134444952011,-0.56260687112808,-1.40132486820221,-1.2278391122818,-0.95829486846924,-0.46715918183327,-0.3364340364933,-6.3849925994873,-5.50290298461914,-3.16878700256348,-5.15740966796875,-12.7566061019897,-20.6745300292969,-5.22923564910889,-8.42549514770508,-9.68723964691162,-0.03591302409768,2.64798712730408,7.13502025604248,0.02809980139136,1.18324601650238,2.00547051429749,-0.39629882574081,-0.26557365059853,0.46135598421097,0.3339142203331,3.93374300003052,6.85429000854492,-23.5906677246094,-20.0568256378174,-10.5371809005737,-9.04080486297607,-6.01453399658203,-1.16118776798248,8.92588329315186,8.90433502197266,6.7734956741333,2.34144639968872,1.76601147651672,0.03359758853912,1.86329174041748,2.65191864967346,1.46561849117279,8.59769916534424,6.99539947509766,0.48785224556923,6.84292793273926,27.8550395965576,21.4933471679688,8.41352367401123,26.8829936981201,27.8263092041016,0.56742578744888,-6.27071332931519,-4.51067590713501,SHAKE
2.00547051429749,2.34144639968872,1.76601147651672,0.46135598421097,1.86329174041748,2.65191864967346,6.85429000854492,8.59769916534424,6.99539947509766,-10.5371809005737,6.84292793273926,27.8550395965576,-1.16118776798248,8.41352367401123,26.8829936981201,6.7734956741333,0.56742578744888,-6.27071332931519,0.03359758853912,-0.27122417092323,1.01709067821503,1.46561849117279,-0.09086620807648,-0.55878895521164,0.48785224556923,-4.0001745223999,-5.45892095565796,21.4933471679688,6.08875417709351,-1.61129772663116,27.8263092041016,23.3919486999512,13.1588315963745,-4.51067590713501,4.93235492706299,3.57214903831482,0.9523389339447,-0.69088858366013,-2.21988439559937,-1.59970331192017,-1.29488158226013,-0.48243081569672,-5.62507629394531,-5.21823978424072,-4.27323150634766,-3.63679242134094,-5.64822101593018,-9.74230575561523,-0.42137950658798,-5.68892240524292,-9.12699604034424,-3.30399823188782,-3.29202723503113,-1.10133278369904,-2.63771605491638,-1.32557761669159,0.51312679052353,-0.11774427443743,-0.12018773704767,-0.40362921357155,-2.37588405609131,0.92645353078842,5.29780530929565,-17.4375686645508,-24.8191928863525,-22.676082611084,-10.5252103805542,-11.8587799072266,-10.4916915893555,5.02572870254517,9.5723180770874,9.00967979431152,1.54732167720795,2.01280093193054,1.61329507827759,-0.10858129709959,0.9873109459877,2.87977147102356,8.79195404052734,11.0515451431274,10.3643217086792,-13.2641763687134,4.00549936294556,31.0872135162354,-6.58195972442627,0.90261405706406,23.6912250518799,6.69927549362183,1.95845699310303,-4.25689077377319,-1.04580128192902,-1.95354700088501,-0.85826569795609,2.27379322052002,0.3300199508667,-0.3883575797081,2.52814221382141,-2.61412143707275,-5.60491752624512,35.8950691223145,14.4157876968384,0.83318221569061,35.9142227172852,31.7192821502686,19.585168838501,-10.4485950469971,3.46919822692871,6.18212795257568,0.35674530267715,0.19364428520203,-2.09343528747559,-0.62903851270676,-1.06641805171967,-0.74998980760574,-5.86087036132813,-6.01725196838379,-5.24878311157227,0.08619125932455,0.26815059781075,-8.2411413192749,9.23952388763428,0.82360535860062,-10.000880241394,1.02471828460693,-2.86346530914307,0.80445176362991,-2.06472444534302,-0.5528330206871,1.54365646839142,-0.30405816435814,-0.24969117343426,-0.42684209346771,-3.53591704368591,-0.65507662296295,3.66435146331787,-15.4623527526855,-23.4901123046875,-21.9769763946533,-12.5650701522827,-14.391845703125,-12.3328323364258,6.58674812316895,10.5012683868408,8.88996982574463,3.0158417224884,2.02746176719666,-0.42088615894318,0.93477654457092,2.7924177646637,2.03005790710449,9.41503715515137,8.99842643737793,3.53057193756104,3.20583605766296,23.7965698242188,27.1870574951172,4.76924991607666,23.9928932189941,35.6125526428223,0.85233581066132,-7.29064321517944,-7.4103536605835,-1.3445143699646,-0.31520646810532,0.39950588345528,0.62628960609436,-0.04077525436878,-0.7683157324791,-2.17613101005554,-4.14922571182251,-4.80773878097534,8.80377864837646,1.56580793857574,0.88346040248871,29.8829288482666,19.1111164093018,9.56274127960205,2.89458990097046,2.51391172409058,-0.92176765203476,SHAKE
2.6334400177002,0.98776912689209,-1.51433491706848,2.2847888469696,3.25667524337769,1.57740676403046,11.3307104110718,9.83653354644775,0.9356164932251,11.4374008178711,40.1375961303711,33.1510162353516,4.30716896057129,30.4790859222412,36.2518043518066,-2.94247388839722,-8.95461368560791,-4.23055458068848,-1.13132238388062,0.45081853866577,0.97433006763458,0.14248432219028,-0.42195516824722,-0.86544334888458,-4.42228269577026,-5.58414840698242,-5.86025953292847,9.65850925445557,2.14281058311462,2.90177249908447,27.814338684082,16.5229835510254,7.55161142349243,5.71047019958496,4.46758031845093,-1.36948335170746,0.05681046843529,-1.27854096889496,-1.91078650951386,-1.21485829353333,-0.99616849422455,-0.67912942171097,-6.23716306686401,-6.11010313034058,-5.57437419891357,1.15879356861115,-2.47560453414917,-5.86130523681641,-0.25139117240906,-5.4159836769104,-9.45260715484619,-3.1004912853241,-2.12365698814392,-0.05506663769484,-1.8912388086319,-0.42332962155342,1.26143670082092,-0.53740870952606,-0.50930887460709,-0.77075922489166,-4.14067363739014,-1.02159571647644,3.6490797996521,-15.6083993911743,-25.8894004821777,-26.0498123168945,-11.6193599700928,-12.5746469497681,-11.4733142852783,5.39204168319702,8.41831207275391,7.82694482803345,1.97981429100037,2.33839225769043,2.6700918674469,-0.21792617440224,0.48823404312134,1.52731585502625,8.10717487335205,11.4522724151611,12.7375326156616,-15.5269966125488,2.13562798500061,34.3412322998047,-8.72477054595947,-4.3646297454834,16.4367923736572,5.54048204421997,2.20505976676941,-2.70544791221619,1.21440005302429,-0.38545596599579,0.17715092003345,1.85901570320129,-0.0169515106827,-1.01266181468964,5.69181346893311,-2.40398383140564,-5.20113563537598,43.2213249206543,18.7855052947998,4.52504110336304,33.1127090454102,32.9020156860352,21.5795383453369,-9.51006889343262,0.94810384511948,3.69904160499573,0.83688539266586,0.26511552929878,-1.13926362991333,-1.13544583320618,-1.11528718471527,-0.93202763795853,-5.42654514312744,-5.81200122833252,-6.23655223846436,2.89937829971313,3.39497804641724,1.03190088272095,14.3032598495483,6.76631307601929,-0.64882868528366,0.09337386488914,-3.84987640380859,-4.12999773025513,-2.39947867393494,-3.05127191543579,-2.54975152015686,-0.52519136667252,-0.4103487432003,-0.57406061887741,-6.11437940597534,-5.31170225143433,-3.15229368209839,-2.35589456558228,-8.61224269866943,-19.0799922943115,-6.11748456954956,-10.0056686401367,-11.1931924819946,-2.96162748336792,0.05746084079146,6.36169338226318,-0.4758640229702,1.59619092941284,2.79287600517273,-1.08291137218475,-1.19286715984344,-0.1330159008503,0.57092994451523,4.97832250595093,8.81333446502686,-25.436897277832,-23.8181171417236,-13.5586633682251,-11.6552734375,-10.0439758300781,-6.37605857849121,9.80216121673584,10.1205902099609,7.19726943969727,3.2113184928894,2.11848068237305,-0.99326688051224,1.58412635326386,3.18764758110046,1.94759106636047,11.5836086273193,10.4700012207031,1.21356022357941,8.09270095825195,42.2516746520996,37.5063667297363,1.38863694667816,29.1790332794189,34.4441833496094,0.48841714859009,-9.60583686828613,-7.64977359771729,SHAKE
2.79287600517273,3.2113184928894,2.11848068237305,-0.1330159008503,1.58412635326386,3.18764758110046,8.81333446502686,11.5836086273193,10.4700012207031,-13.5586633682251,8.09270095825195,42.2516746520996,-6.37605857849121,1.38863694667816,29.1790332794189,7.19726943969727,0.48841714859009,-9.60583686828613,-0.99326688051224,-1.4501941204071,-0.42638394236565,1.94759106636047,0.15470162034035,-0.34926220774651,1.21356022357941,-4.43205642700195,-5.3446888923645,37.5063667297363,11.1381254196167,0.31603461503983,34.4441833496094,29.3490219116211,17.3801078796387,-7.64977359771729,4.17069959640503,4.96587371826172,0.50762903690338,-0.02138028293848,-1.22478485107422,-0.55329120159149,-0.82573711872101,-0.65897089242935,-5.16020774841309,-5.23778772354126,-5.17425775527954,0.88824880123138,0.11492168158293,-2.78685069084167,8.35127449035645,0.9528923034668,-4.00310516357422,-0.29688102006912,-2.75333189964294,-2.2170307636261,-2.11725902557373,-2.01646614074707,-0.37995818257332,-0.29550606012344,-0.25213462114334,-0.5361869931221,-4.61531591415405,-3.14985036849976,-0.01183551456779,-6.9722146987915,-15.6514949798584,-23.2363262176514,-7.17093324661255,-9.26585960388184,-9.72075843811035,-0.28490999341011,4.75009632110596,7.56358242034912,1.38605320453644,2.40619826316834,2.69941353797913,-1.22096693515778,-0.91431254148483,0.98914355039597,4.07485294342041,7.88054323196411,10.8273572921753,-22.6042575836182,-12.3855047225952,13.0247564315796,-8.26508331298828,-4.52982950210571,6.3185977935791,7.6378026008606,6.34253978729248,-2.36307716369629,0.61697387695313,-2.79837369918823,-2.7702739238739,2.66902303695679,1.08199501037598,-0.12812899053097,9.03691101074219,0.26305383443832,-4.21275568008423,42.8669853210449,28.4655609130859,6.45506715774536,31.4822559356689,33.4790191650391,24.88623046875,-12.6560497283936,-2.78924489021301,8.74631786346436,-0.50518554449081,0.39278635382652,-0.72204273939133,-0.50686544179916,-1.42988276481628,-1.4811954498291,-4.96289825439453,-5.92928695678711,-6.01786279678345,2.12126278877258,2.72220730781555,-0.70150107145309,15.160683631897,0.43095630407333,-4.60404968261719,7.38880586624146,-1.35272395610809,-0.33997663855553,-1.45324838161469,-1.24127817153931,0.47280970215797,-1.10978949069977,-0.64369922876358,-0.45249843597412,-5.36668014526367,-3.53225183486938,0.43653959035873,-5.51654005050659,-16.8509902954102,-26.2365608215332,-8.26747798919678,-9.96017837524414,-10.5778827667236,2.10689759254456,8.05918216705322,11.5595054626465,2.84663200378418,2.9101619720459,1.93277764320374,0.32696563005447,1.49921607971191,3.91274452209473,9.08578014373779,11.6648540496826,13.133373260498,-14.6336603164673,5.70807600021362,42.215763092041,-7.52766942977905,-3.54102420806885,21.7064304351807,7.48217964172363,1.70227742195129,-8.1238260269165,-1.16858518123627,-2.16796064376831,-0.09101892262697,3.10884594917297,0.39904773235321,-0.50014591217041,4.85981464385986,-2.76195073127747,-5.47602510452271,40.321949005127,15.4408054351807,6.18691635131836,29.6291446685791,30.4359893798828,17.5237598419189,-5.74398899078369,8.47337913513184,8.05918216705322,SHAKE
2.84663200378418,2.9101619720459,1.93277764320374,0.32696563005447,1.49921607971191,3.91274452209473,9.08578014373779,11.6648540496826,13.133373260498,-14.6336603164673,5.70807600021362,42.215763092041,-7.52766942977905,-3.54102420806885,21.7064304351807,7.48217964172363,1.70227742195129,-8.1238260269165,-1.16858518123627,-2.16796064376831,-0.09101892262697,3.10884594917297,0.39904773235321,-0.50014591217041,4.85981464385986,-2.76195073127747,-5.47602510452271,40.321949005127,15.4408054351807,6.18691635131836,29.6291446685791,30.4359893798828,17.5237598419189,-5.74398899078369,8.47337913513184,8.05918216705322,1.47096347808838,1.25593888759613,0.10995574295521,-0.74327027797699,-1.08046793937683,-1.12017416954041,-5.96593904495239,-6.4607400894165,-6.65621662139893,5.13346767425537,3.3423056602478,-0.91697925329208,10.3815574645996,3.17710566520691,-2.77009129524231,2.73657250404358,-0.96486330032349,-0.75417351722717,-0.7000515460968,-0.62552601099014,0.26022860407829,-0.85872381925583,-0.89293229579926,-1.02182483673096,-6.12904024124146,-4.35325479507446,-0.84994262456894,-6.75913047790527,-17.035343170166,-27.6180152893066,-7.36486387252808,-9.91708278656006,-10.1253786087036,0.85473001003265,4.19703578948975,7.75032997131348,1.31274938583374,2.082439661026,2.33839225769043,-0.78786343336105,-0.02306016348302,1.50043773651123,4.22329330444336,8.84082317352295,11.1236267089844,-27.0649547576904,-8.95221900939941,22.8125514984131,-9.43584823608398,-4.81952810287476,11.7247047424316,8.64815616607666,4.91798973083496,-4.74530792236328,0.45570546388626,-1.62429070472717,-0.41294491291046,2.04288601875305,0.24877487123013,-0.78969603776932,5.44319105148315,-2.27325868606567,-4.9848895072937,40.9396514892578,20.8660659790039,4.14915132522583,29.4735202789307,31.2428359985352,21.0935153961182,-11.5786590576172,0.65361708402634,7.72159957885742,1.17591559886932,1.20768058300018,0.11911872029305,-1.0823005437851,-1.60153591632843,-1.88497745990753,-5.45708847045898,-5.85842657089233,-5.96105194091797,2.36307716369629,2.17154097557068,-1.00077629089355,12.9577188491821,5.52611684799194,-0.89543145895004,3.2585084438324,-1.26174426078796,-1.50595283508301,-1.01770150661469,-1.59008228778839,-1.52410876750946,-1.27838826179504,-0.47387871146202,0.06307183951139,-5.25916814804077,-3.57928848266602,-1.34840869903564,-5.99059200286865,-13.2689647674561,-23.9090976715088,-5.0592474937439,-7.93228960037232,-8.93306541442871,0.64404028654099,3.2776620388031,7.6569561958313,-0.80206608772278,0.2101376503706,1.5968017578125,0.45646905899048,0.83642721176147,1.08932542800903,2.98812365531921,7.65574502944946,10.9605264663696,-27.2445182800293,-16.9778823852539,6.97700309753418,-9.16290950775146,-7.48457384109497,-1.22104287147522,10.163685798645,9.31613826751709,3.88339519500732,2.01096844673157,-0.16798794269562,-0.05864306539297,2.91092562675476,2.32205152511597,-0.14767667651176,10.6697540283203,1.62100732326508,-4.95801162719727,41.0449981689453,38.4784126281738,9.51006889343262,23.6050338745117,29.2341003417969,25.3315525054932,-5.27951383590698,-5.43034887313843,9.41429996490478,SHAKE
-1.63834059238434,0.0549778714776,1.43919849395752,-0.14034628868103,-0.03527746722102,2.28539967536926,5.96609163284302,8.8432674407959,5.35583734512329,-20.4638404846191,-6.00735139846802,38.1623764038086,-6.50534534454346,-1.73100781440735,30.1079845428467,9.18924522399902,8.61703109741211,-6.54365253448486,-0.06291911751032,0.16126842796803,0.59009581804276,0.10522153973579,-0.26068675518036,-0.14340060949326,-2.58357810974121,-5.55910301208496,-5.5859808921814,21.253927230835,1.76213240623474,-2.60489153862,29.0545349121094,20.5117244720459,12.0910177230835,-0.24420857429504,3.52905321121216,-0.16280572116375,0.16615535318851,-1.00853848457336,-1.94010806083679,-0.44333544373512,-0.86177814006805,-1.01877045631409,-5.34957599639893,-5.13210821151733,-4.70083713531494,-2.61207413673401,-2.91134929656982,-6.39042377471924,5.00418090820313,-0.88585460186005,-6.15100336074829,-4.6303858757019,-5.86609363555908,-3.14598107337952,-2.63221836090088,-2.23026895523071,-0.66950833797455,-1.00166630744934,-1.02732264995575,-1.45126307010651,-3.41557669639587,-1.00449156761169,2.41635394096375,-12.8763160705566,-19.7024841308594,-21.8117752075195,-8.99292087554932,-9.534010887146,-8.97616100311279,1.40060794353485,7.15177965164185,10.2953662872314,1.01892328262329,2.52776026725769,3.21987080574036,-1.52273428440094,-0.25152376294136,1.80953562259674,6.07360410690308,8.94589233398438,10.0540018081665,-16.4248218536377,-2.94247388839722,25.0155162811279,-6.00974559783936,-0.41419690847397,17.0688629150391,11.8444147109985,8.52126312255859,-2.72460150718689,1.87169110774994,-0.9828822016716,-1.12093770503998,1.91826963424683,0.247553139925,-0.07498370856047,4.86836671829224,-2.47178983688354,-4.96778535842896,36.6923370361328,14.5019788742065,0.16041150689125,32.2891006469727,30.9220123291016,20.2268142700195,-14.3846626281738,-1.91296720504761,2.85867691040039,-0.20280726253986,-0.22418753802776,-1.20401537418365,-0.74449199438095,-1.48974764347076,-1.5123496055603,-5.10706233978271,-5.12416696548462,-4.84561204910278,-0.93852704763412,-0.67516487836838,-3.58412003517151,11.4852848052979,2.95683908462524,-3.6152446269989,0.57700258493423,-1.721431016922,-0.22744916379452,-1.99691843986511,-1.58397352695465,0.22235494852066,-0.90576046705246,-0.40546181797981,-0.06215553730726,-3.99345517158508,-2.40581631660461,0.43592870235443,-8.09270095825195,-15.244481086731,-20.7631149291992,-7.33373928070068,-10.0056686401367,-10.8220911026001,3.74692559242249,9.58907699584961,12.2873420715332,2.20888876914978,3.44405817985535,3.24002933502197,-0.04444044828415,0.74479746818542,2.98911643028259,4.24650621414185,8.13466358184814,10.4015846252441,-20.8876132965088,-11.1309432983398,14.406210899353,-10.0727062225342,-6.67772769927979,6.5268931388855,9.92187118530273,7.26670122146606,-2.25054955482483,1.45935702323914,-0.69577550888062,-1.16186571121216,3.07647013664246,1.16629445552826,0.32879820466042,6.45356225967407,-0.22197316586971,-3.62999033927917,36.3212356567383,23.0543670654297,6.4574613571167,26.9572143554688,34.1063003540039,28.5086574554443,-13.3264255523682,-7.1110782623291,-0.73262572288513,SHAKE
4.80017900466919,2.78493475914001,0.24801129102707,2.23408699035645,3.79973459243774,2.41979002952576,11.4076795578003,10.2818546295166,3.2269721031189,10.3576154708862,36.2829284667969,34.997241973877,-1.98000478744507,17.5931930541992,29.2676200866699,-0.13407529890537,-11.3703632354736,-8.03284645080566,0.09957103431225,0.99998641014099,1.3023647069931,0.30192014575005,-1.14705216884613,-1.733482837677,-2.45774006843567,-4.4980297088623,-5.10645151138306,15.352219581604,5.84933423995972,4.20421838760376,28.2668437957764,20.7679042816162,13.0846118927002,-0.08379705995321,0.22026655077934,-3.71340680122375,0.16432274878025,-1.71714222431183,-3.08486938476563,-2.12871265411377,-1.78479552268982,-0.87766063213348,-5.55543756484985,-5.46258592605591,-4.76253461837769,1.73819041252136,-2.30082774162292,-5.91637182235718,5.88764142990112,-0.22266076505184,-4.07493114471436,-4.87459468841553,-2.35589456558228,1.1180921792984,-3.25407910346985,-1.85703039169312,0.58032196760178,-0.14889840781689,0.02886338345706,-0.43967026472092,-3.67397260665894,-1.42843198776245,2.44445371627808,-11.8252611160278,-20.6338291168213,-24.9005947113037,-6.82616853713989,-8.62900257110596,-8.77504825592041,5.22923564910889,9.19163990020752,10.8603982925415,2.76111102104187,3.87532901763916,3.82768154144287,-0.20143280923367,0.37950003147125,2.32816004753113,6.64842844009399,9.25254726409912,10.8499593734741,-19.9203567504883,-1.85311210155487,29.5070400238037,-7.42232465744019,-3.71580100059509,15.2851819992065,8.94743061065674,2.39899015426636,-8.14297962188721,0.63835418224335,-1.45630276203156,-0.15760323405266,3.99215698242188,3.29515981674194,1.46195328235626,5.05162668228149,-2.0625102519989,-4.71549797058105,40.8223342895508,17.9140148162842,5.77990198135376,27.8550395965576,29.7009696960449,22.0392246246338,-9.34486865997314,1.82677590847015,7.2499418258667,1.99080979824066,2.45506739616394,1.52044355869293,-0.01389718428254,-1.89841651916504,-2.8635835647583,-5.31903266906738,-6.33429098129272,-7.03189897537231,5.04727649688721,3.80199241638184,-2.09253239631653,13.9704666137695,7.40795946121216,-0.68474167585373,0.04309562966228,-4.28562116622925,-5.46386766433716,-0.27061331272125,-1.88818442821503,-2.31762266159058,-2.48484706878662,-1.47386515140533,-0.42745295166969,-6.34039926528931,-4.2970552444458,-0.9678395986557,-9.00489139556885,-16.597204208374,-24.3232936859131,-6.6849102973938,-9.61780738830566,-10.2714242935181,-3.64876341819763,0.56981998682022,5.49259805679321,-1.31091678142548,0.21624629199505,1.48867857456207,-0.04993823543191,0.27320948243141,1.16140758991241,3.41084241867065,7.20370483398438,9.20001220703125,-24.2490730285645,-11.7007627487183,7.86285781860352,-9.29698467254639,-5.8732762336731,2.82994651794434,8.80138492584229,7.22599983215332,3.2585084438324,1.74279856681824,0.97494095563889,0.6878342628479,2.38497066497803,1.66292786598206,0.20540343225002,7.31304979324341,1.93804633617401,-2.00325632095337,25.6332206726074,22.9131088256836,8.97855567932129,19.7144546508789,29.1670627593994,27.6084384918213,-3.22498965263367,-4.89135408401489,-2.26970314979553,SHAKE
1.48867857456207,1.74279856681824,0.97494095563889,1.16140758991241,2.38497066497803,1.66292786598206,9.20001220703125,7.31304979324341,1.93804633617401,7.86285781860352,25.6332206726074,22.9131088256836,2.82994651794434,19.7144546508789,29.1670627593994,3.2585084438324,-3.22498965263367,-4.89135408401489,0.6878342628479,0.38667771220207,-0.60048055648804,0.20540343225002,-0.45249843597412,-0.82390451431274,-2.00325632095337,-3.3379967212677,-4.05942869186401,8.97855567932129,2.44926834106445,2.05901336669922,27.6084384918213,21.8548717498779,14.7177562713623,-2.26970314979553,-4.89883613586426,-7.30740308761597,-2.06105923652649,-3.35120677947998,-3.86799883842468,-1.36513113975525,-1.56060802936554,-1.34741604328156,-4.71794128417969,-4.95312452316284,-4.62325716018677,1.25456166267395,-1.35990655422211,-4.34308195114136,6.49576854705811,-0.61052143573761,-5.12389087677002,-6.62744951248169,-3.00951147079468,0.51235914230347,-3.51736211776733,-1.9712620973587,0.29626965522766,-1.33947479724884,-1.4146112203598,-1.57832312583923,-3.97879433631897,-2.38810133934021,0.59536451101303,-8.50210952758789,-16.6355113983154,-23.557149887085,-7.8556752204895,-8.91391181945801,-9.51485729217529,4.9012303352356,9.39514636993408,10.6473140716553,1.88024318218231,2.74400663375854,3.11113667488098,-1.31992709636688,-0.68462723493576,0.76434510946274,4.72603511810303,8.58364963531494,10.9275388717651,-21.7327671051025,-8.33930397033691,16.7743759155273,-7.76708936691284,-4.45560932159424,7.03446388244629,9.87877559661865,6.33535718917847,-0.85233581066132,1.75868105888367,-1.72080743312836,-2.36221599578857,2.56517577171326,1.14491415023804,0.24877487123013,8.26599979400635,0.28932106494904,-3.80347609519959,39.63720703125,24.8622875213623,5.76314258575439,28.853422164917,31.3625450134277,23.2411136627197,-12.6177425384521,-3.69425320625305,6.40239477157593,-0.90163707733154,-0.01099557429552,-0.40194934606552,-0.07742717117071,-0.34681874513626,-0.97723168134689,-4.44305181503296,-4.91158580780029,-5.47358179092407,2.69826531410217,4.17309379577637,1.94169759750366,14.736909866333,6.37366437911987,-0.27054479718208,5.65061521530151,0.08140286058187,-1.65918183326721,-1.14781582355499,-1.08917272090912,0.09285151958466,-1.03953993320465,-0.33704489469528,0.2041817009449,-5.44609260559082,-3.98795747756958,-1.13766014575958,-5.0281229019165,-13.6089420318604,-21.7519207000732,-6.04326438903809,-8.24832439422607,-9.04319953918457,1.94888019561768,6.7734956741333,8.93067169189453,1.52410876750946,2.78859972953796,3.87288570404053,0.25488352775574,0.2023491114378,0.13698652386665,2.84334874153137,6.77732086181641,9.44435882568359,-24.6611747741699,-15.9196453094482,4.80755710601807,-7.39359426498413,-4.40533113479614,2.80361008644104,9.16769790649414,6.49576854705811,-0.07182604819536,3.86555528640747,0.69821900129318,-1.37444674968719,0.89568114280701,0.20784689486027,-0.26557365059853,8.41749382019043,1.0101420879364,-4.41983890533447,33.297061920166,29.7943439483643,0.51235914230347,24.1652755737305,29.7081527709961,17.6195297241211,-9.8476505279541,-11.5595054626465,2.56418991088867,SHAKE
2.83502554893494,3.28156805038452,2.7146852016449,0.93844175338745,1.83030498027802,3.44970870018005,7.38024473190308,9.75467777252197,8.76507663726807,-12.1700267791748,7.59710121154785,36.7952880859375,-3.55538964271545,3.82832860946655,26.1383972167969,6.3377513885498,0.5434837937355,-8.95221900939941,0.60658919811249,0.12705996632576,0.67439520359039,1.68247556686401,-0.70112055540085,-1.81778228282928,0.3033709526062,-5.58659172058105,-6.91644525527954,33.5747871398926,10.2666358947754,0.25139117240906,29.5094337463379,24.4887924194336,14.9380226135254,-11.3512096405029,-0.48602294921875,0.73741412162781,0.69272118806839,-0.39095374941826,-1.7989981174469,-2.38161087036133,-2.62107014656067,-1.93384659290314,-6.60856914520264,-6.12293148040771,-5.29765224456787,-2.166752576828,-3.66791701316834,-5.74877738952637,7.67850399017334,1.26174426078796,-3.227383852005,-1.83395850658417,-2.28167414665222,-0.64643448591232,-2.69269394874573,-1.85031080245972,-0.08552113175392,-0.95462965965271,0.31658092141151,0.17058411240578,-4.10279989242554,-0.12728904187679,4.23306703567505,-8.77504825592041,-24.5869560241699,-25.4895687103271,-6.42873096466064,-9.99130344390869,-10.4126825332642,1.51552963256836,9.84525680541992,9.27304267883301,1.18202424049377,1.8600846529007,1.84786736965179,-0.0810923576355,0.55726182460785,2.27134966850281,8.46636295318604,11.6880664825439,13.2793703079224,-16.681001663208,0.3208230137825,28.0705184936523,-10.0966482162476,-8.28663158416748,6.02411079406738,7.3409218788147,3.2776620388031,-4.8410758972168,0.11728613078594,-2.89916634559631,-2.97369194030762,3.13816738128662,1.18889653682709,0.37033706903458,9.17741012573242,0.07918340712786,-3.99528789520264,43.2213249206543,27.6395626068115,8.29860210418701,25.594913482666,27.5773124694824,22.2810401916504,-10.5252103805542,1.2258312702179,9.61780738830566,-1.45202672481537,-0.34941491484642,-0.16615535318851,0.13698652386665,0.33063080906868,0.00198531197384,-4.41189765930176,-4.70450210571289,-5.61408090591431,4.86980628967285,5.63625001907349,3.88100099563599,14.3439617156982,9.41669464111328,4.41969633102417,8.89236450195313,4.06774854660034,2.04704236984253,-0.19608774781227,-0.0274889357388,0.39706242084503,-0.23014348745346,-0.39263364672661,-0.41584652662277,-6.30558013916016,-6.33795595169067,-5.70571041107178,0.30885201692581,-3.64397501945496,-7.53964042663574,0.76853877305984,-1.92733240127563,-3.85945320129395,2.03507137298584,2.70784211158752,4.18027639389038,1.19363069534302,2.52837133407593,3.49414920806885,-0.03100141137838,0.11866057664156,-0.0713185146451,-4.20481443405151,-0.20609065890312,4.79445219039917,-18.5604496002197,-29.3322620391846,-23.6217918395996,-5.92355442047119,-6.00974559783936,-4.07493114471436,6.82616853713989,8.41352367401123,6.13663816452026,3.73238658905029,3.7348301410675,2.57113170623779,0.25060746073723,1.21333110332489,1.93964982032776,7.96178865432739,9.62761783599854,6.63621091842651,-9.26107120513916,12.7613945007324,32.0568656921387,-2.37983655929565,7.12544345855713,23.4829292297363,2.43011474609375,-5.36809968948364,-14.1572141647339,SHAKE
2.12520027160645,2.38787221908569,-0.44043383002281,0.15164729952812,0.92927873134613,-0.62781673669815,12.0961246490479,8.55738258361816,0.7700719833374,21.5651741027832,34.5375556945801,28.6451263427734,3.91930818557739,21.8189582824707,26.0186882019043,-1.944091796875,-10.2762126922607,-2.78685069084167,-1.38727498054504,-1.12643551826477,-0.22846360504627,-0.0841466858983,-0.59666264057159,-0.67607510089874,-4.01972246170044,-5.55727005004883,-5.91951322555542,14.4564895629883,6.68251609802246,4.53701210021973,21.5125007629395,14.6192951202393,10.4916915893555,2.35350036621094,4.86262369155884,3.85466480255127,0.12522737681866,-0.02687807008624,-0.17348572611809,-0.49770244956017,-0.09636399149895,0.22678372263908,-6.55664587020874,-7.10459184646606,-6.93232774734497,2.81797528266907,-0.69671267271042,-4.98502731323242,6.30423212051392,1.65439331531525,-1.82198750972748,1.84353530406952,0.86670100688934,0.37349545955658,-0.27366763353348,-0.54428094625473,-0.6322455406189,0.32757648825645,0.51022517681122,0.48701232671738,-5.79489660263062,-2.821204662323,2.49576640129089,-13.0319395065308,-27.5126686096191,-33.0193328857422,-5.34176349639893,-8.07115364074707,-8.50689792633057,0.15322890877724,1.4867992401123,3.19386506080627,-0.61819565296173,-0.54244834184647,-0.13744467496872,0.44425174593925,0.39171734452248,0.47968193888664,7.41139888763428,9.86585521697998,11.6556901931763,-23.6098213195801,-6.51252794265747,19.0823860168457,-7.9059534072876,-6.41915416717529,4.19703578948975,2.78685069084167,1.37666594982147,-0.76135611534119,0.2443460971117,-0.9950994849205,0.28283059597015,1.48577702045441,0.73868882656097,-1.18370413780212,8.51095676422119,-0.99716114997864,-5.98059988021851,38.9668312072754,26.6818809509277,7.01531028747559,25.6140670776367,24.3017463684082,18.349760055542,-1.51074123382568,5.30345582962036,11.9593372344971,2.63527274131775,3.77514719963074,3.77514719963074,-1.56060802936554,-1.37857019901276,-1.73714804649353,-6.83031320571899,-7.43445920944214,-8.14245223999023,3.44286203384399,2.41814374923706,-1.19949507713318,11.458948135376,5.89961242675781,0.28012159466743,8.48295593261719,2.54503631591797,-1.4676456451416,2.7892107963562,0.76724672317505,-1.98042511940002,-2.11649537086487,-1.96622252464294,-1.20874965190887,-7.95674896240234,-6.70997285842896,-3.39419627189636,-5.93552541732788,-15.3450374603271,-29.9044761657715,-3.58412003517151,-7.3792290687561,-11.980884552002,-4.65432786941528,-5.79187297821045,-2.782062292099,-4.21619176864624,-5.30597543716431,-5.53932619094849,0.48273625969887,1.70935368537903,1.74844908714294,2.65459132194519,7.22875022888184,9.51216411590576,-31.3122673034668,-20.2723045349121,-7.3409218788147,-10.1660795211792,-8.83490371704102,-5.35612869262695,2.00634098052979,3.14119267463684,5.39922428131104,-4.64624118804932,3.70550847053528,7.52341651916504,1.10765135288239,-3.26370024681091,-4.45671987533569,10.1914463043213,-2.06067752838135,-7.06732892990112,11.8204727172852,23.3751888275146,7.86764621734619,2.38223075866699,19.6186866760254,12.0862293243408,7.84131002426147,14.6240835189819,14.4229707717896,SHAKE
7.72316932678223,-0.96944314241409,-9.99742031097412,4.39593887329102,9.11731624603272,12.3640651702881,1.02541363239288,4.12738752365112,4.1848087310791,-10.9825029373169,2.08534979820251,2.3511061668396,6.15579175949097,11.7701950073242,12.4597253799438,-5.53090524673462,-18.8118419647217,-22.1110515594482,-15.4512252807617,-18.4908905029297,-8.15993785858154,12.1356019973755,10.3555402755737,-1.18614757061005,3.19703960418701,1.99424600601196,0.79206317663193,-6.6346321105957,-15.0026664733887,9.72554683685303,3.16274046897888,-1.93690919876099,6.14142656326294,-11.7151279449463,3.67270541191101,22.8963489532471,1.04641211032867,9.3040885925293,13.9081802368164,-6.78350591659546,-9.44993305206299,-10.8439273834229,-3.86395168304443,-9.21329879760742,-12.570613861084,13.7478055953979,8.11424922943115,2.68629431724548,5.4662618637085,-4.75488471984863,-11.9713077545166,28.4823207855225,25.8654594421387,25.2836685180664,15.7200059890747,15.6381502151489,5.74640941619873,-9.15671730041504,-2.04319143295288,4.45336055755615,-13.3561868667603,-9.69099521636963,0.47807842493057,-6.50773954391479,-27.2014236450195,-21.7495269775391,-13.5706348419189,-9.8476505279541,3.40455484390259,25.515905380249,7.34571027755737,-20.8732490539551,-9.48612594604492,-19.9612426757813,-20.0223293304443,16.3481292724609,17.5674152374268,7.18026304244995,5.88240337371826,6.04244995117188,3.19887232780457,-6.28507852554321,-5.26754283905029,-0.06224924325943,3.11485648155212,-8.78941345214844,-4.64953947067261,-23.8851547241211,-11.3320560455322,22.1732997894287,-8.31448650360107,8.60953521728516,17.2196807861328,-3.51965284347534,-5.8946967124939,-7.32045650482178,0.04253149405122,-5.45525550842285,-10.4521331787109,10.1900215148926,11.1548852920532,8.67449188232422,10.1158018112183,2.31279873847961,-10.8891286849976,52.2262191772461,35.2606048583984,18.4742584228516,18.7529525756836,16.1714363098145,5.10988759994507,-6.7517409324646,-1.95095086097717,3.58165574073792,-13.7465295791626,-12.0116720199585,-0.986776471138,-1.34793555736542,-32.7439994812012,-38.7633209228516,-18.6969203948975,-15.4048919677734,-3.19386506080627,9.89792919158936,-3.50750541687012,-30.8956756591797,-9.34074020385742,-19.3796997070313,-20.0223293304443,10.8326263427734,12.970043182373,9.31951332092285,5.30452489852905,6.10903406143188,2.68391275405884,-14.8039474487305,-2.05901336669922,-7.25233602523804,1.58496153354645,-9.13657283782959,-18.0121784210205,-24.560619354248,-14.023138999939,0.53630119562149,-20.0113353729248,-7.23630952835083,9.23261737823486,2.10213994979858,-2.29670071601868,-5.39012241363525,0.88369292020798,0.06269004940987,-1.99042809009552,-7.08474206924438,0.95049810409546,6.71603488922119,-9.28261947631836,4.11802673339844,-0.56263738870621,33.6274604797363,44.8688354492188,27.2133941650391,17.105447769165,19.3601512908936,17.9227867126465,-7.12681198120117,-6.63140058517456,-2.70170426368713,-6.450355052948,-9.53888988494873,-7.98729228973389,3.33991146087646,-9.967360496521,-35.1768074035645,-8.72716426849365,-11.4302177429199,-5.85891103744507,13.3886747360229,8.40634155273438,-9.22276401519775,SHAKE
-18.829309463501,-14.4781169891357,-0.78435099124908,7.802734375,-0.14462234079838,1.44668161869049,4.02476215362549,0.44997861981392,-3.58967328071594,0.94570964574814,7.47739124298096,5.35852289199829,1.48919343948364,7.70484018325806,6.62984371185303,5.1861400604248,39.0841445922851,39.4720077514649,10.383487701416,15.1787796020508,15.1390733718872,0.58658337593079,0.6250678896904,-0.83734351396561,-5.64767837524414,-7.84923648834229,-9.688551902771,5.97862100601196,3.71819519996643,-3.67749381065369,-2.39659595489502,-6.46224975585938,-8.07594203948975,23.0400009155273,8.44225406646729,-5.13346767425537,12.7548666000366,8.34075450897217,3.36159133911133,-3.74261856079102,-5.23312997817993,-3.57829594612122,-10.0917224884033,-8.24752044677734,-5.09789943695068,-9.88356399536133,-11.557110786438,-15.2971534729004,-7.76230096817017,-6.35451078414917,-10.2522706985474,-8.00890350341797,-6.31141471862793,-7.70005178451538,-2.40497636795044,-7.21187496185303,-9.01942539215088,-1.47997379302979,0.95371335744858,2.46132874488831,-1.50051414966583,2.97651720046997,8.90679740905762,-23.0256366729736,-29.6339321136475,-27.4097194671631,-14.8278894424438,-20.7415676116943,-23.5164470672607,-2.77248549461365,5.83975744247437,13.3288202285767,-7.00906801223755,-3.07204127311707,-0.19853121042252,2.4124596118927,1.64582371711731,1.8968893289566,14.8279142379761,18.8235836029053,19.878547668457,-14.4397296905518,8.30099678039551,44.4235153198242,-24.098237991333,-20.298641204834,-0.91458505392075,14.4325475692749,6.80462074279785,-1.71424841880798,-0.47525316476822,-4.33103466033936,-3.32860469818115,3.57737970352173,-0.17150041460991,-0.70845097303391,11.7479314804077,-0.68073296546936,-4.5249080657959,52.1041145324707,27.5414009094238,7.68568658828735,33.4143753051758,31.781530380249,21.2275905609131,-10.8891286849976,5.56442403793335,15.6467065811157,-1.03114056587219,-0.53389620780945,-1.31274938583374,-0.0340557359159,0.42348232865334,0.28909197449684,-4.05637407302856,-5.23962020874023,-7.99278974533081,9.0360164642334,14.2074918746948,9.56034660339356,16.1255474090576,12.5339450836182,3.70143580436707,10.079888343811,3.5506010055542,2.17632937431335,-1.71408784389496,-1.28037357330322,-0.11606439948082,0.05329799279571,-0.07864890247583,0.04657847434282,-9.44787120819092,-9.29576587677002,-8.24752044677734,2.94247388839722,-1.45088624954224,-8.16213321685791,-2.92332029342651,-7.41753625869751,-10.5563344955444,3.4811692237854,4.76446151733398,6.89560031890869,1.78983521461487,3.24125099182129,3.61326789855957,-0.15500704944134,-0.84100872278214,-0.54596078395844,-6.03130149841309,-2.90855860710144,1.60512483119965,-16.0417499542236,-23.8492412567139,-29.8613815307617,-12.0838356018066,-13.9345531463623,-15.3617963790894,7.70244598388672,7.21402883529663,6.09114837646484,2.78676724433899,1.71042263507843,0.56627207994461,0.52244251966476,1.24937212467194,1.33733677864075,7.40834474563599,11.3606424331665,15.7032833099365,-26.3969707489014,-16.0297794342041,7.68808078765869,-15.2349042892456,-16.1662483215332,-16.3721504211426,3.54102420806885,1.87226569652557,-0.60812723636627,SHAKE
-4.33103466033936,-3.32860469818115,-1.03114056587219,-0.17150041460991,-0.70845097303391,-0.0340557359159,-0.68073296546936,-4.5249080657959,-4.05637407302856,27.5414009094238,7.68568658828735,9.0360164642334,31.781530380249,21.2275905609131,16.1255474090576,5.56442403793335,15.6467065811157,10.079888343811,-0.53389620780945,-1.31274938583374,-1.71408784389496,0.42348232865334,0.28909197449684,0.05329799279571,-5.23962020874023,-7.99278974533081,-9.44787120819092,14.2074918746948,9.56034660339356,2.94247388839722,12.5339450836182,3.70143580436707,-2.92332029342651,3.5506010055542,2.17632937431335,3.4811692237854,-1.28037357330322,-0.11606439948082,1.78983521461487,-0.07864890247583,0.04657847434282,-0.15500704944134,-9.29576587677002,-8.24752044677734,-6.03130149841309,-1.45088624954224,-8.16213321685791,-16.0417499542236,-7.41753625869751,-10.5563344955444,-12.0838356018066,4.76446151733398,6.89560031890869,7.70244598388672,3.24125099182129,3.61326789855957,2.78676724433899,-0.84100872278214,-0.54596078395844,0.52244251966476,-2.90855860710144,1.60512483119965,7.40834474563599,-23.8492412567139,-29.8613815307617,-26.3969707489014,-13.9345531463623,-15.3617963790894,-15.2349042892456,7.21402883529663,6.09114837646484,3.54102420806885,1.71042263507843,0.56627207994461,-0.05803219974041,1.24937212467194,1.33733677864075,1.09665584564209,11.3606424331665,15.7032833099365,17.2347221374512,-16.0297794342041,7.68808078765869,46.5375938415527,-16.1662483215332,-16.3721504211426,5.93073701858521,1.87226569652557,-0.60812723636627,-4.17309379577637,-1.47096347808838,-3.50453400611877,-1.5357152223587,1.34772145748138,1.21882891654968,-0.03283400833607,8.79012203216553,-2.2335524559021,-5.37645387649536,49.4417610168457,20.8038177490234,7.44387245178223,31.2212886810303,26.9021472930908,19.855712890625,-0.34955343604088,13.2665710449219,18.186954498291,1.638951420784,3.25285744667053,3.07631731033325,0.19440786540508,0.52427512407303,-0.04505131021142,-5.86392450332642,-7.52608871459961,-9.33180618286133,10.7598419189453,10.6784391403198,3.81635761260986,12.7135105133057,5.88764142990112,-0.98162269592285,12.8068838119507,4.32632255554199,1.41257905960083,2.21927332878113,1.47401785850525,0.92912602424622,-0.23075434565544,-0.42623123526573,-0.89904093742371,-9.6958818435669,-8.33854007720947,-5.05574989318848,-4.18027639389038,-13.1923503875732,-27.1367797851563,-5.56681823730469,-8.11664295196533,-10.7382936477661,0.1723825186491,-0.18195933103561,3.1699230670929,0.74220126867294,-0.05070181563497,-1.49295461177826,-0.09453139454126,1.2811371088028,2.03677749633789,0.98754000663757,7.4541597366333,12.2366237640381,-33.7974472045898,-25.7002582550049,-11.6744270324707,-11.0998182296753,-11.3057193756104,-13.225869178772,5.07361268997192,2.79403328895569,1.63284552097321,-2.42574596405029,-2.57479691505432,-2.38603973388672,1.40758621692657,0.44425174593925,-0.18371772766113,15.6140975952148,15.4430551528931,6.14568614959717,12.3567743301392,40.5517921447754,39.460033416748,-13.0415163040161,6.00495719909668,24.9772090911865,0.2777273952961,1.95845699310303,5.67695140838623,SHAKE
-2.42574596405029,-2.57479691505432,-2.38603973388672,1.40758621692657,0.44425174593925,-0.18371772766113,15.6140975952148,15.4430551528931,6.14568614959717,12.3567743301392,40.5517921447754,39.460033416748,-13.0415163040161,6.00495719909668,24.9772090911865,0.2777273952961,1.95845699310303,5.67695140838623,-2.29257726669312,-0.19181168079376,1.47157442569733,0.33124166727066,0.20173825323582,-0.0517708286643,-1.93422842025757,-4.24513149261475,-4.87126874923706,20.3561019897461,8.86842250823975,12.4908494949341,22.9466285705566,16.6642417907715,12.7159042358398,15.9771060943604,12.0000381469727,6.71842908859253,1.69026410579681,1.08917272090912,0.32559117674828,0.05635231733322,-0.10858129709959,-0.1782199293375,-6.84986114501953,-8.54379081726074,-9.76674270629883,12.3591680526733,6.84292793273926,-0.25857377052307,8.85405731201172,2.08534979820251,-4.2760443687439,1.37666594982147,0.23223756253719,1.47722244262695,0.24984388053417,0.50518554449081,0.68966686725616,0.29642236232758,-0.12935072183609,-1.73287200927734,-9.07829761505127,-4.51085805892944,2.66253256797791,-15.6514949798584,-36.108154296875,-32.1813621520996,-10.7047748565674,-12.9074401855469,-10.5994300842285,0.56024318933487,-0.13168109953403,3.15076947212219,0.74036866426468,0.11850785464048,-0.73303830623627,-1.16415643692017,0.12721268832684,0.90362238883972,8.3942813873291,13.1437587738037,15.6745729446411,-20.7559337615967,-1.47482824325562,23.1094341278076,-12.1269311904907,-14.722544670105,-9.25628280639648,2.53067111968994,1.81241071224213,-0.26336219906807,-1.84603476524353,-2.60472941398621,-1.02869701385498,1.52914845943451,2.16811347007751,-0.2625193297863,13.1181020736694,0.7395287156105,-5.87980699539185,49.2789573669434,37.6571998596191,15.9148569107056,24.7018775939941,27.4001426696777,17.0137958526611,10.1397438049316,12.7182989120483,13.5873937606812,1.34817957878113,3.02378296852112,1.27915179729462,-1.72554159164429,-0.80741113424301,-0.87155199050903,-7.10825729370117,-7.8327431678772,-9.65739727020264,11.585841178894,11.4230356216431,-2.4013843536377,12.7470293045044,6.69927549362183,-2.87783050537109,13.1301012039185,4.36941814422607,0.27054479718208,-0.29321530461311,-2.97491383552551,-6.05550718307495,0.80527311563492,2.23653030395508,3.06608533859253,-7.99889850616455,-1.82610523700714,5.75778675079346,-18.6657943725586,-36.5845985412598,-30.2109355926514,-7.79582023620605,-12.0000381469727,-10.4007110595703,-2.13802218437195,-2.77248549461365,3.72537779808044,-6.94859218597412,-4.08180141448975,1.786780834198,1.34894323348999,-1.770134806633,-2.45186042785645,13.4253673553467,12.499906539917,3.7736964225769,6.26353073120117,32.9618721008301,39.1368179321289,-12.4956378936768,6.09593677520752,25.9588317871094,7.69286918640137,16.8509902954102,20.3752555847168,4.72443199157715,5.97487306594849,5.59369325637817,-3.21605277061462,-3.10548615455627,-2.48973393440247,-5.26038980484009,-7.79670238494873,-7.78326320648193,23.3823719024658,9.25628280639648,5.66019201278687,19.9802112579346,13.9441299438477,9.44063663482666,16.8198661804199,9.92426490783691,1.80283391475677,SHAKE
1.35917520523071,4.21130514144897,5.11843967437744,-4.44144868850708,-1.47936296463013,-2.33335256576538,11.5420694351196,2.81647062301636,-5.81444454193115,40.2189979553223,44.6629333496094,25.3171863555908,9.80216121673584,28.4535903930664,19.7024841308594,13.515567779541,14.9739360809326,6.46464395523071,5.44952869415283,4.63891077041626,1.3078625202179,-3.91793704032898,-2.70903468132019,-1.07985699176788,-8.2298059463501,-7.92803812026978,-8.09480476379395,10.778995513916,9.20121669769287,6.46703815460205,17.0544967651367,10.4773254394531,6.73758268356323,4.47955131530762,-5.06164169311523,-10.9441947937012,-2.86495804786682,-5.62606906890869,-6.99990463256836,0.47235155105591,2.07831621170044,2.24324989318848,-8.54867744445801,-8.07281303405762,-6.5639762878418,1.45328044891357,-5.27951383590698,-11.0950298309326,0.83557641506195,-4.53222370147705,-9.86441040039062,-8.6002721786499,-6.30662631988525,-4.35026454925537,-6.98585510253906,-4.91380023956299,-1.11360728740692,1.23776566982269,-0.74265944957733,-2.92405915260315,-3.64892721176147,1.20378637313843,6.00396537780762,-24.1652755737305,-30.2133293151855,-23.2411136627197,-11.3488149642944,-11.1093950271606,-9.78540134429932,1.80762231349945,8.96419048309326,11.2937488555908,1.41476392745972,3.81546425819397,5.45808076858521,-3.49460744857788,-4.13845920562744,-3.75789022445679,8.86403656005859,11.7534294128418,12.735089302063,-11.1070013046265,5.9115834236145,32.5021858215332,-9.94102478027344,-9.534010887146,7.30500888824463,6.99136829376221,2.02549457550049,-0.3687070608139,4.5381178855896,-0.79473567008972,-3.13251686096191,-1.04015076160431,0.54687708616257,0.77167552709579,7.24463272094727,-3.63243389129639,-7.19561100006104,47.6197738647461,26.3969707489014,6.66096830368042,35.2031440734863,23.8420581817627,17.3801078796387,-6.73518848419189,-2.41335535049438,6.22522354125977,-2.70491123199463,-1.64689266681671,-1.21745443344116,1.10704052448273,2.38924670219421,2.13390493392944,-6.42225551605225,-6.60673666000366,-7.65925741195679,7.76948356628418,5.74877738952637,1.23540806770325,8.54520511627197,3.87621259689331,-0.92176765203476,6.74955368041992,3.03584766387939,1.92972660064697,0.13377949595451,1.79594385623932,4.66395616531372,0.96715241670609,-0.53863042593002,-1.69072222709656,-7.38681173324585,-3.52308893203735,1.77311277389526,-14.0279273986816,-27.1702995300293,-27.0601654052734,-11.7797718048096,-15.0002717971802,-13.6831617355347,3.05978965759277,7.88679981231689,6.90757131576538,6.10865259170532,6.18439960479736,5.39271831512451,-1.59848165512085,-0.69989883899689,3.60731196403503,6.47127723693848,10.8878326416016,13.5774726867676,-21.1940727233887,-4.95629692077637,25.3770408630371,-13.7047100067139,-11.1740388870239,4.00071096420288,1.99915838241577,1.98718738555908,-5.72004699707031,1.13376593589783,-3.27423763275146,-3.59494185447693,5.67447996139526,3.50224328041077,1.64093673229218,9.56653118133545,0.98082053661346,-2.94521045684814,43.2692108154297,29.4160594940186,10.3193082809448,27.3067684173584,33.6011238098145,27.6730804443359,-16.0489330291748,-4.56095409393311,5.19092845916748,SHAKE
5.39271831512451,1.13376593589783,-3.27423763275146,3.60731196403503,5.67447996139526,3.50224328041077,13.5774726867676,9.56653118133545,0.98082053661346,25.3770408630371,43.2692108154297,29.4160594940186,4.00071096420288,27.3067684173584,33.6011238098145,-5.72004699707031,-16.0489330291748,-4.56095409393311,-3.59494185447693,-1.91139733791351,-1.23944556713104,1.64093673229218,1.40392100811005,1.31778907775879,-2.94521045684814,-3.55424308776855,-4.4870343208313,10.3193082809448,8.0448169708252,7.36486387252808,27.6730804443359,18.5149612426758,11.281777381897,5.19092845916748,4.23773717880249,-0.56024318933487,-1.58947134017944,-2.0512855052948,-2.52898216247559,0.97875881195068,0.65072417259216,0.35445454716682,-5.63790464401245,-6.18768310546875,-6.27748012542725,4.36223554611206,-0.09337386488914,-4.32153415679932,5.0281229019165,-0.52911859750748,-4.2449197769165,-2.56658411026001,-1.7405846118927,0.09097966551781,-1.37994456291199,0.57787853479385,3.45871901512146,-1.13972187042236,-1.72920680046082,-1.87153840065002,-4.28422689437866,-1.77051651477814,2.65398049354553,-13.2043218612671,-21.9003620147705,-25.8582763671875,-8.76068305969238,-10.9489831924438,-12.8212490081787,4.88895988464355,10.2235403060913,9.30895519256592,5.39516162872314,5.86552810668945,5.28642797470093,-1.84466028213501,-1.81717133522034,0.01420261710882,8.01126861572266,13.1309299468994,16.2567272186279,-20.2387847900391,0.56503158807755,35.1815986633301,-13.8866691589355,-14.6001415252686,3.97916316986084,3.6343982219696,-1.68551802635193,-12.7685766220093,-0.13255776464939,-6.41286325454712,-8.1501636505127,0.96043288707733,5.24382019042969,4.53827047348022,10.5390291213989,0.81161081790924,-2.36611008644104,54.9104156494141,30.9555320739746,10.6999864578247,25.9755916595459,27.6347732543945,22.625804901123,-12.9864492416382,-1.35272395610809,11.1572790145874,-5.12699222564697,0.54428094625473,1.82160019874573,2.61648845672607,1.66414964199066,0.7417431473732,-2.76195073127747,-7.16751098632813,-8.0715913772583,14.4971904754639,9.69442176818848,0.28012159466743,16.2213153839111,-1.83635270595551,-7.6378026008606,18.2013206481934,5.71047019958496,4.83389329910278,3.06165671348572,4.23696136474609,4.99871015548706,0.66294151544571,0.30008754134178,-0.41951170563698,-6.99830150604248,-3.79797840118408,0.68271827697754,-11.1907978057861,-20.4997539520264,-25.0514297485352,-10.8077259063721,-12.2514295578003,-12.3998699188232,5.18135166168213,3.91691398620605,1.75016140937805,4.74642276763916,3.70184350013733,2.11420464515686,-0.74265944957733,-0.34865134954453,1.64826714992523,5.94287872314453,10.2164916992188,10.8273572921753,-19.1877307891846,2.27688574790955,29.0282001495361,-11.5978126525879,-7.13980865478516,8.48295593261719,-1.14442837238312,-0.3687070608139,4.13239192962646,0.94989544153214,1.1966849565506,2.86373615264893,3.69405484199524,2.32877111434937,0.59208112955093,4.76635265350342,0.51534116268158,-1.92689800262451,38.136043548584,22.158935546875,14.6552076339722,24.6061096191406,29.0114402770996,26.3035984039307,4.35026454925537,6.04326438903809,2.59292054176331,SHAKE
3.96329379081726,1.66582953929901,-0.28405234217644,-3.06944513320923,0.78083848953247,2.1601722240448,8.37962055206299,1.57152724266052,-1.05274987220764,36.6181182861328,27.4695739746094,12.6297130584717,23.7127723693848,29.0066509246826,29.3394451141357,3.22498965263367,-0.4525041282177,-0.34715923666954,-1.00548422336578,-1.46180057525635,-2.05861592292786,1.93293035030365,1.63482809066772,1.2933543920517,-1.35512816905975,-2.98064064979553,-4.84377956390381,12.0287685394287,12.2466411590576,7.52288103103638,24.9867858886719,18.5484790802002,9.11741924285889,-0.64404028654099,-1.65439331531525,-2.54982471466064,-2.758056640625,-3.12701916694641,-2.91138386726379,1.37765383720398,1.75211429595947,1.63360643386841,-5.64645671844482,-5.82177495956421,-5.78939914703369,1.74537301063538,-2.18351197242737,-5.14304447174072,1.59214413166046,-2.93050289154053,-6.08157157897949,-1.98718738555908,-1.59932672977448,-0.76135611534119,-2.2656991481781,-0.33475416898727,2.39214825630188,1.15835320949554,0.22861631214619,-1.75303053855896,-5.39294767379761,-3.08998537063599,1.66804385185242,-12.3974752426147,-23.7510795593262,-24.344841003418,-8.74392414093018,-10.7694187164307,-12.4573307037354,2.10689759254456,3.77565598487854,2.20745396614075,3.98406314849854,4.00666522979736,3.21620559692383,-3.1158709526062,-3.41336226463318,-2.73224759101868,6.51220512390137,10.0387306213379,12.0686359405518,-15.3234891891479,0.10773907601833,30.4647197723389,-10.6425256729126,-8.01608657836914,10.587459564209,0.16280572116375,-1.15879356861115,3.43807363510132,1.87413454055786,0.129503428936,0.0274889357388,1.1766791343689,2.34465360641479,1.65498661994934,6.52625513076782,-1.35024130344391,-3.08815288543701,45.883975982666,21.7375564575195,10.0487642288208,30.9794731140137,31.678581237793,27.4767570495605,3.68228220939636,2.95444488525391,2.59770894050598,-0.06902777403593,-1.70370316505432,-3.04027628898621,1.18095529079437,1.46195328235626,2.08137059211731,-4.88043165206909,-6.92133235931396,-7.64337491989136,12.4094467163086,6.27310752868652,-0.42377370595932,13.6161241531372,2.60967993736267,-5.20768785476685,-4.37420654296875,-5.0592474937439,-4.28083276748657,-3.46788191795349,-0.44654250144958,2.26936435699463,1.94881284236908,-1.20936048030853,-2.94360685348511,-7.24631261825562,-1.65689563751221,2.78837084770203,-8.22677612304688,-23.6744651794434,-16.2548332214355,-10.872368812561,-14.3942394256592,-13.6304893493652,-2.75333189964294,2.22421336174011,4.86501789093018,3.86494445800781,4.11051225662231,4.05064725875854,-2.3034200668335,-2.04624581336975,-2.01081562042236,6.03023242950439,8.69360542297363,9.94587898254394,-10.1660795211792,0.6703764796257,22.1804828643799,-9.95538997650146,-1.21864867210388,19.4367275238037,3.5506010055542,1.72382521629334,4.3646297454834,3.83623385429382,1.3634512424469,0.49418997764587,-0.17883080244064,1.11803615093231,1.57435250282288,5.87873792648315,-1.40094304084778,-3.91098833084106,34.3843269348145,24.2849864959717,10.340856552124,33.3880386352539,35.0379447937012,28.2333240509033,0.57939678430557,-1.93212080001831,-2.0135235786438,SHAKE
3.32493948936462,2.59067940711975,1.67193818092346,-1.93629014492035,-1.74142408370972,-1.04870295524597,5.99235916137695,7.01006031036377,7.22569608688354,-4.35744714736938,5.56442403793335,18.3162422180176,-5.8732762336731,7.39359426498413,27.0362243652344,-0.36391866207123,0.83557641506195,6.11748456954956,1.34390354156494,0.89308500289917,1.09100532531738,0.97570449113846,1.0923798084259,0.70448035001755,4.37112283706665,0.04192062839866,-2.81143093109131,23.2315368652344,16.1901912689209,11.748646736145,38.9572525024414,38.5741806030273,30.7376594543457,3.21062445640564,2.53545951843262,-1.20428347587585,0.58032196760178,-0.88270026445389,-2.63893795013428,0.14553864300251,-0.11407908797264,0.12354749441147,-4.78208208084106,-6.10888147354126,-6.63605833053589,9.46218395233154,6.57477712631226,2.97838687896729,19.5899562835693,7.75751256942749,-3.74692559242249,-4.74291372299194,-5.39922428131104,-3.87621259689331,-3.89793109893799,-3.6535849571228,2.33717036247253,0.50289481878281,0.77778416872025,-0.77747875452042,-6.62933874130249,-5.83582496643066,3.14878129959106,-2.39659595489502,-14.3583269119263,-19.6330528259277,-13.2234754562378,-19.3529300689697,-19.0608386993408,0.3208230137825,6.6849102973938,3.9576153755188,3.37747383117676,2.46545219421387,1.4312572479248,-0.96501439809799,-1.20630609989166,-1.26189482212067,6.77121210098267,8.67650127410889,8.7473611831665,-7.31219148635864,4.00310516357422,19.8174057006836,-11.025598526001,1.70946002006531,25.8367290496826,-1.97521638870239,-3.79480957984924,0.92176765203476,1.10200095176697,0.1814269721508,0.0598647929728,0.18524488806725,0.6250678896904,0.24022275209427,4.88791465759277,-0.38629591464996,-3.11442017555237,26.0306587219238,17.1287174224854,9.14614963531494,37.6548080444336,39.63720703125,31.2763538360596,-0.05985504388809,0.26096799969673,-1.01992988586426,-0.48319441080093,-2.0390682220459,-3.74277138710022,-0.40790528059006,-0.55145859718323,-0.09453139454126,-4.51085805892944,-5.60980463027954,-6.0080885887146,7.54442882537842,5.09276628494263,0.67516487836838,19.6019287109375,6.97700309753418,-5.22923564910889,-4.16830539703369,-4.06296014785767,-1.3910311460495,-4.43304920196533,-3.3768630027771,-0.03298672288656,0.40576723217964,0.74357569217682,0.19196440279484,-5.71181917190552,-4.63730716705322,-1.54144203662872,-5.49499225616455,-15.4982662200928,-22.1685123443604,-13.7430171966553,-18.354549407959,-19.1015396118164,4.74051952362061,10.5347871780396,10.7622356414795,3.47215795516968,3.41351509094238,1.60962986946106,-0.9472993016243,-0.87766063213348,-0.22647829353809,2.76515793800354,8.11083984375,7.72355127334595,-15.9962596893311,4.95390272140503,20.2339973449707,-15.3234891891479,7.92031860351563,28.5924549102783,5.26514863967896,-5.07361268997192,-5.38725328445435,-0.75564032793045,-2.06228113174438,-0.81367248296738,1.07710814476013,0.95004814863205,-0.97112303972244,3.10235548019409,-1.43270802497864,-4.72038459777832,22.3648357391357,11.0040502548218,7.88679981231689,36.6899452209473,33.9051895141602,15.7712049484253,-5.37049388885498,0.15322890877724,-0.94092124700546,SHAKE
1.8924605846405,1.07390105724335,1.10627698898315,0.42164972424507,0.19318613409996,0.39904773235321,6.63071298599243,6.97218704223633,5.27092695236206,-1.6711528301239,5.58836603164673,13.2378406524658,-2.77248549461365,12.3519859313965,27.4049301147461,-0.47884035110474,-1.31681096553802,-0.57939678430557,1.11421823501587,0.60597831010818,-0.21930062770844,0.58230727910995,-0.32788193225861,-1.20752787590027,1.87329459190369,-1.42965376377106,-3.24942135810852,13.7885065078735,8.03763484954834,4.34068775177002,34.8344383239746,32.8254013061523,25.6164627075195,-4.53222370147705,-4.5226469039917,-4.12042093276978,-1.26998889446259,-2.75316977500916,-3.30478096008301,-1.53372991085052,-1.27594482898712,-0.21853704750538,-4.03560495376587,-4.55361843109131,-4.56339263916016,3.11006808280945,1.73340201377869,-1.03429508209229,15.3474311828613,5.53569364547729,-3.26808524131775,-1.4867992401123,3.77805018424988,7.75511837005615,-2.67497897148132,-0.91018921136856,1.79777646064758,1.09176886081696,1.00869119167328,-0.55206948518753,-4.25551652908325,-3.18772387504578,-0.71127623319626,-6.4766149520874,-14.8326778411865,-18.7974758148193,-10.6209783554077,-14.3032598495483,-15.2061738967896,8.17410373687744,8.37042808532715,8.29141998291016,4.16610097885132,4.74947738647461,3.68412828445435,-1.58443176746368,-2.16597533226013,-0.64125579595566,2.58312010765076,7.77730703353882,7.84083700180054,-16.8892974853516,2.88740730285645,17.286735534668,-13.3407907485962,3.86424160003662,18.6394596099854,4.81473970413208,-0.83078801631927,-4.30716896057129,1.05557513237,-0.98837995529175,-1.17408299446106,1.36910176277161,2.43078541755676,1.39414715766907,4.3191990852356,0.09689849615097,-2.13581395149231,21.8285350799561,13.1731967926025,9.04319953918457,32.820613861084,33.189323425293,27.9077129364014,-3.78044438362122,-2.17632937431335,0.43095630407333,-0.70982539653778,-1.09405970573425,-2.14841318130493,0.54809886217117,0.01237002108246,0.03680463135242,-3.85356712341309,-5.25428104400635,-5.87369823455811,7.53245782852173,4.29998636245728,-0.33758243918419,19.0105609893799,8.8947582244873,-0.8164227604866,-1.01753568649292,-2.15956997871399,-1.77649760246277,-3.12152147293091,-1.10383355617523,1.70309233665466,0.03130684420466,-0.62964934110641,-0.65041875839233,-5.76007747650146,-3.39725065231323,-0.86215990781784,-5.0784010887146,-14.3583269119263,-17.5213661193848,-6.9339075088501,-11.9234237670898,-12.5004262924194,1.38145434856415,10.7335052490234,11.0303869247437,4.03659772872925,4.98160600662231,5.22534132003784,-0.75487673282623,-0.78786343336105,-0.90270608663559,2.41085600852966,5.23610782623291,7.23058271408081,-15.5102367401123,-10.9872913360596,-1.8866308927536,-10.2498769760132,-5.77990198135376,0.13407529890537,7.53245782852173,3.91212558746338,0.76614451408386,5.36828374862671,4.42694044113159,1.86191725730896,-0.49831333756447,0.36850446462631,0.82909685373306,7.89825868606567,6.03267621994019,1.1078804731369,13.4772605895996,19.0392913818359,14.6480255126953,13.7047100067139,25.6356163024902,30.2444534301758,-5.53569364547729,-11.1668558120728,-10.8460330963135,SHAKE
3.47276902198792,2.48438906669617,1.39643800258636,0.97387194633484,1.63727152347565,2.29700613021851,4.76635265350342,7.04854488372803,7.69117546081543,-9.95778369903564,-0.28012159466743,14.9883012771606,-3.71340680122375,4.77403831481934,21.1390056610107,2.60249733924866,-0.33039984107018,-3.8187518119812,0.03420845419168,-0.62063908576965,1.21928703784943,2.34526443481445,1.58962404727936,-0.30955597758293,4.12860918045044,-0.70333498716354,-3.71367883682251,18.871696472168,8.44225406646729,2.50194072723389,31.5612640380859,30.167839050293,16.764799118042,-4.06296014785767,1.34793555736542,-2.60967993736267,0.12522737681866,-1.95537960529327,-3.66396975517273,-0.82879143953323,-0.78236567974091,-0.41523563861847,-4.64097213745117,-4.97267198562622,-4.57072305679321,1.37906014919281,-2.08774399757385,-5.9810152053833,8.10706615447998,-0.6033388376236,-7.11586666107178,-4.5226469039917,-2.95444488525391,1.75494980812073,-3.89670944213867,-2.00669240951538,0.87048298120499,0.03741549700499,0.46257770061493,0.27382034063339,-3.46933269500732,-1.00388062000275,2.59411573410034,-12.3519859313965,-18.2803287506104,-18.3330001831055,-11.5044384002686,-14.0015907287598,-13.8339967727661,8.76786613464355,12.1245365142822,10.0104570388794,2.57418608665466,3.01767420768738,2.8325822353363,-0.17699819803238,-0.83856528997421,-0.81535238027573,5.81154298782349,8.21835231781006,9.25315761566162,-13.0941886901855,-3.98634576797485,16.2620162963867,-10.3288850784302,-3.90494298934936,10.8963108062744,4.58489608764648,1.57299053668976,0.03830722719431,1.70553576946259,0.03420845419168,0.39889499545097,0.74663007259369,1.32511937618256,1.17606830596924,5.84636211395264,0.12011137604713,-1.62818491458893,28.2955741882324,16.2021617889404,5.85172843933105,29.9068717956543,33.0265159606934,28.3290920257568,0.35913026332855,4.18506479263306,5.58597183227539,1.27426493167877,0.70127332210541,-0.75686204433441,0.84436845779419,0.38988474011421,0.28359419107437,-2.42841839790344,-3.92442750930786,-5.12722110748291,6.69209289550781,5.2555718421936,-0.26096799969673,22.0009174346924,13.2474174499512,3.73016619682312,0.1508347094059,-3.004723072052,-2.63362193107605,-1.98347949981689,-2.14902400970459,-1.08245325088501,0.39843684434891,0.57864212989807,0.76678860187531,-5.26222229003906,-4.6428050994873,-3.09426164627075,-4.65911674499512,-9.0743236541748,-14.8614082336426,-2.9855694770813,-8.21480560302734,-11.0232038497925,0.12928688526154,4.07253694534302,5.84454584121704,0.87720251083374,2.41841554641724,2.57785129547119,0.28848111629486,-0.56367588043213,-1.12506103515625,-0.32154420018196,2.80180978775024,5.43219566345215,-18.3521537780762,-15.613187789917,-9.04319953918457,-11.2219228744507,-9.15093803405762,-4.12760353088379,5.01854610443115,1.63284552097321,-0.17477671802044,2.03051614761353,1.00792765617371,-0.09773843735456,-0.90698218345642,0.50289481878281,1.27625024318695,7.32404518127441,6.96974325180054,3.25262832641602,2.8658595085144,18.6562175750732,18.7136783599854,5.49978065490723,22.2882213592529,33.1725616455078,-0.29209262132645,-0.24420857429504,1.63045132160187,SHAKE
2.03051614761353,1.00792765617371,-0.09773843735456,-0.90698218345642,0.50289481878281,1.27625024318695,7.32404518127441,6.96974325180054,3.25262832641602,2.8658595085144,18.6562175750732,18.7136783599854,5.49978065490723,22.2882213592529,33.1725616455078,-0.29209262132645,-0.24420857429504,1.63045132160187,-0.1246165111661,0.66401052474976,0.7611380815506,0.84925538301468,0.05146539583802,-0.74204856157303,-0.62880939245224,-2.41620111465454,-3.71184635162354,10.4318361282349,6.29226112365723,6.29226112365723,30.5197868347168,24.6683578491211,24.6683578491211,2.79642748832703,0.79008656740189,0.79008656740189,-0.13683381676674,-1.46424400806427,-2.52043008804321,-1.28327512741089,-1.30099022388458,-1.05420064926147,-4.85782957077026,-5.43021011352539,-5.38561725616455,2.93768548965454,-0.25139117240906,-3.51708221435547,8.15255641937256,0.44292730093002,-5.53808784484863,-2.97599267959595,-1.7980455160141,1.50116443634033,-2.77943682670593,-1.52471959590912,0.92912602424622,-0.29611691832542,0.49556443095207,0.61223971843719,-4.68067836761475,-2.20606350898743,1.99485683441162,-10.503662109375,-19.2858924865723,-21.8381118774414,-10.7598419189453,-13.0367279052734,-12.4166288375854,6.57717132568359,10.0679178237915,9.42387676239014,2.62672066688538,2.97002673149109,2.9168815612793,0.52916198968887,0.15653422474861,-0.49037206172943,5.88240337371826,7.82495450973511,9.037522315979,-15.8669729232788,-4.18506479263306,18.0672454833984,-8.88996982574463,-2.92092609405518,14.7416982650757,4.44363832473755,-0.59376204013824,-3.08612608909607,2.34388995170593,0.27183502912521,-0.9639453291893,0.0875064432621,1.2634220123291,1.41858184337616,5.79443883895874,-0.47487136721611,-2.74179220199585,27.9148960113525,13.7118921279907,3.46919822692871,31.9730682373047,32.779914855957,26.9643974304199,-3.27287364006042,-2.36547136306763,-0.23942017555237,-1.39155101776123,-2.00363802909851,-2.58762526512146,1.17362487316132,0.98120230436325,0.92011576890945,-2.89817380905151,-3.78637194633484,-4.72771501541138,4.07253694534302,3.2968156337738,-1.81480491161346,19.1302700042725,9.90989971160889,0.86191260814667,-0.79248076677322,-0.70150107145309,1.1180921792984,-2.5124888420105,-1.49478721618652,0.14172074198723,1.16201841831207,1.17179226875305,0.83764898777008,-4.7014479637146,-3.41435503959656,-1.46813821792603,-7.68089818954468,-14.0327157974243,-15.4048919677734,-6.14621496200562,-9.69921016693115,-11.2769889831543,2.18351197242737,3.15316367149353,0.01675941236317,1.88696277141571,2.93826174736023,2.657874584198,-0.80435681343079,-1.66201162338257,-1.8935295343399,1.12376296520233,3.9013671875,5.6948676109314,-16.6666374206543,-10.0296106338501,-3.11725068092346,-9.71836376190186,-5.86130523681641,2.20266556739807,0.15562310814857,-1.70946002006531,-0.9528923034668,1.69759452342987,0.71593403816223,-0.58520889282227,-1.25884056091309,-0.02977968007326,1.12170135974884,6.46333599090576,4.86653423309326,1.04312872886658,8.10706615447998,16.6235408782959,14.6169004440308,15.0361852645874,29.0042572021484,32.73681640625,-0.4764461517334,0.97683429718018,-0.1268926858902,SHAKE
2.48927593231201,1.98958814144135,0.10445795953274,-0.60521471500397,0.78083848953247,1.19622683525085,7.63131046295166,3.97344923019409,-0.52984923124313,17.3729267120361,21.4765872955322,9.89314079284668,20.6098861694336,33.1174964904785,33.9746208190918,0.31603461503983,-5.0975546836853,-3.92888498306274,-0.59437185525894,-1.02930796146393,-2.13680672645569,0.77961677312851,0.08323039114475,-0.2625193297863,-2.19628953933716,-2.99346876144409,-4.34225940704346,3.93127918243408,5.42556047439575,4.35744714736938,27.735330581665,19.8628959655762,9.60104846954346,-3.41413164138794,-4.49391651153564,-3.18428826332092,-3.45383214950562,-4.06714057922363,-3.1624493598938,0.1522581577301,0.71791934967041,0.88835078477859,-5.02459573745728,-4.63608551025391,-3.27385592460632,-0.70389527082443,-6.86208152770996,-14.023138999939,-1.36708915233612,-9.45739555358887,-13.953706741333,0.28012159466743,4.65911674499512,7.76948356628418,-0.71715581417084,2.12825441360474,3.37197613716125,0.12110403180122,-0.56550848484039,-0.62842762470245,-0.78458005189896,2.1836142539978,4.54949522018433,-17.6554412841797,-14.7440929412842,-8.53083992004395,-14.4109992980957,-12.4812726974487,-6.90038871765137,9.36162757873535,6.52449893951416,1.01514148712158,2.95719861984253,2.05739402770996,0.97616267204285,-0.58688879013062,-0.27290403842926,0.38621956110001,6.06260871887207,6.44562101364136,4.32408618927002,-1.3910311460495,10.0583410263062,18.0456962585449,3.12203907966614,19.6210823059082,33.0193328857422,-1.49637603759766,-2.55221891403198,-3.35906505584717,-0.51312679052353,-1.24433255195618,-1.49661982059479,0.79611015319824,0.64766985177994,0.38377609848976,0.43898302316666,-2.34961676597595,-3.52003455162048,15.2612400054932,8.67449188232422,6.10311937332153,36.8359909057617,30.4838733673096,19.7407913208008,-2.52348852157593,-1.12048637866974,-1.02711248397827,-2.01219010353088,-2.72140455245972,-2.91565990447998,0.10461067408323,0.10644327104092,0.54443365335464,-4.66846132278442,-5.19380521774292,-4.99221992492676,3.78283858299255,-0.5243301987648,-7.32416248321533,7.47739124298096,-3.78044438362122,-11.8348379135132,-0.30885201692581,2.69826531410217,7.31219148635864,-1.73119211196899,0.92301738262177,3.53324460983276,1.01418900489807,0.41920626163483,-0.38102719187737,-3.736891746521,-0.61109429597855,5.60812473297119,-17.0425262451172,-21.1844959259033,-4.67587614059448,-16.9036617279053,-17.2963123321533,-1.89381349086761,9.71597003936768,9.02165126800537,-2.25054955482483,2.32067704200745,1.20951318740845,-0.03420845419168,-0.25091290473938,0.15897768735886,0.57803124189377,6.58673095703125,5.23549699783325,1.64910709857941,6.58435392379761,15.9004917144775,14.554651260376,14.5522575378418,31.5253524780273,36.9269714355469,-4.01986455917358,-3.54581260681152,-3.53623580932617,-1.03480577468872,-1.40437924861908,-1.90956473350525,0.5328271985054,0.23716843128204,-0.08536841720343,-1.3490195274353,-3.22193241119385,-4.66662883758545,8.95221900939941,6.85968732833862,3.97437477111816,32.6458396911621,22.3265285491943,9.63456726074219,-1.47482824325562,-1.47961664199829,-0.21547815203667,SHAKE
3.30966782569885,3.54973793029785,2.07999610900879,-1.07191574573517,-0.85261517763138,-0.72250086069107,2.41085600852966,5.19823408126831,6.8671178817749,-16.1997680664063,-8.30339050292969,2.02549457550049,-13.7837181091309,-5.68652820587158,8.25550651550293,4.29040956497192,-1.88902509212494,-3.30160403251648,-0.06658431142569,-0.19853121042252,0.05742133408785,0.52916198968887,0.42287147045135,0.04963280260563,2.16712093353271,-0.66973739862442,-3.19688701629639,16.7217025756836,9.81892013549805,5.43274307250977,37.7074813842773,35.7131080627441,25.432107925415,-0.79966336488724,1.22822546958923,-0.19871874153614,-0.26145032048225,-1.61329507827759,-3.1813862323761,-0.43295073509216,-0.58749967813492,-0.11896600574255,-4.65624380111694,-5.19319438934326,-4.87004661560059,3.03345346450806,-0.17477671802044,-5.49020385742188,12.4908494949341,-0.63446342945099,-10.1900215148926,-2.76530289649963,-2.02070617675781,2.17154097557068,-3.38541507720947,-1.43064641952515,1.24616515636444,0.28542679548264,0.0355829000473,-0.5050328373909,-3.4815502166748,-1.11139297485352,2.04494786262512,-11.9330005645752,-17.035343170166,-14.736909866333,-15.5916404724121,-17.2005443572998,-14.4493064880371,7.54921722412109,10.5419692993164,6.73518848419189,2.30112934112549,1.92911243438721,1.56198239326477,-0.48976120352745,-0.16111570596695,-0.35598170757294,4.83171510696411,6.59161758422852,6.06627368927002,-8.55238819122314,2.6623523235321,13.8435735702515,-6.14142656326294,8.34888076782227,28.8677883148193,2.41335535049438,-1.18512988090515,0.23942017555237,1.46913087368011,0.96822142601013,0.45937067270279,0.00198531197384,-0.06520986557007,-0.46043968200684,2.38825392723084,-1.55243766307831,-3.77415466308594,15.9699239730835,8.63618469238281,3.53384160995483,38.8950042724609,36.1344909667969,25.7361717224121,-1.68791222572327,-1.46046304702759,-2.89458990097046,-2.26203393936157,-4.00727605819702,-3.99933481216431,-0.93324935436249,-0.45982882380486,0.09666942805052,-5.23778772354126,-4.9091420173645,-3.51392602920532,1.67833542823792,-3.24174904823303,-12.0072212219238,-0.05985504388809,-12.6632318496704,-19.4367275238037,-2.72699570655823,3.00232887268066,11.8085021972656,-1.07267940044403,3.90770506858826,3.444669008255,0.13271047174931,-0.01634064503014,0.01237002108246,-0.62025731801987,5.37416315078735,6.50609683990479,-17.79909324646,-6.82377433776855,3.86663579940796,-20.0209140777588,-6.06481218338013,9.6920280456543,15.8789443969727,1.69270062446594,-4.24970817565918,2.74522852897644,1.34146010875702,-0.09834930300713,0.00076358154183,0.60857450962067,0.36361753940582,5.64905261993408,2.12497115135193,-1.10161912441254,12.8068838119507,10.8771572113037,4.82910490036011,30.9148292541504,38.2174453735351,34.3364448547363,-4.52025270462036,-6.11509037017822,-3.98155736923218,-0.97127574682236,-2.18567585945129,-3.8069121837616,-0.12140946835279,-0.59605175256729,-0.47265699505806,-3.06921601295471,-4.23169279098511,-4.37707853317261,2.71981310844421,1.13006317615509,-1.34554135799408,22.7503032684326,9.05995845794678,-4.06056594848633,-4.29280376434326,-3.72058939933777,0.51954174041748,SHAKE
2.69452667236328,2.26081228256226,1.24066734313965,-0.52274793386459,0.00381790776737,0.8278751373291,6.41935396194458,6.97646284103394,3.61975836753845,-3.3925838470459,12.7470293045044,18.0480918884277,2.82994651794434,20.5021476745605,33.9698333740234,2.39180755615234,-1.42694425582886,-2.91853189468384,0.08674286305904,0.66645395755768,1.04152524471283,0.840092420578,0.61773747205734,-0.16478089988232,-0.98188954591751,-3.16451096534729,-4.54506635665894,8.57393550872803,3.77565598487854,2.7317841053009,33.6753463745117,26.4472503662109,16.1016044616699,2.22900176048279,1.46525144577026,-2.10929179191589,0.07574728876352,-1.7623462677002,-3.32188510894775,-0.71150529384613,-0.61437773704529,-0.28145617246628,-5.34530019760132,-5.20174646377563,-4.45343685150146,0.19393034279346,-2.67432332038879,-6.50534534454346,4.81713390350342,-4.9203839302063,-11.3679685592651,-3.46440982818604,-2.47799873352051,1.29765737056732,-3.22170329093933,-0.63774329423904,1.70614659786224,-0.06582073122263,-0.02122756652534,-0.35842517018318,-2.90306067466736,-0.00267253536731,2.33999562263489,-14.3439617156982,-18.3090591430664,-15.9316167831421,-14.1691846847534,-14.1763677597046,-11.7582235336304,9.32332038879394,12.1029891967773,7.83412742614746,3.40374112129211,3.77514719963074,3.35120677947998,-0.58016926050186,0.2561052441597,0.15958854556084,5.0626220703125,6.93431329727173,6.95874786376953,-10.2714242935181,0.94092124700546,16.6187534332275,-4.75488471984863,6.52210474014282,28.2069873809814,4.97545051574707,-1.76213240623474,-5.44710826873779,2.05372905731201,-0.02687807008624,-0.46853363513947,0.61285054683685,0.42103886604309,0.13026700913906,2.87694621086121,-1.7045431137085,-3.75155258178711,16.4559459686279,6.05762958526611,0.86670100688934,36.2781410217285,32.7655487060547,22.4677867889404,-9.50528049468994,-3.43328523635864,-1.81241071224213,-0.59253931045532,-1.44225287437439,-2.81792140007019,-0.64431011676788,-1.11406552791595,-0.92530810832977,-4.62081384658813,-4.95251369476318,-4.75764751434326,0.56981998682022,-0.04309562966228,-2.32237553596497,10.8819456100464,0.41419690847397,-8.02566337585449,-2.63601613044739,-2.31998133659363,-0.32800564169884,-3.80752301216125,-2.91871404647827,-0.08857546001673,-0.39507710933685,-0.12079860270023,-0.45677447319031,-4.10768699645996,-2.26226305961609,0.87697339057922,-8.13100814819336,-16.7504329681396,-18.6705837249756,-12.284948348999,-13.403039932251,-12.4381771087646,4.69981813430786,11.3344497680664,12.378321647644,2.23943209648132,2.85701680183411,2.60289669036865,-0.53374350070953,0.47540587186813,1.18339872360229,3.97222757339478,6.36987352371216,7.39857053756714,-14.461277961731,-7.24275922775268,6.64420890808105,-8.51168632507324,-0.61052143573761,12.363956451416,8.05918216705322,3.79959797859192,-3.84029960632324,2.16551733016968,0.57421332597733,-0.07391469180584,1.06977772712708,0.54993146657944,0.38133263587952,5.19517993927002,0.02115120925009,-3.10403537750244,17.4639053344727,11.2530469894409,1.4484920501709,31.618724822998,34.9589347839355,27.7113876342773,-7.230788230896,-5.20768785476685,-0.94810384511948,SHAKE
2.46361947059631,4.03659772872925,3.60410499572754,-0.21365012228489,0.03313944116235,0.95188075304031,1.93682456016541,4.75535678863525,6.70523881912231,-16.0345668792725,-10.1229839324951,-0.50278234481812,-13.2162923812866,-6.91714811325073,4.49152231216431,8.60984897613525,2.60967993736267,-4.01268196105957,2.5424211025238,0.31948253512383,0.35674530267715,0.92561358213425,0.51450127363205,-0.39263364672661,6.65331506729126,-1.28793299198151,-3.59883618354797,12.2298812866211,4.54898309707642,-0.42616790533066,26.0522060394287,33.6992874145508,24.069507598877,-6.41197156906128,-3.97437477111816,-5.14065027236938,-0.38301250338554,-2.37748742103577,-4.80750942230225,-1.54411458969116,-1.75058710575104,-1.29854679107666,-4.55789470672607,-4.64097213745117,-4.09485864639282,-0.85712420940399,-1.19949507713318,-2.42772054672241,13.8004779815674,2.04704236984253,-8.87081623077393,-6.62266111373901,-6.32817459106445,-2.827552318573,-4.15021848678589,0.79717916250229,4.51551580429077,-0.87888234853745,-0.62109726667404,-0.17760907113552,-2.13214874267578,0.61796653270721,3.75964641571045,-15.2516632080078,-18.7136783599854,-15.1870203018188,-17.7823352813721,-17.2891292572021,-12.7398462295532,18.4598941802979,19.096752166748,9.11263084411621,5.17158508300781,3.84050989151001,1.83442831039429,0.67149364948273,0.82359904050827,0.54076844453812,6.37537145614624,7.85427618026733,6.04794788360596,-7.91074180603027,5.81102657318115,5.81102657318115,-3.80438661575317,11.2793836593628,11.2793836593628,-0.27054479718208,-8.70801067352295,-8.70801067352295,-0.53572881221771,-1.21195662021637,-1.65422308444977,0.70081514120102,0.62140268087387,-0.68218374252319,1.00525510311127,-1.97698903083801,-4.08447408676147,11.0639057159424,2.8467059135437,0.87148940563202,36.2972946166992,30.6562557220459,8.66252136230469,-4.97305631637573,-1.08457338809967,-3.75650238990784,-3.16306018829346,-4.49963331222534,-3.9180896282196,-0.70539665222168,-0.25457808375359,-0.22403483092785,-4.41434144973755,-4.11318492889404,-3.33677506446838,-1.67354702949524,-5.09037208557129,-12.639289855957,-2.9664158821106,-11.4757080078125,-15.7065620422363,-1.82438170909882,3.33991146087646,13.175591468811,-0.43860125541687,3.53385543823242,5.00054311752319,-0.48243081569672,-0.59483003616333,0.005039638374,-1.16026222705841,1.9301050901413,4.80239343643188,-18.1390705108643,-15.9555587768555,-9.54358768463135,-16.2715930938721,-13.5083856582642,-5.71047019958496,17.3968677520752,10.4485950469971,2.2361843585968,4.08668851852417,2.15879774093628,0.29016098380089,0.89507031440735,0.67149364948273,0.55787271261215,6.80114459991455,6.27763319015503,1.85924470424652,2.54503631591797,15.5222082138062,11.7438583374023,7.71681118011475,29.8230743408203,34.8248596191406,-6.8453221321106,-8.19086360931396,-7.89398241043091,-0.72815138101578,-0.76297068595886,-1.62001466751099,-0.02977968007326,-0.80191332101822,-1.60581195354462,-1.58359181880951,-3.09853768348694,-4.02766370773315,3.32075786590576,1.00556468963623,0.95049810409546,31.1734046936035,21.6465759277344,9.51485729217529,-2.45166254043579,-3.35906505584717,-3.71580100059509,SHAKE
2.25653624534607,2.60289669036865,2.14780211448669,-0.40546181797981,0.48212540149689,0.79305583238602,3.7681987285614,6.70218420028687,8.21957397460938,-18.1606178283691,-9.67287445068359,8.90194129943848,-7.4295072555542,-0.58897364139557,13.1181306838989,6.26113653182983,2.83234071731567,-3.0693666934967,1.36589467525482,-0.32131510972977,1.46302223205566,1.15774238109589,1.10520792007446,0.18952094018459,5.6435546875,-0.64102673530579,-4.74787378311157,23.6146106719971,12.0120096206665,-0.48362874984741,32.0353164672852,32.844554901123,13.4964141845703,-4.33111095428467,1.1372457742691,-0.96246910095215,1.02014493942261,-0.48685958981514,-1.89307141304016,-0.60643649101257,-0.84100872278214,-0.83856528997421,-5.50779008865356,-5.65867376327515,-5.08995819091797,-1.00795888900757,-3.38300704956055,-6.53168153762817,4.58489608764648,-3.6152446269989,-9.36641597747803,-3.86663579940796,-3.72058939933777,-1.38384854793549,-2.2412645816803,-0.79412484169006,1.0989465713501,-0.74449199438095,-0.63942319154739,-0.49464812874794,-3.6715292930603,-0.820621073246,2.74194502830505,-13.8363904953003,-20.3537063598633,-20.2435741424561,-12.5626754760742,-13.1588315963745,-11.7678003311157,4.8793830871582,8.94503688812256,8.14297962188721,2.20278000831604,2.74828267097473,3.28156805038452,0.01420261710882,0.29092457890511,0.52732944488525,5.79199504852295,7.2263069152832,7.73149251937866,-14.3726921081543,-4.25689077377319,15.7999353408813,-6.22282934188843,2.18590617179871,22.1709060668945,6.11509037017822,2.47081613540649,-3.85466480255127,2.69880270957947,0.56505036354065,-0.19730947911739,1.3978123664856,0.28970283269882,0.09117163717747,4.06752252578735,-1.72470164299011,-4.58660554885864,19.8820495605469,6.22043514251709,-3.26329684257507,34.765007019043,31.6283016204834,21.6513652801514,-10.9082822799683,-4.53940629959106,-1.78368031978607,-0.14172074198723,-0.87170469760895,-2.31395745277405,-0.37186422944069,-1.23074078559875,-1.3956743478775,-5.00504779815674,-5.08446073532104,-4.84500122070313,-3.59848523139954,-2.41574954986572,-2.39659595489502,11.1812210083008,1.80762231349945,-5.99777460098267,-4.62080907821655,-5.60512542724609,-4.26886177062988,-3.46910381317139,-3.1312952041626,-0.69638639688492,-1.14521956443787,-1.06397449970245,-1.21669089794159,-4.31843566894531,-3.14374160766602,-0.67645692825317,-5.10952568054199,-12.6225309371948,-18.8501491546631,-11.7845602035522,-14.6288719177246,-15.3977098464966,-0.05506663769484,7.37204647064209,11.3990936279297,2.11970233917236,3.27851366996765,3.04577422142029,-1.29610335826874,-0.76587229967117,-0.18371772766113,2.6967408657074,5.88545751571655,8.00699234008789,-19.2451915740967,-13.69273853302,-4.31195735931396,-13.7549877166748,-8.37042808532715,1.1755530834198,8.64576148986816,3.70622420310974,-0.22505496442318,2.49538445472717,1.03602743148804,-1.6090190410614,0.19746218621731,0.43203443288803,0.46013423800468,8.41810512542725,5.40653944015503,0.26427558064461,11.231499671936,17.4686946868896,8.56675338745117,19.3002586364746,34.2164344787598,34.6213531494141,-6.45267295837402,-9.02643966674805,-2.75572609901428,SHAKE
3.45627546310425,3.86738777160645,3.34693074226379,-0.4317290186882,0.27259862422943,1.23348963260651,4.88119506835938,7.28250646591187,8.05036354064941,-13.8723039627075,-3.09570288658142,14.5139503479004,-6.49576854705811,3.38300704956055,21.91233253479,6.02171659469604,0.98162269592285,-7.21402883529663,1.45263755321503,-1.1001683473587,-0.73548173904419,1.9824104309082,1.34588885307312,0.66416323184967,4.6826639175415,-0.99410682916641,-3.61105346679688,20.0400676727295,7.58034181594849,-0.44532153010368,36.1105461120605,34.6237487792969,24.8167991638184,-11.8276557922363,-2.32716393470764,-0.07182604819536,0.06963863968849,-0.63285636901855,-2.62122273445129,-0.48792862892151,-1.2789990901947,-1.35657894611359,-4.62753343582153,-5.18586397171021,-5.10339736938477,-0.07900865375996,0.13646949827671,-0.95768070220947,14.4181823730469,4.60883808135986,-5.28430223464966,-3.67749381065369,-5.93313121795654,-5.57639503479004,-4.53445291519165,-4.7525315284729,-1.99142074584961,-1.15071737766266,-0.74693548679352,-0.46654832363129,-4.54384469985962,-3.49926519393921,-1.02953696250916,-3.14119267463684,-10.9394063949585,-19.7455806732178,-12.4525423049927,-16.1494884490967,-18.0504856109619,-0.86191260814667,9.23952388763428,17.3968677520752,4.36951923370361,4.45198583602905,3.30600261688232,0.00015271631128,1.09421241283417,1.45584464073181,6.63682174682617,9.08089351654053,9.33257007598877,-13.2905130386353,-1.17076468467712,21.277868270874,-10.9465894699097,-0.04309562966228,25.5470294952393,6.62026691436768,-1.73100781440735,-12.0670757293701,0.69394290447235,-1.14170718193054,-0.47708576917648,1.12964260578156,-0.18616119027138,-1.20752787590027,4.13532876968384,-3.90793395042419,-4.64036130905151,23.631368637085,-0.27533319592476,0.64404028654099,40.0250663757324,25.2812728881836,12.7949132919312,-15.1367416381836,1.91296720504761,-1.43173265457153,-0.9957103729248,-2.53936672210693,-3.99872398376465,-1.59603822231293,-1.56060802936554,-1.35963332653046,-4.82423210144043,-4.56094884872437,-3.89632749557495,0.49799394607544,-1.03668928146362,-4.00310516357422,2.06859016418457,-6.08157157897949,-12.2059392929077,-3.27287364006042,-2.83712911605835,1.41018486022949,-4.21863555908203,-1.70064878463745,2.25592541694641,-0.56001073122025,-0.00473420554772,-0.45921793580055,-2.70147514343262,-0.23113614320755,3.51774382591248,-12.8236436843872,-20.9307098388672,-19.4271507263184,-13.8651208877563,-15.3115186691284,-13.0127859115601,11.2985372543335,16.793529510498,13.1372842788696,4.58087825775146,4.84904813766479,2.58884692192078,-0.38530325889587,0.70325863361359,1.23776566982269,6.81702709197998,8.95077896118164,7.58549547195435,-10.0152454376221,9.27543640136719,28.2093830108643,-5.97143840789795,9.39035797119141,35.8232421875,6.71124649047852,-5.8421516418457,-14.2577705383301,-1.68293380737305,-2.04700946807861,0.23090706765652,0.82604253292084,0.91583973169327,0.14309518039227,0.56909734010696,-3.11869621276855,-4.25062942504883,16.3936977386475,0.53869539499283,1.25216746330261,38.5167198181152,29.4208488464355,18.4239807128906,-2.83234071731567,8.82293224334717,4.4340615272522,SHAKE
1.1301007270813,3.55645751953125,4.10806894302368,0.32452216744423,0.04352414980531,0.66966104507446,1.42858469486237,5.16097116470337,7.81640243530273,-20.9211330413818,-15.6586780548096,-4.64475107192993,-15.5413618087769,-11.2937488555908,-2.06140756607056,12.6632318496704,7.0224928855896,1.50355863571167,3.33898949623108,1.27731919288635,-0.39461895823479,1.63666069507599,1.43996214866638,0.79794269800186,8.68871784210205,4.5892014503479,-0.30077478289604,15.5868520736694,24.378360748291,11.0926361083984,16.1901912689209,37.3100433349609,37.4441184997559,-8.023268699646,-11.0495405197144,-1.8674772977829,1.18813288211823,0.77152281999588,-1.33046448230743,-0.73777252435684,-1.84832549095154,-2.38100004196167,-5.12172317504883,-5.40455389022827,-4.97755908966064,-1.41736745834351,-0.75417351722717,-1.30483996868134,13.9632835388184,3.40934324264526,-6.06002378463745,-2.46123933792114,-6.36408758163452,-6.49337434768677,-3.83195757865906,-4.48802709579468,-1.61207342147827,-2.10061287879944,-0.77381354570389,-0.16844609379768,-3.92992520332336,-1.89757657051086,1.70836102962494,-6.4071831703186,-17.0856227874756,-21.9721870422363,-13.0941886901855,-15.8334541320801,-16.2452564239502,0.7182605266571,12.9409599304199,17.2603988647461,2.28769040107727,4.53017663955688,4.56743955612183,-0.59238654375076,0.0258090570569,1.29640877246857,5.53176641464233,8.03570365905762,8.87930774688721,-15.598822593689,-15.598822593689,19.4510936737061,-10.5204219818115,-10.5204219818115,20.3513126373291,12.8284320831299,12.8284320831299,-10.1181955337524,1.68476629257202,-1.87291288375854,-1.68171203136444,0.88224214315414,0.23900102078915,0.08200865983963,4.59653186798096,-1.59336566925049,-3.67091822624207,26.3107795715332,8.70322227478027,-0.25617957115173,37.9660530090332,35.1121635437012,22.9298686981201,-15.9268283843994,-1.2641384601593,3.31836366653442,-0.50152039527893,-0.70921456813812,-1.88513016700745,-0.7512115240097,-1.24723410606384,-1.23501682281494,-4.53346014022827,-5.10522985458374,-5.02581739425659,1.74776721000671,1.27371525764465,-3.227383852005,11.0758762359619,1.01274728775024,-7.27867221832275,-0.31124621629715,-2.88740730285645,-0.28730419278145,-0.46425759792328,2.21744084358215,3.88876819610596,-0.30650162696838,0.02703078649938,0.45646905899048,-1.36368024349213,2.22942900657654,5.62889432907104,-17.9666881561279,-19.9131736755371,-13.1516494750977,-13.2929067611694,-12.009614944458,-6.07438898086548,13.0606698989868,12.0191917419434,6.23958873748779,4.2925500869751,3.38175010681152,-0.23823744058609,0.97265017032623,1.52242887020111,0.99036526679993,7.71316623687744,7.64597129821777,2.79997730255127,0.76853877305984,22.5874977111816,21.5484142303467,4.43166732788086,27.5509777069092,34.6021995544434,-2.14041638374329,-14.0135622024536,-12.1053829193115,-3.12701916694641,-2.27425122261047,-0.86742866039276,0.45891252160072,0.14676037430763,-0.58322358131409,-2.28975200653076,-4.04110288619995,-4.97511577606201,6.13184976577759,1.63045132160187,2.43490314483643,28.4799270629883,17.5955867767334,7.05840587615967,2.48039293289185,4.24013137817383,-0.00239420169964,SHAKE
0.59009581804276,1.94132971763611,2.43735241889954,0.23350323736668,0.49373182654381,1.2945761680603,1.187903881073,5.23305368423462,8.29715347290039,-21.6896724700928,-17.6171340942383,-4.72615432739258,-10.6521024703979,-6.74237108230591,1.87226569652557,9.90032291412354,7.90834760665894,2.99754047393799,1.83259570598602,-0.36041048169136,-2.32189869880676,2.26463007926941,1.53586792945862,-0.1116356253624,9.26109886169434,4.39983320236206,-2.12359666824341,18.8357830047607,27.426477432251,8.17410373687744,22.2762508392334,36.3116607666016,32.1837577819824,-7.40795946121216,-11.3344497680664,3.98155736923218,-1.06351637840271,0.15821409225464,-0.25595253705978,-0.36758816242218,-1.02793347835541,-1.62474882602692,-4.24757528305054,-4.81873416900635,-5.1302752494812,-1.58496153354645,-0.58897364139557,0.22744916379452,21.3449058532715,11.2243165969849,1.41497325897217,6.78067827224731,1.53707754611969,-2.20266556739807,-1.69331848621368,-2.64871168136597,-1.50211763381958,-1.50501930713654,-0.81107634305954,0.19379699230194,-4.91219663619995,-3.92259478569031,-1.27877008914948,-1.45567464828491,-8.68406867980957,-20.7272033691406,-7.58273601531982,-13.9058227539063,-17.5357322692871,-1.57777893543243,5.43034887313843,14.3942394256592,1.75073981285095,4.18748140335083,4.93701314926147,0.35995236039162,0.61468315124512,1.21027672290802,3.48353552818298,7.89825868606567,10.0222368240356,-24.8886241912842,-15.3689794540405,7.17332744598389,-17.2244853973389,-9.99609184265137,5.43753147125244,15.337854385376,9.12939071655273,-4.48673391342163,3.69695639610291,-3.18077540397644,-1.24494338035584,1.71301889419556,-0.30161470174789,-0.62415158748627,9.43030834197998,-4.64463758468628,-5.32330894470215,37.8032493591309,0.27054479718208,-0.28490999341011,39.6084747314453,26.8782062530518,12.6225309371948,-20.1525936126709,6.81898593902588,3.81635761260986,-0.27183502912521,-1.17713737487793,-2.32495307922363,-1.59909248352051,-2.08289766311646,-1.20936048030853,-5.65134334564209,-5.73319959640503,-4.68556547164917,2.36786556243896,-0.69671267271042,-13.9058227539063,-0.05746084079146,-11.0639057159424,-17.5884037017822,-1.95366859436035,-1.70946002006531,9.16051483154297,-1.06107294559479,2.70185708999634,5.46235704421997,0.44119742512703,0.92622441053391,0.56092703342438,-0.85421866178513,5.23305368423462,10.0191822052002,-28.3841590881348,-26.6244201660156,-4.90362453460693,-21.1773128509521,-17.3082828521729,-5.65779781341553,19.5995330810547,16.5301666259766,3.82354021072388,4.82094860076904,-4.72748613357544,-1.82954144477844,1.8645133972168,0.61040711402893,0.63911777734756,11.2494649887085,-4.74481964111328,-5.67516708374023,41.138370513916,4.82910490036011,1.23540806770325,29.6243553161621,30.2779731750488,13.2665710449219,-21.3832130432129,8.34409236907959,6.25155973434448,0.25350907444954,-0.06291911751032,-1.29381263256073,-0.57283890247345,-1.31320750713348,-1.30526626110077,-6.34345388412476,-6.58535623550415,-5.51328802108765,3.1890766620636,-0.08140286058187,-10.927435874939,0.37588965892792,-10.0942535400391,-16.6091766357422,-1.62087452411652,-4.57053089141846,1.16118776798248,SHAKE
-0.27183502912521,-1.17713737487793,-2.32495307922363,-1.59909248352051,-2.08289766311646,-1.20936048030853,-5.65134334564209,-5.73319959640503,-4.68556547164917,2.36786556243896,-0.69671267271042,-13.9058227539063,-0.05746084079146,-11.0639057159424,-17.5884037017822,-1.95366859436035,-1.70946002006531,9.16051483154297,-1.06107294559479,2.70185708999634,5.46235704421997,0.44119742512703,0.92622441053391,0.56092703342438,-0.85421866178513,5.23305368423462,10.0191822052002,-28.3841590881348,-26.6244201660156,-4.90362453460693,-21.1773128509521,-17.3082828521729,-5.65779781341553,19.5995330810547,16.5301666259766,3.82354021072388,4.82094860076904,-4.72748613357544,-1.82954144477844,1.8645133972168,0.61040711402893,0.63911777734756,11.2494649887085,-4.74481964111328,-5.67516708374023,41.138370513916,4.82910490036011,1.23540806770325,29.6243553161621,30.2779731750488,13.2665710449219,-21.3832130432129,8.34409236907959,6.25155973434448,0.25350907444954,-0.06291911751032,-1.29381263256073,-0.57283890247345,-1.31320750713348,-1.30526626110077,-6.34345388412476,-6.58535623550415,-5.51328802108765,3.1890766620636,-0.08140286058187,-10.927435874939,0.37588965892792,-10.0942535400391,-16.6091766357422,-1.62087452411652,-4.57053089141846,1.16118776798248,1.35245561599731,3.64747643470764,4.33836507797241,-0.0169515106827,0.52488595247269,2.52852392196655,4.26605367660522,9.84447479248047,12.5579385757446,-30.3904991149902,-14.0039854049683,24.3975143432617,-16.7791633605957,-7.92750120162964,15.1223764419556,15.4862947463989,10.8149080276489,-8.52126312255859,2.2589795589447,-3.04516315460205,-2.07999610900879,2.47537875175476,-0.06032294407487,0.24694228172302,8.51401042938232,-3.30439925193787,-6.54626083374023,51.9532775878906,15.0505504608154,-0.45729252696037,47.6030158996582,40.6691055297851,18.3042697906494,-23.6984062194824,3.98395156860352,5.89482402801514,-0.69944071769714,-1.99875104427338,-3.40923881530762,0.04413501545787,-0.56123244762421,-0.96929043531418,-6.56519794464111,-6.75028991699219,-5.78634452819824,2.45645093917847,0.38067805767059,-11.3871221542358,1.86987149715424,-10.3624038696289,-18.8549365997314,-4.60883808135986,-6.77110147476196,2.94726228713989,-2.14108276367188,1.88268673419952,4.7525315284729,-0.4616613984108,-0.29794952273369,0.3856086730957,-2.38687968254089,3.31860184669495,8.59708881378174,-26.5023155212402,-28.4535903930664,-13.5682401657104,-22.3193473815918,-19.175760269165,-9.04080486297607,15.2971534729004,15.9579524993896,6.32338619232178,4.82094860076904,1.75745928287506,-3.73238658905029,1.54625260829926,1.15835320949554,-0.26496279239655,11.4938116073608,8.28799057006836,-2.60251498222351,19.0752029418945,48.3835258483887,21.1557655334473,10.7119579315186,46.0372085571289,40.6547431945801,-10.6137952804565,-20.8469123840332,-0.79248076677322,-3.38113903999329,-1.10872042179108,-0.78984874486923,-0.04993823543191,-0.4402811229229,-1.46714556217194,-6.19501352310181,-6.72829866409302,-6.86574363708496,2.15717577934265,3.41892004013062,1.53707754611969,21.1868896484375,3.53623580932617,-9.60104846954346,8.77744293212891,0.79966336488724,-2.90656089782715,SHAKE
-2.99568319320679,-2.83441472053528,0.20586158335209,-1.28327512741089,-0.16294831037521,0.67821311950684,-5.89324617385864,-5.00626993179321,-0.4669301211834,0.62967503070831,-15.8119068145752,-28.666675567627,-12.4381771087646,-17.1670246124268,-19.42236328125,1.49158763885498,12.4166288375854,17.0377368927002,3.3903021812439,4.23696136474609,2.22110605239868,0.53527069091797,2.2346978187561,4.16625356674194,5.67593097686768,10.1266946792603,10.6935777664185,-23.8205108642578,-0.26336219906807,36.7881050109863,-14.885350227356,-3.10288548469543,27.4719676971436,13.2929067611694,4.05338335037231,-10.6784391403198,-0.5283984541893,-0.71104717254639,1.0812314748764,1.40880799293518,-0.23564127087593,-0.77992218732834,1.84641659259796,-5.14921236038208,-6.21761560440063,37.0418930053711,8.28902530670166,-1.38624274730682,42.4001159667969,33.464656829834,17.315465927124,-7.17811584472656,5.65779781341553,1.82438170909882,1.24433255195618,-0.61819565296173,-3.64747643470764,-1.58076655864716,-2.78844714164734,-1.2044734954834,-6.27259349822998,-6.00503444671631,-2.80287885665894,0.96246910095215,-0.56742578744888,-21.0097179412842,3.80917501449585,-6.69688129425049,-16.6929721832275,-6.81659173965454,-6.54844093322754,16.0273838043213,-0.65240406990051,3.99750208854675,6.5148777961731,0.34529158473015,0.14126259088516,1.11742520332336,2.1090886592865,7.65940999984741,11.2482433319092,-28.532600402832,-17.7655754089355,10.1445322036743,-17.3346195220947,-12.6225309371948,-1.34314715862274,21.6848831176758,14.3702974319458,-1.51552963256836,4.44343376159668,-1.32924282550812,-3.36403489112854,2.79180693626404,-0.03283400833607,-0.80374592542648,10.7516098022461,0.06940956413746,-5.49862718582153,47.8208885192871,30.2037525177002,4.28322696685791,36.3260269165039,41.104850769043,30.0361576080322,-23.1381645202637,-13.0917940139771,3.89297199249268,-1.54671084880829,-1.31641459465027,-2.80020618438721,-1.12445020675659,-1.88253402709961,-2.05052185058594,-5.70509958267212,-5.99892568588257,-6.32329511642456,2.64798712730408,5.64103841781616,0.67277067899704,13.762170791626,-0.1268926858902,-10.7143516540527,0.74699091911316,-4.07732534408569,-1.24019646644592,-3.55340313911438,-1.15392446517944,3.97734355926514,-1.63391184806824,-0.81962841749191,-0.09758572280407,-5.50962257385254,-2.44063568115234,3.98688840866089,-10.4485950469971,-28.4751377105713,-28.4751377105713,-16.6379070281982,-20.2723045349121,-20.2723045349121,9.60104846954346,23.4278621673584,23.4278621673584,6.83497142791748,4.78063154220581,-1.79472208023071,1.44729244709015,4.28842687606812,2.15039849281311,9.59646415710449,12.3258094787598,4.46091985702515,-9.42866516113281,32.6338653564453,44.7706756591797,-10.9777145385742,13.6664028167725,38.8136024475098,6.38084697723389,-20.7774810791016,-18.1366767883301,-4.74825572967529,-1.44225287437439,0.75441855192184,0.53893584012985,0.38744127750397,0.34834590554237,-3.70146155357361,-5.16753816604614,-6.14186811447144,11.9689140319824,3.84269380569458,7.01291608810425,33.7399864196777,19.254768371582,7.62343740463257,9.78300762176514,12.6345014572144,2.13802218437195,SHAKE
