gyro_x_0,gyro_y_0,gyro_z_0,acc_x_0,acc_y_0,acc_z_0,gyro_x_1,gyro_y_1,gyro_z_1,acc_x_1,acc_y_1,acc_z_1,gyro_x_2,gyro_y_2,gyro_z_2,acc_x_2,acc_y_2,acc_z_2,gyro_x_3,gyro_y_3,gyro_z_3,acc_x_3,acc_y_3,acc_z_3,gyro_x_4,gyro_y_4,gyro_z_4,acc_x_4,acc_y_4,acc_z_4,gyro_x_5,gyro_y_5,gyro_z_5,acc_x_5,acc_y_5,acc_z_5,gyro_x_6,gyro_y_6,gyro_z_6,acc_x_6,acc_y_6,acc_z_6,gyro_x_7,gyro_y_7,gyro_z_7,acc_x_7,acc_y_7,acc_z_7,gyro_x_8,gyro_y_8,gyro_z_8,acc_x_8,acc_y_8,acc_z_8,gyro_x_9,gyro_y_9,gyro_z_9,acc_x_9,acc_y_9,acc_z_9,gyro_x_10,gyro_y_10,gyro_z_10,acc_x_10,acc_y_10,acc_z_10,gyro_x_11,gyro_y_11,gyro_z_11,acc_x_11,acc_y_11,acc_z_11,gyro_x_12,gyro_y_12,gyro_z_12,acc_x_12,acc_y_12,acc_z_12,gyro_x_13,gyro_y_13,gyro_z_13,acc_x_13,acc_y_13,acc_z_13,gyro_x_14,gyro_y_14,gyro_z_14,acc_x_14,acc_y_14,acc_z_14,gyro_x_15,gyro_y_15,gyro_z_15,acc_x_15,acc_y_15,acc_z_15,gyro_x_16,gyro_y_16,gyro_z_16,acc_x_16,acc_y_16,acc_z_16,gyro_x_17,gyro_y_17,gyro_z_17,acc_x_17,acc_y_17,acc_z_17,gyro_x_18,gyro_y_18,gyro_z_18,acc_x_18,acc_y_18,acc_z_18,gyro_x_19,gyro_y_19,gyro_z_19,acc_x_19,acc_y_19,acc_z_19,gyro_x_20,gyro_y_20,gyro_z_20,acc_x_20,acc_y_20,acc_z_20,gyro_x_21,gyro_y_21,gyro_z_21,acc_x_21,acc_y_21,acc_z_21,gyro_x_22,gyro_y_22,gyro_z_22,acc_x_22,acc_y_22,acc_z_22,gyro_x_23,gyro_y_23,gyro_z_23,acc_x_23,acc_y_23,acc_z_23,gyro_x_24,gyro_y_24,gyro_z_24,acc_x_24,acc_y_24,acc_z_24,gyro_x_25,gyro_y_25,gyro_z_25,acc_x_25,acc_y_25,acc_z_25,gyro_x_26,gyro_y_26,gyro_z_26,acc_x_26,acc_y_26,acc_z_26,gyro_x_27,gyro_y_27,gyro_z_27,acc_x_27,acc_y_27,acc_z_27,gyro_x_28,gyro_y_28,gyro_z_28,acc_x_28,acc_y_28,acc_z_28,gyro_x_29,gyro_y_29,gyro_z_29,acc_x_29,acc_y_29,acc_z_29,motion_type
-0.84081250429153,-0.66756248474121,-0.39379999041557,0.48771250247955,0.6208124756813,0.88247501850128,1.73992502689362,1.93338751792908,2.35234999656677,-7.95900058746338,-7.21005010604858,-3.42900013923645,11.3970003128052,10.8340501785278,10.0849504470825,4.58100032806396,3.42705011367798,1.48995006084442,-0.06723749637604,0.1024374961853,0.0961124971509,1.21811246871948,2.63257503509521,3.01578760147095,2.83511257171631,4.0422248840332,4.39133739471436,-0.51105004549026,2.31105017662048,1.15694999694824,9.07905006408691,6.8860502243042,5.08095026016235,1.01295006275177,0.1489500105381,-1.57095003128052,-0.83531248569489,-0.74951249361038,3.70039987564087,8.72781276702881,14.256275177002,16.6014747619629,5.70638751983643,4.87533760070801,2.5309624671936,0.95400005578995,4.71495008468628,12.9709510803223,0.64905005693436,-8.53200054168701,-23.053050994873,-4.09500026702881,-5.83605051040649,-16.17405128479,15.8897752761841,15.3976621627808,11.1200370788574,11.7992877960205,9.39881229400635,9.74930000305176,1.11347496509552,6.90758752822876,10.9511871337891,26.3880004882813,35.0629501342773,32.5849533081055,-30.6019515991211,-36.1360511779785,-31.9050006866455,-10.3489503860474,7.80600023269653,21.1350002288818,7.74303722381592,6.01768732070923,4.34280014038086,10.1655120849609,8.53173732757568,6.31290006637573,10.8495750427246,9.47251224517822,9.74311256408691,9.63105010986328,-35.4460525512695,-62.4439544677734,-22.0429515838623,-5.14200019836426,17.4979515075684,-0.27405002713203,-19.7269515991211,-7.91400051116943,1.5801500082016,12.3013000488281,12.3256378173828,8.58082485198975,15.1890745162964,12.7374496459961,13.7530250549316,14.430212020874,12.0686502456665,-57.2290534973145,-18.1110000610352,-7.12605047225952,24.9970512390137,19.9879512786865,11.5219507217407,23.0650520324707,40.2150001525879,17.5750503540039,11.4178628921509,10.477087020874,9.42273712158203,10.1154623031616,6.93783760070801,3.76158738136292,9.40183734893799,6.97056245803833,4.88234996795654,-0.21405000984669,1.00905001163483,5.07705020904541,5.89995050430298,3.80505013465881,2.51400017738342,-1.94205009937286,-8.55495071411133,-6.37200021743774,8.64957523345947,9.60478782653809,10.3727245330811,0.93816250562668,-1.96185004711151,-16.6846618652344,3.59232497215271,3.22478747367859,-5.03387498855591,9.98295021057129,8.40195083618164,2.20095014572144,3.18900012969971,3.94395017623901,4.61400032043457,-1.70100009441376,0.89595001935959,1.30605006217957,3.56633758544922,3.8229124546051,5.56737518310547,-20.7558994293213,-8.6427001953125,-1.815962433815,-4.2358250617981,-3.73793745040894,-3.72679996490479,0.03195000067353,-3.3139500617981,-7.57395029067993,6.77895021438599,9.82395076751709,10.4299507141113,2.24895000457764,1.22895002365112,-0.13995000720024,8.85348701477051,5.29223728179932,3.69971251487732,14.2301502227783,17.4751491546631,14.9628877639771,1.50108754634857,2.29597496986389,1.73071253299713,-7.50405025482178,-4.21500015258789,-2.57895016670227,10.6999502182007,10.782000541687,10.6930503845215,-0.00300000002608,1.60200011730194,1.77705013751984,SHAKE
-0.06641250103712,-0.0576125010848,-0.04537500068545,-0.14506250619888,-0.16073749959469,-0.12801249325275,-0.01319999992847,-0.00893750041723,0.01237499993294,-2.4019501209259,-2.52705001831055,-2.49795007705688,9.17505073547363,9.22995090484619,9.35700035095215,2.35395002365112,2.30895018577576,2.35395002365112,-0.02708750031888,-0.03176249936223,-0.06792499870062,-0.07150000333786,-0.01086249947548,0.54422497749329,0.02461249940097,0.00838750042021,-0.16733749210835,-3.4459502696991,-3.86505007743835,-4.39905023574829,9.62805080413818,10.195050239563,14.2800006866455,2.44800019264221,2.32305002212524,3.25200009346008,-0.04399999976158,-0.26097500324249,-0.39118748903275,0.66591250896454,1.28177499771118,1.62786245346069,-0.14478750526905,-0.92193746566772,-1.56983745098114,-11.4400501251221,-18.4530010223389,-18.9270000457764,16.7170505523682,19.4830513000488,19.3290004730225,4.0570502281189,4.42500019073486,3.12000012397766,-0.40438750386238,-0.38651248812675,-0.41414999961853,1.810187458992,1.78145003318787,1.68162500858307,-1.89557504653931,-1.9959499835968,-2.23300004005432,-14.9980506896973,-13.581000328064,-11.3659505844116,16.2100505828857,11.2249507904053,3.9100501537323,2.3730001449585,2.32305002212524,2.12205004692078,-0.48716250061989,-1.15018749237061,-3.20663738250732,1.55058753490448,1.38531243801117,2.35730004310608,-2.54966259002686,-5.1727499961853,-16.4155750274658,-6.51495027542114,22.0399513244629,60.0880546569824,-4.64805030822754,-37.4359512329102,-36.5359535217285,2.54295015335083,-9.08205032348633,-9.12795066833496,-20.1063499450684,-14.7159376144409,-12.4363250732422,-18.804500579834,-15.9384498596191,-11.6379995346069,-2.27149987220764,-3.83171248435974,-3.87667489051819,59.0680541992188,20.7379512786865,-25.7629508972168,-39.6510009765625,-45.949951171875,-30.6000022888184,-0.56100004911423,1.41600000858307,-14.5480508804321,-11.3411378860474,-10.347562789917,-6.8825626373291,-8.62262535095215,-7.20596265792847,22.3704242706299,-2.54333758354187,-0.50104999542236,-4.33798742294312,-56.2060508728027,-62.3020515441895,-48.3720016479492,6.24705028533936,31.4590511322021,36.7980003356934,-15.5850009918213,3.59700012207031,31.6720523834229,7.98874998092651,8.39753723144531,7.91587495803833,9.00267505645752,5.98262500762939,3.40697503089905,5.01448726654053,4.98547506332397,4.64034986495972,-13.91100025177,-4.21905040740967,0.2790000140667,20.1840000152588,9.0600004196167,3.53895020484924,33.8629531860352,9.11100006103516,-8.2300500869751,7.01951265335083,6.07585000991821,5.71504974365234,1.17906248569489,-0.71871250867844,-2.3918125629425,3.97663736343384,3.35046243667603,3.37466239929199,2.95500016212463,7.99995040893555,9.3390007019043,2.23395013809204,1.7650500535965,1.51095008850098,-13.0020008087158,-6.87900018692017,0.59895002841949,8.24724960327148,-1.25743746757507,-1.44869995117188,-5.36978769302368,-27.6550998687744,-14.8306121826172,5.27848768234253,-5.08048725128174,-1.33223748207092,7.00395011901855,5.11695003509521,0.03000000119209,1.72200012207031,2.83500003814697,6.64005041122437,4.01100015640259,4.2049503326416,0.74100005626678,SHAKE
5.80153751373291,2.64989995956421,-14.5109252929688,5.11032485961914,4.73206233978271,-14.2107620239258,-1.71201252937317,-3.50734996795654,-2.58596253395081,26.8650016784668,45.7750511169434,5.83800029754639,-32.5390510559082,-32.6089515686035,-26.0290508270264,-16.3750514984131,-10.4449501037598,-3.6739501953125,-14.3433122634888,-11.7376871109009,0.74909996986389,-6.41960000991821,2.54209995269775,11.2956247329712,-5.06990003585815,-4.18316268920898,10.667387008667,-14.3880004882813,-70.8139495849609,-54.0949516296387,-3.8580002784729,52.4260520935059,48.7840538024902,-6.13995027542114,22.0140018463135,28.6750507354736,4.12458753585815,3.9250750541687,3.8064124584198,5.5324501991272,4.08856248855591,2.4953498840332,14.9188871383667,13.2750749588013,10.2711124420166,-20.9029502868652,-12.373950958252,-12.2779502868652,30.3910522460938,14.7829504013062,-1.08105003833771,17.8759517669678,8.70900058746338,-1.63605010509491,3.61047506332397,2.83373737335205,2.44516253471375,2.12753748893738,1.4221625328064,2.71452498435974,9.22102451324463,5.98070001602173,2.89684987068176,-4.15200042724609,8.46000003814697,28.5360012054443,-13.4620504379272,-23.5800018310547,-31.9770011901855,-10.7440509796143,-16.2340507507324,-13.3990507125854,-10.2493877410889,-5.84636259078979,-5.02727508544922,-4.05102491378784,-0.57997500896454,0.4613125026226,-16.644100189209,-11.708399772644,-9.29046249389648,33.2719497680664,-14.1630010604858,-45.9330024719238,-29.8120517730713,-3.83205008506775,29.9740505218506,-6.69000053405762,-9.91800022125244,-0.6690000295639,-4.92813730239868,5.58827495574951,5.56874990463257,1.35465002059937,0.92166250944138,-0.15015000104904,-6.17952489852905,15.6802253723145,13.5466375350952,-75.9619522094727,-16.2750015258789,-9.06494998931885,51.400951385498,28.8199520111084,13.6090507507324,18.0580501556396,19.3300514221191,12.5989503860474,5.44403743743896,4.73522520065308,4.21437501907349,-0.81014996767044,-1.38586246967316,-1.25221252441406,11.4060373306274,6.64620018005371,4.42694997787476,-11.7610502243042,10.7869501113892,32.5890007019043,-1.34205007553101,-23.6640014648438,-27.6100521087646,2.30400013923645,-17.0410499572754,-17.4259510040283,-11.8545627593994,-8.68133735656738,-7.10682487487793,-1.51566255092621,-5.32674980163574,-2.90317487716675,-15.7411375045776,-13.3924999237061,-10.8767995834351,41.8480529785156,1.69800007343292,-12.493950843811,-27.082950592041,-19.7419509887695,1.80795013904572,-12.2910003662109,-5.46000003814697,-3.99000024795532,-5.94605016708374,-5.8793625831604,7.42500019073486,-1.85405004024506,-0.06558749824762,6.01136255264282,-8.90106201171875,-5.9278998374939,15.9132871627808,-45.058952331543,-66.8800506591797,-47.0869522094727,32.6200523376465,49.6579513549805,44.8090515136719,7.23405027389526,20.568000793457,19.8540000915527,7.47711229324341,5.7546501159668,4.90943765640259,1.98467493057251,0.24681249260902,-0.02186249941587,15.1765623092651,11.0416622161865,8.7273998260498,-17.9599514007568,-8.93805027008057,-2.18204998970032,26.601001739502,-3.20505023002625,-18.3580513000488,14.2990503311157,-0.05805000290275,-10.945050239563,SHAKE
-11.9809246063232,-9.1801872253418,-5.9501748085022,-7.15591239929199,-5.33362483978271,-1.25785005092621,-18.0882625579834,-15.3796501159668,-9.57742500305176,38.4820518493652,9.28305053710938,-26.4619522094727,-28.1650505065918,-28.0000514984131,16.7770500183105,-14.6509504318237,-6.12495040893555,3.34095025062561,-5.00802516937256,-3.74838757514954,9.2056245803833,-0.92771250009537,8.89033699035645,2.85051250457764,-7.59178733825684,3.22245001792908,15.4939126968384,-59.5030517578125,-70.3180541992188,-32.392951965332,45.8820037841797,53.053050994873,36.376953125,22.525951385498,27.9040508270264,14.7880506515503,7.66191244125366,6.28526258468628,5.2390251159668,1.15761244297028,0.57777500152588,0.53693747520447,12.8315000534058,9.77611255645752,7.57308769226074,-9.80505084991455,-9.39795017242432,-2.12895011901855,5.28900003433228,-7.39200019836426,-17.60205078125,2.01705002784729,-4.86795043945313,-11.9670009613037,2.62129998207092,-11.8518123626709,-8.41857528686523,6.26133728027344,-2.79606246948242,-4.04029989242554,-0.45237499475479,-17.112699508667,-16.207124710083,40.828052520752,45.2910003662109,14.6560506820679,-32.7120018005371,-29.4679508209229,-31.3609523773193,-16.5400505065918,-12.6330003738403,-9.01500034332275,-6.23672485351563,-5.02479982376099,-4.3223123550415,-1.42394995689392,0.15592500567436,0.62933748960495,-13.0388498306274,-10.1219253540039,-7.88259983062744,-9.9660005569458,-25.4850006103516,-63.376953125,-17.6110515594482,12.6490507125854,47.3659515380859,-7.12605047225952,-0.75495004653931,21.6499519348145,-3.3379499912262,5.91222476959229,5.14305019378662,5.38298749923706,-0.767662525177,-1.27929997444153,-0.37592500448227,13.7755746841431,10.0864496231079,-75.2080535888672,-9.88695049285889,-10.1599502563477,54.4180526733398,21.3810005187988,-9.15000057220459,33.0160522460938,11.1919507980347,-4.79400014877319,4.5903000831604,2.9886999130249,-12.8144502639771,-1.17548751831055,4.57022476196289,-7.82306241989136,7.70618724822998,-0.91684997081757,-17.4366493225098,-1.95195007324219,50.226001739502,38.2450523376465,-23.1199512481689,-33.0690002441406,-32.5129508972168,-15.0010509490967,-19.2409515380859,-11.5840501785278,-8.97503757476807,-5.56696224212646,-1.72933745384216,-5.72247505187988,0.01113750040531,8.05337524414063,-15.15456199646,-9.46055030822754,2.00970005989075,6.04200029373169,-24.1470012664795,-73.183952331543,-30.9019508361816,17.0719509124756,52.2720031738281,-7.1569504737854,3.20400023460388,29.7570018768311,7.6746997833252,6.021399974823,4.52430009841919,1.19776248931885,-0.55274999141693,-0.53460001945496,14.683762550354,12.061637878418,6.46964979171753,-29.802001953125,-10.546950340271,4.93800020217896,36.7309532165527,3.39495015144348,-29.0460014343262,19.2630004882813,2.39505004882813,-19.5690002441406,3.83404994010925,-11.4670877456665,-8.57944965362549,0.98793751001358,-8.15608787536621,-3.75938749313354,3.68884992599487,-16.2871494293213,-13.18088722229,39.2890510559082,16.0330505371094,-10.4760007858276,-32.8990516662598,-32.4990005493164,-21.3940505981445,-24.1759510040283,-8.18895053863525,-4.59794998168945,SHAKE
3.81452488899231,2.6342248916626,-9.9210376739502,-0.7734375,2.91761255264282,-3.63330006599426,4.9398250579834,-0.16032500565052,-15.7363252639771,7.90005016326904,30.7770023345947,27.0660018920898,-24.199951171875,-32.3310012817383,-31.5409507751465,-16.9519500732422,-16.9549503326416,-10.0570507049561,-4.61051225662231,-3.91957497596741,-3.95807504653931,-0.45210000872612,0.53872501850128,3.23138737678528,-10.198787689209,-7.70096254348755,-3.33726239204407,-14.7640504837036,-43.9999504089355,-77.0130004882813,-6.84900045394897,28.4350509643555,52.8690032958984,-9.13304996490478,6.82200050354004,33.8200531005859,6.00077486038208,5.38477516174316,4.28436231613159,-0.50875002145767,-1.2112375497818,-1.69592499732971,14.9962997436523,13.4516248703003,9.56422519683838,-17.6989517211914,-5.55300045013428,-8.2900505065918,29.0569515228271,14.0910005569458,-11.4460506439209,17.8570499420166,9.46995067596436,-9.62805080413818,3.76804995536804,3.17033743858337,-11.681037902832,-1.45089995861053,0.07122500240803,-6.3918251991272,7.28227472305298,5.08255004882813,-18.1843757629395,1.07295000553131,23.3760013580322,31.9330520629883,-21.8080501556396,-31.7590522766113,-30.552001953125,-19.0980014801025,-23.1150016784668,-10.7059507369995,-5.94536256790161,-4.61504983901978,-3.7453625202179,0.2058375030756,1.26651251316071,1.35066246986389,-11.657112121582,-9.06248760223389,-7.09637498855591,-10.8130502700806,-23.1630020141602,-60.8869514465332,-14.2849502563477,12.4669504165649,46.1500511169434,-5.26095008850098,-0.3979500234127,21.9990005493164,-0.74497497081757,6.09482479095459,5.69304990768433,7.08152484893799,-1.09037494659424,-1.34667503833771,3.21475005149841,13.5724878311157,12.1151247024536,-77.9680557250977,-7.50705051422119,-8.62695026397705,53.2950019836426,20.650951385498,5.7199501991272,36.6280517578125,9.49200057983398,2.07705020904541,5.01297473907471,4.34816265106201,3.68706250190735,-1.39205002784729,-1.17933750152588,-0.33192500472069,10.2315120697021,7.86733722686768,5.45957517623901,-9.5080509185791,-2.91195011138916,15.1039505004883,-8.30400085449219,-20.0100002288818,-30.5470523834229,-5.77605009078979,-14.9149503707886,-22.4380512237549,3.07628750801086,-9.808424949646,-7.14257478713989,4.97310018539429,-6.10829973220825,-1.35286247730255,0.77756249904633,-16.2057495117188,-12.7312622070313,43.6849517822266,9.68595027923584,-7.18800020217896,-30.5809516906738,-30.8010005950928,-17.69700050354,-21.65505027771,-8.83605003356934,-7.68600034713745,-5.65482473373413,-4.72697496414185,6.30836248397827,0.91767501831055,1.25537502765656,-0.00522499997169,-9.87181282043457,-7.93265008926392,14.9868125915527,-17.965051651001,-61.2799530029297,-32.9910011291504,7.74795055389404,47.0500526428223,38.0340003967285,-1.95900011062622,17.6470508575439,26.5939521789551,5.75162506103516,4.85209989547729,4.76836252212524,-1.68712496757507,-2.67148756980896,-2.67960000038147,13.9867753982544,11.6619253158569,10.5741624832153,-0.60600000619888,-9.58305072784424,-10.9860000610352,20.3040008544922,5.30400037765503,-10.2679500579834,19.0660514831543,8.50305080413818,-5.01405000686646,SHAKE
3.07628750801086,-9.808424949646,-7.14257478713989,4.97310018539429,-6.10829973220825,-1.35286247730255,0.77756249904633,-16.2057495117188,-12.7312622070313,43.6849517822266,9.68595027923584,-7.18800020217896,-30.5809516906738,-30.8010005950928,-17.69700050354,-21.65505027771,-8.83605003356934,-7.68600034713745,-5.65482473373413,-4.72697496414185,6.30836248397827,0.91767501831055,1.25537502765656,-0.00522499997169,-9.87181282043457,-7.93265008926392,14.9868125915527,-17.965051651001,-61.2799530029297,-32.9910011291504,7.74795055389404,47.0500526428223,38.0340003967285,-1.95900011062622,17.6470508575439,26.5939521789551,5.75162506103516,4.85209989547729,4.76836252212524,-1.68712496757507,-2.67148756980896,-2.67960000038147,13.9867753982544,11.6619253158569,10.5741624832153,-0.60600000619888,-9.58305072784424,-10.9860000610352,20.3040008544922,5.30400037765503,-10.2679500579834,19.0660514831543,8.50305080413818,-5.01405000686646,3.8596248626709,-2.44860005378723,-12.1743869781494,-1.69303750991821,5.96777486801147,-7.04591226577759,3.98447489738464,-10.3679122924805,-16.4360618591309,26.053050994873,46.5150032043457,25.396951675415,-32.2690505981445,-27.8659515380859,-29.7240009307861,-25.3560009002686,-18.9250507354736,-12.7480506896973,-7.64431238174438,-6.13016223907471,-4.98960018157959,0.18658749759197,0.79241251945496,-0.03561250120401,-10.4064121246338,-8.45913791656494,-7.36807489395142,-6.23505020141602,-17.0599498748779,-64.324951171875,-12.2050504684448,14.296950340271,49.9710006713867,-5.20605039596558,0.47700002789497,19.5019512176514,-1.62236249446869,7.36243724822998,6.83402490615845,11.3269748687744,-0.518649995327,-1.3639999628067,6.9698748588562,13.4162874221802,11.8344869613647,-76.2490539550781,-3.57795023918152,-9.88905048370361,49.0660514831543,20.6269512176514,7.33200025558472,32.3119506835938,15.528000831604,6.36495018005371,5.95402479171753,4.16817474365234,-14.6543378829956,-1.47441244125366,-0.75267499685287,-7.87366247177124,9.80815029144287,4.98148727416992,-17.5755252838135,-10.9950008392334,16.3750514984131,36.6310501098633,-6.16200017929077,-32.1130523681641,-27.5310020446777,-3.77400016784668,-25.5570011138916,-11.9290504455566,-10.4429874420166,-7.8234748840332,-6.08300018310547,-4.80301237106323,-0.96538752317429,0.73589998483658,-15.2358245849609,-12.2189378738403,-9.60423755645752,11.3110504150391,-6.55095052719116,-13.2070503234863,-27.9330005645752,-18.4680004119873,2.02305006980896,-7.13595056533813,-3.84600019454956,-0.85995006561279,-4.76162481307983,-4.44358730316162,7.17530012130737,0.65903747081757,3.30494999885559,1.56791245937347,-8.03811264038086,-3.77822494506836,14.8152122497559,-46.6650009155273,-76.5030059814453,-44.2780532836914,39.7620010375977,48.8820037841797,39.3000030517578,11.9820003509521,29.5390510559082,25.2270011901855,5.68218755722046,5.12902498245239,4.44124984741211,-1.11746251583099,-1.37087500095367,-1.25207495689392,12.758074760437,11.043999671936,8.93516254425049,-2.37105011940002,-5.54100036621094,-2.07600021362305,10.4230508804321,-0.20205001533031,-7.07895040512085,6.63795042037964,-1.61400008201599,-8.46000003814697,SHAKE
8.1489372253418,7.14284992218018,5.03236246109009,5.85860013961792,6.32802486419678,6.29901266098022,19.3056869506836,16.4256114959717,14.0126247406006,34.2700500488281,22.8829517364502,-5.8690505027771,-20.5129508972168,-24.1450519561768,-24.7890014648438,-11.2060508728027,-6.32205009460449,-0.45600003004074,2.70531249046326,1.70046246051788,10.4856128692627,5.80758762359619,5.68466234207153,3.76846241950989,13.7629251480103,14.5622119903564,25.0315990447998,-29.8999519348145,-57.5070037841797,-61.3129539489746,-3.82200026512146,42.5040016174316,54.7980041503906,1.84395003318787,13.1569509506226,24.7579517364502,10.0238876342773,8.97434997558594,7.79996252059937,0.00054999999702,-0.37729999423027,-0.512600004673,20.1137752532959,17.267936706543,14.5129871368408,-4.89195013046265,-8.87100028991699,-7.53300046920776,21.2880001068115,7.35300016403198,-3.57795023918152,8.20095062255859,2.27295017242432,-4.03995037078857,5.36552476882935,4.15951251983643,-12.1192502975464,-0.00591249996796,3.94363737106323,-1.2199000120163,9.46990013122559,5.2849497795105,-16.2258243560791,3.26895022392273,31.1890506744385,53.9850044250488,-27.6379508972168,-33.4180526733398,-28.9429512023926,-15.5730009078979,-17.4139499664307,-11.9550008773804,-7.97857475280762,-4.4082498550415,-3.40876245498657,-3.48768758773804,0.57433748245239,1.66292500495911,-16.4749755859375,-10.2416877746582,-7.37330007553101,30.0420017242432,-20.4090003967285,-48.5449523925781,-34.2900009155273,-16.4910011291504,20.3449516296387,-10.2769508361816,-3.49605011940002,16.6750507354736,-2.04531240463257,6.27577495574951,5.95388746261597,2.58788752555847,-0.40810000896454,-1.06040000915527,-4.24063730239868,13.0898628234863,12.2307624816895,-77.9680557250977,-17.8159503936768,-7.94700050354004,51.786003112793,27.6330013275146,12.5659503936768,37.9000511169434,25.0429515838623,13.4089508056641,5.91607475280762,5.40553760528564,4.68063735961914,-1.48953747749329,-1.51084995269775,-1.17177498340607,10.8091497421265,9.05052471160889,6.88462495803833,-10.8510007858276,-11.1270008087158,-4.28894996643066,0.25905001163483,-15.0559511184692,-34.1749534606934,1.59795010089874,-7.85205030441284,-17.7780017852783,3.6536500453949,-5.10427474975586,-9.59722518920898,-0.00357499998063,3.69256258010864,-5.26308727264404,3.21694993972778,-8.95358753204346,-12.8985996246338,28.0380020141602,51.1140022277832,4.67700004577637,-34.2589530944824,-28.1749515533447,-31.123950958252,-21.82200050354,-21.9870014190674,-13.8349504470825,-6.972487449646,-6.32513761520386,-5.05945014953613,-0.36973750591278,0.50256252288818,2.93424987792969,-9.11583709716797,-8.04594993591309,-3.94638752937317,-10.5190505981445,-32.650951385498,-74.4460525512695,-19.3609504699707,5.00205039978027,40.1329536437988,-6.32895040512085,4.69800043106079,23.0389518737793,6.42537498474121,6.75881242752075,6.8558874130249,1.30253744125366,-0.68309998512268,-1.46739995479584,13.8268623352051,12.9815120697021,11.2825622558594,-28.0660514831543,-9.18000030517578,-9.87195014953613,36.7189521789551,21.4150505065918,10.1980504989624,30.1039505004883,20.6710510253906,9.93900012969971,SHAKE
-5.10427474975586,-9.59722518920898,-6.972487449646,3.69256258010864,-5.26308727264404,-0.36973750591278,-8.95358753204346,-12.8985996246338,-9.11583709716797,51.1140022277832,4.67700004577637,-10.5190505981445,-28.1749515533447,-31.123950958252,-19.3609504699707,-21.9870014190674,-13.8349504470825,-6.32895040512085,-6.32513761520386,-5.05945014953613,6.42537498474121,0.50256252288818,2.93424987792969,1.30253744125366,-8.04594993591309,-3.94638752937317,13.8268623352051,-32.650951385498,-74.4460525512695,-28.0660514831543,5.00205039978027,40.1329536437988,36.7189521789551,4.69800043106079,23.0389518737793,30.1039505004883,6.75881242752075,6.8558874130249,6.32733726501465,-0.68309998512268,-1.46739995479584,-1.70128750801086,12.9815120697021,11.2825622558594,9.34353733062744,-9.18000030517578,-9.87195014953613,-10.1449508666992,21.4150505065918,10.1980504989624,-0.92295002937317,20.6710510253906,9.93900012969971,0.00795000046492,4.90269994735718,4.11221265792847,-3.79266238212585,-1.91124999523163,-1.27888751029968,8.77442455291748,5.86011266708374,3.66960000991821,-10.0486373901367,1.15995001792908,18.9040508270264,43.3879508972168,-18.7440013885498,-26.7570018768311,-24.576000213623,-15.106050491333,-21.6070518493652,-19.6080017089844,-14.1487503051758,-8.1712121963501,-6.68112516403198,-7.6154375076294,-2.78410005569458,-0.5321249961853,-15.4068746566772,-11.1681623458862,-8.53558731079102,37.1719512939453,-7.0009503364563,-21.0870018005371,-26.7210006713867,-19.7590503692627,1.40595006942749,-15.5490007400513,-6.92295026779175,-1.16700005531311,-4.39944982528687,8.18179988861084,8.35642528533936,6.5517373085022,1.32605004310608,0.23952500522137,1.28122496604919,12.8112878799438,11.2595996856689,-77.4029998779297,-5.29395008087158,-2.6340000629425,42.2740516662598,24.0100517272949,15.0150003433228,35.7400512695313,15.9199504852295,9.08895015716553,8.17739963531494,6.02470016479492,5.32840013504028,-0.49142500758171,-1.25537502765656,-1.66883754730225,9.45339965820312,6.55407476425171,6.72127485275269,-6.7020001411438,-2.65305018424988,-3.42000007629395,7.05900049209595,-1.57905006408691,-6.1210503578186,2.23695015907288,-4.15694999694824,-6.99705028533936,3.88822507858276,4.0689001083374,-12.776912689209,0.42446249723434,10.4114999771118,4.09667491912842,7.26536226272583,-2.68716239929199,-17.1982250213623,-2.18700003623962,18.9900016784668,56.1370544433594,-16.123950958252,-30.1090507507324,-21.7099514007568,-13.2910509109497,-22.3300514221191,-20.0239505767822,-13.2226877212524,-9.08187484741211,-5.80703735351563,-10.2430620193481,-6.71054983139038,0.15056249499321,-18.4551124572754,-15.7084121704102,-8.33882522583008,35.9220008850098,1.42095005512238,-50.7949523925781,-26.9659519195557,-28.1149520874023,18.5059509277344,-9.15405082702637,-4.48995018005371,18.2880001068115,-3.98516249656677,6.46621227264404,5.30364990234375,2.59902501106262,3.98420000076294,-0.59661251306534,-4.49941253662109,6.93646240234375,12.5003995895386,-59.6299514770508,-35.7779998779297,-7.03500032424927,38.1820526123047,38.566951751709,18.0919513702393,32.1300010681152,27.4219512939453,14.8429508209229,SHAKE
-8.75269985198975,-5.95966243743896,-3.37658739089966,-4.98148727416992,-3.0714750289917,-0.06036249920726,-19.1698379516602,-15.6807746887207,-9.09796237945557,16.8730506896973,-4.96200037002563,-30.2689514160156,-19.1290512084961,-14.9100008010864,38.5459518432617,-0.84600001573563,0.52500003576279,4.2960000038147,5.78792476654053,4.85746240615845,4.44991254806519,1.14427495002747,0.779212474823,0.53253751993179,16.7949371337891,13.9512996673584,12.9432878494263,-44.9389533996582,-14.1079502105713,-2.50005006790161,37.0020027160645,25.8469505310059,15.4360504150391,11.2369508743286,10.701000213623,8.65095043182373,2.74546241760254,1.45928752422333,0.86776250600815,-0.6540874838829,-1.29635000228882,-1.89007496833801,8.7023754119873,5.79507493972778,5.08777475357056,-4.85100030899048,0.55605000257492,4.86405038833618,0.550950050354,-11.0200500488281,-19.6219501495361,2.44305014610291,-8.36400032043457,-14.9530506134033,-0.59399998188019,-9.35343742370606,-8.24793720245361,9.3226375579834,2.39208745956421,-1.66952502727509,-12.478949546814,-18.6191501617432,-18.285436630249,23.4310512542725,39.8590507507324,26.6179504394531,-24.5880012512207,-18.2260513305664,-19.5270004272461,-17.7900009155273,-12.4650001525879,-6.13995027542114,-5.99788761138916,-4.61766242980957,-3.9395124912262,-1.47399997711182,-0.26056250929832,0.65119999647141,-15.6974124908447,-12.5333995819092,-9.59103775024414,6.93195009231567,-12.7410001754761,-39.2809524536133,-17.6659507751465,-4.4040002822876,24.8650512695313,-5.2630500793457,-3.69495010375977,9.03194999694824,-3.66464996337891,6.82041263580322,3.38923740386963,1.11388754844666,-1.34516251087189,-2.98856258392334,-6.94141244888306,15.1714744567871,12.1851119995117,-59.5870513916016,-10.5019502639771,-4.43505001068115,37.5550498962402,24.3240013122559,10.0200004577637,22.6750507354736,26.2300510406494,14.4330005645752,2.32072496414185,1.98274993896484,3.96261239051819,-3.11354994773865,-4.24421262741089,-6.49604988098145,10.5969877243042,7.00589990615845,3.25160002708435,-6.61800050735474,0.24705001711845,6.12495040893555,2.2870500087738,-9.36795043945312,-15.0349502563477,4.88295030593872,-11.5410003662109,-18.0180015563965,6.4528751373291,-13.4051494598389,-7.60086250305176,-3.87914991378784,-5.76248741149902,-0.24378749728203,-6.8131251335144,-15.738112449646,-10.9327621459961,19.7080516815186,28.8709506988525,-11.4289503097534,-18.8819999694824,-18.0919513702393,-6.71895027160645,-19.8090000152588,-7.26300048828125,0.94905006885529,-6.07859992980957,10.3478374481201,8.67418766021729,1.54233753681183,-0.14808750152588,-0.74648749828339,-8.19445037841797,21.106388092041,14.7441253662109,-24.5560512542725,-44.4979515075684,-5.34000015258789,18.8700008392334,35.131950378418,19.2070503234863,6.43695020675659,19.8829517364502,21.3889503479004,7.34978723526001,5.54812479019165,4.48745012283325,-1.43838751316071,-2.10333752632141,-2.89588737487793,12.5890874862671,9.77349948883057,5.09025001525879,-2.48595023155212,-4.15904998779297,4.01805019378662,11.1070508956909,3.07005023956299,-10.5960006713867,12.9270009994507,2.50500011444092,-10.3219509124756,SHAKE
-3.15521240234375,8.19018745422363,7.55631256103516,-0.64707499742508,3.38758754730225,1.31642496585846,-5.27505016326904,7.69161224365234,14.7452249526978,13.3180503845215,23.1510009765625,19.1980514526367,-18.5950508117676,-15.9490509033203,-13.7440509796143,-9.0730504989624,-4.95195007324219,-0.51794999837875,5.04129981994629,2.23245000839233,-6.52038764953613,1.38916254043579,1.45447504520416,-1.81967496871948,14.0421876907349,10.1837997436523,-17.9231243133545,6.22095012664795,-29.9100017547607,-21.8149509429932,-7.94100046157837,35.0170516967773,31.3609523773193,-0.01695000007749,3.60900020599365,6.68805027008057,-6.25597476959229,-5.49738740921021,-4.73068761825562,-2.72690010070801,-2.77653741836548,-2.88447499275208,-15.1368246078491,-11.6617870330811,-8.98810005187988,-2.66295003890991,-2.9239501953125,-6.24495029449463,26.8309516906738,18.9919509887695,10.8900003433228,11.5600509643555,10.5190505981445,5.13195037841797,-3.44574999809265,-3.56235003471375,-3.94790005683899,-2.79056239128113,-2.10361242294312,-5.46782493591309,-5.53203725814819,-2.59366250038147,-3.57238745689392,-0.47700002789497,2.45295000076294,21.8149509429932,-2.88900017738342,-10.5670509338379,-15.0300006866455,-2.18204998970032,-3.70905017852783,-3.43695020675659,12.8303995132446,8.69013786315918,6.56081247329712,1.89419996738434,2.91513752937317,2.85958743095398,20.5391998291016,13.773099899292,11.1593627929688,26.5489521026611,17.6419506072998,1.34895002841949,-13.488000869751,-11.1510009765625,-3.25305008888245,-0.4870500266552,-0.19005000591278,0.11805000901222,3.87502503395081,-6.18241262435913,-4.8775372505188,2.7644374370575,-4.16171264648438,-4.46971225738525,6.53083753585815,-18.1164493560791,-14.8589372634888,-40.1599502563477,-17.6629505157471,-6.37200021743774,37.2940521240234,32.8549499511719,22.2409515380859,5.89995050430298,8.30400085449219,7.91595029830933,-3.29285001754761,-2.65814995765686,-2.25128746032715,-3.79183745384216,-3.33231258392334,-2.5676748752594,-9.29500007629394,-7.32558727264404,-5.48611259460449,-4.03695011138916,0.93195003271103,10.5169506072998,2.43795013427734,-7.76100015640259,-17.6730003356934,-0.29805001616478,-4.87305021286011,-9.19005012512207,12.7576627731323,9.527099609375,6.68896245956421,5.47923755645752,3.33396244049072,2.36225008964539,14.29518699646,15.8331251144409,14.5274248123169,33.7819519042969,17.2350006103516,1.87095010280609,-15.9060010910034,-16.9360504150391,-10.1959505081177,-8.30400085449219,-5.48805046081543,1.05195009708405,2.81710004806519,-11.1615619659424,-8.56624984741211,2.34808754920959,-4.77785015106201,-4.23486232757568,10.8850498199463,-18.7482624053955,-15.0580377578735,-38.3140525817871,-28.4899520874023,-12.0220508575439,30.5830516815186,30.7290019989014,22.1040019989014,12.2160005569458,14.3620510101318,13.0279502868652,-5.61453723907471,-4.33578729629517,-3.37919998168945,-3.44671249389648,-3.33135008811951,-3.27236247062683,-8.60901260375977,-6.68456268310547,-5.22678756713867,-5.36400032043457,-1.78200006484985,5.28300046920776,5.91900014877319,-2.56995010375977,-11.7709503173828,4.27905035018921,-2.7610502243042,-9.48405075073242,SHAKE
-2.25128746032715,12.7576627731323,9.527099609375,-2.5676748752594,5.47923755645752,3.33396244049072,-5.48611259460449,14.29518699646,15.8331251144409,10.5169506072998,33.7819519042969,17.2350006103516,-17.6730003356934,-15.9060010910034,-16.9360504150391,-9.19005012512207,-8.30400085449219,-5.48805046081543,6.68896245956421,2.81710004806519,-11.1615619659424,2.36225008964539,2.34808754920959,-4.77785015106201,14.5274248123169,10.8850498199463,-18.7482624053955,1.87095010280609,-38.3140525817871,-28.4899520874023,-10.1959505081177,30.5830516815186,30.7290019989014,1.05195009708405,12.2160005569458,14.3620510101318,-8.56624984741211,-5.61453723907471,-4.33578729629517,-4.23486232757568,-3.44671249389648,-3.33135008811951,-15.0580377578735,-8.60901260375977,-6.68456268310547,-12.0220508575439,-5.36400032043457,-1.78200006484985,22.1040019989014,5.91900014877319,-2.56995010375977,13.0279502868652,4.27905035018921,-2.7610502243042,-3.37919998168945,-2.81173753738403,-0.88508749008179,-3.27236247062683,-2.96738743782043,7.88438749313354,-5.22678756713867,-3.90087509155273,2.32471251487732,5.28300046920776,18.6190509796143,32.3790016174316,-11.7709503173828,-18.7099514007568,-13.5889511108398,-9.48405075073242,-15.6780004501343,-11.5030508041382,-0.88508749008179,12.1444120407104,6.21307516098022,7.88438749313354,5.91387510299683,3.85811257362366,2.32471251487732,12.3183498382568,10.4909753799438,32.3790016174316,7.66305017471313,-36.7410011291504,-13.5889511108398,-11.7139501571655,27.3619518280029,-11.5030508041382,-3.02505016326904,8.88300037384033,7.5376124382019,-9.86273765563965,-7.49292516708374,-0.73919999599457,-4.62467479705811,-3.79953742027283,0.24227499961853,-14.002724647522,-9.2442626953125,-48.4819526672363,-11.9980506896973,-5.97705030441284,37.1119499206543,26.7370510101318,17.5939502716064,10.4710502624512,9.38895034790039,6.64500045776367,-4.81896257400513,-2.92696237564087,0.81936252117157,-2.73460006713867,-0.57516247034073,3.12771248817444,-5.25813770294189,-2.40322494506836,-1.61411249637604,-3.882000207901,11.2320003509521,22.7700004577637,-0.76005005836487,-15.1740007400513,-19.123950958252,-4.08494997024536,-13.7149505615234,-11.3280000686646,9.3333625793457,5.84732484817505,2.28827500343323,4.82776260375977,4.72504997253418,4.00675010681152,17.1239757537842,15.6318244934082,11.6586246490479,20.2800006866455,4.81800031661987,-32.3689498901367,-17.7810001373291,-13.9410009384155,27.5560512542725,-2.37105011940002,-1.33395004272461,2.8090500831604,-9.33886241912842,-8.65218734741211,-5.99733734130859,-2.50896239280701,-1.86779999732971,-1.58619999885559,-23.7749881744385,-18.2081623077393,-10.479700088501,-38.5219535827637,-15.8389511108398,-8.85195064544678,39.7909507751465,29.8069515228271,10.3440008163452,13.372950553894,12.5590505599976,5.64900016784668,-4.88674974441528,-4.01348733901978,-1.68946254253387,-1.70114994049072,-1.87948751449585,-0.15180000662804,-8.2245626449585,-6.59450006484985,-3.97017502784729,-6.3120002746582,0.46305000782013,27.1810512542725,0.78600001335144,-7.74195051193237,-25.4809513092041,-0.97500002384186,-7.27500057220459,-19.8589515686035,SHAKE
-1.68946254253387,11.5762624740601,7.47917509078979,-0.15180000662804,4.42131233215332,3.80503749847412,-3.97017502784729,16.4206619262695,15.7613496780396,27.1810512542725,18.2190017700195,0.34305000305176,-25.4809513092041,-22.7250003814697,-14.238000869751,-19.8589515686035,-4.83195018768311,-1.68900012969971,2.92558741569519,-0.89141249656677,-10.8748750686646,3.05057501792908,2.53453755378723,-2.37421250343323,12.456262588501,13.9160995483398,-19.2625122070313,-49.4020538330078,-53.2710037231445,-22.1980514526367,43.1290512084961,47.6470527648926,37.6960525512695,12.4699506759644,15.8460006713867,13.5210008621216,-6.90648746490479,-5.67737483978271,-4.70703744888306,-0.90557497739792,-0.85717499256134,-0.8093249797821,-9.19600009918213,-6.9328875541687,-5.26968765258789,-5.10795021057129,-5.51700019836426,-1.83900010585785,11.8210506439209,1.76700007915497,-6.74100017547607,7.96395015716553,1.3819500207901,-5.51205015182495,-4.3720874786377,14.3105878829956,6.98334980010986,-0.62603747844696,8.14481258392334,0.94448751211166,-4.46806240081787,4.04772520065308,16.4603996276855,5.71095037460327,22.7370014190674,20.9959506988525,-12.3820505142212,-16.0429515838623,-20.5660514831543,-11.5099506378174,-12.0180006027222,-8.66595077514648,4.45953750610352,2.35152506828308,-0.1575749963522,1.34860002994537,1.77209997177124,2.75783753395081,14.0801372528076,12.5019121170044,11.0642127990723,8.31105041503906,-4.39905023574829,-55.6150512695313,-19.8550510406494,-11.4769506454468,40.3110008239746,-4.47795009613037,-0.76905006170273,21.1110000610352,5.47401237487793,9.37007522583008,8.28079986572266,8.87534999847412,1.56172502040863,1.03551244735718,23.2502880096436,22.3713874816895,18.9264621734619,-57.577953338623,-10.1430006027222,-6.9940505027771,43.6860008239746,22.746000289917,12.3979501724243,22.969051361084,9.80505084991455,5.21805047988892,7.1346001625061,6.06086254119873,4.90393733978271,0.6873624920845,0.58918750286102,0.78801250457764,15.8596620559692,12.9856376647949,10.7293996810913,-6.89100027084351,-4.00605010986328,0.52305001020432,2.97900009155273,-5.12505006790161,-12.3919506072998,-0.70200002193451,-7.21200037002563,-13.8229503631592,4.74842500686646,18.0448131561279,-7.28144979476929,13.9968128204346,16.4899616241455,-4.64804983139038,2.32154989242554,18.8578491210938,-18.5120372772217,30.2479515075684,34.4670028686523,3.61095023155212,-20.0599517822266,-20.5060501098633,-18.3460502624512,-17.8380012512207,-10.252950668335,-0.65205001831055,-5.0448751449585,-3.54502487182617,-2.98718738555908,-2.04379987716675,-0.92895001173019,0.91409999132156,-14.6178998947144,-11.5871248245239,-7.86004972457886,-10.3300504684448,-37.7230529785156,-51.693000793457,-3.54495024681091,24.6420021057129,34.9039535522461,1.69605004787445,5.40900039672852,11.9820003509521,5.52942514419556,5.24053764343262,4.35888767242432,2.27782487869263,-1.41033744812012,-2.4814624786377,12.4841747283936,14.6573619842529,11.4637870788574,-35.7690010070801,-15.2790002822876,-5.88105010986328,33.6420021057129,25.7479515075684,9.65595054626465,20.2399501800537,23.5200004577637,14.1169509887695,SHAKE
-5.0448751449585,-3.54502487182617,-2.98718738555908,-2.04379987716675,-0.92895001173019,0.91409999132156,-14.6178998947144,-11.5871248245239,-7.86004972457886,-10.3300504684448,-37.7230529785156,-51.693000793457,-3.54495024681091,24.6420021057129,34.9039535522461,1.69605004787445,5.40900039672852,11.9820003509521,5.52942514419556,5.24053764343262,4.35888767242432,2.27782487869263,-1.41033744812012,-2.4814624786377,12.4841747283936,14.6573619842529,11.4637870788574,-35.7690010070801,-15.2790002822876,-5.88105010986328,33.6420021057129,25.7479515075684,9.65595054626465,20.2399501800537,23.5200004577637,14.1169509887695,4.19828748703003,4.54107475280762,4.48937511444092,-2.64082503318787,-4.52773761749268,-4.64158725738525,9.47072505950928,5.32716226577759,2.7308874130249,-5.03295040130615,-0.22305001318455,3.60900020599365,4.18800020217896,-2.4190502166748,-2.56305003166199,5.35200023651123,-7.03005027770996,-8.96295070648193,3.98158740997315,10.6144495010376,12.800012588501,-3.58063745498657,18.1718616485596,16.9280376434326,2.83800005912781,1.25950002670288,3.55189990997314,6.96795034408569,10.7629508972168,20.6160011291504,-3.41805005073547,-7.09995031356812,-10.6819505691528,-9.40995025634766,-11.1960000991821,-10.8589506149292,7.89978742599487,5.16752481460571,2.2563750743866,12.6761245727539,10.8828496932983,8.06451225280762,11.840537071228,12.295937538147,11.0211753845215,15.8460006713867,0.91500002145767,-38.9290504455566,-12.2740507125854,-8.50095081329346,31.9860019683838,-3.21105003356934,0.53700000047684,14.9460010528564,0.89168751239777,-9.7714376449585,-6.32884979248047,11.7808628082275,-7.11466264724731,-4.8093376159668,4.72491264343262,-10.9052619934082,-6.1180624961853,-49.4020538330078,-13.2409505844116,-7.53105020523071,37.85205078125,23.2870502471924,3.79995012283325,16.3699512481689,8.70405006408691,4.17405033111572,-5.03084993362427,-2.49727487564087,12.8481378555298,-4.14053726196289,-2.09660005569458,9.64260005950928,-4.75584983825684,-3.59727501869202,13.3623876571655,-3.34095025062561,27.0130519866943,27.2239513397217,-5.14905023574829,-22.1050510406494,-22.476001739502,-3.4939501285553,-21.7579517364502,-12.1159505844116,9.99899959564209,4.98657512664795,2.79853749275208,7.75527477264404,4.96196269989014,4.05446243286133,12.970100402832,11.6723747253418,11.5269002914429,3.34305024147034,-35.1340522766113,-44.4670524597168,-19.6770000457764,17.7319507598877,28.6290016174316,-4.54305028915405,10.1520004272461,17.8570499420166,1.40676248073578,-13.9254503250122,-12.2174253463745,14.4978628158569,-8.753662109375,-5.79246234893799,26.8893623352051,-19.8867626190186,-14.5029497146606,-33.72705078125,-18.2040004730225,-7.67700052261353,30.9780006408691,25.3960514068604,17.7229499816895,20.461950302124,18.1159515380859,13.9399509429932,-10.3426122665405,-7.23181247711182,-6.16137504577637,-4.07962512969971,-2.72318744659424,-1.91014993190765,-10.4919376373291,-5.34806251525879,-3.11712503433228,-3.52995014190674,-0.79095005989075,1.09500002861023,11.3250007629395,2.97900009155273,1.69500005245209,8.73000049591064,-2.76600003242493,-6.42495012283325,SHAKE
-12.2174253463745,-10.3426122665405,-7.23181247711182,-5.79246234893799,-4.07962512969971,-2.72318744659424,-14.5029497146606,-10.4919376373291,-5.34806251525879,-7.67700052261353,-3.52995014190674,-0.79095005989075,17.7229499816895,11.3250007629395,2.97900009155273,13.9399509429932,8.73000049591064,-2.76600003242493,-6.16137504577637,-0.69918751716614,2.13276243209839,-1.91014993190765,6.69652509689331,8.19692516326904,-3.11712503433228,1.42890000343323,1.42120003700256,1.09500002861023,2.35395002365112,1.43700003623962,1.69500005245209,5.65305042266846,8.23200035095215,-6.42495012283325,-2.6340000629425,1.22400009632111,4.44908761978149,2.63381242752075,0.46323749423027,8.24615001678467,6.63272476196289,5.5948748588562,1.30817496776581,1.20147502422333,1.05146253108978,-0.75195002555847,-0.68295001983643,4.69800043106079,7.64805030822754,4.80300045013428,1.85595011711121,1.67700004577637,-0.37395000457764,-3.79995012283325,0.01196249946952,1.26101243495941,5.25951242446899,5.2613000869751,5.79837512969971,4.45266246795654,1.56887495517731,3.89674997329712,7.75431251525879,11.1060009002686,20.3359508514404,21.6480007171631,-3.02295017242432,-6.9330005645752,-8.03894996643066,-7.63800048828125,-11.9839506149292,-11.0410509109497,4.70965003967285,3.82896256446838,4.04868745803833,1.81073749065399,1.03289997577667,-0.48358750343323,9.88212490081787,9.32332515716553,7.72942495346069,-5.49105024337769,-26.7810020446777,-38.953052520752,-3.23595023155212,11.4859504699707,22.9230003356934,-1.0110000371933,9.65205001831055,20.814001083374,-6.99063730239868,-9.40775012969971,-7.96386241912842,-12.9013500213623,-12.8506126403809,-10.6708250045776,-16.0062370300293,-10.9881753921509,-8.28849983215332,-33.1039505004883,-21.3259506225586,-12.9990005493164,28.8280506134033,28.0830020904541,21.5659503936768,23.7400512695313,17.97705078125,10.8610506057739,-6.58432483673096,-5.43001270294189,-4.43410015106201,-8.57229995727539,-6.97936248779297,-5.76784992218018,-6.08904981613159,-4.31117486953735,-2.85876250267029,-8.64600086212158,-7.53495025634766,-7.12605047225952,16.2360000610352,11.5380001068115,6.64905023574829,7.32495021820068,3.95100021362305,0.28995001316071,-3.55080008506775,-2.61703753471375,-1.80056250095367,-4.39834976196289,-2.60067486763,0.00962499994785,-1.54123747348785,-0.66357499361038,-0.49211248755455,-5.13600015640259,-1.66695010662079,1.97100007534027,2.27700018882751,-0.9709500670433,-3.47505021095276,-3.19695019721985,-6.02505016326904,-7.83195018768311,-0.07438749819994,5.42836236953735,12.8866376876831,3.04576253890991,8.07345008850098,11.4614496231079,-1.28260004520416,-3.57101249694824,0.22632500529289,7.33200025558472,15.7150506973267,24.6859512329102,-6.4699501991272,-7.97400045394897,-8.74695014953613,-9.13500022888184,-9.33600044250488,-10.6099500656128,10.9870748519897,7.39158725738525,4.80590009689331,10.4418878555298,9.14402484893799,7.8011999130249,9.84197521209717,11.4415121078491,11.5436744689941,22.7059516906738,13.2220506668091,4.45905017852783,-10.5670509338379,-12.7939510345459,-11.803050994873,-10.617000579834,-6.71205043792725,-2.95305013656616,SHAKE
-6.58432483673096,-5.43001270294189,-4.43410015106201,-8.57229995727539,-6.97936248779297,-5.76784992218018,-6.08904981613159,-4.31117486953735,-2.85876250267029,-8.64600086212158,-7.53495025634766,-7.12605047225952,16.2360000610352,11.5380001068115,6.64905023574829,7.32495021820068,3.95100021362305,0.28995001316071,-3.55080008506775,-2.61703753471375,-1.80056250095367,-4.39834976196289,-2.60067486763,0.00962499994785,-1.54123747348785,-0.66357499361038,-0.49211248755455,-5.13600015640259,-1.66695010662079,1.97100007534027,2.27700018882751,-0.9709500670433,-3.47505021095276,-3.19695019721985,-6.02505016326904,-7.83195018768311,-0.07438749819994,5.42836236953735,12.8866376876831,3.04576253890991,8.07345008850098,11.4614496231079,-1.28260004520416,-3.57101249694824,0.22632500529289,7.33200025558472,15.7150506973267,24.6859512329102,-6.4699501991272,-7.97400045394897,-8.74695014953613,-9.13500022888184,-9.33600044250488,-10.6099500656128,10.9870748519897,7.39158725738525,4.80590009689331,10.4418878555298,9.14402484893799,7.8011999130249,9.84197521209717,11.4415121078491,11.5436744689941,22.7059516906738,13.2220506668091,4.45905017852783,-10.5670509338379,-12.7939510345459,-11.803050994873,-10.617000579834,-6.71205043792725,-2.95305013656616,2.75728750228882,1.27600002288818,-1.3778874874115,6.76774978637695,6.01590013504028,6.25927495956421,11.2714252471924,10.7199125289917,12.5672245025635,-5.90205049514771,-26.3470516204834,-41.7900009155273,-4.82595014572144,11.4160509109497,23.1169509887695,1.41300010681152,11.6800508499146,21.9990005493164,-12.7417125701904,-9.46192455291748,-8.49241256713867,-15.3984870910645,-7.6911997795105,-6.70862483978271,-17.0508251190186,-9.19723701477051,-7.93732500076294,-44.9029502868652,-20.1750011444092,-9.98700046539307,28.7220020294189,20.416051864624,13.3750505447388,24.5209503173828,6.95595026016235,3.29805016517639,-6.80968761444092,-4.88028764724731,-3.83171248435974,-5.1727499961853,-3.4435498714447,-2.1869375705719,-5.86657476425171,-3.73559999465942,-2.62858748435974,-6.26205015182495,-5.3779501914978,-3.86505007743835,7.50900030136108,2.49795007705688,-1.89000010490417,1.52805006504059,-1.12800002098084,-4.10895013809204,-2.80568742752075,2.53261256217957,9.68123722076416,-0.74401247501373,6.84708738327026,12.5217123031616,-2.11199998855591,-7.20706224441528,-7.94557476043701,-1.20705008506775,17.8889999389648,33.669002532959,-6.10905027389526,-13.2580509185791,-8.94900035858154,-7.36605024337768,-16.5169506072998,-17.8120517730713,10.9899625778198,7.06942510604858,4.2861499786377,12.7600002288818,11.0541753768921,9.39427471160889,10.2470502853394,12.8118371963501,13.2954244613647,26.7469520568848,13.7779502868652,0.64200001955032,-11.5560007095337,-15.6049509048462,-12.6529502868652,-9.85095024108887,-5.47200012207031,-0.966000020504,2.26476240158081,1.15128743648529,-0.51397502422333,8.11483764648438,7.10201263427734,7.22590017318726,12.8053750991821,11.5273122787476,12.2645874023438,-13.8370504379272,-28.9759521484375,-37.006950378418,-1.89495003223419,15.1990509033203,23.6220016479492,4.66200017929077,12.5299501419067,20.3640003204346,SHAKE
-14.5766496658325,-11.2701873779297,-9.15103721618652,-18.5541114807129,-7.62451267242432,-5.83274984359741,-20.144437789917,-10.3299627304077,-7.41001224517822,-34.7749519348145,-13.4970006942749,-6.45795011520386,27.9490509033203,19.0399513244629,13.1830501556396,21.7620010375977,10.4920501708984,6.56805038452148,-7.53018760681152,-6.10885000228882,-4.96443748474121,-4.50353765487671,-3.63233757019043,-2.36610007286072,-5.24108743667603,-3.67276239395142,-2.31962490081787,-4.60695028305054,-5.33700037002563,-5.03595018386841,8.42295074462891,5.53305006027222,4.26000022888184,3.00600004196167,-0.54704999923706,-2.47200012207031,-4.49872493743896,-3.5734875202179,-2.18735003471375,-1.5358749628067,0.90213751792908,4.83697509765625,-1.77691245079041,-0.79557502269745,-0.69519996643066,-3.03195023536682,-0.78405004739761,1.64595007896423,2.12895011901855,0.60795003175735,-2.050950050354,-6.25695037841797,-9.15195083618164,-10.53600025177,1.77883744239807,6.62447500228882,9.78752517700195,8.11800003051758,9.91993713378906,10.5831003189087,-2.5888500213623,-4.12128734588623,-1.74363744258881,5.58195018768311,13.4899501800537,23.0310020446777,-5.19405031204224,-7.20600032806396,-7.75605058670044,-11.2180509567261,-10.3339500427246,-8.80500030517578,9.54071235656738,2.24358749389648,0.88673746585846,10.0341997146606,8.02752494812012,7.40203762054443,6.43706226348877,11.7998371124268,10.9799251556396,24.8130016326904,4.29900026321411,-16.3060512542725,-9.57600021362305,-10.0309505462646,1.24095010757446,-7.98600053787232,-1.13595008850098,1.88700008392334,-3.99148750305176,-11.2264623641968,-10.363787651062,13.3656873703003,-18.1846504211426,-9.65194988250732,19.341438293457,-20.8115882873535,-12.3132619857788,-54.6769523620605,-36.1609535217285,-16.8420009613037,29.6800518035889,31.7749519348145,24.0030002593994,21.0750007629395,16.114049911499,10.2220506668091,-8.51633739471436,-7.01593732833862,-5.79067516326904,-7.50750017166138,-6.02909994125366,-4.96154975891113,-9.16327476501465,-6.78988742828369,-5.04473733901978,-9.17505073547363,-9.20205020904541,-8.51700019836426,15.7240505218506,8.92905044555664,2.1979501247406,8.40705013275146,4.60305023193359,-1.41105008125305,-4.74732494354248,-3.68444991111755,-2.6003999710083,-3.82084989547729,-2.35523748397827,0.08799999952316,-3.54914999008179,-2.6999499797821,-2.66461253166199,-4.29105043411255,1.05000007152557,7.014000415802,-3.23805022239685,-7.04295015335083,-10.2820501327515,-6.77205038070679,-9.05805015563965,-9.62595081329346,1.28589999675751,9.38712501525879,11.8921003341675,4.72848749160767,11.408374786377,10.9113121032715,-6.89039993286133,-11.3210620880127,15.3991746902466,16.1980514526367,32.5819511413574,31.0759506225586,-13.8780002593994,-12.8059501647949,-11.5270509719849,-11.5099506378174,-13.582950592041,-7.82805013656616,4.58053731918335,2.77378749847412,1.77443754673004,9.08022499084473,7.98311233520508,7.13638734817505,13.1378498077393,12.05943775177,10.797737121582,4.73699998855591,-7.56900024414063,-33.9130516052246,-15.6190509796143,-7.64400053024292,13.1640005111694,-1.40595006942749,3.19695019721985,11.6080503463745,SHAKE
1.77443754673004,0.71555000543594,12.7323627471924,7.13638734817505,7.1813497543335,16.0126991271973,10.797737121582,11.0090751647949,22.4285869598389,-33.9130516052246,-55.6870536804199,-44.191951751709,13.1640005111694,28.5400505065918,31.5859508514404,11.6080503463745,19.5790500640869,17.650951385498,13.7977123260498,12.2743501663208,10.5712747573853,10.9616374969482,8.01679992675781,6.19080018997192,22.1271877288818,19.6015872955322,16.8126754760742,-19.7560501098633,-10.0609502792358,-7.51395034790039,30.2140522003174,19.7080516815186,12.4650001525879,11.5440006256104,6.61395025253296,4.06605005264282,7.3683500289917,5.89558744430542,4.53653764724731,3.91957497596741,3.40298748016357,4.18646240234375,12.0946378707886,10.981162071228,10.3576002120972,-3.81195020675659,-0.44100001454353,5.29905033111572,-0.29595002532005,-5.13000011444092,-9.22395038604736,-4.62900018692017,-8.2369499206543,-11.4000005722046,4.46971225738525,15.1984252929688,10.3162126541138,8.70979976654053,11.8394374847412,9.9286003112793,7.28736257553101,19.8155364990234,19.3796615600586,18.1210517883301,33.2410507202148,20.6539516448975,-14.4990005493164,-17.2969512939453,-22.2510013580322,-15.1849508285522,-9.03000068664551,-3.79800009727478,5.96584987640381,4.93184995651245,3.43722486495972,7.94461250305176,7.4614372253418,6.9177622795105,16.4656257629395,15.6693620681763,14.368200302124,4.08105039596558,-14.6869506835938,-41.0460014343262,-22.1149501800537,-11.803050994873,12.0790510177612,2.22300004959106,8.30205059051514,16.9120502471924,2.61772489547729,10.5159997940063,12.55113697052,7.86953735351563,13.7655372619629,8.11332511901855,14.6656122207642,21.5982246398926,22.3898124694824,-56.7400512695313,-43.6990509033203,-24.5280017852783,29.5840511322021,36.1950035095215,31.3699512481689,21.1729507446289,17.026050567627,6.51795053482056,10.8503999710083,9.25319957733154,7.88851261138916,6.65362501144409,5.53052520751953,4.58150005340576,19.6708869934082,16.9521007537842,14.5457124710083,-13.0230007171631,-7.90395021438599,-5.74695014953613,19.9590015411377,12.7279510498047,6.5440502166748,0.85800004005432,1.02300000190735,-0.54195004701614,6.58556222915649,4.2433876991272,3.23688745498657,3.89124989509583,4.84302520751953,7.74606227874756,12.6209878921509,10.1714248657227,8.56212520599365,-3.24000024795532,3.7020001411438,6.00105047225952,1.80795013904572,-3.08700013160706,-3.66195011138916,-3.79995012283325,-7.50000047683716,-6.84600019454956,6.02250003814697,12.0291872024536,12.1336870193481,12.0969753265381,13.8953371047974,10.0128870010376,6.2115626335144,8.14082527160645,17.1125621795654,7.28700017929077,9.6109504699707,15.7290010452271,-4.47105026245117,-6.72405052185059,-9.75795078277588,-5.56005048751831,-5.94600009918213,-6.86805009841919,7.91271257400513,4.74044990539551,3.01221251487732,8.63018703460693,8.52032470703125,7.8692626953125,18.2390995025635,15.3157119750977,12.6181001663208,26.0550003051758,25.2840003967285,14.6010007858276,-9.76500034332275,-10.336950302124,-14.4340505599976,-6.83595037460327,-5.89095020294189,-4.39394998550415,SHAKE
12.55113697052,10.8503999710083,9.25319957733154,8.11332511901855,6.65362501144409,5.53052520751953,22.3898124694824,19.6708869934082,16.9521007537842,-24.5280017852783,-13.0230007171631,-7.90395021438599,31.3699512481689,19.9590015411377,12.7279510498047,6.51795053482056,0.85800004005432,1.02300000190735,7.88851261138916,6.58556222915649,4.2433876991272,4.58150005340576,3.89124989509583,4.84302520751953,14.5457124710083,12.6209878921509,10.1714248657227,-5.74695014953613,-3.24000024795532,3.7020001411438,6.5440502166748,1.80795013904572,-3.08700013160706,-0.54195004701614,-3.79995012283325,-7.50000047683716,3.23688745498657,6.02250003814697,12.0291872024536,7.74606227874756,12.0969753265381,13.8953371047974,8.56212520599365,6.2115626335144,8.14082527160645,6.00105047225952,7.28700017929077,9.6109504699707,-3.66195011138916,-4.47105026245117,-6.72405052185059,-6.84600019454956,-5.56005048751831,-5.94600009918213,12.1336870193481,7.91271257400513,4.74044990539551,10.0128870010376,8.63018703460693,8.52032470703125,17.1125621795654,18.2390995025635,15.3157119750977,15.7290010452271,26.0550003051758,25.2840003967285,-9.75795078277588,-9.76500034332275,-10.336950302124,-6.86805009841919,-6.83595037460327,-5.89095020294189,3.01221251487732,2.02565002441406,1.300337433815,7.8692626953125,6.85808753967285,5.96557474136353,12.6181001663208,11.1528997421265,10.4354248046875,14.6010007858276,0.98700004816055,-25.5760517120361,-14.4340505599976,-14.7139511108398,-3.04905009269714,-4.39394998550415,-0.6280500292778,10.1310005187988,0.72008746862411,7.92701244354248,12.2123374938965,6.01617479324341,13.9709625244141,9.67202472686768,10.8670377731323,19.7102127075195,23.0632877349854,-67.0410003662109,-57.2500534057617,-15.8029508590698,26.2200012207031,32.086051940918,37.0489501953125,26.332950592041,20.3089504241943,5.72805023193359,10.7914123535156,8.86929988861084,7.3460750579834,6.96396255493164,5.69360017776489,4.69452476501465,21.1891632080078,18.6463756561279,16.3920631408691,-2.29005002975464,2.18400001525879,-1.33200001716614,20.1960010528564,14.4880504608154,8.46195030212402,-7.65495014190674,-7.50705051422119,-6.45600032806396,5.91882514953613,4.34775018692017,7.68006229400635,4.18577480316162,5.12187480926514,12.1070127487183,14.7031497955322,14.4944248199463,12.9087753295898,-0.63705003261566,3.882000207901,13.3680009841919,0.89595001935959,-3.90105009078979,-14.1469507217407,-8.30400085449219,-9.57300090789795,-11.6059503555298,12.6538496017456,11.3207874298096,5.74241256713867,11.0929498672485,5.81487512588501,5.75904989242554,14.5473623275757,22.2862739562988,19.409912109375,23.0310020446777,26.6110515594482,18.5350513458252,-17.1660003662109,-15.3960008621216,-18.1759510040283,-11.6989507675171,-6.3550500869751,-1.81605005264282,3.88781237602234,2.85945010185242,2.54870009422302,5.68947505950928,5.53547477722168,5.5827751159668,16.5057754516602,14.1813373565674,13.2791996002197,5.17005014419556,-14.8210506439209,-53.6490020751953,-15.292950630188,-1.99995005130768,27.9559516906738,2.94600009918213,10.5240001678467,21.1210517883301,SHAKE
12.035924911499,8.66731262207031,3.85549998283386,6.28856229782104,5.28302478790283,4.06174993515015,14.2496747970581,13.2239246368408,11.4167623519897,19.1220016479492,4.54800033569336,-37.9519500732422,-22.6630516052246,-19.8670501708984,19.4629516601563,-9.43695068359375,-4.71000003814697,11.1870002746582,1.71311247348785,12.453649520874,11.0492248535156,3.77657508850098,2.99722504615784,2.17813754081726,12.0613622665405,23.0990371704102,19.3276882171631,-60.037052154541,-25.8799514770508,-9.54705047607422,37.5619506835938,29.2470016479492,18.1420516967773,19.0090503692627,11.7930002212524,7.40100049972534,9.92241287231445,8.53572463989258,7.91174983978271,1.66292500495911,1.16929996013641,1.01433753967285,15.9851999282837,13.1957378387451,11.9389877319336,-6.7020001411438,-5.34000015258789,-0.7950000166893,9.34995079040527,1.28400003910065,-5.41695022583008,4.42095041275024,-0.3570000231266,-5.40705013275146,6.15560007095337,4.95371246337891,16.2315998077393,0.91519999504089,2.64316248893738,15.0354871749878,8.99043750762939,7.91147518157959,18.3816871643066,5.87400007247925,16.8280506134033,30.2020511627197,-11.0200500488281,-17.1589508056641,-16.6650009155273,-11.2320003509521,-18.1810512542725,-9.85995006561279,11.7502002716064,5.91016244888306,3.97705006599426,12.3576745986938,8.42654991149902,7.71072483062744,18.019100189209,16.2700996398926,14.739312171936,12.8680505752563,-13.9830007553101,-33.2880020141602,-20.3089504241943,0.36405003070831,26.7709522247314,-3.34800004959106,9.7069501876831,19.4610004425049,3.02912497520447,-16.952787399292,-13.1621875762939,9.92763710021973,-15.1331119537354,-9.132887840271,14.5264625549316,-19.8695755004883,-15.1577253341675,-58.0519523620605,-44.6179504394531,-17.4310512542725,38.0770530700684,36.9390029907227,27.316951751709,27.7500019073486,20.0380516052246,9.77700042724609,-10.4494495391846,-8.1939001083374,-6.28375005722046,-6.54527473449707,-5.0850248336792,-3.97292494773865,-11.1306247711182,-8.06052494049072,-6.22806262969971,-7.95195055007935,-9.49605083465576,-7.38000011444092,16.9519500732422,7.63095045089722,-0.68595004081726,4.22399997711182,-0.09600000083447,-5.44500017166138,-3.18518757820129,-0.29727500677109,11.9447622299194,-0.81152498722076,4.66179990768433,10.4457378387451,-4.03933763504028,-4.560462474823,-6.69006252288818,8.00699996948242,20.5849514007568,32.1010513305664,-13.7130002975464,-20.6640014648438,-19.0020008087158,-15.892050743103,-20.203950881958,-15.7069511413574,14.0039625167847,8.71749973297119,4.95494985580444,10.0007877349854,8.74114990234375,7.86596250534058,7.93540000915527,14.7917003631592,15.6015748977661,22.7299518585205,4.0090503692627,-7.26195049285889,-18.8629512786865,-16.8090000152588,-3.93300008773804,-5.86395025253296,-0.11805000901222,3.93000030517578,2.9690375328064,1.93159997463226,-15.5408000946045,7.25106239318848,6.76252508163452,-12.793137550354,14.0417747497559,12.4357748031616,-20.4459743499756,-27.1849517822266,-54.1789512634277,-47.6710510253906,21.5539512634277,39.517951965332,38.0910034179688,11.6149501800537,19.5360012054443,18.6859512329102,SHAKE
11.9447622299194,14.0039625167847,8.71749973297119,10.4457378387451,10.0007877349854,8.74114990234375,-6.69006252288818,7.93540000915527,14.7917003631592,32.1010513305664,22.7299518585205,4.0090503692627,-19.0020008087158,-18.8629512786865,-16.8090000152588,-15.7069511413574,-5.86395025253296,-0.11805000901222,4.95494985580444,2.9690375328064,1.93159997463226,7.86596250534058,7.25106239318848,6.76252508163452,15.6015748977661,14.0417747497559,12.4357748031616,-7.26195049285889,-27.1849517822266,-54.1789512634277,-3.93300008773804,21.5539512634277,39.517951965332,3.93000030517578,11.6149501800537,19.5360012054443,-15.5408000946045,-13.3709125518799,-9.63379955291748,-12.793137550354,-5.4038872718811,-2.99323749542236,-20.4459743499756,-14.5758247375488,-9.31232452392578,-47.6710510253906,-19.4209518432617,-8.09805011749268,38.0910034179688,29.0790004730225,17.8540515899658,18.6859512329102,13.5160503387451,9.42495059967041,-7.63894987106323,-4.64227485656738,-2.42618751525879,-2.48393750190735,-2.14225006103516,0.04248749837279,-6.82302474975586,-4.17367506027222,-2.90922498703003,-7.73205041885376,1.2720000743866,24.3990020751953,7.87005043029785,-8.66100025177002,-21.1350002288818,4.94505023956299,-6.89895009994507,-15.3030004501343,20.4956130981445,14.4651374816895,7.45126247406006,9.43277454376221,8.81127452850342,5.72962474822998,10.3820753097534,12.7736120223999,11.7642250061035,35.8669509887695,21.1140003204346,-10.6840505599976,-17.8960514068604,-18.5040016174316,-1.35405004024506,-13.7940006256104,-9.86505031585693,-1.88700008392334,3.79293751716614,-9.44680023193359,-11.0254373550415,2.400475025177,-5.76235008239746,-5.70363759994507,8.64476203918457,-18.3261375427246,-12.7571125030518,-53.8860015869141,-44.6110534667969,-18.4290008544922,42.669002532959,41.2129516601563,29.1289520263672,16.1329498291016,15.528000831604,12.2950506210327,-9.47883701324463,-7.92110013961792,-6.43898725509644,-4.86584997177124,-4.36603736877441,-4.00688743591309,-9.31480026245117,-6.55861234664917,-4.90201234817505,-7.72005033493042,-7.59000015258789,-5.05305004119873,17.6989517211914,7.17795038223267,-2.09400010108948,10.5240001678467,6.24000024795532,-0.34305000305176,-5.03607511520386,-3.9840624332428,-2.77145004272461,-3.88575005531311,-3.43488740921021,-1.96404993534088,-4.08388757705688,-3.20347499847412,-2.94140005111694,1.1910001039505,9.94005012512207,22.1479511260986,-9.64995002746582,-16.2660007476807,-20.7019500732422,-6.67605018615723,-13.4250001907349,-17.7060012817383,18.6590251922607,8.75723743438721,3.84697508811951,6.54431247711182,5.98537492752075,4.72986268997192,16.9464626312256,14.7544374465942,11.6514749526978,30.363000869751,6.88005018234253,-22.9399509429932,-19.2610511779785,-16.5769500732422,25.2739505767822,-12.8340005874634,-1.1620500087738,5.26095008850098,3.26466250419617,-10.5747127532959,-8.80151271820068,3.62257504463196,-2.51267504692078,-2.53151249885559,8.82461261749268,-16.8682250976563,-12.728099822998,-52.1530532836914,-25.0740013122559,-10.03005027771,44.7930030822754,30.8890514373779,16.498950958252,12.0730504989624,15.373950958252,14.4570007324219,SHAKE
-2.97343754768372,-14.757737159729,-10.0596370697021,-0.45649999380112,-8.50547504425049,-2.65787506103516,-21.576774597168,-18.3849868774414,-12.6908378601074,35.2180519104004,7.48095035552979,-19.2649517059326,-21.363000869751,-16.5649509429932,18.4770011901855,-19.7299518585205,-9.7669506072998,4.81095027923584,-8.64820003509521,6.17196226119995,5.89627504348755,-3.10983753204346,1.77966248989105,0.43724998831749,-10.6618871688843,15.4079751968384,12.5564994812012,-45.6979522705078,-26.4619522094727,-7.11900043487549,40.9260025024414,31.5469512939453,19.2360000610352,18.9060001373291,10.3440008163452,7.9980001449585,5.26157474517822,4.77977514266968,4.47342491149902,-0.39118748903275,-0.91341251134872,-1.09821248054504,10.6790752410889,8.75160026550293,6.72471237182617,-4.54995012283325,-3.5110502243042,1.18605005741119,9.05505084991455,-0.25304999947548,-7.9960503578186,6.01500034332275,0.75705003738403,-5.12895011901855,3.96783757209778,2.89726257324219,19.3819999694824,-0.79942500591278,0.37578749656677,13.3927745819092,5.3472375869751,5.38587474822998,20.4566993713379,9.44400024414062,23.1150016784668,29.8770008087158,-15.1930503845215,-19.8570003509521,-16.1940002441406,-10.6840505599976,-15.6160507202148,-12.3720006942749,14.4018878936768,6.39429998397827,4.29206228256226,8.85046291351318,4.06284999847412,3.34647488594055,21.3969249725342,18.2209491729736,15.424750328064,16.8450012207031,-1.60500001907349,-14.4289503097534,-18.2140502929688,-4.47405004501343,18.3960018157959,-7.97595024108887,-1.44900012016296,4.02495002746582,-1.13135004043579,-7.2294750213623,-5.84567499160767,-0.72847497463226,-2.17951250076294,-1.83342504501343,-20.6315994262695,-11.8150997161865,-8.7465124130249,-56.5819511413574,-10.4610004425049,-5.69400024414063,43.8400535583496,21.2020511627197,9.96105003356934,10.1050500869751,1.81800007820129,1.95000004768372,-3.52329993247986,-0.40356248617172,17.2173366546631,-1.73483753204346,0.93884998559952,7.2378625869751,-5.68507480621338,-3.86512494087219,5.07856225967407,-0.33600002527237,21.6499519348145,31.5859508514404,-8.10105037689209,-20.7979507446289,-19.1989517211914,-6.25005006790161,-13.0090503692627,-11.7210006713867,5.57108736038208,1.79629993438721,1.32123744487762,4.57682514190674,3.55093741416931,2.91665005683899,17.7542743682861,11.6608247756958,9.62926292419434,7.30305051803589,-14.7229509353638,-41.9560508728027,-16.4089508056641,12.7519502639771,40.2600021362305,-2.51700019836426,1.86795008182526,12.106050491333,-10.3243246078491,-7.25931262969971,-4.68297481536865,-3.29986238479614,-0.68035000562668,-0.78196251392365,-27.5358867645264,-18.2689380645752,-10.8772125244141,-35.6920509338379,-12.0319509506226,-5.69895029067993,37.6099510192871,23.0449504852295,1.61595010757446,5.40495014190674,1.53795003890991,-0.30195000767708,-2.45451259613037,-0.50572502613068,10.1895751953125,-0.58904999494553,0.55508750677109,5.31506252288818,-7.44810009002686,-6.50553750991821,17.3578624725342,7.46100044250488,24.8700008392334,21.5659503936768,-16.7299499511719,-22.6030502319336,-19.3210506439209,-10.945050239563,-13.5619506835938,-5.69400024414063,SHAKE
-5.84567499160767,-3.52329993247986,-0.40356248617172,-1.83342504501343,-1.73483753204346,0.93884998559952,-8.7465124130249,-5.68507480621338,-3.86512494087219,-5.69400024414063,-0.33600002527237,21.6499519348145,9.96105003356934,-8.10105037689209,-20.7979507446289,1.95000004768372,-6.25005006790161,-13.0090503692627,17.2173366546631,5.57108736038208,1.79629993438721,7.2378625869751,4.57682514190674,3.55093741416931,5.07856225967407,17.7542743682861,11.6608247756958,31.5859508514404,7.30305051803589,-14.7229509353638,-19.1989517211914,-16.4089508056641,12.7519502639771,-11.7210006713867,-2.51700019836426,1.86795008182526,1.32123744487762,-10.3243246078491,-7.25931262969971,2.91665005683899,-3.29986238479614,-0.68035000562668,9.62926292419434,-27.5358867645264,-18.2689380645752,-41.9560508728027,-35.6920509338379,-12.0319509506226,40.2600021362305,37.6099510192871,23.0449504852295,12.106050491333,5.40495014190674,1.53795003890991,-4.68297481536865,-2.45451259613037,-0.50572502613068,-0.78196251392365,-0.58904999494553,0.55508750677109,-10.8772125244141,-7.44810009002686,-6.50553750991821,-5.69895029067993,7.46100044250488,24.8700008392334,1.61595010757446,-16.7299499511719,-22.6030502319336,-0.30195000767708,-10.945050239563,-13.5619506835938,10.1895751953125,3.49621248245239,2.42494988441467,5.31506252288818,3.99410009384155,3.37232494354248,17.3578624725342,14.9162750244141,12.2523498535156,21.5659503936768,-5.03805017471313,-18.5680503845215,-19.3210506439209,-2.91000008583069,20.9740505218506,-5.69400024414063,-2.3970000743866,4.15500020980835,-3.96783757209778,-8.90023708343506,-7.18561267852783,-2.32402491569519,-3.8451874256134,-2.69073748588562,-22.7412624359131,-17.6797504425049,-13.5544748306274,-58.4500541687012,-26.8000507354736,-7.49700021743774,43.324951171875,34.1430015563965,20.8020000457764,9.66195011138916,1.72005009651184,1.86600005626678,-5.89627504348755,-4.80053758621216,-2.31412506103516,-2.04586243629456,-2.06263756752014,-1.15293753147125,-10.1165628433228,-7.8541374206543,-5.69841241836548,-6.53895044326782,-4.04700040817261,17.9629516601563,8.26800060272217,-3.45795011520386,-21.3679504394531,3.05595016479492,-0.96795004606247,-14.6779508590698,1.76962494850159,7.46542501449585,4.1753249168396,2.91733741760254,4.97653770446777,4.29536247253418,-4.10946226119995,18.2382755279541,16.7234382629395,30.8220024108887,12.6019506454468,1.33395004272461,-20.2999515533447,-18.2550010681152,-11.3050508499146,-15.5040006637573,-2.46900010108948,-0.72600001096725,2.38012504577637,1.91056251525879,-9.74215030670166,3.79156255722046,3.16126251220703,-4.89114999771118,14.3497753143311,11.3242244720459,-20.0325126647949,-6.39300012588501,-28.7269515991211,-47.4120025634766,3.63705015182495,30.7789516448975,42.4750518798828,-0.12300000339746,5.51505041122437,6.25200033187866,-8.6044750213623,-5.00582504272461,-3.22959995269775,-3.16731238365173,-1.78172504901886,-1.58496248722076,-15.3722248077393,-7.50516223907471,-4.76767492294312,-17.0569515228271,-5.4859504699707,4.5930004119873,29.6080513000488,5.44995021820068,-12.2719507217407,2.38800001144409,4.65795040130615,-8.73705005645752,SHAKE
-2.37806248664856,11.4599370956421,3.09746241569519,-0.48317500948906,4.50381231307983,3.1545250415802,-3.44176244735718,19.0715255737305,17.0637493133545,16.6870498657227,27.7840518951416,-0.49395000934601,-20.7450008392334,-19.045051574707,-11.248950958252,-17.7330017089844,-9.56100082397461,-0.1950000077486,1.44388747215271,1.61686253547668,-10.4117746353149,2.80156254768372,1.20642495155334,-4.32272481918335,14.6723499298096,8.63761234283447,-20.2140121459961,-5.75595045089722,-61.3330535888672,-49.8420028686523,4.53495025634766,43.0999526977539,41.2129516601563,-0.28305000066757,15.7339506149292,7.62195014953613,-8.43204975128174,-5.09451246261597,-2.92146253585815,-2.8078875541687,-1.33512496948242,-1.12777495384216,-15.5649995803833,-8.73922538757324,-6.0659499168396,-16.8730506896973,-6.0799503326416,4.66695022583008,27.9580516815186,5.19300031661987,-11.7430505752563,-1.07595002651215,0.51300001144409,-11.8879508972168,-1.28823745250702,13.4088621139526,6.4835376739502,0.6572499871254,5.62113761901855,4.30512475967407,-4.72779989242554,14.3923997879028,19.3804874420166,16.7779502868652,25.0810508728027,13.5019502639771,-18.8730010986328,-19.0140018463135,-17.9749507904053,-18.1399517059326,-7.81305027008057,-1.00604999065399,3.24087500572205,1.75450003147125,1.46973752975464,4.23183727264404,3.98543739318848,3.61776256561279,17.5436248779297,14.837212562561,11.8618497848511,3.25005006790161,-4.588050365448,-30.2050514221191,-11.7330007553101,1.38900005817413,28.9660511016846,-0.29805001616478,-0.21405000984669,11.6389503479004,1.34598743915558,-13.1055374145508,-9.23174953460693,3.92493748664856,-4.81126260757446,-2.39483737945557,9.94083786010742,-25.6662998199463,-20.2504501342773,-66.3730545043945,-53.7670516967773,-14.2350006103516,47.7109527587891,42.4129524230957,28.9260005950928,19.6000518798828,6.85305023193359,-2.92200016975403,-5.34324979782104,-4.19567489624023,-2.7992250919342,-0.98065000772476,-1.22182500362396,-0.92496252059937,-11.9908246994019,-9.73472499847412,-8.39795017242432,-5.6650505065918,-0.16800001263618,14.8549509048462,0.59400004148483,-11.1150007247925,-21.2380504608154,-0.77400004863739,-7.05900049209595,-15.3000011444092,4.07852506637573,14.0413627624512,9.61950016021728,3.84353756904602,4.90228748321533,4.15016269683838,-6.87568759918213,12.9408121109009,17.7799873352051,31.8880519866943,26.9530506134033,10.0879507064819,-21.8470516204834,-19.0290012359619,-18.4830017089844,-18.457950592041,-10.9590005874634,-4.2960000038147,2.75880002975464,1.3194500207901,1.34832501411438,3.26163744926453,3.21254992485046,2.54608750343323,17.8587741851807,15.1135873794556,9.55570030212402,2.27295017242432,-0.64500004053116,-54.8320541381836,-12.6049509048462,-0.65700000524521,40.9380035400391,-0.5830500125885,0.27600002288818,17.3400001525879,-12.5978870391846,-9.20040035247803,-6.66943740844727,-5.86162519454956,-1.09422504901886,0.10738749802113,-26.9275875091553,-20.1095123291016,-15.3095245361328,-57.436954498291,-24.9130516052246,-6.18300008773804,40.7490005493164,32.2350006103516,19.7290515899658,7.91100025177002,-6.18795013427734,-5.42895030975342,SHAKE
9.8294620513916,5.53959989547729,0.36410000920296,8.30156230926514,3.91159987449646,3.78798747062683,-3.33423757553101,19.601037979126,15.596625328064,18.5419502258301,15.4270505905151,-1.21395003795624,-13.7830505371094,-13.8540010452271,-5.32605028152466,-17.203950881958,-5.16000032424927,1.84395003318787,-0.45223748683929,-2.96573758125305,-8.51070022583008,3.81754994392395,9.38258743286133,0.69410002231598,13.3974494934082,29.2249374389648,-17.6159496307373,-10.546950340271,-54.4750518798828,-12.7930507659912,11.8540506362915,41.8309516906738,24.7279510498047,1.71705007553101,18.3649501800537,4.34895038604736,-6.44379997253418,-4.14370012283325,-3.25104999542236,0.98518747091293,-0.40287500619888,-0.49637499451637,-13.5368747711182,-8.61258792877197,-7.10971260070801,-5.09295034408569,-3.41505026817322,3.73095011711121,13.9039506912231,-3.47805023193359,-10.8400506973267,6.0799503326416,-1.10895001888275,-9.28605079650879,-2.24729990959167,5.16738748550415,14.8824501037598,0.6318125128746,7.24157476425171,4.52155017852783,-5.39632511138916,-3.93387508392334,15.1243124008179,16.4089508056641,27.8179512023926,23.0820007324219,-17.5660514831543,-19.9000511169434,-18.8680515289307,-17.4529514312744,-22.1410503387451,-14.5240507125854,8.00896263122559,2.56726241111755,0.23237499594688,2.23767495155334,1.35629999637604,1.29855000972748,18.0655746459961,18.3049621582031,14.6119871139526,7.86600017547607,0.29100000858307,-5.42100048065186,-17.5990505218506,-9.79905033111572,7.07805013656616,-5.86200046539307,-3.25005006790161,0.36000001430511,-4.83518743515015,-7.94612503051758,-6.05137491226196,3.29216241836548,4.08168745040894,4.47658729553223,29.4680366516113,-28.491512298584,-18.4779376983643,-63.5569534301758,-42.9349517822266,-14.4499502182007,43.9590034484863,40.1520004272461,25.090051651001,18.0300006866455,6.1560001373291,-2.29695010185242,-4.49253749847412,-2.61731243133545,-1.6768125295639,3.57500004768372,1.7685250043869,1.68684995174408,-14.2280874252319,-9.05891227722168,-7.56580018997192,-6.13005018234253,-1.38000011444092,4.77705001831055,12.5080509185791,-5.72295045852661,-12.7440004348755,-0.16605000197887,-3.49905014038086,-9.36705017089844,10.7658376693726,4.97186231613159,2.44461250305176,8.4855375289917,1.2890625,1.48720002174377,-6.23287487030029,20.0250873565674,17.4591999053955,27.5280017852783,10.9669504165649,-0.32100000977516,-20.2500019073486,-18.1470012664795,-11.9610004425049,-18.351001739502,-4.01805019378662,-1.68600010871887,0.91121250391006,-2.45685005187988,-7.93058729171753,1.29937493801117,0.6183375120163,1.89103746414185,11.9560375213623,12.3620748519897,-22.3645114898682,-35.0940017700195,-60.7390518188477,-46.5049514770508,35.1270027160645,47.0620536804199,41.6490020751953,10.5570001602173,13.4370002746582,3.15405011177063,-4.81442499160767,-2.80719995498657,-1.85996246337891,1.70032501220703,0.50792497396469,0.46694999933243,-12.9886627197266,-7.9080376625061,-6.64592504501343,-4.10205030441284,-2.18400001525879,4.31805038452148,13.7290506362915,-4.68000030517578,-11.5489501953125,-0.95805007219315,-2.18204998970032,-9.63105010986328,SHAKE
2.4728000164032,1.06631255149841,2.10141253471375,0.60238748788834,0.85112500190735,0.34498751163483,19.8362998962402,13.0602998733521,9.07032489776611,4.40205001831055,-18.2160015106201,-43.2870025634766,-11.6370000839233,21.6690006256104,41.1799507141113,-1.91595005989075,7.45395040512085,13.7250003814697,-7.03601264953613,-5.13205003738403,-3.90211248397827,2.92545008659363,2.37682509422302,1.65838754177094,-18.2154502868652,-14.1834001541138,-10.895224571228,-22.8880519866943,-6.37200021743774,-4.18095016479492,32.1580505371094,17.9599514007568,6.43395042419434,-3.45795011520386,-0.48900002241135,4.13595008850098,-3.16978740692139,-2.34148740768433,-0.84589999914169,0.87752497196198,0.512600004673,1.29126250743866,-8.70292472839355,-7.28805017471313,-5.86753749847412,-2.01195001602173,6.63105010986328,19.2390003204346,-3.15405011177063,-10.6990509033203,-16.2100505828857,0.41505002975464,-9.86295032501221,-18.4129505157471,5.8348126411438,12.3631753921509,5.00115013122559,5.55637502670288,3.13981246948242,0.96057498455048,-2.4507999420166,14.7261123657227,19.5218372344971,23.5939502716064,16.8109512329102,8.94600009918213,-17.2140007019043,-16.7899513244629,-13.1629505157471,-17.2470016479492,-9.8700008392334,-3.82395029067993,1.77526247501373,1.03606247901917,1.82214999198914,0.74772500991821,0.74153751134872,0.72874999046326,17.7735252380371,14.5231628417969,10.6448373794556,2.66595005989075,-4.54995012283325,-30.1849517822266,-5.85795021057129,8.48295021057129,29.5120506286621,-0.69300001859665,4.42500019073486,13.0849504470825,1.80537497997284,-6.63643741607666,-3.47654986381531,-0.36519998311996,1.1504625082016,0.34347498416901,7.9609751701355,-15.4822244644165,-9.25319957733154,-49.4899520874023,-12.9870004653931,-6.30495023727417,40.8900032043457,28.2270011901855,6.37605047225952,12.9829502105713,-8.28000068664551,1.76805007457733,-2.60823750495911,1.83589994907379,10.2610750198364,-0.16609999537468,2.32663750648499,6.11600017547607,-7.60141229629517,-3.83102488517761,-1.66141247749329,-2.56695008277893,14.7280502319336,21.0900001525879,-2.12700009346008,-13.7040004730225,-15.4279508590698,-2.82600021362305,-14.2830009460449,-13.9639511108398,9.07596206665039,3.61322498321533,1.76728749275208,0.99646252393723,1.46107494831085,2.06346249580383,19.0605239868164,19.401388168335,16.4771747589111,19.6150512695313,13.1119508743286,5.7810001373291,-15.7000503540039,-13.8930006027222,-9.20205020904541,-8.44995021820068,-2.41695022583008,-1.63605010509491,0.97088748216629,1.18153750896454,2.21457505226135,2.2836000919342,2.0787250995636,1.71338748931885,13.6228122711182,10.51256275177,6.95241260528564,0.27600002288818,-13.4899501800537,-38.5290031433105,0.28305000066757,18.9580516815186,36.2400016784668,-1.86105012893677,6.00300025939941,12.8719501495361,2.21457505226135,-7.65105009078979,-4.27363729476929,1.71338748931885,0.47368749976158,-0.11247500032187,6.95241260528564,-18.1691131591797,-10.944037437439,-38.5290031433105,-22.3200016021729,-3.74295020103455,36.2400016784668,32.8570518493652,12.0649509429932,12.8719501495361,0.01005000062287,3.88905024528503,SHAKE
1.76728749275208,0.97088748216629,1.18153750896454,2.06346249580383,2.2836000919342,2.0787250995636,16.4771747589111,13.6228122711182,10.51256275177,5.7810001373291,0.27600002288818,-13.4899501800537,-9.20205020904541,0.28305000066757,18.9580516815186,-1.63605010509491,-1.86105012893677,6.00300025939941,2.21457505226135,2.21457505226135,-7.65105009078979,1.71338748931885,1.71338748931885,0.47368749976158,6.95241260528564,6.95241260528564,-18.1691131591797,-38.5290031433105,-38.5290031433105,-22.3200016021729,36.2400016784668,36.2400016784668,32.8570518493652,12.8719501495361,12.8719501495361,0.01005000062287,-4.27363729476929,-3.54433751106262,-2.75041246414185,-0.11247500032187,-0.58877497911453,-0.78526252508163,-10.944037437439,-8.63046264648438,-7.08839988708496,-3.74295020103455,-4.0489501953125,-0.74805003404617,12.0649509429932,4.41495037078857,-1.93800008296967,3.88905024528503,2.77305006980896,-3.1470000743866,-1.80454993247986,-0.08978749811649,8.41252517700195,-0.09322500228882,1.92142498493195,5.97671270370483,-5.37721252441406,-2.84803748130798,1.41542494297028,5.97000026702881,13.9480504989624,20.965051651001,-7.31100034713745,-12.1710004806519,-13.6200008392334,-10.9950008392334,-16.1050510406494,-13.581000328064,12.3430995941162,3.49387502670288,1.91317498683929,3.45881247520447,1.99086248874664,2.08890008926392,12.4948997497559,15.3393621444702,13.0908250808716,18.340950012207,4.90694999694824,-1.67895007133484,-13.7250003814697,-6.95400047302246,4.48695039749146,-6.87705039978027,-1.35600006580353,-1.40595006942749,3.29491257667542,-8.01638698577881,-5.80731248855591,1.66003751754761,-2.30725002288818,-1.92719995975494,5.12655019760132,-15.8364248275757,-12.3131246566772,-42.6499519348145,-19.6530017852783,-5.24895048141479,36.6760520935059,29.3710517883301,19.0759506225586,15.1540508270264,-1.23600006103516,-1.2190500497818,-3.5205500125885,-2.58197498321533,-1.43770003318787,-2.11598753929138,-1.9215624332428,-0.55659997463226,-7.51822519302368,-6.22297477722168,-4.61202478408813,-4.32000017166138,-0.03900000080466,8.46195030212402,2.93100023269653,-3.62100028991699,-9.20700073242188,0.14205001294613,-5.38095045089722,-12.2860507965088,11.4514122009277,3.91063737869263,2.31618738174438,6.26436233520508,2.56107497215271,2.41669988632202,3.93304991722107,15.7961378097534,13.4521751403809,22.9120502471924,6.83400011062622,-1.47105002403259,-15.3439502716064,-8.94105052947998,2.32500004768372,-11.7229509353638,-4.07595014572144,-1.99500012397766,3.00726246833801,-8.89941215515137,-6.93811225891113,1.67598748207092,-1.07497501373291,-1.89722502231598,6.3549747467041,-16.2728500366211,-12.9677619934082,-35.0359535217285,-21.1009502410889,-5.3299503326416,36.1639518737793,29.4640522003174,18.6280517578125,15.7690505981445,4.63395023345947,1.44195008277893,-4.5471248626709,-3.51889991760254,0.24722500145435,-1.77925002574921,-1.64903748035431,2.19862508773804,-7.94172477722168,-6.52671241760254,-2.77351260185242,-2.67000007629395,-0.09405000507832,16.9429512023926,2.68395018577576,-3.71205019950867,-13.5790510177612,0.73605000972748,-5.09595012664795,-16.135950088501,SHAKE
-3.5205500125885,-2.58197498321533,-1.43770003318787,-2.11598753929138,-1.9215624332428,-0.55659997463226,-7.51822519302368,-6.22297477722168,-4.61202478408813,-4.32000017166138,-0.03900000080466,8.46195030212402,2.93100023269653,-3.62100028991699,-9.20700073242188,0.14205001294613,-5.38095045089722,-12.2860507965088,11.4514122009277,3.91063737869263,2.31618738174438,6.26436233520508,2.56107497215271,2.41669988632202,3.93304991722107,15.7961378097534,13.4521751403809,22.9120502471924,6.83400011062622,-1.47105002403259,-15.3439502716064,-8.94105052947998,2.32500004768372,-11.7229509353638,-4.07595014572144,-1.99500012397766,3.00726246833801,-8.89941215515137,-6.93811225891113,1.67598748207092,-1.07497501373291,-1.89722502231598,6.3549747467041,-16.2728500366211,-12.9677619934082,-35.0359535217285,-21.1009502410889,-5.3299503326416,36.1639518737793,29.4640522003174,18.6280517578125,15.7690505981445,4.63395023345947,1.44195008277893,-4.5471248626709,-3.51889991760254,0.24722500145435,-1.77925002574921,-1.64903748035431,2.19862508773804,-7.94172477722168,-6.52671241760254,-2.77351260185242,-2.67000007629395,-0.09405000507832,16.9429512023926,2.68395018577576,-3.71205019950867,-13.5790510177612,0.73605000972748,-5.09595012664795,-16.135950088501,10.2355003356934,3.88382506370544,-0.22797499597073,2.35839986801147,1.01296246051788,1.01419997215271,15.8343620300293,18.2863998413086,14.2154378890991,17.521951675415,7.84695053100586,-4.95900011062622,-15.7050008773804,-13.8330001831055,7.3410005569458,-7.55505037307739,-3.46005010604858,-0.47205001115799,-1.11883747577667,-8.86366271972656,-5.34448766708374,-0.61256247758865,0.20460000634193,0.23003749549389,9.63173770904541,-20.7645626068115,-12.1187000274658,-48.3919525146484,-37.1860504150391,-3.60900020599365,38.9740524291992,37.1310005187988,16.8370513916016,14.6779508590698,4.72695016860962,-0.38595002889633,-3.3961124420166,-2.54347491264343,-0.06435000151396,-0.58643752336502,-0.3060750067234,3.10873746871948,-7.32737493515015,-5.61934995651245,-0.21285000443459,-1.11600005626678,1.51395010948181,7.27500057220459,3.56100010871887,-0.45405003428459,-2.59395003318787,1.357950091362,-2.40900015830994,-7.6360502243042,3.74989986419678,9.75809955596924,9.37103748321533,6.02799987792969,5.25057506561279,3.26287508010864,3.11038756370544,7.75596237182617,10.2924251556396,7.82295036315918,7.61895036697388,8.59200000762939,-2.50800013542175,-2.52900004386902,-1.99095010757446,-6.66600036621094,-5.1340503692627,-3.59205007553101,4.7991623878479,3.15053749084473,-0.17599999904633,2.92324995994568,3.37218737602234,4.01747512817383,8.33208751678467,5.81185007095337,-2.17153739929199,9.7170000076294,5.80695009231567,-11.0020503997803,4.41105031967163,8.73705005645752,15.5539503097534,-2.18204998970032,-1.357950091362,0.3570000231266,-2.22378754615784,-3.52481245994568,-3.24279999732971,3.26067495346069,-1.56406247615814,-2.12066245079041,-6.47941255569458,-8.83148765563965,-8.26375007629395,-13.3890008926392,-1.85400009155273,0.60900002717972,15.6520509719849,14.8999509811401,12.8500509262085,-2.03295016288757,-3.09705018997192,-2.1889500617981,SHAKE
-1.12090003490448,-1.3165625333786,-1.48183751106262,-0.34292501211166,0.50407499074936,0.78154999017715,-0.86198747158051,0.5986750125885,1.00471246242523,2.08395004272461,2.65395021438599,2.30400013923645,9.01995086669922,9.35700035095215,9.77400016784668,0.74505001306534,0.70695000886917,-0.22095000743866,-1.35478746891022,-1.1617374420166,-0.96263748407364,0.95727497339249,1.17878746986389,1.1368499994278,1.01598751544952,0.92785000801086,0.71142500638962,1.15995001792908,-0.16305001080036,-0.41505002975464,10.4029502868652,10.6210508346558,11.1120004653931,-0.74505001306534,-1.15200006961823,-1.40400004386902,-0.17765000462532,0.26028749346733,0.82747501134872,0.31968748569489,-0.08043749630451,-0.55879998207092,-0.26097500324249,-0.71499997377396,-1.24643754959106,-0.7950000166893,-1.75995004177094,-3.22605013847351,12.5920505523682,11.97705078125,7.56105041503906,-2.57895016670227,-3.36495018005371,-4.28400039672852,1.26362502574921,7.13019990921021,4.7163872718811,-0.69244998693466,0.36781248450279,-1.08597505092621,-1.48926246166229,3.24747490882874,14.3048124313354,-0.16605000197887,37.2820510864258,24.9420013427734,-1.98600006103516,-21.2260513305664,-26.8309516906738,-7.75605058670044,-11.8189506530762,0.01305000018328,0.21463750302792,-1.24685001373291,-1.52776253223419,0.33261248469353,1.87481248378754,2.97701239585876,16.8785381317139,15.8886747360229,14.5226125717163,6.78105020523071,-17.7400512695313,-47.8480529785156,-21.8970012664795,-5.53200006484985,17.4760513305664,5.32095003128052,10.0260000228882,20.5270519256592,-0.50393748283386,7.62877511978149,8.95716285705566,5.88775014877319,12.2912626266479,9.01669979095459,14.5688123703003,18.5810623168945,19.9458866119385,-46.0480537414551,-24.8530502319336,-12.7189502716064,31.3579521179199,39.2500534057617,20.3110504150391,23.5009517669678,18.2550010681152,2.68200016021729,7.73162508010864,5.99128723144531,3.94803738594055,7.98600006103516,5.63474988937378,6.53977489471436,17.350025177002,13.1859750747681,9.14663791656494,-7.56705045700073,-2.63205003738403,-0.28500002622604,13.9020004272461,4.1850004196167,-2.0029501914978,1.08795011043549,-3.31695008277893,-6.69000053405762,3.56496238708496,11.4072751998901,8.29069995880127,8.60035037994385,13.5995750427246,10.9751129150391,6.86936235427856,1.09298753738403,17.6093502044678,1.28205001354218,22.5100517272949,23.5129508972168,-5.53005027770996,-15.8940010070801,-18.4369506835938,-6.30195045471191,-6.10095024108887,-1.81095004081726,5.70349979400635,2.98993754386902,2.48792505264282,9.96847534179688,7.73286247253418,7.31788730621338,15.5428628921509,12.6990871429443,11.4599370956421,5.07405042648315,-25.9090518951416,-41.6179504394531,-20.3839511871338,10.10205078125,29.5510520935059,0.85800004005432,6.81195020675659,11.2390508651733,12.4642372131348,9.63379955291748,8.61616230010986,9.58911228179932,6.21843767166138,4.79352474212646,25.4271869659424,19.3289241790771,16.2893505096436,-33.0250511169434,-8.34000015258789,-6.5779504776001,37.5859527587891,17.4000015258789,10.6260004043579,2.74005007743835,5.36100006103516,5.00505018234253,SHAKE
11.4072751998901,8.29069995880127,5.70349979400635,13.5995750427246,10.9751129150391,9.96847534179688,1.09298753738403,17.6093502044678,15.5428628921509,22.5100517272949,23.5129508972168,5.07405042648315,-15.8940010070801,-18.4369506835938,-20.3839511871338,-6.10095024108887,-1.81095004081726,0.85800004005432,2.98993754386902,2.48792505264282,12.4642372131348,7.73286247253418,7.31788730621338,9.58911228179932,12.6990871429443,11.4599370956421,25.4271869659424,-25.9090518951416,-41.6179504394531,-33.0250511169434,10.10205078125,29.5510520935059,37.5859527587891,6.81195020675659,11.2390508651733,2.74005007743835,9.63379955291748,8.61616230010986,7.39928722381592,6.21843767166138,4.79352474212646,3.69297504425049,19.3289241790771,16.2893505096436,13.6354627609253,-8.34000015258789,-6.5779504776001,-5.38800048828125,17.4000015258789,10.6260004043579,5.01600027084351,5.36100006103516,5.00505018234253,1.557000041008,4.96869993209839,3.51243758201599,6.34878730773926,2.53206253051758,2.75165009498596,11.543399810791,10.0116500854492,8.78157520294189,1.15719997882843,0.40095001459122,1.90695011615753,8.69700050354004,-2.16795015335083,-4.04700040817261,-9.88005065917969,-6.43695020675659,-6.93000030517578,-5.67000007629395,12.3668870925903,7.89511251449585,3.6258749961853,9.7376127243042,9.93478775024414,7.69780015945435,21.4238758087158,17.8615245819092,13.5089626312256,31.1359519958496,27.2530517578125,-5.09805011749268,-16.7710514068604,-18.8010005950928,-15.6619510650635,-6.56100034713745,-5.79195022583008,-3.34095025062561,1.29291248321533,6.19217491149902,9.63916206359863,5.98028755187988,11.7237997055054,5.49903726577759,12.6245622634888,21.8953628540039,20.6492004394531,-66.4420547485352,-62.7570037841797,-14.3500509262085,30.5350513458252,40.3200035095215,23.0020503997803,22.3180503845215,15.6070508956909,-6.40800046920776,7.6707124710083,7.12071228027344,4.11331224441528,3.68884992599487,3.25971245765686,3.5014374256134,14.5491495132446,13.331862449646,9.27355003356934,-5.95800018310547,-4.07805013656616,4.49700021743774,5.2819504737854,-2.01705002784729,-8.85494995117188,3.07500004768372,1.07805001735687,-5.8090500831604,2.91431260108948,-7.07011222839355,-8.95991230010986,5.61343765258789,6.77104997634888,-4.04896259307861,5.94522476196289,-14.1560373306274,-18.2573871612549,9.52995014190674,17.8570499420166,26.6209506988525,-12.0400505065918,-15.7819509506226,-16.2390003204346,-7.45695018768311,-10.1170501708984,-11.0050506591797,-6.79868745803833,-4.84563732147217,-3.55203747749329,-4.59071254730225,-3.57857489585876,-2.12891244888306,-16.8658866882324,-14.6657495498657,-12.0202503204346,25.0950012207031,15.5130004882813,4.84905004501343,-15.7480506896973,-16.2850513458252,-14.5030508041382,-5.31105041503906,-2.38500022888184,-1.63605010509491,-2.79193758964539,-1.01406252384186,8.34982490539551,-0.83916246891022,1.88581252098084,2.87072491645813,-9.3711748123169,-3.60882496833801,13.6259746551514,-9.4750509262085,-45.6720008850098,-40.1580009460449,-5.12505006790161,28.2120018005371,34.6050033569336,1.84005010128021,15.1450510025024,7.83000040054321,SHAKE
-3.55203747749329,-2.79193758964539,-1.01406252384186,-2.12891244888306,-0.83916246891022,1.88581252098084,-12.0202503204346,-9.3711748123169,-3.60882496833801,4.84905004501343,-9.4750509262085,-45.6720008850098,-14.5030508041382,-5.12505006790161,28.2120018005371,-1.63605010509491,1.84005010128021,15.1450510025024,8.34982490539551,5.55940008163452,4.30498743057251,2.87072491645813,0.92468750476837,1.06149995326996,13.6259746551514,17.2719249725342,15.805212020874,-40.1580009460449,-23.2969512939453,-11.8999509811401,34.6050033569336,31.8799514770508,21.8119506835938,7.83000040054321,0.30705001950264,0.52995002269745,3.53196239471436,3.08275008201599,1.89282500743866,0.604587495327,0.46048748493195,0.41346248984337,11.7658748626709,10.1668872833252,8.85445022583008,-3.22800016403198,-2.40405011177063,-0.03405000269413,9.52005004882812,5.84505033493042,0.81900006532669,5.25405025482178,3.7020001411438,-2.14605021476746,0.01594999991357,1.59280002117157,12.0458250045776,0.82238751649857,5.07471227645874,9.3449125289917,7.61474990844727,8.04773712158203,9.8720874786377,3.41505026817322,6.28605031967163,11.2540502548218,-2.02905011177063,-3.45795011520386,-4.85700035095215,-5.81205034255981,-6.03405046463013,-6.36195039749146,8.20806217193604,5.15075016021729,1.78887498378754,5.1117000579834,4.6941123008728,4.12101268768311,15.2378873825073,13.791937828064,10.8796873092651,23.3479518890381,18.5899505615234,-3.4459502696991,-8.2300500869751,-9.36000061035156,-6.26505041122437,-7.70595026016235,-4.27005004882813,6.12000036239624,0.63359999656677,13.4479122161865,6.57456254959106,5.45627498626709,11.7338371276855,9.4459753036499,9.06276226043701,24.2881374359131,21.2905006408691,-47.6230506896973,-44.9340019226074,-12.235050201416,24.4170017242432,25.0039520263672,20.4450016021729,17.5459499359131,-5.59395027160645,-18.1350002288818,5.41750001907349,4.66331243515015,3.70067501068115,8.74170017242432,7.659987449646,7.83928728103638,18.1834125518799,15.166111946106,10.967137336731,-9.80805015563965,-6.6540002822876,0.19695000350475,12.0600004196167,5.65095043182373,-0.48495003581047,-7.61700057983398,-1.67205011844635,-2.06505012512207,2.34066247940063,5.04693746566772,7.17364978790283,7.35776233673096,9.99693775177002,8.27089977264404,8.02133750915527,6.00792503356934,21.0396995544434,9.05100059509277,20.7660007476807,20.1030006408691,-7.19595050811768,-14.0839509963989,-17.1229515075684,-10.2270002365112,-18.1729507446289,-0.79305005073547,3.22987508773804,2.38947486877441,14.5154628753662,7.2334623336792,7.16856241226196,13.1361999511719,16.4819869995117,14.6547498703003,23.3149127960205,-11.7640504837036,-30.0990009307861,-42.4900512695313,-4.63905000686646,16.5450000762939,33.2190017700195,13.2580509185791,11.9580001831055,-5.30895042419434,-11.0988626480103,-7.54503726959229,-5.22211265563965,-6.82756233215332,-4.56720018386841,-3.52907490730286,-23.0844631195068,-17.5697498321533,-13.2654495239258,-25.8709506988525,-12.657000541687,-6.17505025863647,29.1049518585205,19.4230518341064,11.9959506988525,-9.3190507888794,-6.43395042419434,-1.79205012321472,SHAKE
2.56134986877441,1.70266246795654,2.00818753242493,6.53633737564087,5.88912487030029,15.2910995483398,11.8882503509521,10.5012874603271,20.2401371002197,-12.5749502182007,-32.0170516967773,-44.4979515075684,5.23200035095215,19.5520515441895,27.8290519714355,3.75000023841858,9.76905059814453,11.1720008850098,-8.79972457885742,-5.26349973678589,-4.22620010375977,-5.86932516098022,-3.39116239547729,-2.89286255836487,-14.5891628265381,-8.15429973602295,-6.15353727340698,-16.8280506134033,-6.53895044326782,-6.4960503578186,25.4010009765625,11.392050743103,8.49495029449463,-2.69400024414063,4.54500007629395,4.30305004119873,-2.63587498664856,-2.19615006446838,-1.90203750133514,-1.08955001831055,-0.05637500062585,1.33718752861023,-2.66282486915588,-1.27902495861053,-0.69244998693466,-1.65705013275146,1.44195008277893,3.47700023651123,3.3070502281189,1.675950050354,0.47895002365112,-3.39300012588501,-6.86505031585693,-8.12205028533936,4.45376253128052,8.97751235961914,8.97668743133545,6.61416244506836,7.38897514343262,6.95708751678467,0.23416249454021,3.88135004043579,5.93532514572144,6.39405012130737,10.2480001449585,17.8189506530762,-1.51695013046265,-4.014000415802,-7.28700017929077,-5.03805017471313,-5.12400007247925,-7.31505012512207,5.04336261749268,1.09986245632172,-0.03258749842644,5.63915014266968,4.99097490310669,3.2658998966217,11.0613250732422,10.3061752319336,8.93117523193359,21.1519508361816,11.6830501556396,-33.3940505981445,-8.30400085449219,-10.3920001983643,10.8460502624512,-8.19405078887939,-6.00600051879883,10.7650508880615,-1.36234998703003,-11.8061628341675,-8.56487464904785,2.50552487373352,-11.6765003204346,-5.44885015487671,11.1253995895386,-26.5234756469727,-15.4092121124268,-57.6139526367188,-54.1380043029785,-5.69205045700073,25.4040012359619,28.2769508361816,18.3960018157959,22.7179508209229,15.5680503845215,-1.25505006313324,-6.98444986343384,-4.51426267623901,-3.14036250114441,-4.09928750991821,-2.45533752441406,-1.1944625377655,-11.6281003952026,-6.51021242141724,-4.5075249671936,-2.86395025253296,-5.29395008087158,-2.40000009536743,11.706000328064,0.8479500412941,-4.21695041656494,0.64500004053116,-1.59105002880096,-5.05995035171509,2.38768744468689,9.77377510070801,6.75812482833862,3.34523749351501,5.86189985275269,5.79699993133545,-1.51167500019073,15.1100120544434,13.6280374526978,20.7070503234863,26.9250011444092,10.1410503387451,-14.5270509719849,-13.7610006332397,-16.8810005187988,-15.6760511398315,-8.60295009613037,-5.54805040359497,3.25861239433289,2.26957488059998,-6.27976226806641,4.35957479476929,3.68321251869202,5.58923768997192,11.073974609375,9.49396228790283,22.7488250732422,-20.1270008087158,-49.324951171875,-52.3489532470703,8.67495059967041,32.131950378418,37.2820510864258,5.83095026016235,13.3230009078979,6.52995014190674,-8.72286224365234,-5.98729991912842,-4.87561225891113,-2.94744992256165,-2.03843760490417,-1.78172504901886,-15.9631996154785,-8.99277496337891,-6.95983743667603,-13.3920001983643,-3.40005016326904,-0.23505000770092,21.0510005950928,3.62505006790161,-2.29200005531311,3.13995003700256,5.34705018997192,1.35300004482269,SHAKE
6.25776243209839,3.96206259727478,1.92912495136261,2.3205873966217,2.37077498435974,3.03325009346008,11.3763370513916,10.4645748138428,7.43173742294312,8.41695022583008,1.53600001335144,-20.4529514312744,-9.33405017852783,-4.89000034332275,22.6930503845215,-0.25500002503395,1.93005013465881,7.03695011138916,-9.41256237030029,-6.49055004119873,-3.5986499786377,-2.77612495422363,-3.39432501792908,-2.32773756980896,-19.1098880767822,-15.572699546814,-9.22432518005371,-31.2960014343262,-17.6820011138916,-3.67095017433167,32.8140029907227,27.6379508972168,13.8940505981445,2.44995021820068,0.18300001323223,1.8469500541687,-2.77337503433228,-2.0934374332428,-1.57987499237061,-1.88732504844666,-1.35547494888306,-0.518374979496,-7.10022497177124,-5.50233745574951,-3.76928758621216,-4.72005033493042,-3.84795022010803,-0.71895003318787,9.43095016479492,4.66695022583008,1.44600009918213,1.52595007419586,-0.74805003404617,-3.40095019340515,-0.1530375033617,2.36183738708496,9.37241268157959,1.724249958992,3.85109996795654,3.51064991950989,-0.6599999666214,0.62218749523163,12.1913003921509,5.96700048446655,7.95705032348633,18.8290500640869,-2.10300016403198,-3.60900020599365,-7.84695053100586,-5.47200012207031,-4.875,-4.546950340271,2.27851247787476,1.21934998035431,0.2924624979496,3.85109996795654,3.70631241798401,2.86907505989075,11.2235746383667,9.72647476196289,7.58353757858276,17.4340515136719,11.90505027771,-22.9000511169434,-10.2370500564575,-11.2230005264282,5.58900022506714,-3.25200009346008,-3.02895021438599,-0.09900000691414,2.82864999771118,7.95533752441406,6.6719126701355,11.3528251647949,7.19716262817383,3.5813250541687,28.4902744293213,26.6755504608154,19.2813491821289,-46.7470512390137,-19.6939506530762,-9.41700077056885,33.0100517272949,35.6110534667969,14.8830003738403,8.20604991912842,6.75705051422119,7.93995046615601,5.7578125,3.8671875,2.79290008544922,2.49919986724854,0.80533748865128,0.48358750343323,15.9429874420166,11.9414625167847,11.1768245697021,-6.66105031967163,1.43700003623962,5.47695016860962,6.82200050354004,-2.97000002861023,-5.15805006027222,4.89900016784668,-4.20300006866455,-7.7509503364563,2.24743747711182,7.36862516403198,10.809287071228,1.06081247329712,10.4248371124268,7.17969989776611,9.03581237792969,8.94547462463379,20.0373249053955,10.0830001831055,18.1950016021729,24.3910503387451,-7.39200019836426,-10.4790000915527,-11.6830501556396,-9.70500087738037,-10.3630504608154,-3.34995007514954,4.99427509307861,3.4036750793457,1.50562500953674,5.59294986724854,4.97378730773926,4.28958749771118,14.9287872314453,12.9860496520996,11.250524520874,6.22395038604736,-7.06395053863525,-45.0109519958496,-11.4310503005981,-3.50400018692017,23.802001953125,-0.85995006561279,0.58200001716614,9.63495063781738,-9.86287498474121,-8.57326221466064,-7.04522514343262,-11.0232372283936,-5.41681241989136,-3.60373759269714,-27.5840129852295,-18.7999629974365,-13.8177871704102,-36.4080009460449,-20.484001159668,-11.6010007858276,29.086051940918,27.7360515594482,19.4280014038086,9.60900020599365,8.05500030517578,8.78505039215088,SHAKE
-9.86287498474121,-8.57326221466064,-7.04522514343262,-11.0232372283936,-5.41681241989136,-3.60373759269714,-27.5840129852295,-18.7999629974365,-13.8177871704102,-36.4080009460449,-20.484001159668,-11.6010007858276,29.086051940918,27.7360515594482,19.4280014038086,9.60900020599365,8.05500030517578,8.78505039215088,-4.95935010910034,-4.40673732757568,-4.05858755111694,-2.45574998855591,-2.16108751296997,-1.7829624414444,-7.65146255493164,-5.55238723754883,-3.42443752288818,-5.86200046539307,-4.17405033111572,-1.48305010795593,9.20400047302246,5.29395008087158,1.97100007534027,7.72200059890747,4.41300010681152,0.85095006227493,-3.81287503242493,-3.4896125793457,-2.55791258811951,-1.58688747882843,-1.92197501659393,1.14936244487762,-1.75161254405975,-1.00471246242523,1.53161251544952,1.71495008468628,4.03800010681152,4.91895008087158,-0.24495001137257,-1.60005009174347,-3.76695013046265,-2.08605003356934,-4.64100027084351,-6.07500028610229,9.43566226959228,15.4732875823975,7.14394998550415,9.42713737487793,5.66898727416992,5.10716247558594,6.03501224517822,11.292875289917,10.8219375610352,8.778000831604,24.4939517974854,20.2660503387451,-7.97400045394897,-10.7280006408691,-9.50205039978027,-6.91500043869019,-7.83195018768311,-6.82005023956299,4.89898729324341,3.36929988861084,2.41436243057251,4.28711271286011,3.42223739624023,2.73267507553101,9.62417507171631,8.55607509613037,7.53018760681152,11.131950378418,-2.58405017852783,-41.8909530639649,-8.98905086517334,-4.7920503616333,10.8250503540039,-7.29600048065186,-3.82200026512146,7.74105024337768,1.66622495651245,-7.65696239471436,-9.67037487030029,1.28232502937317,-11.2870998382568,-8.5830249786377,7.42321252822876,-26.7173500061035,-18.7826366424561,-56.0130043029785,-31.957052230835,-4.46595001220703,17.1049499511719,21.0960006713867,29.4049510955811,18.1609516143799,19.9999504089355,18.7140007019043,-9.18953704833984,-6.43238735198975,-5.5650372505188,-6.45328760147095,-4.62398767471313,-4.19086265563965,-13.1441745758057,-7.48591232299805,-5.21056270599365,-8.93805027008057,-8.91000080108643,-2.34705018997192,17.8620014190674,6.43095016479492,1.59495007991791,13.0039510726929,6.26700019836426,2.49300003051758,-5.39852476119995,-5.05862474441528,-1.03908753395081,-3.18449997901917,-1.55086255073547,3.63549995422363,-2.27122497558594,0.17146250605583,0.80258750915527,2.80695009231567,5.43300008773804,16.6909503936768,-0.74100005626678,-2.52900004386902,-7.66305017471313,-1.300950050354,-5.27505016326904,-12.2860507965088,16.1805877685547,9.17468738555908,4.80782508850098,9.48131275177002,6.16632509231567,4.07660007476807,10.9756622314453,10.3258371353149,8.79257488250732,23.3310012817383,14.1490507125854,0.94200003147125,-6.61695051193237,-9.21405029296875,-4.76100015640259,-10.2120008468628,-5.10495042800903,-1.65495002269745,3.36242508888245,-7.07616233825684,-8.5925121307373,3.62120008468628,-15.4395999908447,-6.23012495040894,7.92577505111694,-25.6101989746094,-11.6866750717163,-14.3230504989624,-47.0100021362305,-16.6339511871338,4.59705018997192,27.5509510040283,25.7149505615234,3.36900019645691,17.0770511627197,2.36400008201599,SHAKE
16.1805877685547,9.17468738555908,4.80782508850098,9.48131275177002,6.16632509231567,4.07660007476807,10.9756622314453,10.3258371353149,8.79257488250732,23.3310012817383,14.1490507125854,0.94200003147125,-6.61695051193237,-9.21405029296875,-4.76100015640259,-10.2120008468628,-5.10495042800903,-1.65495002269745,3.36242508888245,-7.07616233825684,-8.5925121307373,3.62120008468628,-15.4395999908447,-6.23012495040894,7.92577505111694,-25.6101989746094,-11.6866750717163,-14.3230504989624,-47.0100021362305,-16.6339511871338,4.59705018997192,27.5509510040283,25.7149505615234,3.36900019645691,17.0770511627197,2.36400008201599,-6.20413732528687,-4.00839996337891,-3.16071248054504,-3.88093757629395,-2.12409996986389,-1.20628750324249,-7.48701238632202,-4.22042512893677,-3.01688742637634,-13.6740007400513,-6.57000017166138,-3.06795024871826,16.8919506072998,2.21700000762939,-3.81300020217896,1.54305005073547,-0.01995000056922,-3.550950050354,-2.16122508049011,7.65778732299805,7.03477478027344,0.11632499843836,9.37282466888428,5.44403743743896,-1.83974993228912,-8.88648700714111,18.6059494018555,1.1910001039505,43.8430519104004,14.8840503692627,-10.7200508117676,-18.4420509338379,-27.199951171875,-8.7180004119873,-21.1930503845215,-5.83305025100708,7.03477478027344,2.34684991836548,1.29964995384216,5.44403743743896,4.07494974136353,3.74041247367859,18.6059494018555,15.1097373962402,13.4595994949341,14.8840503692627,-21.2040004730225,-51.3390007019043,-27.199951171875,-4.35195016860962,19.8730506896973,-5.83305025100708,4.83495044708252,18.8650512695313,0.21340000629425,10.5800752639771,10.5619249343872,5.63887500762939,9.06949996948242,2.81503748893738,15.84494972229,24.1469249725342,20.8184623718262,-46.4550018310547,-37.3180503845215,-10.6069507598877,35.1870002746582,37.0570526123047,15.1230010986328,20.377950668335,22.0620002746582,17.2180500030518,7.98613739013672,6.73653745651245,4.67637491226196,1.05228745937347,0.36300000548363,0.34540000557899,14.5506620407104,12.2882375717163,8.04539966583252,-2.35695004463196,2.75895023345947,15.892050743103,-1.79205012321472,-7.00200033187866,-13.7869510650635,-0.8770500421524,-9.86505031585693,-19.045051574707,-19.6784496307373,-15.1673498153687,-9.82973766326904,-21.9080123901367,-10.5881872177124,-2.5471875667572,-10.7786245346069,-11.7793502807617,-8.58261203765869,24.1180515289307,26.5300521850586,2.57205009460449,-15.5520009994507,-15.0949506759644,-9.84600067138672,-15.2190008163452,-8.28299999237061,-0.95100003480911,-8.24890041351318,-6.64716243743896,12.4253253936768,0.06723749637604,0.95149999856949,6.12438726425171,-6.66256237030029,-5.43867492675781,18.50612449646,-6.22305011749268,-27.2640018463135,-40.7749519348145,3.25395011901855,20.3569507598877,36.6300010681152,-0.29805001616478,7.86405038833618,13.7850008010864,8.70732498168945,7.47147512435913,4.92951250076294,3.11327505111694,2.06731247901917,0.35983750224113,14.3974876403809,12.1635246276855,7.27911233901978,-8.46000003814697,-5.55300045013428,-3.32895016670227,18.8959503173828,11.3899507522583,-1.58400011062622,11.260950088501,8.84505081176758,-3.50805020332336,SHAKE
15.3077373504639,7.92453765869141,5.16573762893677,4.47699975967407,3.52426242828369,3.40779995918274,11.608437538147,11.2535495758057,10.5624752044678,23.6950511932373,16.0500011444092,5.12700033187866,-12.4900503158569,-13.1070003509521,-9.57600021362305,-15.8770503997803,-1.97595012187958,2.48805022239685,1.93448746204376,1.92197501659393,-16.207950592041,3.95037508010864,4.79379987716675,-3.95106244087219,8.44016265869141,6.15298748016357,-20.4701747894287,-15.738000869751,-43.9860038757324,-48.9589538574219,16.381950378418,32.2200012207031,38.0220031738281,8.87400054931641,7.90395021438599,1.6840500831604,-9.17193698883057,-6.54582500457764,-3.75388741493225,-3.59053754806519,-2.60782504081726,-1.78158748149872,-17.812162399292,-13.956937789917,-8.51963710784912,-30.1420516967773,-12.6739501953125,-2.41605019569397,32.449951171875,19.3080005645752,1.73400008678436,-3.00600004196167,-1.53495001792908,1.81605005264282,-2.75632500648499,-0.54944998025894,8.86256217956543,-1.40841245651245,0.96043747663498,4.68971252441406,-6.97578763961792,-3.78235006332397,17.4832630157471,0.71205002069473,19.8570003509521,23.1439514160156,-4.86195039749146,-16.5289516448975,-16.8780002593994,-3.0130500793457,-16.5790500640869,-7.42095041275024,5.59707498550415,1.79753744602203,1.51964998245239,4.1357250213623,3.36751246452332,2.9438750743866,16.2623996734619,12.5505876541138,9.76291275024414,9.37395000457764,-3.67605018615723,-27.1039505004883,-16.2850513458252,5.6050500869751,28.2619514465332,-1.08300006389618,2.42805004119873,4.4040002822876,2.12575006484985,-8.36934947967529,-5.51897478103638,1.81445002555847,-2.1455500125885,-1.38187503814697,6.42427492141724,-18.1431255340576,-12.163800239563,-51.4270515441895,-42.612003326416,-4.51605033874512,40.0849533081055,39.5680503845215,15.7159509658813,6.61605024337769,0.28095000982285,0.30495002865791,-3.30577492713928,-2.48586249351501,9.14484977722168,-1.46794998645782,-1.24409997463226,5.64464998245239,-7.45346260070801,-6.05068731307983,3.2522873878479,0.37200000882149,5.94795036315918,22.0210514068604,-1.75095009803772,-7.42305040359497,-14.6350507736206,-0.8890500664711,-7.81095027923584,-13.94700050354,11.2144994735718,5.29718732833862,3.18779993057251,4.10492515563965,3.06212496757507,3.10048747062683,13.3403873443604,16.1192626953125,14.1909627914429,24.6139507293701,17.4070510864258,6.46500015258789,-15.0730504989624,-15.0370502471924,-12.0010509490967,-9.20205020904541,-1.07100009918213,3.46800017356873,1.74886250495911,1.1921249628067,1.48596251010895,3.32433748245239,3.42072486877441,3.67826247215271,12.3762378692627,10.2679500579834,7.65105009078979,-1.95405006408691,-13.9540510177612,-37.7920532226563,-2.09595012664795,16.0279502868652,30.7960510253906,3.56595015525818,3.85995006561279,5.7180004119873,-8.73152542114258,-4.87506246566772,-3.91654992103577,-1.72493743896484,-0.82582497596741,-0.84026247262955,-18.2428131103516,-10.7300872802734,-8.17258739471436,-26.3809509277344,-3.54705023765564,-3.331050157547,31.8589515686035,14.6560506820679,8.64405059814453,1.60005009174347,6.08700037002563,5.02905035018921,SHAKE
11.951774597168,8.58673763275146,5.52158737182617,4.40412521362305,3.42237496376038,3.47091245651245,11.1720123291016,12.9607496261597,12.2650003433228,21.1710014343262,18.8059501647949,9.87195014953613,-10.7779502868652,-11.0959501266479,-9.71505069732666,-5.30205011367798,-0.9300000667572,0.75495004653931,3.31264996528625,2.16177487373352,-0.7177500128746,3.5561625957489,3.24348759651184,6.41960000991821,11.1942873001099,6.56713724136353,-9.73610019683838,1.47795009613037,-36.1590003967285,-49.0090522766113,-2.44800019264221,31.3870506286621,36.9109535217285,-0.94395005702972,7.0090503692627,6.7020001411438,-7.57597494125366,-4.53131246566772,-3.25311255455017,-5.55637502670288,-4.36906242370605,-3.46224999427795,-17.2756366729736,-10.6320495605469,-6.80267477035522,-29.3260517120361,-4.72005033493042,-0.4120500087738,32.6059532165527,12.7000503540039,-2.27805018424988,1.96200013160706,5.79495048522949,-1.34595000743866,-2.6420624256134,11.5445003509521,10.0445127487183,-2.67354989051819,6.30698728561401,3.75251245498657,-5.34476232528687,8.36660003662109,15.0687627792358,6.88695049285889,24.3889503479004,22.9960517883301,-7.78995037078857,-13.9740009307861,-14.451000213623,-8.425950050354,-14.3209505081177,-8.69700050354004,7.14834976196289,5.94673728942871,3.62724995613098,3.21254992485046,2.92201256752014,1.82105004787445,13.9037246704102,13.2441377639771,7.01291227340698,12.0580501556396,2.74695014953613,-32.0580024719238,-13.6410007476807,-6.59505033493042,28.7290515899658,-3.51300024986267,-1.52805006504059,7.44000053405762,6.85506248474121,-9.79027462005615,-8.35491275787354,-1.02478754520416,-5.89201259613037,-5.71092510223389,-4.69163751602173,-16.6556491851807,-12.9404001235962,-52.3230018615723,-35.5699501037598,-10.5619506835938,35.1220512390137,34.1689529418945,25.7629508972168,9.68100070953369,7.62600040435791,5.7330002784729,-5.77981233596802,-4.61999988555908,-3.45963740348816,-4.05886268615723,-3.66024994850159,-1.59458744525909,-7.35666227340698,-5.89655017852783,-2.57537508010864,-6.30195045471191,-3.550950050354,7.76100015640259,8.36100006103516,1.14000010490417,-7.47105026245117,5.31795024871826,0.37395000457764,-10.2409505844116,10.7413625717163,12.2628002166748,4.88784980773926,8.06671237945557,4.51247501373291,4.20172500610352,4.47163724899292,14.4409370422363,13.1485748291016,19.1190013885498,25.453950881958,6.26205015182495,-13.8400506973267,-14.9149503707886,-11.1109504699707,-11.026050567627,-8.4330005645752,0.68505001068115,1.65151250362396,1.77388751506805,-8.61671257019043,3.93318748474121,4.01788759231567,-3.75938749313354,10.0592250823975,7.34112501144409,-17.3720245361328,-18.9349517822266,-42.9370536804199,-20.3299503326416,20.6170501708984,33.5040016174316,31.2430515289307,6.63795042037964,12.256950378418,-1.93800008296967,-4.86089992523193,-3.97278738021851,-2.53632497787476,-2.13702487945557,-2.05603742599487,-0.74360001087189,-10.2291746139526,-7.87283754348755,-4.25053739547729,-3.64005017280579,-2.84700012207031,1.76805007457733,13.1640005111694,6.19905042648315,-3.19995021820068,4.91895008087158,4.26495027542114,-3.16800022125244,SHAKE
0.08249999582767,1.20284998416901,1.33993744850159,1.53106248378754,1.06548750400543,0.63524997234344,1.30460000038147,1.63941252231598,1.37472498416901,3.6780002117157,2.58900022506714,2.65395021438599,8.1670503616333,8.94105052947998,9.28305053710938,-2.46000003814697,-2.2630500793457,-2.27505016326904,1.16132497787476,0.29370000958443,-0.25905001163483,-0.02337500080466,-0.08951249718666,0.03918749839067,0.50599998235703,-0.25808748602867,-0.47382500767708,2.91000008583069,2.26605010032654,1.89195013046265,9.58500003814697,10.7389507293701,10.5090007781982,-1.04895007610321,0.26595002412796,0.2710500061512,-0.79048746824265,-0.86900001764297,-0.72311252355576,0.27032500505447,0.39544999599457,0.40988749265671,-0.56512498855591,-0.54367500543594,-0.54546248912811,2.47695016860962,2.54595017433167,1.357950091362,10.5379505157471,11.2410001754761,11.6220006942749,-0.66405004262924,-1.27695000171661,-0.82905006408691,-0.4794625043869,-0.32587498426437,1.05118751525879,0.28558748960495,0.13282500207424,-0.18218749761581,-0.65491247177124,-0.81908750534058,-0.30250000953674,-0.08895000070333,-0.8359500169754,22.57200050354,10.8460502624512,7.28400039672852,-15.4110012054443,-0.42900002002716,-1.27695000171661,-20.002950668335,6.21280002593994,-0.57859998941422,-2.58541250228882,-1.78186249732971,-1.88828754425049,-0.35406249761581,7.70481252670288,14.1248245239258,14.3389120101929,38.3880004882813,0.8479500412941,-32.719051361084,-17.131950378418,-22.5820503234863,-4.44495010375977,-20.7180004119873,2.67000007629395,18.4650001525879,0.12677499651909,8.81787490844727,7.44631242752075,9.35192489624023,8.30348777770996,6.54169988632202,17.2275123596191,20.529712677002,18.6454124450684,-44.0389518737793,-15.3979511260986,-9.11595058441162,34.8439521789551,23.8669509887695,13.8750009536743,27.4200019836426,10.0279502868652,12.0679502487183,5.50110006332397,4.20296239852905,4.35489988327026,3.99355006217957,2.66763758659363,0.61641252040863,14.2340002059937,9.82877540588379,1.78461253643036,-3.84300017356873,5.58195018768311,25.7179508209229,-2.47200012207031,-17.965051651001,-22.6530017852783,3.63000011444092,-8.06205081939697,-19.2000007629395,-11.768762588501,-9.78958702087402,-8.59732532501221,-8.32218742370605,-6.89012479782104,-4.45142507553101,-12.1526622772217,-10.3666753768921,-8.50354957580566,23.7430515289307,10.0740003585815,-1.34400010108948,-17.355001449585,-16.2610511779785,-9.21405029296875,-10.0420503616333,-9.40095043182373,-6.13200044631958,-6.47900009155273,8.88167476654053,7.53307485580444,-1.85033750534058,4.89128732681274,2.9027624130249,-5.89242506027222,18.5734996795654,16.6881008148193,-37.3110008239746,-30.3670520782471,-9.92700004577637,29.7210006713867,35.3260498046875,24.3210010528564,18.211950302124,10.0110006332397,3.62595009803772,5.65262508392334,4.09048748016357,2.93493747711182,1.04678750038147,0.84383749961853,1.35616254806519,12.34255027771,8.87232494354248,9.14155006408691,-3.70005011558533,0.3790500164032,4.23405027389526,8.94495010375977,-1.07100009918213,-3.41295027732849,2.9719500541687,-2.52405023574829,-5.38800048828125,SHAKE
