gyro_x_0,gyro_y_0,gyro_z_0,acc_x_0,acc_y_0,acc_z_0,gyro_x_1,gyro_y_1,gyro_z_1,acc_x_1,acc_y_1,acc_z_1,gyro_x_2,gyro_y_2,gyro_z_2,acc_x_2,acc_y_2,acc_z_2,gyro_x_3,gyro_y_3,gyro_z_3,acc_x_3,acc_y_3,acc_z_3,gyro_x_4,gyro_y_4,gyro_z_4,acc_x_4,acc_y_4,acc_z_4,gyro_x_5,gyro_y_5,gyro_z_5,acc_x_5,acc_y_5,acc_z_5,gyro_x_6,gyro_y_6,gyro_z_6,acc_x_6,acc_y_6,acc_z_6,gyro_x_7,gyro_y_7,gyro_z_7,acc_x_7,acc_y_7,acc_z_7,gyro_x_8,gyro_y_8,gyro_z_8,acc_x_8,acc_y_8,acc_z_8,gyro_x_9,gyro_y_9,gyro_z_9,acc_x_9,acc_y_9,acc_z_9,gyro_x_10,gyro_y_10,gyro_z_10,acc_x_10,acc_y_10,acc_z_10,gyro_x_11,gyro_y_11,gyro_z_11,acc_x_11,acc_y_11,acc_z_11,gyro_x_12,gyro_y_12,gyro_z_12,acc_x_12,acc_y_12,acc_z_12,gyro_x_13,gyro_y_13,gyro_z_13,acc_x_13,acc_y_13,acc_z_13,gyro_x_14,gyro_y_14,gyro_z_14,acc_x_14,acc_y_14,acc_z_14,gyro_x_15,gyro_y_15,gyro_z_15,acc_x_15,acc_y_15,acc_z_15,gyro_x_16,gyro_y_16,gyro_z_16,acc_x_16,acc_y_16,acc_z_16,gyro_x_17,gyro_y_17,gyro_z_17,acc_x_17,acc_y_17,acc_z_17,gyro_x_18,gyro_y_18,gyro_z_18,acc_x_18,acc_y_18,acc_z_18,gyro_x_19,gyro_y_19,gyro_z_19,acc_x_19,acc_y_19,acc_z_19,gyro_x_20,gyro_y_20,gyro_z_20,acc_x_20,acc_y_20,acc_z_20,gyro_x_21,gyro_y_21,gyro_z_21,acc_x_21,acc_y_21,acc_z_21,gyro_x_22,gyro_y_22,gyro_z_22,acc_x_22,acc_y_22,acc_z_22,gyro_x_23,gyro_y_23,gyro_z_23,acc_x_23,acc_y_23,acc_z_23,gyro_x_24,gyro_y_24,gyro_z_24,acc_x_24,acc_y_24,acc_z_24,gyro_x_25,gyro_y_25,gyro_z_25,acc_x_25,acc_y_25,acc_z_25,gyro_x_26,gyro_y_26,gyro_z_26,acc_x_26,acc_y_26,acc_z_26,gyro_x_27,gyro_y_27,gyro_z_27,acc_x_27,acc_y_27,acc_z_27,gyro_x_28,gyro_y_28,gyro_z_28,acc_x_28,acc_y_28,acc_z_28,gyro_x_29,gyro_y_29,gyro_z_29,acc_x_29,acc_y_29,acc_z_29,motion_type
0.00137499999255,0.0027499999851,0.00316249998286,0.14643749594688,0.17049999535084,0.18053749203682,-0.14396250247955,-0.14904999732971,-0.15578749775887,0.94200003147125,1.17195010185242,1.21005010604858,2.15400004386902,2.19300007820129,2.11605000495911,9.5440502166748,9.58200073242188,9.69705009460449,0.00206249998882,0.00137499999255,0.00096249999478,0.15798750519753,0.00659999996424,0.00481249997392,-0.16912500560284,-0.14836250245571,-0.00439999997616,1.28700006008148,1.1340000629425,0.94200003147125,1.96305012702942,2.15400004386902,2.07795000076294,9.73500061035156,9.73500061035156,9.19905090332031,0.00082499999553,0.00013749999925,-0.00013749999925,0.00261249998584,-0.00137499999255,-0.00261249998584,-0.00027499999851,0.00687499996275,0.18369999527931,1.1340000629425,0.78900003433228,0.90405005216599,1.84800004959106,2.19300007820129,2.07795000076294,9.19905090332031,9.65895080566406,9.42900085449219,-0.00013749999925,0.00013749999925,0.00041249999776,-0.00302499998361,-0.00261249998584,0.00082499999553,0.21889999508858,0.22577500343323,0.00646249996498,1.05705010890961,0.55905002355576,0.36795002222061,2.07795000076294,2.26905012130737,2.53695011138916,9.27600002288818,9.42900085449219,8.96895027160645,0.00123749999329,0.00316249998286,0.00577499996871,0.00316249998286,0.00646249996498,0.20322500169277,0.00371249997988,0.00137499999255,-0.00027499999851,-0.05295000225306,1.59300005435944,11.4000005722046,3.22695016860962,3.34200024604797,-4.39499998092651,8.81595039367676,8.47095012664795,8.31795024871826,0.21683749556541,0.24337500333786,-0.0042624999769,0.33825001120567,0.30442500114441,-0.23168750107288,-0.00068749999627,0.14190000295639,0.92303746938705,45.6469535827637,25.5739517211914,-2.35095000267029,-33.9300003051758,-50.862003326416,-47.0689506530762,17.9710502624512,9.42900085449219,-6.3139500617981,-1.15376245975494,-4.95921230316162,-6.00132513046265,-1.22704994678497,-2.87003755569458,-3.64966249465942,2.19834995269775,3.71662497520447,5.05601263046265,-18.9379501342773,-32.881950378418,-31.6939506530762,-33.6619529724121,5.14200019836426,7.05795049667358,-6.3139500617981,4.98495006561279,-31.1760005950928,-6.71220016479492,-7.41221237182617,-5.70844984054565,-4.16363763809204,-4.13943767547607,1.5020500421524,6.56136226654053,8.12446212768555,10.2346754074097,-26.2549514770508,-16.0270500183105,-4.26705026626587,1.92495012283325,-2.47995018959045,-3.1690502166748,-31.1760005950928,3.07005023956299,13.03005027771,-0.684750020504,2.85738754272461,4.7755126953125,6.02703762054443,7.58010005950928,8.52995014190674,10.9826745986938,12.2913999557495,12.3813247680664,-0.05295000225306,-0.09105000644922,0.32895001769066,-1.48395001888275,0.00900000054389,0.16200000047684,9.27600002288818,6.82395029067993,6.82395029067993,5.75052499771118,5.58098745346069,4.49625015258789,8.1386251449585,6.00586223602295,1.49765002727509,9.95926284790039,8.27598762512207,6.65472507476807,3.31695008277893,4.46700000762939,4.15995025634766,-1.21605002880096,-1.36905002593994,-0.94695001840591,15.0220508575439,12.3780002593994,10.7310009002686,SWING_RIGHT
0.22274999320507,0.28187498450279,0.32381248474121,-0.29919999837875,-0.27169999480247,-0.25836250185966,0.75308752059937,0.78622502088547,0.80753749608994,1.63200008869171,1.32495009899139,1.78500008583069,3.7630500793457,3.84000015258789,3.72495007514954,7.81995058059692,7.81995058059692,8.28000068664551,0.42157500982285,0.45993748307228,0.48441249132156,-0.21477499604225,-0.19016249477863,-0.16114999353886,0.82059997320175,0.8153749704361,0.82940000295639,2.35995006561279,2.01495003700256,1.24905002117157,3.53295016288757,3.6870002746582,3.8779501914978,8.28000068664551,8.47095012664795,8.70105075836182,0.50696247816086,0.53817498683929,0.50448751449585,-0.00494999997318,0.00494999997318,0.20198750495911,0.8320124745369,0.77536249160767,0.71885001659393,1.01895010471344,2.01495003700256,1.74705004692078,3.99300026893616,3.26505017280579,3.45705008506775,8.70105075836182,9.88905048370361,9.27600002288818,0.44536250829697,0.36519998311996,0.17655000090599,0.30731248855591,0.40796250104904,0.51150000095367,0.67636251449585,0.6122875213623,0.40741249918938,0.86595004796982,-0.51195001602173,-0.97200006246567,4.03095006942749,4.91295003890991,5.37195014953613,8.96895027160645,8.73900032043457,8.62395000457764,0.00563749996945,0.14533749222755,0.25753748416901,0.56732499599457,0.71761250495911,0.92083752155304,0.30167499184608,0.18411250412464,0.00343749998137,-2.35095000267029,-4.72605037689209,8.94795036315918,9.04995059967041,11.6160001754761,-0.44895002245903,8.35605049133301,6.36405038833618,5.36805009841919,0.61187499761581,0.89567500352859,0.90997499227524,1.35451245307922,1.5879875421524,1.30116248130798,-0.00687499996275,-0.15042500197887,0.14011250436306,49.2480010986328,26.6460018157959,-2.96400022506714,-31.0189514160156,-36.7650032043457,-30.4060516357422,0.9250500202179,-19.875,-19.875,-0.43546250462532,-12.7861251831055,-14.5854501724243,-0.32394999265671,-2.41477489471436,-3.11905002593994,0.68983751535416,-5.53891229629517,-4.22977495193481,-14.0350503921509,-16.6399517059326,-19.5510005950928,-18.4159507751465,1.57995009422302,4.68300008773804,-13.5930004119873,30.4600505828857,10.3480501174927,-15.1507120132446,-15.1806869506836,-13.6368370056152,-4.0937876701355,-4.984375,-4.12967491149902,-2.69623756408691,-1.43385004997253,1.19515001773834,-7.98195028305054,-4.07505035400391,-2.00595021247864,1.00499999523163,-0.52605003118515,-1.02404999732971,10.3480501174927,14.7150011062622,7.47495031356812,-8.88428783416748,2.21429991722107,8.52926254272461,-0.00632499996573,2.28511238098145,2.3957998752594,2.56629991531372,7.50323724746704,7.06887483596802,1.86195003986359,1.32495009899139,1.78500008583069,-0.87105005979538,-0.7180500626564,0.08595000207424,4.44900035858154,4.44900035858154,6.47895050048828,10.9701623916626,10.6684875488281,10.0922250747681,2.3365375995636,1.83424997329712,0.88921248912811,4.01156234741211,2.7086124420166,1.09147500991821,-1.31700003147125,-0.74205005168915,1.05705010890961,3.72495007514954,4.52895021438599,3.72495007514954,10.8460502624512,9.16095066070557,7.39905023574829,SWING_RIGHT
0.16211250424385,0.00453749997541,0.00412499997765,0.61764997243881,0.46213749051094,0.31459999084473,0.28036248683929,0.40149998664856,0.52786248922348,1.8229501247406,2.43600010871887,3.12600016593933,3.61005020141602,4.10805034637451,4.14600038528442,8.54805088043213,8.54805088043213,8.8540506362915,0.00632499996573,0.35351249575615,0.49266248941422,0.17833749949932,-0.00343749998137,-0.14011250436306,0.64611250162125,0.84700000286102,0.92124998569489,2.85795021057129,0.78900003433228,2.206050157547,3.8779501914978,3.72495007514954,3.57195019721985,8.8540506362915,8.58600044250488,8.58600044250488,0.60486251115799,0.67044997215271,0.67636251449585,-0.16994999349117,-0.17929999530315,-0.0042624999769,0.97418749332428,1.01034998893738,1.01076245307922,2.89605021476746,1.66995012760162,1.70805013179779,3.34200024604797,3.37995004653931,4.45305013656616,8.58600044250488,9.42900085449219,8.81595039367676,0.60417497158051,0.37014999985695,0.21463750302792,0.00123749999329,0.26826250553131,0.56003749370575,0.98106247186661,0.88893747329712,0.72984999418259,0.82695001363754,0.483000010252,2.55105018615723,4.22294998168945,3.91695022583008,2.88195013999939,8.28000068664551,7.81995058059692,6.36405038833618,0.21285000443459,0.24598750472069,0.28916248679161,0.68337500095367,0.75336247682571,0.81592500209808,0.66398751735687,0.64432501792908,0.65188747644424,0.67395001649857,-0.12900000810623,4.35195016860962,3.22695016860962,3.22695016860962,1.84800004959106,7.78200054168701,10.2720003128052,11.9569501876831,0.36822500824928,0.30689999461174,0.00288749998435,0.81784999370575,0.69451248645782,0.34966251254082,0.83063751459122,1.04073750972748,1.39741253852844,37.4869499206543,34.5379524230957,17.7210006713867,-15.5430011749268,-23.1270008087158,-26.613000869751,12.7230005264282,0.38805001974106,-8.26800060272217,-0.80327498912811,-7.12139987945557,-11.854700088501,-0.84163749217987,-2.96147489547729,-2.07459998130798,1.98577499389648,-0.0027499999851,-2.04283738136292,-2.04495000839233,-11.5830001831055,-16.8310508728027,-22.0930519104004,-9.14505004882812,1.08195006847382,-16.6189498901367,14.5999507904053,19.0440006256104,-13.8844747543335,-14.6766128540039,-14.0427370071411,-1.74528753757477,-1.83988749980927,-1.17768752574921,-1.85611248016357,-1.08735001087189,0.95741248130798,-18.9000015258789,-19.9339504241943,-7.21605014801025,7.21095037460327,7.32600021362305,1.31205010414124,19.0440006256104,11.7270002365112,10.3870506286621,-11.8046503067017,-6.59546232223511,1.90588748455048,1.12364995479584,4.8775372505188,6.49673748016357,2.43759989738464,4.77276229858398,7.36298751831055,-5.10900020599365,-3.61500024795532,-2.23605012893677,1.08195006847382,1.54095005989075,2.07795000076294,8.16495037078857,8.16495037078857,10.7700004577637,10.2598371505737,11.3055248260498,11.4042501449585,5.64286231994629,5.40058755874634,4.87877511978149,7.51877498626709,6.52836227416992,5.19598770141602,-0.01395000051707,0.98100006580353,2.7810001373291,2.65200018882751,2.53695011138916,2.15400004386902,10.2330007553101,10.2330007553101,10.2330007553101,SWING_RIGHT
-0.2230249941349,-0.31886249780655,-0.36492499709129,0.55068749189377,0.47574999928474,0.29947498440742,0.37716248631477,0.4476999938488,0.55962496995926,2.05305004119873,2.206050157547,2.39805006980896,3.30405020713806,3.22695016860962,3.07395005226135,8.8540506362915,8.8540506362915,9.08400058746338,-0.31336250901222,-0.23759999871254,-0.15702499449253,0.22563749551773,0.17352500557899,0.00687499996275,0.60087502002716,0.64707499742508,0.68598747253418,2.62800002098084,2.05305004119873,1.78500008583069,2.99700021743774,3.45705008506775,3.80205011367798,9.19905090332031,9.23700046539307,9.23700046539307,-0.0015124999918,0.00109999999404,0.00343749998137,0.00384999997914,0.00302499998361,0.00302499998361,0.73191249370575,0.75583750009537,0.78938752412796,2.58900022506714,2.58900022506714,2.58900022506714,3.41895008087158,3.57195019721985,3.53295016288757,8.96895027160645,8.66295051574707,8.5090503692627,0.00536249997094,0.1898874938488,0.25272500514984,0.00371249997988,0.0042624999769,0.00398749997839,0.8153749704361,0.83490002155304,0.85016250610352,2.93400025367737,1.21005010604858,1.44000005722046,3.30405020713806,4.45305013656616,4.2610502243042,8.20305061340332,8.16495037078857,8.54805088043213,0.32615000009537,0.4116750061512,0.55618751049042,0.00398749997839,0.00536249997094,0.23333749175072,0.87999999523163,0.90213751792908,0.90543746948242,2.01495003700256,5.19405031204224,34.1550025939941,3.80205011367798,2.49900007247925,-21.1740016937256,8.93100070953369,9.04605007171631,9.61995029449463,0.58286249637604,0.47932499647141,-0.18796250224113,0.30841249227524,0.1861750036478,-0.62204998731613,0.89938747882843,0.96717500686646,1.20669996738434,39.9769515991211,16.4569511413574,-0.66600000858307,-33.9300003051758,-39.5230522155762,-35.8069534301758,8.73900032043457,-20.9089508056641,-23.0929508209229,-6.53578758239746,-9.56945037841797,-11.2256374359131,-2.23052501678467,-1.6768125295639,-1.03977501392365,-0.55687499046326,-1.30432498455048,-0.9590625166893,-39.3559532165527,-41.8840522766113,-34.4910011291504,12.153000831604,15.8680505752563,10.3900508880615,16.47705078125,9.04605007171631,-2.32995009422302,-12.0111751556396,-12.3939752578735,-9.19187450408936,-0.47753748297691,2.25623750686646,6.863450050354,-0.00343749998137,3.05346250534058,4.71886253356934,-14.2260007858276,1.01895010471344,2.74305009841919,1.1580001115799,-2.28795003890991,-0.56400001049042,-2.32995009422302,5.06205034255981,8.58600044250488,-0.84205001592636,5.55046224594116,9.39867496490478,11.5993623733521,12.3488750457764,10.1307249069214,6.36941242218018,8.64847469329834,9.34587478637695,1.97700011730194,3.01095008850098,3.16395020484924,2.53695011138916,2.38394999504089,1.61805009841919,8.66295051574707,9.04605007171631,11.4970502853394,9.25718784332275,8.94341278076172,8.09916210174561,7.86390018463135,4.24751234054565,-1.01048743724823,8.78886222839355,7.9195876121521,6.37834978103638,2.13000011444092,1.8229501247406,1.47900009155273,2.26905012130737,2.23095011711121,1.92495012283325,11.8039503097534,11.8039503097534,11.6509504318237,SWING_RIGHT
0.00233749998733,0.00109999999404,0.0,0.25519999861717,-0.00027499999851,-0.25231251120567,0.95438748598099,1.09147500991821,1.2277375459671,2.70405006408691,2.47500014305115,2.24505019187927,3.07395005226135,3.34200024604797,3.6870002746582,8.8540506362915,8.8540506362915,8.8540506362915,-0.00082499999553,0.00054999999702,0.00398749997839,-0.46474999189377,-0.71458750963211,-0.69588750600815,1.33718752861023,1.40896248817444,1.37032496929169,1.47900009155273,1.1340000629425,1.05705010890961,4.22294998168945,4.22294998168945,4.10805034637451,8.8540506362915,8.70105075836182,9.23700046539307,0.19016249477863,0.32243749499321,0.58437502384186,-0.55893748998642,-0.3573625087738,0.14822499454021,1.283287525177,1.15458750724792,0.78320002555847,0.90405005216599,0.67395001649857,-3.49995017051697,4.10805034637451,4.3759503364563,6.90405035018921,9.23700046539307,8.93100070953369,9.61995029449463,0.68681252002716,0.74786251783371,0.79392498731613,0.42611250281334,0.70867496728897,0.99481248855591,0.58423751592636,0.41043749451637,0.26289999485016,-6.2590503692627,-7.82895040512085,-7.14000034332275,7.59405040740967,6.86595010757446,5.25705003738403,9.73500061035156,9.73500061035156,8.0110502243042,0.88577497005463,0.90433746576309,0.87532502412796,1.90093743801117,2.39731240272522,2.85780000686646,-0.16046249866486,-0.37441250681877,-0.54711252450943,3.47100019454956,12.1660509109497,44.4210014343262,1.81005012989044,-1.52205002307892,-20.7139511108398,6.24900007247925,8.58600044250488,8.58600044250488,0.73039996623993,-0.17627499997616,-2.74009990692139,3.10681247711182,1.39851248264313,-1.90093743801117,-0.64074999094009,-0.14973749220371,-0.66426247358322,49.5160522460938,9.10200023651123,-8.09700012207031,-26.5750503540039,-45.5370025634766,-33.0870018005371,-4.39905023574829,-29.6050510406494,-29.6050510406494,-10.1656503677368,-14.2499494552612,-15.8357372283936,-3.89166259765625,-4.82707500457764,-7.23387479782104,-5.76496267318726,-6.29103755950928,-4.30856227874756,-30.2010021209717,-28.2090015411377,-27.5959510803223,-11.9029502868652,-8.83905029296875,6.02295017242432,4.94700002670288,16.9750499725342,12.4170007705688,-15.6362247467041,-15.0757751464844,-13.2266750335693,-7.88672494888306,-7.6203875541687,-5.14992475509644,-2.82287502288818,-1.122687458992,0.87628751993179,-24.6079521179199,-14.2650003433228,-6.8710503578186,5.18100023269653,4.03095006942749,1.50300002098084,9.08400058746338,9.08400058746338,9.04605007171631,3.74219989776611,8.72519969940186,10.821249961853,2.1481626033783,3.46541237831116,3.94432497024536,11.0727376937866,11.3473253250122,10.7910003662109,3.01095008850098,4.35195016860962,4.62000036239624,-1.1010000705719,-0.75600004196167,-0.64095002412796,5.98095035552979,4.94700002670288,4.90905046463013,11.6399250030518,11.3335752487183,9.82726287841797,4.15923738479614,3.08316254615784,0.25368750095367,9.70131206512451,6.50911235809326,4.39642477035522,4.12200021743774,1.97700011730194,0.98100006580353,-0.52605003118515,0.50700002908707,0.77505004405975,7.70505046844482,11.4210004806519,11.6509504318237,SWING_RIGHT
0.17352500557899,0.20377500355244,0.3077250123024,-0.63868749141693,-0.62232500314713,-0.44742500782013,0.88027501106262,0.89196246862411,0.86680001020432,0.44400003552437,0.6360000371933,0.40605002641678,3.41895008087158,3.34200024604797,3.57195019721985,8.778000831604,8.778000831604,8.89305019378662,0.36863750219345,0.42734998464584,0.47533750534058,-0.31803750991821,-0.17476250231266,-0.00192499998957,0.84768748283386,0.83916246891022,0.83434998989105,0.29100000858307,-0.05295000225306,-0.09105000644922,3.80205011367798,3.95505023002625,3.99300026893616,8.93100070953369,9.08400058746338,9.16095066070557,0.53171247243881,0.52195000648499,0.48949998617172,0.17008750140667,0.26427498459816,0.35846251249313,0.8204625248909,0.80905002355576,0.80877500772476,-0.47400003671646,-1.20195007324219,-2.77305006980896,3.99300026893616,4.41495037078857,5.21895027160645,9.46695041656494,10.1569509506226,10.3870506286621,0.45031249523163,0.3452624976635,0.33192500472069,0.45663750171661,0.72462499141693,0.97528749704361,0.81386250257492,0.76326251029968,0.70193749666214,-3.69195008277893,-6.71805047988892,-5.98995018005371,5.52495002746582,5.86995029449463,5.7940502166748,10.5010509490967,9.19905090332031,8.12595081329346,0.34443750977516,0.36643749475479,0.50325000286102,1.28713750839233,1.60971248149872,2.18913745880127,0.6210874915123,0.5154874920845,0.26303750276566,-3.99795007705688,10.1740503311157,56.4880523681641,5.44905042648315,-2.40300011634827,-27.9540004730225,6.09600019454956,6.09600019454956,7.59000015258789,0.6239749789238,0.49114999175072,-1.04678750038147,2.33516240119934,1.49393749237061,-1.48747503757477,0.00439999997616,-0.18067499995232,-1.59018754959106,38.0620536804199,17.6440505981445,-11.5830001831055,-42.8940010070801,-54.4630508422851,-31.324951171875,-33.0529518127441,-33.0529518127441,-13.746000289917,-9.96943759918213,-11.2788496017456,-11.8908624649048,-6.21334981918335,-7.34525012969971,-8.05846214294434,-7.41523742675781,-6.82426261901855,-5.69854974746704,-31.2349510192871,-29.2810516357422,-29.0509510040283,-6.08100032806396,-1.48395001888275,3.53295016288757,17.2049999237061,13.6429510116577,9.04605007171631,-12.2520751953125,-11.2598752975464,-6.24992513656616,-8.25481224060059,-4.36562490463257,1.39947497844696,-4.26057481765747,0.47932499647141,6.3874249458313,-20.4700508117676,-4.80300045013428,0.55905002355576,3.30405020713806,0.58395004272461,-0.14295001327991,7.85805034637451,5.90505027770996,5.06205034255981,1.46698749065399,5.42245006561279,8.21163749694824,4.7283501625061,6.15917491912842,6.32719993591309,10.9693374633789,11.5510997772217,10.0355749130249,3.66195011138916,4.00695037841797,1.40205001831055,-0.44895002245903,-0.25800001621246,0.54495000839233,2.76300024986267,2.76300024986267,6.97695016860962,8.60021209716797,8.26127529144287,6.85423755645752,5.27092504501343,3.03696250915527,-1.26651251316071,8.63307476043701,6.77985000610352,4.83917474746704,0.71205002069473,0.02295000106096,-0.28305000066757,0.16200000047684,-0.25800001621246,-0.10500000417233,10.5400505065918,11.3830509185791,11.4970502853394,SWING_RIGHT
0.18383750319481,0.18067499995232,0.17531250417233,-0.1913999915123,-0.00522499997169,-0.00082499999553,0.5460125207901,0.49334999918938,0.43243750929832,1.90005004405975,1.8229501247406,1.63200008869171,2.88195013999939,2.80605006217957,2.76705002784729,8.81595039367676,9.12195014953613,9.12195014953613,0.16211250424385,0.15881249308586,0.15922500193119,0.14464999735355,0.21628749370575,0.28723749518394,0.30456250905991,0.24942499399185,0.19717499613762,1.1340000629425,0.82695001363754,0.67395001649857,2.99700021743774,3.07395005226135,2.99700021743774,9.08400058746338,9.31395053863525,9.42900085449219,0.16142499446869,0.171187505126,0.17874999344349,0.36134999990463,0.53143751621246,0.63249999284744,0.14753749966621,0.00316249998286,0.00137499999255,0.25304999947548,-7.67595052719116,-11.6220006942749,3.45705008506775,8.28404998779297,8.32200050354004,9.77400016784668,12.5700006484985,15.1750507354736,0.21642500162125,0.33137500286102,0.48881250619888,0.78058749437332,1.13464999198914,2.42096257209778,-0.00041249999776,-0.00453749997541,-0.5490375161171,-12.5410509109497,-8.671950340271,11.7070503234863,5.14200019836426,-0.64095002412796,-8.91495037078857,15.1750507354736,12.9910507202148,7.16895055770874,0.51039999723434,0.434087485075,0.45911249518394,2.95528745651245,3.09388756752014,2.53976249694824,-0.83407497406006,-1.73607504367828,-3.54461240768433,40.0159530639649,47.4469528198242,27.0679512023926,-16.1550006866455,-19.6800003051758,-23.0890502929688,5.29200029373169,-7.5400505065918,-15.8149509429932,-1.31436252593994,-4.16693735122681,-6.36748743057251,-0.88357502222061,-3.67166256904602,-7.19290018081665,-8.92732524871826,-10.1554746627808,-9.85984992980957,4.19805002212524,-14.6479511260986,-30.469051361084,-49.9810523986816,-28.3750514984131,-13.1290502548218,-33.7420501708984,-28.8010520935059,6.97695016860962,-7.38649988174438,-8.37182521820068,-8.61148738861084,-9.99514961242676,-12.5148372650146,-11.9715747833252,-9.52572536468506,-6.41300010681152,-2.49397492408752,-27.4039516448975,-26.3700008392334,-24.5689506530762,-9.64305019378662,0.27705001831055,5.02695035934448,22.5300006866455,15.481050491333,14.907000541687,-7.50873756408691,-3.62779998779297,8.00745010375977,-9.98607540130615,-6.94127511978149,1.69798743724823,2.69871258735657,7.77507495880127,11.3257369995117,-17.5969505310059,-10.4340009689331,3.62400007247925,5.21895027160645,3.18900012969971,-2.9389500617981,12.9150009155273,9.73500061035156,5.67495012283325,10.9763498306274,12.7792501449585,13.8122873306274,3.26095008850098,4.04951238632202,4.2893123626709,11.6025247573853,11.1764125823975,9.93121242523193,7.6080002784729,6.03705024719238,3.96900010108948,-3.51405024528503,-1.98195004463196,-1.06200003623962,3.26100015640259,3.26100015640259,6.01905012130737,13.2144374847412,10.2726249694824,5.5324501991272,2.34533739089966,-0.66934996843338,-5.12366247177124,5.70102500915527,3.20127487182617,1.80729997158051,2.62800002098084,1.86195003986359,1.59300005435944,-0.33495002985001,0.12405000627041,0.27705001831055,11.9569501876831,11.9569501876831,11.5360507965088,SWING_RIGHT
0.00123749999329,-0.00082499999553,-0.00247499998659,0.17833749949932,0.00261249998584,-0.00563749996945,0.68667501211166,0.77165001630783,0.8729875087738,2.81895017623901,2.93400025367737,2.70405006408691,1.88595008850098,1.88595008850098,2.03895020484924,9.04605007171631,9.08400058746338,9.23700046539307,-0.00371249997988,-0.00481249997392,-0.00467499997467,-0.30126249790192,-0.70235002040863,-0.87793749570847,0.97542500495911,1.12419998645782,1.16489994525909,2.13000011444092,-0.93405002355576,-3.07905006408691,2.38394999504089,4.7590503692627,6.10005044937134,9.23700046539307,8.81595039367676,9.65895080566406,-0.00261249998584,0.00453749997541,0.63043749332428,-0.95260000228882,-0.82115000486374,0.23801249265671,1.18016254901886,1.14441251754761,0.77962499856949,-3.99795007705688,-3.7300500869751,-2.50395011901855,6.10005044937134,4.22294998168945,2.30805015563965,11.4210004806519,11.4210004806519,10.2720003128052,0.86844998598099,1.04170000553131,1.09615004062653,0.98628747463226,1.73277497291565,2.41642498970032,0.47905001044273,0.18975000083447,-0.0042624999769,-0.550950050354,3.47100019454956,10.3660507202148,0.92895007133484,-1.1010000705719,-3.01605010032654,10.2330007553101,10.0420503616333,8.8540506362915,0.65477502346039,-0.00027499999851,-0.9147874712944,3.02623748779297,2.43044996261597,0.87546247243881,-0.46846249699593,-0.47863748669624,-0.43340000510216,41.8930511474609,40.6669502258301,19.9429512023926,-16.8070507049561,-25.8850517272949,-39.8680534362793,3.14595007896423,-18.8029518127441,-43.0890007019043,-2.2710874080658,-12.3091373443604,-15.4539003372192,-1.65343749523163,-4.44991254806519,-5.53286266326904,-0.60018748044968,-5.82106256484985,-5.69373750686646,11.5920009613037,-28.5150012969971,-19.7430000305176,-50.8230018615723,-19.1430015563965,-18.7219505310059,-43.0890007019043,11.076000213623,20.6149501800537,-16.3508129119873,-16.3744621276855,-13.9588623046875,-6.85492515563965,-7.97032499313354,-8.15952491760254,-4.99056243896484,-4.03301239013672,-1.449387550354,-30.4300518035889,-29.3580017089844,-12.1200008392334,-2.40300011634827,3.72495007514954,2.19300007820129,22.185001373291,22.185001373291,15.5200510025024,-11.2146377563477,-3.75196242332459,7.08358764648438,-7.04673767089844,-5.96640014648438,-3.03806257247925,1.28754997253418,7.22699975967407,9.26708698272705,-5.07105016708374,0.90405005216599,6.26700019836426,0.58395004272461,-1.52205002307892,-3.20805025100708,8.47095012664795,4.87005043029785,3.87405014038086,15.7555751800537,16.7210998535156,16.484188079834,-0.29067498445511,0.59042501449585,1.20532500743866,7.09678745269775,6.09014987945557,5.07044982910156,8.18205070495605,5.80695009231567,4.8880500793457,-1.13895010948181,-0.7180500626564,-0.87105005979538,1.92105007171631,2.72505021095276,5.3299503326416,15.5208625793457,9.67477512359619,3.03778743743896,1.39741253852844,-4.40948724746704,-9.73032474517822,3.83418750762939,0.35310000181198,0.58836251497269,4.08300018310547,2.32095003128052,1.44000005722046,-0.06599999964237,0.66000002622604,0.66000002622604,12.7999505996704,11.9569501876831,11.9569501876831,SWING_RIGHT
0.20638750493526,0.24571250379086,0.27994999289513,-0.00646249996498,0.18259999155998,0.4448125064373,0.21161249279976,0.00467499997467,-0.00068749999627,1.8229501247406,1.86195003986359,1.86195003986359,2.84400010108948,2.72895002365112,2.72895002365112,8.12595081329346,8.12595081329346,8.5090503692627,0.2729375064373,0.23333749175072,0.18809999525547,0.65793746709824,0.59235000610352,0.45883750915527,-0.00646249996498,-0.00646249996498,-0.00453749997541,1.24905002117157,1.1340000629425,1.32495009899139,3.18900012969971,3.30405020713806,3.03495025634766,9.27600002288818,10.0800008773804,10.5010509490967,0.00673749996349,0.00082499999553,-0.00041249999776,0.32147499918938,0.15977500379086,0.15661250054836,-0.00178749999031,0.00302499998361,0.00481249997392,1.47900009155273,0.06105000153184,-3.76905012130737,2.95905017852783,4.03095006942749,6.67500019073486,9.92700004577637,9.92700004577637,10.2330007553101,-0.00027499999851,0.00082499999553,0.26097500324249,0.21986250579357,0.33041250705719,0.96579998731613,0.00604999996722,0.00659999996424,0.00096249999478,-6.60300016403198,-8.671950340271,-1.54695010185242,7.67100048065186,6.63600015640259,-1.36905002593994,11.2680006027222,11.4210004806519,10.6549501419067,0.4298250079155,0.58547496795654,0.58410000801086,1.48458755016327,1.99993753433228,2.46193742752075,-0.00632499996573,-0.24969999492168,-0.38431251049042,11.5530004501343,38.6749534606934,42.7740020751953,-6.76995038986206,-16.6150512695313,-33.8920516967773,9.35205078125,6.82395029067993,-17.7679500579834,-0.6540874838829,-2.6727249622345,-6.73048734664917,1.76934993267059,-0.00467499997467,-1.90753746032715,-0.50050002336502,-1.05104994773865,-3.14627504348755,2.70405006408691,-27.0979518890381,-32.3839530944824,-39.7140007019043,-15.8110504150391,-11.9800510406494,-53.2020034790039,-12.5970001220703,16.4010009765625,-11.2376003265381,-14.615837097168,-14.4352998733521,-2.38163757324219,-4.20681238174438,-5.26157474517822,-4.51577520370483,-2.9635374546051,-1.32921254634857,-29.0899505615234,-25.0290012359619,-19.090950012207,-8.99205017089844,4.83600044250488,6.25305032730103,19.8100509643555,14.3700008392334,14.2560005187988,-13.7073745727539,-11.4263877868652,5.32908725738525,-5.56820011138916,-4.05625009536743,3.07518744468689,0.71912497282028,3.33863759040833,9.42892456054688,-11.0850009918213,-2.69595003128052,8.33595085144043,3.6870002746582,-0.52605003118515,-3.62895011901855,10.6930503845215,8.8540506362915,2.07405018806458,11.0226879119873,13.4116125106812,14.0915498733521,2.86343741416931,2.830162525177,2.92462491989136,10.1184873580933,9.56436252593994,8.5460376739502,9.10200023651123,6.95595026016235,4.35195016860962,-2.67105007171631,-1.13895010948181,-0.02805000171065,1.49895012378693,1.49895012378693,8.96895027160645,13.085599899292,10.5909376144409,4.74485015869141,1.41831254959106,-2.28538751602173,-8.36618709564209,5.28151226043701,3.13403749465942,1.79588747024536,2.97300004959106,1.86195003986359,0.36795002222061,-0.33495002985001,-0.33495002985001,0.27705001831055,11.076000213623,11.1529502868652,11.9190006256104,SWING_RIGHT
0.00577499996871,0.18975000083447,0.25217500329018,0.22123749554157,0.32243749499321,0.42625001072884,0.34251248836517,0.36849999427795,0.40177500247955,-0.58905005455017,-0.62700003385544,-0.58905005455017,2.49900007247925,2.38394999504089,2.53695011138916,9.81195068359375,9.69705009460449,9.5440502166748,0.2953499853611,0.31281250715256,0.30744999647141,0.51122498512268,0.57571250200272,0.56911247968674,0.43340000510216,0.49513748288155,0.53556251525879,-1.04895007610321,-2.00595021247864,-2.38905000686646,2.76705002784729,3.30405020713806,3.41895008087158,9.39105033874512,10.7700004577637,11.5740003585815,0.30483749508858,0.31817498803139,0.34856250882149,0.57034999132156,0.59950000047684,0.76504999399185,0.5823125243187,0.62493747472763,0.6484500169754,-3.38505005836487,-5.07105016708374,-4.72605037689209,3.80205011367798,3.80205011367798,2.49900007247925,11.5740003585815,10.8850507736206,9.31395053863525,0.3740000128746,0.39875000715256,0.41745001077652,0.94751250743866,1.18002498149872,1.40635001659393,0.61586248874664,0.55261248350143,0.45938751101494,-1.54695010185242,1.66995012760162,3.50895023345947,0.66000002622604,-0.44895002245903,0.27705001831055,9.00705051422119,9.00705051422119,8.8540506362915,0.25327500700951,0.00302499998361,-0.23292499780655,1.5830374956131,1.24574995040894,0.56113749742508,0.16211250424385,0.00384999997914,0.00412499997765,14.9239511489868,51.3160514831543,34.6140022277832,-1.21605002880096,-25.3870506286621,-45.6139526367188,5.94300031661987,0.58005005121231,-18.457950592041,-0.62672501802444,-6.73062515258789,-13.3846626281738,-0.61751252412796,-4.34857511520386,-4.40893745422363,0.18603749573231,-5.05202484130859,-7.83048725128174,11.1700506210327,-33.8400001525879,-36.5209503173828,-69.0580520629883,-23.7019519805908,-11.9800510406494,-46.8820533752441,-23.0929508209229,28.0840511322021,-15.9020128250122,-17.2013874053955,-17.6533508300781,-5.32771253585815,-5.62443733215332,-1.77265000343323,-6.9800500869751,-5.67641258239746,-1.34351253509521,-38.0920524597168,-37.8240013122559,-16.4479503631592,-3.55200028419495,2.6140501499176,-0.25800001621246,28.0840511322021,15.3280506134033,7.70505046844482,-16.1089496612549,-10.9401874542236,-0.25616249442101,2.96257495880127,8.39877510070801,9.45106220245361,1.46547496318817,6.04601240158081,14.5468120574951,-5.7610502243042,0.06105000153184,3.7390501499176,-3.51405024528503,-3.36105012893677,-4.16505002975464,7.70505046844482,5.94300031661987,3.52995014190674,8.97325038909912,10.6675252914429,11.4054870605469,9.97796249389648,9.63627529144287,7.80436229705811,15.3074626922607,13.9552869796753,11.6287870407104,13.3540506362915,9.6379508972168,4.65795040130615,-6.31095027923584,-3.39900016784668,0.04800000041723,1.03995001316071,1.03995001316071,1.88205003738403,11.0430374145508,4.64268732070923,0.82073748111725,4.13778734207153,-7.25243759155273,-9.13770008087158,8.15608787536621,-2.43856239318848,-7.67140007019043,1.24905002117157,-0.28305000066757,-0.20595000684261,1.81005012989044,1.6560001373291,0.73695003986359,9.50505065917969,14.4090003967285,12.4549503326416,SWING_RIGHT
0.21972499787807,0.14863750338554,0.00536249997094,-0.68117499351501,-1.07277500629425,-1.22856247425079,-1.96459996700287,-2.44433736801147,-2.62487506866455,0.94200003147125,0.71205002069473,0.55905002355576,2.65200018882751,2.76705002784729,2.92095017433167,9.16095066070557,9.27600002288818,9.27600002288818,0.00357499998063,0.00247499998659,0.00371249997988,-1.3527250289917,-1.4137749671936,-1.27407503128052,-2.76608753204346,-2.81874990463257,-2.59627509117126,0.6360000371933,0.86595004796982,0.94200003147125,2.95905017852783,2.88195013999939,2.80605006217957,9.16095066070557,9.00705051422119,9.81195068359375,0.0054999999702,0.14863750338554,0.18053749203682,-1.12227499485016,-0.96648746728897,-0.81166249513626,-2.42357492446899,-2.24441242218018,-2.04476237297058,1.17195010185242,1.44000005722046,1.17195010185242,2.76705002784729,2.84400010108948,3.34200024604797,9.81195068359375,9.19905090332031,9.19905090332031,0.19470000267029,0.16046249866486,0.00646249996498,-0.57213747501373,-0.52195000648499,-0.51163750886917,-1.6409250497818,-1.52817499637604,-1.46781253814697,-2.81100010871887,-5.91405010223389,-8.36505031585693,5.71695041656494,7.13400030136108,8.78205013275146,10.2330007553101,11.4589509963989,11.4589509963989,0.14602500200272,0.42638748884201,0.60101246833801,-0.44412499666214,0.15950000286102,0.51754999160767,-1.42793750762939,-1.42009997367859,-1.46176254749298,-6.52695035934448,40.7820014953613,64.9150543212891,7.63200044631958,-18.3010501861572,-39.5610008239746,10.8460502624512,7.36005020141602,-17.8450508117676,0.77398747205734,0.52112501859665,-5.1874623298645,0.80822497606277,0.52112501859665,-2.58224987983704,-1.5879875421524,-1.58578753471375,-1.17108750343323,13.6600503921509,-14.9160003662109,-45.5620536804199,-66.4150543212891,-46.6099510192871,-5.35305023193359,-47.0350532531738,-47.0350532531738,14.907000541687,-9.51582527160644,-11.71568775177,-12.653712272644,-5.09382486343384,-6.56191253662109,-7.14862489700317,-0.18383750319481,1.3113374710083,3.2153000831604,-40.0840530395508,-46.5190505981445,-27.1740016937256,-0.06599999964237,5.94705009460449,0.04800000041723,14.907000541687,8.08800029754639,8.08800029754639,-12.941499710083,-11.0731496810913,-6.67754983901978,-7.17956256866455,-6.30684995651245,-4.77248764038086,7.80628728866577,10.2459497451782,12.1386375427246,-3.00195002555847,1.70805013179779,8.91000080108643,-3.55200028419495,-4.31895017623901,-7.19205045700073,8.73900032043457,4.44900035858154,1.92105007171631,-0.23154999315739,5.88321256637573,6.4693751335144,-2.46166253089905,-0.77549999952316,-1.30735003948212,12.7267246246338,10.7871503829956,8.68120002746582,16.840051651001,8.91000080108643,1.1340000629425,-9.45195007324219,-2.02005004882813,2.84400010108948,0.12000000476837,-1.41105008125305,8.28000068664551,6.53523731231689,5.67049980163574,-0.00398749997839,-2.48819994926453,-4.95109987258911,-6.91597509384155,5.60601234436035,0.61407500505447,-11.940224647522,-2.65800023078919,-2.27505016326904,-2.12100005149841,4.56795024871826,3.37995004653931,2.03895020484924,15.903000831604,15.903000831604,13.03005027771,SWING_RIGHT
0.23430000245571,0.30167499184608,0.31116250157356,-0.71101248264313,-1.20229995250702,-1.3556125164032,-2.49658751487732,-3.22258758544922,-3.54186248779297,0.40605002641678,1.32495009899139,1.70805013179779,2.30805015563965,1.57995009422302,1.57995009422302,9.8500509262085,10.5400505065918,10.5400505065918,0.28833749890327,0.22632500529289,-0.00054999999702,-1.45846247673035,-1.52432501316071,-1.58372497558594,-3.88602495193481,-4.1267876625061,-4.09007501602173,1.74705004692078,1.70805013179779,0.44400003552437,1.77105009555817,2.00100016593933,2.99700021743774,10.3870506286621,10.2720003128052,9.65895080566406,-0.172562494874,-0.31239998340607,-0.38101249933243,-1.56420004367828,-1.51511251926422,-1.42711246013641,-3.88024997711182,-3.5543749332428,-3.12372493743896,-0.01395000051707,-0.01395000051707,-0.20595000684261,3.26505017280579,3.26505017280579,3.30405020713806,9.12195014953613,9.12195014953613,9.73500061035156,-0.22742499411106,-0.00219999998808,0.18906250596046,-1.01282501220703,-0.6767749786377,-0.29809999465942,-2.04586243629456,-1.55869996547699,-1.15018749237061,-0.43605002760887,-2.42805004119873,-2.16000008583069,3.45705008506775,4.45305013656616,4.3759503364563,10.3099508285522,10.3099508285522,10.1569509506226,0.44013750553131,0.79736250638962,0.81606251001358,0.00412499997765,0.71555000543594,0.87202501296997,-0.8397125005722,-0.44192498922348,-0.35007500648499,0.86595004796982,35.4570007324219,47.6389541625977,3.18900012969971,-18.5689506530762,-32.8570518493652,10.1179504394531,10.0420503616333,-34.5090026855469,0.70922499895096,0.00536249997094,-5.30516242980957,0.81290000677109,0.00508749997243,-3.48053741455078,-0.29644998908043,-0.15001249313354,1.35547494888306,23.2750511169434,-4.61100006103516,-69.1969528198242,-55.3440017700195,-56.2249526977539,3.57195019721985,-50.9809532165527,-50.9809532165527,6.13395023345947,-8.42723751068115,-10.1113376617432,-11.1427249908447,-6.6987247467041,-8.88923740386963,-10.168399810791,2.78134989738464,3.8035249710083,4.93693733215332,-65.7499542236328,-25.795051574707,-19.1680507659912,7.74705028533936,-0.56400001049042,-1.02404999732971,6.13395023345947,1.19295001029968,1.19295001029968,-11.9131374359131,-10.5665998458862,-6.41093730926514,-9.54703712463379,-8.1107120513916,-6.1505126953125,8.10809993743896,10.2126750946045,12.3025369644165,-0.39705002307892,8.18205070495605,13.9669504165649,-3.39900016784668,-4.54800033569336,-6.50205039978027,9.65895080566406,3.37605023384094,2.03595018386841,-0.64501249790192,6.8139500617981,8.19252490997314,-3.27497506141663,-0.3948999941349,-1.08446252346039,13.0516376495361,12.5100250244141,10.6024875640869,15.421950340271,7.6080002784729,3.77700018882751,-6.15705013275146,-1.75200009346008,-0.10500000417233,2.03595018386841,2.99295020103455,8.0110502243042,8.82199954986572,8.45514965057373,0.50943750143051,-3.76749992370605,-6.71453762054443,-5.52584981918335,6.70669984817505,-1.07140004634857,-13.8830995559692,0.36795002222061,-2.00595021247864,-0.66600000858307,1.57995009422302,2.38394999504089,1.23495006561279,10.5780000686646,10.7310009002686,9.96495056152344,SWING_RIGHT
-0.00604999996722,-0.37454998493195,-0.64955002069473,-1.17741250991821,-1.43494999408722,-1.65330004692078,-4.14177513122559,-4.46036243438721,-4.3489875793457,0.59700000286102,1.21005010604858,2.24505019187927,2.6140501499176,2.19300007820129,2.07795000076294,9.96495056152344,9.96495056152344,8.35605049133301,-0.61435002088547,-0.47561249136925,-0.26702499389648,-1.54096245765686,-1.30047500133514,-1.03441250324249,-3.96288752555847,-3.41467499732971,-2.78726243972778,2.28299999237061,2.206050157547,2.16795015335083,2.38394999504089,2.65200018882751,2.84400010108948,8.16495037078857,8.16495037078857,9.23700046539307,0.15633749961853,0.32106250524521,0.428312510252,-0.71183747053146,-0.67897498607635,-0.72146248817444,-1.65756249427795,-1.28727495670319,-1.01804995536804,1.86195003986359,1.93800008296967,1.93800008296967,3.34200024604797,3.37995004653931,3.49500012397766,8.89305019378662,8.89305019378662,8.89305019378662,0.49211248755455,0.59097498655319,0.6434999704361,-0.82788747549057,-0.92056250572205,-0.82637500762939,-0.8232125043869,-0.55935001373291,-0.4658499956131,1.01895010471344,-4.15200042724609,-3.76905012130737,4.1850004196167,7.17300033569336,5.83200025558472,9.08400058746338,9.46695041656494,11.5740003585815,0.73108750581741,0.82389998435974,0.87532502412796,-0.56938749551773,-0.16376249492168,0.71087497472763,-0.37922498583794,-0.2939749956131,-0.17462499439716,8.48895072937012,29.7109508514404,30.0559520721436,-2.59500002861023,-15.3130502700806,-51.0529518127441,11.5740003585815,9.73500061035156,-32.0190010070801,0.4160749912262,-1.1035749912262,-3.52673745155334,0.49829998612404,-0.80217498540878,-2.45355010032654,-0.00371249997988,0.00481249997392,0.71238750219345,12.01305103302,-18.0570011138916,-37.594051361084,-54.846004486084,-29.5249519348145,-4.4719500541687,-45.8860511779785,-45.8860511779785,-2.71395015716553,-7.6969747543335,-9.39427471160889,-10.7419128417969,-4.81923770904541,-4.55963754653931,-2.92531251907349,2.2152624130249,3.40009999275208,4.9002251625061,-32.191951751709,-29.5489521026611,-20.6620502471924,4.72095012664795,4.41495037078857,0.54495000839233,25.9780521392822,12.9910507202148,11.3440504074097,-10.8062620162964,-7.34854984283447,-5.34737491607666,-0.5546749830246,2.22062492370605,3.43598747253418,7.20733737945557,12.8622999191284,14.0469999313354,-10.6260004043579,3.43200016021729,8.52705001831055,-2.25,-5.54400014877319,-5.92695045471191,10.6930503845215,2.99295020103455,-0.91305005550385,-3.66451239585876,-2.13949990272522,-0.26840001344681,4.09406232833862,3.58586239814758,-1.28067493438721,14.4727001190186,13.980037689209,10.5375871658325,8.18205070495605,6.42000007629395,0.67395001649857,-2.78595018386841,-0.79395002126694,4.06995010375977,-1.75605010986328,2.11199998855591,12.7999505996704,-1.08666253089905,-2.43773746490479,-0.00027499999851,-4.3356499671936,-7.55548763275146,-14.2602624893188,6.92449998855591,1.94191253185272,3.47930002212524,-0.01395000051707,2.16795015335083,2.97300004959106,3.95505023002625,1.92495012283325,0.8520000576973,14.4850511550903,15.7500009536743,15.7500009536743,SWING_RIGHT
0.604587495327,0.52745002508163,0.47203749418259,0.59839999675751,0.94943749904633,1.06328749656677,1.02162504196167,0.63511252403259,0.52703750133514,-0.28305000066757,-0.74205005168915,-0.32100000977516,3.41895008087158,2.84400010108948,2.23095011711121,9.35205078125,8.54805088043213,8.54805088043213,0.42638748884201,0.38692501187325,0.25602498650551,1.17218744754791,1.27654993534088,1.55223751068115,0.52607500553131,0.6154500246048,1.16820001602173,-0.43605002760887,-0.66600000858307,-1.66200006008148,2.15400004386902,2.00100016593933,2.57595014572144,9.00705051422119,10.1179504394531,10.9230003356934,0.16073749959469,0.00054999999702,-0.21078750491142,1.75958752632141,2.05548739433289,2.39126253128052,1.7491375207901,2.72277498245239,4.02008724212646,-3.11700010299683,-4.68795013427734,-4.42005014419556,3.03495025634766,3.53295016288757,3.18900012969971,12.6469507217407,13.03005027771,13.03005027771,-0.78196251392365,-1.12447500228882,-1.41776251792908,3.14544987678528,3.54433751106262,3.81081247329712,6.98156261444092,8.55373764038086,9.70543766021728,-2.38905000686646,0.94200003147125,4.46700000762939,1.54095005989075,0.46905001997948,-0.7180500626564,10.3870506286621,9.00705051422119,8.47095012664795,-1.63198745250702,-1.89516246318817,-2.06084990501404,3.9143500328064,3.38236236572266,2.51281237602234,10.2110252380371,9.60575008392334,8.93474960327148,8.14395046234131,45.9150009155273,35.6490020751953,-0.79395002126694,-25.0429515838623,-42.7789535522461,8.47095012664795,4.2960000038147,-27.574951171875,-2.20618748664856,-2.5972375869751,-3.60236239433289,1.09119999408722,-1.025750041008,-6.59381246566772,8.324387550354,8.06753730773926,9.83743762969971,11.7829504013062,-15.3370504379272,-33.0739517211914,-56.0329513549805,-37.0710029602051,-8.95395088195801,-47.7250518798828,-47.7250518798828,19.5420017242432,-3.87708759307861,-4.02159976959229,-3.72900009155273,-8.36343765258789,-8.97833728790283,-8.74170017242432,10.1769247055054,11.0987253189087,12.3737621307373,-29.8170013427734,-32.7289505004883,-22.5010509490967,-4.20405006408691,6.7900505065918,5.21895027160645,19.5420017242432,18.201000213623,8.47095012664795,-1.65164995193481,0.73232501745224,1.88471245765686,-3.8226375579834,-0.37083750963211,2.40487504005432,13.5045623779297,12.9584121704102,11.9708871841431,-3.00195002555847,1.55505001544952,5.19405031204224,0.16200000047684,-0.44895002245903,-1.1010000705719,8.31795024871826,7.70505046844482,5.75100040435791,2.75756239891052,4.45582485198975,4.88056230545044,4.43959999084473,4.92758750915527,4.09708738327026,11.3825244903564,9.0246753692627,7.02418756484985,7.56900024414063,5.5770001411438,5.04105043411255,-1.25400006771088,-0.64095002412796,-0.87105005979538,4.10400009155273,0.88605004549026,9.77400016784668,4.63457489013672,2.70957493782043,2.11791253089905,1.2586749792099,-4.16790008544922,-11.2198619842529,5.31121253967285,4.39986228942871,5.78875017166138,4.00695037841797,2.24505019187927,-1.24005007743835,-0.37305000424385,0.77505004405975,1.96305012702942,9.77400016784668,8.89305019378662,10.9609508514404,SWING_RIGHT
0.00467499997467,0.14121249318123,0.20473749935627,0.3240875005722,0.43353748321533,0.54683750867844,-0.67691248655319,-0.79199999570847,-0.92839998006821,-1.39305007457733,-1.50795006752014,-1.50795006752014,2.42295002937317,2.6140501499176,2.6140501499176,10.5780000686646,10.4250001907349,9.61995029449463,0.27871251106262,0.44192498922348,0.52277499437332,0.64363747835159,0.73837500810623,0.73122501373291,-1.06631255149841,-1.33704996109009,-1.49847495555878,-1.35495007038116,-0.93405002355576,-1.24005007743835,2.49900007247925,2.15400004386902,2.53695011138916,9.50505065917969,9.77400016784668,10.3480501174927,0.59427499771118,0.65257501602173,0.72957497835159,0.65890002250671,0.51246249675751,0.0015124999918,-1.77086246013641,-2.11846256256104,-2.99254989624023,-1.77705013751984,-2.69595003128052,-5.45400047302246,3.03495025634766,3.6870002746582,4.95105028152466,10.6549501419067,10.6549501419067,10.9990501403809,0.79035001993179,0.90420001745224,1.0396374464035,-0.23058749735355,-0.42748749256134,-0.49321249127388,-3.51780009269714,-4.07439994812012,-4.53695011138916,-6.8710503578186,-6.2590503692627,-3.00195002555847,4.22294998168945,1.96305012702942,-1.29195010662079,10.195050239563,10.1569509506226,10.1569509506226,1.31725001335144,1.37981247901917,1.36551249027252,-0.26001250743866,-0.00219999998808,0.00123749999329,-4.96595001220703,-5.02851247787476,-5.35865020751953,13.7370004653931,37.1040000915527,47.1409530639649,-5.92695045471191,-17.4580516815186,-26.7670516967773,9.73500061035156,7.55205059051514,-12.9420003890991,1.12199997901917,-1.96253752708435,-5.23105001449585,-0.28847500681877,-3.05882501602173,-5.02933740615845,-5.70130014419556,-5.65083742141724,-5.28302478790283,26.6080513000488,-37.4020500183105,-52.3420524597168,-47.4139518737793,-16.5390014648438,4.10805034637451,-47.4559516906738,-25.3909511566162,10.7310009002686,-7.94172477722168,-9.72826290130615,-11.4270753860474,-6.93536233901978,-7.99246263504028,-5.90040016174316,-4.57572507858276,-3.46335005760193,1.93476247787476,-41.998950958252,-32.7670516967773,-14.4559507369995,7.01895046234131,4.64400005340576,-0.7180500626564,15.481050491333,11.8810501098633,10.3480501174927,-10.9174995422363,-9.24192523956299,-6.27605009078979,-4.13751268386841,-3.14201259613037,-2.28222489356995,5.59638738632202,9.0990629196167,11.8522253036499,-0.51195001602173,6.68805027008057,10.8640508651733,-1.75200009346008,-1.82895004749298,-1.78995013237,8.20305061340332,2.11199998855591,-0.14699999988079,-0.33715000748634,1.23915004730225,2.08010005950928,-0.52469998598099,-0.67196249961853,-2.58802509307861,13.7988128662109,13.0572748184204,11.1493253707886,11.4000005722046,9.3319501876831,4.73505020141602,-2.09700012207031,-1.17705011367798,1.50300002098084,0.73305004835129,2.80200004577637,4.90905046463013,1.99897503852844,4.32162475585938,5.35865020751953,-5.77500009536743,-18.4724369049072,-19.9590873718262,8.17327499389648,10.1827001571655,8.49461269378662,-0.74205005168915,-2.50395011901855,-2.16000008583069,4.2610502243042,4.45305013656616,3.57195019721985,9.65895080566406,14.2939510345459,14.2939510345459,SWING_RIGHT
-0.3770250082016,-0.62603747844696,-0.87436246871948,-1.78474998474121,-2.42838740348816,-2.89121246337891,-1.04073750972748,-1.12804996967316,-1.44856250286102,-0.16800001263618,-0.12900000810623,0.40605002641678,4.60605001449585,4.33800029754639,3.72495007514954,9.96495056152344,9.96495056152344,9.8500509262085,-0.92757499217987,-0.73273748159409,-0.42556250095367,-2.77653741836548,-2.23877501487732,-1.48926246166229,-2.3038125038147,-2.62542510032654,-2.78629994392395,0.44400003552437,-0.01395000051707,-0.16800001263618,3.91695022583008,4.06995010375977,3.95505023002625,9.61995029449463,9.35205078125,8.93100070953369,-0.00288749998435,0.70482498407364,0.94338750839233,-0.61476248502731,1.01626253128052,1.4777125120163,-2.79207491874695,-2.16589999198914,-1.59802496433258,-0.62700003385544,-1.96800005435944,-1.62300002574921,4.45305013656616,4.91295003890991,4.41495037078857,9.23700046539307,9.96495056152344,9.96495056152344,1.03014993667603,1.01103746891022,0.81468749046326,1.60985004901886,1.52556252479553,0.82761251926422,-1.18071246147156,-1.03152501583099,-1.76756250858307,-1.47000002861023,-1.39305007457733,-4.99395036697388,4.03095006942749,4.03095006942749,4.95105028152466,9.16095066070557,8.96895027160645,9.39105033874512,0.75556248426437,0.90488749742508,1.24368751049042,0.00687499996275,-1.00883746147156,-2.33076238632202,-2.91403746604919,-5.10661268234253,-7.82828760147095,-1.77705013751984,11.4000005722046,42.4669532775879,2.84400010108948,-4.51005029678345,-21.7870502471924,11.3830509185791,12.07200050354,12.07200050354,1.54439997673035,0.96415001153946,-1.16655004024506,-3.90458750724792,-4.99372482299805,-6.87087488174438,-10.7203245162964,-10.9397745132446,-10.6207752227783,27.0679512023926,6.99495029449463,-31.8480014801025,-54.6540031433105,-48.7549514770508,-19.6410007476807,-43.5490531921387,-43.5490531921387,-31.0230007171631,-4.26469993591309,-8.59402465820313,-11.1108245849609,-8.79724979400635,-8.73523712158203,-4.80988740921021,-9.09796237945557,-3.4964873790741,-0.50118750333786,-43.9909515380859,-26.2549514770508,-19.3980007171631,3.61005020141602,1.61805009841919,0.58395004272461,21.8790016174316,16.2859516143799,12.6850509643555,-12.0599870681763,-11.7818250656128,-11.6778745651245,-1.67254996299744,-1.01928746700287,-3.50597500801086,2.15957498550415,5.45008754730225,13.8811750411987,-10.1659507751465,-2.69595003128052,8.83395004272461,-0.98595005273819,-0.14295001327991,-3.39900016784668,10.7310009002686,9.19905090332031,-0.79800003767014,-9.69113731384277,-7.9655122756958,-5.96873760223389,-2.03775000572205,-1.57753753662109,-3.59411239624023,15.164324760437,15.631275177002,15.447850227356,9.29295063018799,5.15595006942749,0.09900000691414,-2.51805019378662,0.96705007553101,3.84000015258789,-3.59505009651184,-2.71395015716553,4.52595043182373,-4.7858247756958,-5.14456224441528,-1.99787497520447,-9.94344997406006,-10.7764253616333,-11.5227746963501,13.3145370483398,10.6698627471924,8.57078742980957,-1.24005007743835,-0.05295000225306,1.32495009899139,3.95505023002625,2.57595014572144,0.66000002622604,16.0939502716064,16.0939502716064,15.0220508575439,SWING_RIGHT
0.60843747854233,0.61352497339249,0.51974999904633,0.00013749999925,0.52868747711182,0.75363749265671,-0.00109999999404,-0.2043250054121,-0.24474999308586,-1.08705008029938,-0.74205005168915,-0.97200006246567,2.57595014572144,2.6140501499176,2.80605006217957,10.195050239563,9.42900085449219,9.12195014953613,0.38609999418259,0.24612499773502,0.00041249999776,0.89622497558594,0.95438748598099,0.9094250202179,-0.22838750481606,-0.16348749399185,0.00522499997169,-1.04895007610321,-1.00995004177094,-2.00595021247864,2.88195013999939,2.95905017852783,3.45705008506775,9.12195014953613,9.35205078125,9.77400016784668,-0.00288749998435,-0.00329999998212,-0.00054999999702,0.83407497406006,0.74084997177124,0.69080001115799,0.29713749885559,0.4989874958992,0.67704999446869,-2.38905000686646,-3.80700016021729,-7.25400018692017,3.72495007514954,4.64400005340576,6.02295017242432,10.5400505065918,10.5780000686646,11.076000213623,0.15702499449253,0.22990000247955,0.22866250574589,0.78182500600815,0.97638750076294,1.41542494297028,0.95493751764297,1.0784125328064,1.26266252994537,-11.6220006942749,-7.48395013809204,1.28700006008148,3.30405020713806,-0.67905002832413,-4.39499998092651,12.6469507217407,11.6509504318237,11.6509504318237,0.00453749997541,-1.06246244907379,-1.99223744869232,2.0017249584198,3.15026259422302,2.98567509651184,1.59967494010925,2.76760005950928,3.13472509384155,13.3150510787964,40.5900001525879,21.3220500946045,-7.57500028610229,-28.8730506896973,-54.8070030212402,11.2680006027222,-11.7540006637573,-46.498950958252,-2.29762506484985,-3.65351247787476,-8.98631286621094,1.45777499675751,-0.40369999408722,-5.07416248321533,0.29136249423027,-5.67105007171631,-8.12281227111816,13.4689502716064,-26.4079513549805,-53.1850509643555,-57.7570533752441,-38.7180023193359,7.09605026245117,-46.498950958252,-42.4380035400391,13.3360509872437,-7.32187509536743,-2.90496253967285,-0.93032497167587,-10.1921873092651,-18.3243503570557,-23.5581493377686,-7.85661268234253,-7.4391622543335,-7.17007493972778,-34.6440010070801,-23.2669506072998,-14.2260007858276,3.30405020713806,1.19700002670288,0.16200000047684,11.6890506744385,6.86205053329468,6.86205053329468,-0.64789998531342,1.71778750419617,5.01531267166138,-35.0752868652344,-34.7293357849121,-33.5549507141113,1.47317504882813,7.4071249961853,9.90742492675781,3.20205020904541,9.75300025939941,12.3580503463745,-2.17305016517639,-2.59500002861023,-2.05800008773804,8.4330005645752,5.8279504776001,0.88605004549026,6.88861227035522,1.94562494754791,0.9813374876976,-32.217212677002,-21.2008495330811,-14.5782995223999,10.8399496078491,8.7282247543335,7.79006242752075,12.1660509109497,5.5770001411438,2.01495003700256,-1.78995013237,2.34600019454956,3.57195019721985,2.14995002746582,6.47895050048828,8.05005073547363,1.31449997425079,1.85817503929138,2.80348753929138,-11.2587747573853,-14.9879121780396,-16.520486831665,6.32403755187988,5.31327486038208,1.95002496242523,-0.09105000644922,-0.74205005168915,-0.550950050354,4.03095006942749,3.7630500793457,2.92095017433167,10.9609508514404,11.7270002365112,11.0380506515503,SWING_RIGHT
0.16582499444485,0.19387499988079,0.2261874973774,0.65917497873306,0.63607501983643,0.60211247205734,0.00632499996573,0.2411749958992,0.3948999941349,0.17595000565052,0.71205002069473,0.90405005216599,3.18900012969971,3.03495025634766,3.30405020713806,9.23700046539307,9.23700046539307,9.08400058746338,0.25836250185966,0.27362498641014,0.25093749165535,0.55687499046326,0.35681250691414,0.22797499597073,0.59014999866486,1.03427493572235,1.2641749382019,1.17195010185242,1.55505001544952,1.66995012760162,3.26505017280579,3.37995004653931,3.34200024604797,9.31395053863525,9.31395053863525,9.81195068359375,0.22110000252724,0.19511249661446,0.14767499268055,0.0054999999702,-0.00041249999776,-0.20184999704361,1.54701244831085,1.84786248207092,2.31275010108948,1.44000005722046,-0.01395000051707,-2.96400022506714,3.53295016288757,4.64400005340576,5.44905042648315,9.8500509262085,10.195050239563,10.9230003356934,0.16183750331402,0.26441249251366,0.39063748717308,-0.18383750319481,0.00316249998286,0.55027496814728,2.48819994926453,2.70434999465942,2.92627501487732,-3.04095005989075,-2.73405003547669,-0.70395004749298,4.22294998168945,3.61005020141602,2.34600019454956,10.7310009002686,9.50505065917969,7.74300050735474,0.53074997663498,0.48276248574257,0.27939999103546,1.88856244087219,2.67547488212585,3.52412509918213,3.37878751754761,3.77904987335205,4.60900020599365,20.0580005645752,47.1409530639649,37.7170524597168,-7.53600025177002,-26.3830509185791,-45.1159515380859,6.51705026626587,4.75500011444092,-60.2509536743164,-0.21078750491142,-5.46837520599365,-12.8126621246338,3.87763738632202,-0.48523750901222,-0.88192498683929,5.72233724594116,5.27312517166138,2.22543740272522,17.5290012359619,-56.134952545166,-39.7009506225586,-59.9020538330078,2.92095017433167,6.55995035171509,-60.2509536743164,5.2150502204895,20.15505027771,-15.6157369613647,-16.0326366424561,-15.0555620193481,-2.08284997940063,-4.42543745040894,-11.4399995803833,2.13949990272522,2.55131244659424,1.98440003395081,-33.6859512329102,-27.2890510559082,-3.38505005836487,7.63200044631958,5.33400011062622,-2.82495021820068,20.15505027771,12.7230005264282,14.907000541687,-17.0053119659424,-16.5162258148193,-9.88459968566894,-21.7669372558594,-24.1111755371094,-24.1009998321533,-0.52208751440048,1.01227498054504,6.01218748092651,5.42400026321411,8.68005084991455,10.7490005493164,-3.20805025100708,-2.51805019378662,-2.17305016517639,3.49095010757446,-0.03195000067353,-3.21195006370544,-1.99292504787445,-1.79547500610352,-2.34368753433228,-25.3368492126465,-24.3069744110107,-23.1211757659912,7.1831374168396,6.05756235122681,4.91232490539551,8.71905040740967,5.15595006942749,1.90005004405975,0.81405001878738,2.92095017433167,4.52895021438599,-3.28800010681152,1.88205003738403,9.46695041656494,-2.68564987182617,2.09660005569458,1.724524974823,-19.2223625183105,-18.0820751190186,-17.3064365386963,4.94752502441406,5.39330005645752,2.96312499046326,-0.47400003671646,-0.05295000225306,0.40605002641678,5.25705003738403,3.45705008506775,2.95905017852783,15.2899503707886,12.7620010375977,11.7660007476807,SWING_RIGHT
0.00219999998808,0.00219999998808,0.00536249997094,-0.00591249996796,-0.00577499996871,0.00219999998808,-0.00192499998957,-0.00288749998435,-0.00467499997467,-0.28305000066757,-0.62700003385544,-0.85695004463196,4.45305013656616,4.41495037078857,4.79805040359497,9.19905090332031,9.19905090332031,9.42900085449219,0.17022499442101,0.24103750288486,0.31982499361038,0.19648750126362,0.38238748908043,0.59386247396469,-0.00467499997467,-0.00439999997616,-0.00398749997839,-0.85695004463196,-1.04895007610321,-0.16800001263618,4.95105028152466,4.64400005340576,3.95505023002625,9.08400058746338,9.04605007171631,8.81595039367676,0.46076250076294,0.49348750710487,0.45210000872612,0.99343746900558,1.111412525177,1.09340000152588,-0.00206249998882,-0.00027499999851,0.00247499998659,3.24105024337769,4.12200021743774,4.00695037841797,1.57995009422302,0.8520000576973,1.31205010414124,8.58600044250488,8.73900032043457,9.39105033874512,0.2924624979496,-0.34966251254082,-0.7596874833107,0.8398500084877,-0.31501248478889,-1.00677502155304,0.00604999996722,0.31185001134872,0.43766251206398,3.77700018882751,2.39805006980896,1.51695013046265,2.11605000495911,3.95505023002625,5.25705003738403,12.1489505767822,9.96495056152344,8.66295051574707,-1.15719997882843,-1.43852496147156,-1.44375002384186,-1.67832493782043,-2.22983741760254,-2.58774995803833,0.56374996900558,0.66178750991821,0.6678375005722,2.62800002098084,20.1720008850098,18.7549514770508,4.3759503364563,-8.68605041503906,-52.5859527587891,8.47095012664795,8.47095012664795,-4.51395034790039,-1.28053748607636,-1.98178744316101,-4.16597509384155,-2.44681239128113,-2.44626259803772,-2.54402494430542,0.59056252241135,0.72930002212524,1.59060001373291,9.56100082397461,-5.68395042419434,-34.298999786377,-57.9100532531738,-46.1500511169434,-27.4180507659912,-40.9060516357422,-40.9060516357422,3.22305011749268,-8.09476280212402,-9.5836124420166,-12.0375747680664,-3.20058751106262,-1.44691252708435,9.82327461242676,3.70191240310669,4.17862510681152,4.52883768081665,-39.202953338623,-39.0109519958496,-21.4279518127441,-3.28395009040833,6.25305032730103,3.61005020141602,14.5240507125854,7.55205059051514,7.55205059051514,-12.2806749343872,-6.96574974060059,0.7206375002861,13.0508127212524,19.0612125396729,23.5250129699707,5.93064975738525,8.7803373336792,8.61107540130615,-10.9320001602173,4.8880500793457,8.56500053405762,-0.7180500626564,-6.19605016708374,-6.15705013275146,16.0180511474609,11.3059501647949,3.682950258255,5.31767511367798,7.8590874671936,12.0345497131348,25.0672130584717,24.8743000030518,8.41458702087402,8.42379951477051,8.37801265716553,7.06708765029907,12.3199510574341,13.9669504165649,3.50895023345947,-5.85105037689209,-5.12295007705688,0.92895007133484,1.34595000743866,-1.90905010700226,3.64395022392273,11.2051496505737,8.82227516174316,3.79073739051819,4.44496250152588,-1.5714875459671,-9.84073734283447,5.07402515411377,2.88777494430542,0.83517497777939,1.44000005722046,0.32895001769066,-0.05295000225306,1.77105009555817,2.46105003356934,1.96305012702942,9.50505065917969,11.8039503097534,11.8039503097534,SWING_RIGHT
0.51507496833801,0.45058751106262,0.39283749461174,1.00347495079041,0.88563752174377,0.76284998655319,1.05916249752045,1.16503751277924,1.24341249465942,2.16795015335083,3.16395020484924,3.20205020904541,1.61805009841919,1.61805009841919,1.88595008850098,9.00705051422119,8.4330005645752,8.4330005645752,0.29851248860359,0.18246249854565,-0.00494999997318,0.56663751602173,0.29452499747276,-0.33907499909401,1.37912499904633,1.54123747348785,1.81472504138947,2.89605021476746,2.35995006561279,1.36395001411438,2.07795000076294,2.57595014572144,3.45705008506775,8.73900032043457,8.93100070953369,9.27600002288818,-0.22206249833107,-0.2745875120163,-0.21931250393391,-0.65092498064041,-0.88742500543594,-0.96511250734329,1.92733752727509,2.00007510185242,1.96679997444153,1.40205001831055,1.44000005722046,0.78900003433228,3.18900012969971,3.11205005645752,3.45705008506775,9.27600002288818,9.12195014953613,9.12195014953613,0.00673749996349,0.37290000915527,0.6209499835968,-0.59496247768402,-0.22852499783039,0.21394999325275,1.53766250610352,1.2277375459671,0.90034997463226,-0.81900006532669,-3.99795007705688,-5.98995018005371,4.49100017547607,6.2920503616333,7.47900056838989,9.16095066070557,8.89305019378662,8.89305019378662,0.86817497014999,1.15706253051758,1.1614625453949,0.71403747797012,1.64518749713898,1.93338751792908,0.56003749370575,0.0,-0.00577499996871,-3.00195002555847,42.7350006103516,41.8540534973145,4.49100017547607,-30.0990009307861,-46.0729522705078,9.19905090332031,9.61995029449463,-38.2630500793457,1.05077505111694,-0.18507499992847,-8.27337455749512,2.04489994049072,1.13794994354248,-2.06497502326965,-0.00632499996573,0.25313749909401,-0.00577499996871,31.7029514312744,-24.8380508422852,-46.9789505004883,-52.5469512939453,-34.3510513305664,-2.28795003890991,-46.8820533752441,-46.8820533752441,13.4890508651733,-13.0150623321533,-15.7591495513916,-16.659912109375,-0.39531248807907,1.0896874666214,1.01213753223419,-0.98669999837875,0.00219999998808,1.66938745975494,-39.586051940918,-32.881950378418,-17.9809513092041,2.15400004386902,1.61805009841919,-0.90900003910065,5.2150502204895,3.91305017471313,3.91305017471313,-16.5017871856689,-7.05278730392456,-0.57832497358322,2.19326257705688,12.012412071228,14.7389001846313,6.01424980163574,9.722487449646,11.9314250946045,5.5009503364563,9.71505069732666,10.5960006713867,-4.4719500541687,-4.01205015182495,-2.17305016517639,10.7700004577637,5.90505027770996,3.33795022964478,5.22101259231567,11.6330499649048,12.2068376541138,13.7300624847412,9.32401275634766,7.94378757476807,14.3646249771118,13.2822246551514,11.0109996795654,11.0940008163452,5.11800003051758,2.05305004119873,-1.6750500202179,1.19700002670288,2.49900007247925,0.19695000350475,8.05005073547363,13.7190008163452,11.494312286377,8.37705039978027,2.33282494544983,3.71016240119934,-8.1449499130249,-15.7231245040894,7.78415012359619,3.75086259841919,-2.6831750869751,0.78900003433228,0.09900000691414,1.09500002861023,2.72895002365112,2.11605000495911,0.69900006055832,14.8680009841919,14.8680009841919,9.5440502166748,SWING_RIGHT
-0.18026250600815,-0.34443750977516,-0.31281250715256,0.53377497196198,0.00137499999255,-0.14643749594688,2.90070009231567,3.47462487220764,3.68321251869202,1.21005010604858,1.36395001411438,0.67395001649857,1.88595008850098,1.92495012283325,2.84400010108948,9.08400058746338,9.88905048370361,9.77400016784668,-0.20253749191761,-0.00137499999255,0.40768748521805,-0.21573749184608,-0.17723749577999,0.00563749996945,3.85976243019104,3.93318748474121,3.73903751373291,0.44400003552437,0.6360000371933,-0.05295000225306,3.03495025634766,2.72895002365112,3.41895008087158,9.61995029449463,9.5440502166748,9.27600002288818,0.61641252040863,0.79062497615814,0.92949998378754,0.31968748569489,0.54546248912811,0.77673751115799,3.57706236839294,3.42237496376038,3.25187492370605,-0.20595000684261,0.21405000984669,-0.58905005455017,3.07395005226135,2.49900007247925,3.26505017280579,9.96495056152344,9.96495056152344,9.81195068359375,1.0095249414444,0.98216247558594,0.91066247224808,1.11732494831085,1.24547493457794,1.38503754138947,2.83043742179871,2.70352506637573,2.65237498283386,-7.06305027008057,-10.4719505310059,-9.36105060577393,6.2920503616333,6.44505023956299,3.84000015258789,10.6159505844116,12.1099510192871,12.4170007705688,0.84149998426437,0.57983750104904,0.31446251273155,1.644087433815,2.48489999771118,2.88103747367859,2.59861254692078,2.46070003509521,2.51968741416931,-1.47000002861023,56.6410522460938,50.1670532226563,0.00900000054389,-26.6899509429932,-44.1199531555176,12.1099510192871,9.96495056152344,-1.83195006847382,-0.25011250376701,-1.47661244869232,-5.69002485275269,2.88667488098145,1.54054999351501,-4.28601264953613,2.70118737220764,2.95514988899231,4.15456247329712,28.5229511260986,-0.35895001888275,-34.6440010070801,-58.561954498291,-43.3540534973145,-12.7080001831055,-35.8879508972168,-37.8799514770508,12.5700006484985,-6.22957515716553,-8.03728771209717,-15.2674503326416,-7.14738750457764,-7.31142473220825,1.00925004482269,4.84275007247925,4.81373739242554,3.45702505111694,-23.344051361084,-23.6119518280029,-23.803050994873,-15.9259510040283,-9.49005031585693,2.42295002937317,12.5700006484985,9.81195068359375,9.81195068359375,-15.3206624984741,-12.9540128707886,-6.46153736114502,2.73624992370605,6.51241254806519,15.9359750747681,5.29718732833862,6.72773742675781,6.67535018920898,-5.9520001411438,2.43600010871887,7.72305059432983,1.42695009708405,-0.90900003910065,-1.6750500202179,19.2349510192871,10.4629507064819,4.71705007553101,-1.59211254119873,6.71673727035522,10.7907247543335,21.5330505371094,16.3689632415771,10.983362197876,6.3269248008728,7.53623723983765,7.57377481460571,9.56100082397461,3.89205026626587,3.31695008277893,-1.02404999732971,1.35000002384186,0.66000002622604,-0.26205000281334,2.57205009460449,7.66695022583008,11.7628498077393,11.9785871505737,5.25524997711182,9.17771244049072,6.29268741607666,-9.09108734130859,6.3562126159668,4.3076000213623,1.38709998130798,2.85795021057129,1.51695013046265,0.71205002069473,0.54495000839233,0.73695003986359,0.58395004272461,10.7700004577637,11.8039503097534,11.2680006027222,SWING_RIGHT
0.48262500762939,0.55659997463226,0.67594999074936,0.3799124956131,0.31130000948906,0.3827999830246,6.85354995727539,6.08038759231567,4.12211227416992,0.21405000984669,0.06105000153184,0.32895001769066,2.69100022315979,2.95905017852783,2.88195013999939,10.1179504394531,9.69705009460449,7.81995058059692,0.70606249570847,0.72311252355576,0.73892498016357,0.50325000286102,0.64418751001358,0.76835000514984,3.36352491378784,2.81503748893738,2.41903758049011,0.36795002222061,0.29100000858307,0.17595000565052,3.03495025634766,3.18900012969971,3.30405020713806,7.81995058059692,7.9350004196167,8.35605049133301,0.77096247673035,0.80739998817444,0.84534996747971,0.88082498311996,0.86322498321533,0.83270001411438,1.90299999713898,1.79877495765686,1.77663743495941,0.25304999947548,0.06105000153184,-0.09105000644922,2.99700021743774,2.99700021743774,2.99700021743774,8.35605049133301,8.54805088043213,8.778000831604,0.86803752183914,0.76986247301102,0.65119999647141,0.80148750543594,0.79763752222061,0.83723747730255,1.78516244888306,1.80097496509552,1.8463499546051,-0.66600000858307,-2.92605018615723,-5.03295040130615,3.07395005226135,4.06995010375977,4.83600044250488,9.88905048370361,11.2680006027222,11.3059501647949,0.49183750152588,0.29947498440742,-0.00439999997616,0.93211251497269,1.10783743858337,1.61933743953705,1.93833744525909,2.03005003929138,2.1379873752594,-5.68395042419434,-2.61900019645691,39.786003112793,4.91295003890991,1.96305012702942,-21.0589504241943,11.6509504318237,11.6890506744385,13.4509506225586,-0.26936250925064,-0.5986750125885,-1.57162499427795,1.85693752765656,1.93476247787476,0.99907499551773,2.22777509689331,2.37668752670288,2.62102508544922,39.1729507446289,22.0500011444092,-5.2630500793457,-43.85205078125,-50.4019508361816,-29.601001739502,-38.683952331543,-38.683952331543,-26.8849506378174,-5.92693758010864,-8.31063747406006,-10.7354497909546,-3.00231242179871,-4.00234985351563,-3.39377498626709,2.14403748512268,1.32838749885559,0.82307499647141,-30.6990013122559,-28.0170021057129,-26.2930507659912,-5.00805044174194,-6.19605016708374,-3.28395009040833,22.2229518890381,22.2229518890381,19.3500003814697,-11.8934745788574,-11.3572244644165,-12.1323127746582,-3.14957499504089,-3.51257491111755,-7.7864875793457,1.28768754005432,4.42255020141602,8.44566249847412,-18.8230514526367,-5.18595027923584,1.36395001411438,2.84400010108948,2.92095017433167,1.12005007266998,11.0380506515503,4.14195013046265,6.78600025177002,-15.09681224823,-12.6777753829956,-8.27818775177002,-12.6966123580933,-11.5985374450684,-13.8238372802734,13.4220628738403,15.7782621383667,17.4931621551514,4.62000036239624,5.46300029754639,5.19405031204224,0.92895007133484,1.35000002384186,1.08195006847382,6.97695016860962,6.97695016860962,7.16895055770874,-7.51368761062622,-7.03381252288818,-6.62956237792969,-14.846287727356,-16.2204627990723,-17.6625633239746,16.7865505218506,15.1751871109009,12.2314500808716,4.12200021743774,3.50895023345947,3.20205020904541,1.27305006980896,0.81405001878738,0.27705001831055,9.00705051422119,10.0800008773804,10.6549501419067,SWING_RIGHT
1.69455003738403,1.59101247787476,1.05448746681213,1.99278748035431,1.8741250038147,1.34447503089905,10.6173372268677,9.17867469787598,4.8850998878479,-1.24005007743835,-1.89105010032654,0.06105000153184,3.61005020141602,3.41895008087158,0.3160500228405,10.0800008773804,10.6930503845215,9.42900085449219,0.86157500743866,0.73094999790192,0.59276247024536,1.24011254310608,1.23323750495911,1.28466248512268,3.55423736572266,2.8223249912262,2.44571256637573,2.16795015335083,4.31295013427734,5.80695009231567,-0.75600004196167,-1.29195010662079,-1.13895010948181,9.5440502166748,9.77400016784668,10.3480501174927,-0.00027499999851,-0.36684998869896,-0.71128749847412,1.25358748435974,0.94875001907349,0.36519998311996,2.37737488746643,2.59627509117126,2.96449995040894,6.57300043106079,6.15195035934448,5.65395021438599,0.69900006055832,1.57995009422302,2.65200018882751,10.3870506286621,9.31395053863525,8.93100070953369,-0.97968751192093,-0.88494998216629,-0.32945001125336,-0.41126251220703,-2.09701251983643,-2.78478741645813,3.39019989967346,4.17628765106201,4.46916246414185,4.81095027923584,3.93000030517578,3.24105024337769,3.18900012969971,3.84000015258789,4.06995010375977,8.16495037078857,6.63195037841797,6.63195037841797,0.48152500391006,1.36413753032684,2.95322489738464,-3.15809988975525,-3.12840008735657,-2.06593751907349,4.52732515335083,4.27418756484985,3.11533737182617,2.70405006408691,5.3860502243042,35.9170532226563,4.49100017547607,1.81005012989044,-42.9709510803223,6.86205053329468,7.09200048446655,7.59000015258789,3.46403741836548,3.37314987182617,1.4719375371933,-1.36083745956421,-0.93940001726151,-1.2364000082016,2.43828749656677,2.01602506637573,2.24523758888245,16.2649517059326,1.47900009155273,-34.1080513000488,-73.5780029296875,-57.1819534301758,-30.9040508270264,-47.5710029602051,-47.5710029602051,-10.8349504470825,-9.05698776245117,-13.3258123397827,-14.9753999710083,0.00054999999702,1.99402499198914,1.94493746757507,1.09807503223419,1.52954995632172,3.46926259994507,-38.628002166748,-42.1909523010254,-38.9730033874512,-12.4399509429932,-2.86305022239685,5.67900037765503,16.3240509033203,16.3240509033203,9.77400016784668,-15.5487747192383,-21.496337890625,-21.7331123352051,1.2725625038147,-8.84413719177246,-11.7111501693726,5.48734998703003,8.01707458496094,8.91013717651367,-23.6500511169434,2.62800002098084,7.76100015640259,2.84400010108948,-4.93095016479492,-5.39100027084351,2.30400013923645,2.38005018234253,-0.52995002269745,-17.169075012207,-11.9695119857788,-8.94519996643066,-12.272424697876,-15.3224496841431,-16.1569366455078,10.5177869796753,11.7602376937866,8.59759998321533,10.9399509429932,13.3540506362915,6.88005018234253,-5.35305023193359,-4.81695032119751,-0.06599999964237,-0.56805002689362,-1.14300000667572,-0.18495000898838,-8.31847476959229,-7.03628730773926,0.31941249966621,-15.5183877944946,-13.5783996582031,-4.73687505722046,6.03253746032715,1.82132494449615,-6.50264978408813,2.28299999237061,0.71205002069473,0.40605002641678,1.77105009555817,1.88595008850098,1.35000002384186,9.12195014953613,11.8039503097534,14.5240507125854,SWING_RIGHT
0.46516248583794,0.40796250104904,0.21779999136925,0.81331247091293,0.87725001573563,0.88357502222061,0.96607500314713,1.06878745555878,1.60201251506805,0.44400003552437,0.82695001363754,0.21405000984669,2.49900007247925,2.34600019454956,2.84400010108948,9.8500509262085,9.96495056152344,9.8500509262085,0.00673749996349,0.00384999997914,0.00178749999031,0.8595125079155,0.85745000839233,0.87271249294281,2.02138757705688,2.52697491645813,3.04603743553162,-0.12900000810623,-0.20595000684261,0.09900000691414,3.15000009536743,3.11205005645752,2.92095017433167,9.8500509262085,9.46695041656494,9.31395053863525,0.00164999999106,0.00522499997169,0.20143750309944,0.95741248130798,1.05462503433228,1.19350004196167,3.87392497062683,4.12554979324341,4.29357481002808,-0.66600000858307,-1.89105010032654,-3.88305020332336,3.26505017280579,3.99300026893616,4.64400005340576,8.66295051574707,9.92700004577637,9.96495056152344,0.28545001149178,0.44659999012947,0.51039999723434,1.33141243457794,1.65206253528595,2.00282502174377,4.36163759231567,4.10657501220703,3.85494995117188,-7.02495050430298,-8.25,-1.27905011177063,5.44905042648315,1.31205010414124,-2.36505007743835,10.3099508285522,10.6930503845215,10.3099508285522,0.49376249313354,0.34636250138283,-0.85703748464584,2.49493741989136,3.00121259689331,3.71689987182617,3.65158748626709,3.53815007209778,3.62779998779297,5.27100038528442,24.8080520629883,36.8359527587891,-4.51005029678345,-15.7720508575439,-36.9180030822754,10.3099508285522,12.7620010375977,-39.6799507141113,-1.93338751792908,-3.65543746948242,-6.14377498626709,3.34716248512268,1.47688746452332,-1.40566253662109,3.98639988899231,4.22510004043579,3.59081244468689,22.8919506072998,8.6419506072998,-34.7209510803223,-55.995002746582,-45.844051361084,-25.9999504089355,-42.4759521484375,-42.4759521484375,-23.0160007476807,-13.2961120605469,-15.1683120727539,-15.3214874267578,-4.14067506790161,-4.87368726730347,-6.62970018386841,0.75844997167587,0.76587498188019,1.28301250934601,-35.7930030822754,-33.5719528198242,-26.1019515991211,-5.85105037689209,1.61805009841919,4.79805040359497,20.193000793457,10.0420503616333,9.39105033874512,-14.4607372283936,-14.1805124282837,-14.9485874176025,-8.47728729248047,-15.4332752227783,-18.6924381256104,1.69826245307922,1.57217502593994,3.11382508277893,-13.957950592041,7.7989501953125,13.2769508361816,3.34200024604797,-2.32695007324219,-2.9389500617981,8.73900032043457,4.83195018768311,2.95500016212463,-11.5491752624512,-8.13587474822998,-4.7118501663208,-19.745138168335,-21.1993370056152,-20.8738746643066,5.82188749313354,6.81257486343384,4.58039999008179,12.7030506134033,9.67605018615723,4.00695037841797,-1.56000006198883,0.23895001411438,1.35000002384186,1.11600005626678,0.00495000043884,5.94300031661987,-3.80311250686646,-3.02472496032715,3.2407374382019,-20.9746627807617,-21.8853244781494,-18.8743495941162,2.42233753204346,1.99526250362396,5.12256240844727,1.86195003986359,0.36795002222061,-1.04895007610321,2.07795000076294,2.03895020484924,1.81005012989044,8.12595081329346,9.81195068359375,10.4629507064819,SWING_RIGHT
0.64968746900558,0.75157499313354,0.8428750038147,-0.00384999997914,-0.00343749998137,0.00054999999702,2.60053753852844,2.07501244544983,1.70527493953705,1.09500002861023,1.17195010185242,2.35995006561279,3.03495025634766,2.99700021743774,2.26905012130737,9.88905048370361,9.96495056152344,9.96495056152344,0.87807500362396,0.77990001440048,0.68873751163483,0.00687499996275,0.3962749838829,0.4644750058651,1.44292497634888,1.12749993801117,1.08404994010925,2.93400025367737,1.55505001544952,1.97700011730194,2.19300007820129,3.37995004653931,3.03495025634766,9.96495056152344,8.778000831604,8.5090503692627,0.57392501831055,0.44288748502731,0.27087500691414,0.49926251173019,0.46598750352859,0.23292499780655,1.09573745727539,1.1281875371933,1.15610003471375,2.24505019187927,1.8229501247406,-2.23605012893677,2.6140501499176,3.07395005226135,5.02695035934448,8.5090503692627,7.97295045852661,9.50505065917969,0.27967500686646,0.34581249952316,0.47574999928474,0.00453749997541,0.00041249999776,0.0027499999851,1.17067503929138,1.20546245574951,1.214674949646,-5.33895015716553,-7.48395013809204,-6.10500049591064,6.21495008468628,5.9089503288269,2.95905017852783,10.6549501419067,12.1489505767822,13.8720006942749,0.776187479496,0.79791247844696,0.59042501449585,1.02203750610352,1.73483753204346,2.44090008735657,0.98037499189377,0.88302499055862,0.95438748598099,6.49695014953613,30.1710014343262,49.2480010986328,-4.70205020904541,-16.0020008087158,-34.465950012207,12.9529504776001,9.12195014953613,-6.81195020675659,0.00096249999478,-2.73171257972717,-5.58758735656738,2.8969874382019,0.83737498521805,-1.59596252441406,1.23475003242493,2.16534996032715,2.08271241188049,31.8940505981445,-22.3860015869141,-38.2069511413574,-55.2289543151855,-33.1639518737793,-17.6880016326904,-45.1579513549805,-31.2520523071289,2.30400013923645,-8.81842517852783,-11.6304378509521,-13.0536994934082,-3.10750007629395,-3.2239625453949,-4.27872514724731,1.41267502307892,1.08955001831055,2.82686257362366,-36.5209503173828,-32.4990005493164,-21.4279518127441,-13.7419509887695,-10.5630006790161,4.41495037078857,16.3240509033203,10.7700004577637,9.73500061035156,-12.4233999252319,-11.3584623336792,-14.9382753372192,-5.2047872543335,-6.5388126373291,-16.0930004119873,4.16459989547729,5.80854988098145,8.59759998321533,-12.1960506439209,-1.69995009899139,6.26700019836426,4.83600044250488,2.38394999504089,-0.06599999964237,9.73500061035156,9.31395053863525,6.74700021743774,-10.2541999816895,-8.14852523803711,-7.19729995727539,-16.7197246551514,-18.0757503509521,-18.739875793457,13.5184497833252,14.1319751739502,13.4891624450684,10.9789505004883,8.6419506072998,4.65795040130615,-0.7180500626564,0.69900006055832,1.57995009422302,4.94700002670288,3.52995014190674,4.02795028686523,-6.3963623046875,-2.11777496337891,2.34794998168945,-19.186336517334,-15.8793249130249,-12.5547122955322,12.2055997848511,6.35772514343262,3.00506258010864,2.24505019187927,-0.81900006532669,-0.97200006246567,1.77105009555817,1.27305006980896,0.73695003986359,7.16895055770874,10.7700004577637,11.6119508743286,SWING_RIGHT
0.42253750562668,0.30813750624657,0.21436250209808,0.37771248817444,0.31817498803139,0.30703750252724,1.19487500190735,1.88856244087219,2.29886245727539,0.82695001363754,1.28700006008148,1.51695013046265,1.6560001373291,1.81005012989044,1.92495012283325,10.4629507064819,9.92700004577637,9.46695041656494,0.00618749996647,0.00233749998733,0.00027499999851,0.31377500295639,0.30841249227524,0.24956250190735,2.83552503585815,3.43158745765686,4.52278757095337,1.90005004405975,1.8229501247406,1.05705010890961,1.77105009555817,2.11605000495911,2.88195013999939,9.5440502166748,9.5440502166748,8.66295051574707,0.00343749998137,0.20019999146461,0.38486251235008,0.21848750114441,0.20693749189377,0.2066625058651,4.96911239624023,5.32509994506836,5.47882509231567,0.78900003433228,0.32895001769066,-1.69995009899139,2.76705002784729,2.95905017852783,3.7630500793457,8.31795024871826,7.81995058059692,7.81995058059692,0.81949996948242,1.03083753585815,1.25042498111725,0.32188749313354,0.48606249690056,0.82499998807907,5.04721260070801,4.59098768234253,4.03493738174438,-10.2040500640869,-14.0730009078979,-14.953950881958,7.01895046234131,6.13800048828125,1.96305012702942,13.2979507446289,13.7190008163452,13.7190008163452,1.43962502479553,1.25950002670288,0.690249979496,1.48197495937347,3.49428749084473,4.35627508163452,3.34427499771118,1.84593749046326,1.47647500038147,-9.97395038604736,48.4050025939941,43.2330017089844,-4.12695026397705,-24.8899517059326,-38.029052734375,13.3360509872437,9.88905048370361,-4.39905023574829,-0.57667499780655,-2.80376243591309,-8.57656288146973,4.96636247634888,4.43217515945435,-0.90887498855591,1.63666248321533,2.43801259994507,2.47953748703003,28.2169513702393,8.10599994659424,-31.1580009460449,-50.4400520324707,-35.1559524536133,-10.9840507507324,-43.7790031433105,-40.3699531555176,20.2309513092041,-10.8910999298096,-12.4381122589111,-13.0659370422363,-3.5205500125885,-4.99881267547607,-6.04642486572266,1.57093751430511,1.23021245002747,1.627312541008,-30.5449523925781,-28.8210010528564,-24.9139518737793,-9.68205070495606,-4.27995014190674,0.3160500228405,20.2309513092041,15.0220508575439,10.8850507736206,-10.9330377578735,-8.39849948883057,-11.5053119659424,-7.53486251831055,-8.08816242218018,-17.5104866027832,3.34949994087219,5.03525018692017,9.55350017547607,-8.05905055999756,-0.47400003671646,4.69605016708374,3.22695016860962,2.65200018882751,1.54095005989075,7.51305055618286,7.4370002746582,7.12995052337646,-8.92498779296875,-5.89063739776611,-5.19062519073486,-15.6050119400024,-15.4280500411987,-15.8787746429443,12.6310253143311,15.24049949646,14.9899749755859,6.76500034332275,4.39005041122437,2.62800002098084,1.19700002670288,1.84800004959106,1.88595008850098,7.12995052337646,6.01905012130737,7.74300050735474,-4.50766229629517,-3.99396252632141,2.54320001602173,-16.836462020874,-18.424861907959,-10.6317749023438,13.9391994476318,11.6705875396729,3.18766260147095,1.86195003986359,2.206050157547,0.25304999947548,1.35000002384186,0.50700002908707,0.69900006055832,10.0420503616333,10.0420503616333,8.24100017547607,SWING_RIGHT
-0.00164999999106,-0.00123749999329,0.00343749998137,0.00357499998063,0.00041249999776,-0.00164999999106,-0.00164999999106,0.00027499999851,0.00247499998659,0.02295000106096,-1.77705013751984,-3.69195008277893,2.23095011711121,3.18900012969971,3.34200024604797,9.31395053863525,9.65895080566406,9.19905090332031,0.17531250417233,0.32972499728203,0.49486249685287,0.0027499999851,0.28902500867844,0.61778748035431,0.00164999999106,-0.00054999999702,-0.00371249997988,-3.53895020484924,-2.00595021247864,-0.81900006532669,2.69100022315979,1.42695009708405,0.58395004272461,9.19905090332031,11.2680006027222,11.2680006027222,0.75638747215271,0.70152497291565,0.46832498908043,1.3532749414444,1.66058754920959,1.82256245613098,-0.18108749389648,-0.19016249477863,-0.00109999999404,0.59700000286102,1.09500002861023,2.66595005989075,-0.18105000257492,0.35400000214577,-0.14295001327991,10.8460502624512,10.9990501403809,10.0030508041382,0.00412499997765,-0.9149249792099,-1.38998746871948,1.75628745555878,1.0477499961853,0.5545374751091,0.37606251239777,2.07542490959167,3.43337488174438,1.44000005722046,-5.07105016708374,-10.7020502090454,0.8520000576973,3.53295016288757,3.84000015258789,8.66295051574707,10.9609508514404,12.3400506973267,-1.67585003376007,-1.60696244239807,-0.85703748464584,0.00192499998957,-0.24571250379086,0.36465001106262,5.0098123550415,6.23933744430542,7.49388742446899,-14.5710010528564,-0.47400003671646,54.0739517211914,3.99300026893616,-7.69005060195923,-30.9799518585205,13.9489507675171,15.5580005645752,-11.4859504699707,-0.48138749599457,-0.78333747386932,-2.07528758049011,1.04252505302429,1.49586248397827,0.38719999790192,7.80257511138916,8.24257469177246,8.64916229248047,43.1569519042969,27.5659503936768,-0.85695004463196,-45.0010528564453,-45.5370025634766,-40.3270530700684,-57.2629508972168,-57.2629508972168,-33.5130004882813,-6.99641227722168,-9.03622531890869,-10.1888875961304,-3.78207492828369,-4.86681270599365,-5.86135005950928,6.01809978485107,4.8373875617981,4.65286254882813,-47.745002746582,-44.7570037841797,-27.9400520324707,-8.37900066375732,2.07795000076294,-9.56700038909912,9.69705009460449,11.9569501876831,11.9569501876831,-10.7173004150391,-9.60354995727539,-10.9221754074097,-6.87857484817505,-10.4537124633789,-19.1630992889404,4.91081237792969,5.52089977264404,5.49092483520508,-18.4789505004883,3.77700018882751,9.75300025939941,0.8520000576973,-1.71405005455017,-1.94295012950897,4.02795028686523,8.73900032043457,2.91705012321472,-9.7149248123169,-7.72392511367798,-5.70322513580322,-19.9736633300781,-19.6704750061035,-20.070463180542,7.71333742141724,9.78147506713867,10.0674753189087,12.8940010070801,13.123950958252,6.72705030441284,-1.59900009632111,-2.09700012207031,-0.29595002532005,2.72505021095276,2.72505021095276,5.86605024337769,-4.92442512512207,-4.14273738861084,-2.99254989624023,-21.1059741973877,-23.5701122283936,-22.7154121398926,8.63678741455078,5.34875011444092,2.11447501182556,2.51295018196106,0.13800001144409,-0.70395004749298,0.58395004272461,0.92895007133484,0.92895007133484,10.4629507064819,12.6469507217407,12.6469507217407,SWING_RIGHT
0.00508749997243,0.00659999996424,0.17311249673367,0.47630000114441,0.42047500610352,0.36932501196861,0.55192500352859,0.54505002498627,0.53363752365112,2.7810001373291,2.16795015335083,1.28700006008148,2.53695011138916,2.76705002784729,3.30405020713806,8.73900032043457,8.778000831604,9.77400016784668,0.23801249265671,0.34457498788834,0.36726251244545,0.35254999995232,0.47451248764992,0.54395002126694,0.53707498311996,0.58822500705719,0.64968746900558,1.47900009155273,1.97700011730194,1.40205001831055,2.69100022315979,2.15400004386902,2.95905017852783,9.77400016784668,8.16495037078857,8.16495037078857,0.38431251049042,0.40645000338554,0.43518748879433,0.61105000972748,0.68296247720718,0.84823751449585,0.77852499485016,0.9589250087738,1.38201248645782,-0.05295000225306,-1.27905011177063,-2.16000008583069,3.18900012969971,3.41895008087158,3.26505017280579,8.58600044250488,9.69705009460449,12.4930505752563,0.45732501149178,0.48592498898506,0.49816250801086,0.98175001144409,1.27998745441437,1.72796249389648,1.59788751602173,1.86106252670288,2.13867497444153,-2.1979501247406,-3.3469500541687,-1.08705008029938,2.88195013999939,3.37995004653931,3.80205011367798,11.8420505523682,9.69705009460449,9.19905090332031,0.41772499680519,0.29150000214577,0.0042624999769,2.7025625705719,3.13596248626709,3.49923753738403,2.70875000953674,3.06597495079041,3.67400002479553,30.7069511413574,51.1249542236328,32.661003112793,-13.4359502792358,-30.7510509490967,-45.3070526123047,8.24100017547607,7.28400039672852,1.69095003604889,-0.26757499575615,-4.08443737030029,-7.20926237106323,3.29243755340576,-0.54807502031326,-2.16232490539551,4.47919988632202,5.93449974060059,5.46589994430542,5.27100038528442,-29.1660022735596,-37.326000213623,-53.0070037841797,-13.243950843811,-0.29595002532005,-29.7970504760742,21.5340003967285,21.5340003967285,-13.0878000259399,-15.1056127548218,-15.7418251037598,2.60823750495911,3.75113749504089,2.48407506942749,1.68217504024506,1.14358747005463,2.53618741035461,-32.6520004272461,-29.1660022735596,-8.86305046081543,5.10405015945435,9.04995059967041,3.34200024604797,9.27600002288818,-1.7940000295639,1.92105007171631,-15.3444499969482,-6.96066236495972,0.59771251678467,3.3764500617981,12.8984622955322,18.0493507385254,3.62821245193481,4.30870008468628,5.58786249160767,-1.81500005722046,3.12600016593933,7.41600036621094,1.57995009422302,-0.02805000171065,-1.63695013523102,13.9870510101318,13.9870510101318,13.7959508895874,10.5136623382568,11.3409996032715,11.434362411499,11.1918125152588,10.2166624069214,9.07183742523193,12.1339626312256,11.7741250991821,10.6218748092651,6.34395027160645,4.15995025634766,1.93800008296967,-1.13895010948181,-0.33495002985001,0.39195001125336,6.86205053329468,6.86205053329468,8.12595081329346,11.0908870697021,-0.41635000705719,-1.98866248130798,6.72292518615723,-10.6695871353149,-12.1049499511719,9.15722465515137,6.28539991378784,4.55372476577759,0.02295000106096,-1.43205010890961,-1.93005013465881,0.62205004692078,0.73695003986359,1.08195006847382,10.3870506286621,10.2330007553101,9.39105033874512,SWING_RIGHT
-0.15619999170303,0.00288749998435,0.15028749406338,0.00467499997467,-0.1733874976635,-0.35502499341965,1.21770000457764,1.38091254234314,1.47551250457764,2.66595005989075,2.28299999237061,1.93800008296967,2.30805015563965,2.72895002365112,3.18900012969971,8.24100017547607,9.04605007171631,9.39105033874512,0.22852499783039,0.30579999089241,0.41786250472069,-0.52689999341965,-0.69093751907349,-0.9646999835968,1.57354998588562,1.65577495098114,1.6632000207901,2.24505019187927,2.58900022506714,2.70405006408691,3.18900012969971,2.88195013999939,2.65200018882751,9.39105033874512,9.27600002288818,8.89305019378662,0.43958750367165,0.46309998631477,0.47932499647141,-0.97391247749329,-0.86487501859665,-0.69574999809265,1.57410001754761,1.46162497997284,1.33581244945526,2.81895017623901,3.01095008850098,2.89605021476746,2.72895002365112,2.6140501499176,2.92095017433167,9.08400058746338,9.08400058746338,9.19905090332031,0.46309998631477,0.41566249728203,0.38403749465942,-0.33398750424385,-0.16142499446869,-0.00041249999776,1.08281254768372,0.99426251649857,0.95754998922348,2.35995006561279,1.36395001411438,-1.24005007743835,3.37995004653931,4.06995010375977,5.9850001335144,9.31395053863525,9.31395053863525,9.31395053863525,0.37564998865128,0.4658499956131,0.64102500677109,0.00453749997541,0.28297498822212,0.60692501068115,0.94655001163483,0.85896247625351,0.70894998311996,-5.45400047302246,-0.85695004463196,25.8040504455566,8.62800025939941,1.12005007266998,-15.8490009307861,11.1529502868652,9.12195014953613,6.36405038833618,0.87064999341965,1.10632503032684,-0.00632499996573,1.03908753395081,1.53065001964569,1.61370003223419,0.59207499027252,0.52854996919632,1.11663746833801,56.7559509277344,34.9969520568848,-3.88305020332336,-32.5890007019043,-41.170051574707,-21.2500514984131,5.98095035552979,-14.4360008239746,-30.984001159668,-3.08673739433289,-6.43403768539429,-8.88318729400635,0.72022497653961,0.00316249998286,0.00618749996647,1.6218124628067,1.29153752326965,0.93582499027252,-30.8899517059326,-35.4490509033203,-20.3940010070801,-1.13895010948181,6.06195020675659,2.69100022315979,22.6830005645752,22.6830005645752,16.4010009765625,-10.7720251083374,-10.6650495529175,-8.94011211395264,0.7012500166893,1.28548753261566,3.33410000801086,1.80606245994568,2.61304998397827,3.00093746185303,-12.2340002059937,-5.53095006942749,1.05705010890961,3.99300026893616,2.49900007247925,0.58395004272461,10.6159505844116,13.4890508651733,13.4890508651733,-3.55712509155273,8.55648708343506,10.9286375045776,7.46570014953613,10.879412651062,9.87360000610352,1.74831247329712,1.54508745670319,1.9181250333786,5.0029501914978,7.26300048828125,6.72705030441284,-0.18105000257492,-0.06599999964237,0.3160500228405,9.81195068359375,5.36805009841919,5.36805009841919,11.5753002166748,11.3232622146606,7.82760000228882,8.32205009460449,6.25666236877441,-2.30202507972717,1.65756249427795,1.2997875213623,1.14221251010895,5.30895042419434,3.31695008277893,0.6360000371933,0.69900006055832,1.23495006561279,1.61805009841919,7.55205059051514,9.04605007171631,11.6119508743286,SWING_RIGHT
0.21051250398159,0.24516250193119,0.27252501249313,0.33632498979568,0.45127499103546,0.54752498865128,0.22274999320507,0.21559999883175,0.21532499790192,0.21405000984669,-0.24405001103878,-0.66600000858307,2.46105003356934,2.88195013999939,2.95905017852783,10.5400505065918,10.3480501174927,10.0800008773804,0.29438748955727,0.33357501029968,0.36602500081062,0.62851250171661,0.82307499647141,0.94201248884201,0.21848750114441,0.23237499594688,0.25850000977516,-1.04895007610321,-1.39305007457733,-1.24005007743835,3.22695016860962,2.76705002784729,2.49900007247925,9.65895080566406,9.50505065917969,9.50505065917969,0.39710000157356,0.42693749070168,0.41648748517036,1.06053745746613,1.18126249313354,1.42161250114441,0.31762498617172,0.39531248807907,0.56870001554489,-1.16400003433228,-1.08705008029938,0.02295000106096,2.46105003356934,2.15400004386902,1.6560001373291,9.8500509262085,10.0800008773804,10.6159505844116,0.34787499904633,0.20899999141693,0.00096249999478,1.48472499847412,1.46808743476868,1.37059998512268,0.68351250886917,0.86391252279282,1.08955001831055,-0.12900000810623,-1.85295009613037,-5.68395042419434,2.11605000495911,3.57195019721985,6.2920503616333,11.076000213623,11.6890506744385,12.7620010375977,-0.39737498760223,-0.50902497768402,-0.55206251144409,1.04211246967316,0.90736252069473,0.87188750505447,1.59885001182556,1.90107500553131,2.27356243133545,-7.3690505027771,7.83795022964478,49.4010009765625,4.60605001449585,-5.77395009994507,-28.1070022583008,11.8420505523682,7.09200048446655,5.67495012283325,-0.54436248540878,-1.17466247081757,-3.48892498016357,0.91176247596741,0.42748749256134,-1.01887500286102,2.67506241798401,3.32021236419678,3.30068755149841,55.6069526672363,-2.84895014762878,-41.9230537414551,-37.7220001220703,-34.5810012817383,-12.2860507965088,-4.62900018692017,-17.9599514007568,20.4229507446289,-7.03326225280762,-9.87167453765869,-12.1699876785278,-2.31577491760254,-2.45849990844727,-2.39868760108948,2.40198755264282,1.47812497615814,1.87591254711151,-39.3940505981445,-35.4100532531738,-19.0150508880615,-4.70205020904541,-1.13895010948181,3.34200024604797,21.3040504455566,21.3040504455566,4.06605005264282,-12.4260120391846,-12.1138877868652,-8.09462451934814,-2.62473750114441,-2.67190003395081,1.34708750247955,2.69568753242493,4.11303758621216,5.88637495040894,-5.64600038528442,-0.24405001103878,4.42799997329712,2.57595014572144,2.19300007820129,1.27305006980896,7.28400039672852,10.2720003128052,12.2640008926392,7.27099990844727,10.0335121154785,11.4273500442505,10.7289876937866,10.0068378448486,8.94025039672852,9.4785623550415,10.7271995544434,10.6008377075195,7.7989501953125,6.99495029449463,5.30895042419434,0.54495000839233,0.43095001578331,1.04295003414154,2.76300024986267,2.76300024986267,4.63995027542114,11.9780378341675,11.625075340271,2.85766243934631,7.53802490234375,1.8298499584198,-10.4920749664307,10.0064249038696,7.5193247795105,6.9048376083374,1.74705004692078,-0.47400003671646,-1.27905011177063,2.07795000076294,2.15400004386902,2.00100016593933,6.21105051040649,10.5010509490967,10.0420503616333,SWING_RIGHT
0.15950000286102,0.25299999117851,0.32628750801086,0.23622499406338,0.37221249938011,0.49733749032021,0.17668749392033,0.19813749194145,0.19786250591278,-0.85695004463196,0.36795002222061,0.21405000984669,3.6870002746582,2.88195013999939,2.6140501499176,10.8850507736206,8.93100070953369,8.4330005645752,0.39861249923706,0.43821248412132,0.45429998636246,0.6349750161171,0.77742499113083,1.01502501964569,0.20941250026226,0.24213749170303,0.36368748545647,-0.09105000644922,-0.62700003385544,-1.39305007457733,2.49900007247925,2.30805015563965,2.72895002365112,8.4330005645752,8.89305019378662,10.3480501174927,0.38912498950958,0.26551249623299,0.00508749997243,1.0477499961853,1.03454995155334,1.01915001869202,0.45581248402596,0.5820375084877,0.72228747606277,-1.89105010032654,-1.96800005435944,-2.65800023078919,2.69100022315979,2.80605006217957,3.26505017280579,10.6159505844116,10.8460502624512,10.8850507736206,-0.19910000264645,-0.30579999089241,-0.37056249380112,1.07346248626709,1.13918745517731,1.26348745822906,0.95947498083115,1.04376244544983,1.13217496871948,-6.06705045700073,-9.93600082397461,-13.8430509567261,5.41095018386841,7.09605026245117,7.09605026245117,11.3440504074097,11.3440504074097,11.5360507965088,-0.35392498970032,-0.00673749996349,-0.00096249999478,1.46079993247986,2.2045373916626,2.57290005683899,1.20560002326965,1.22993743419647,1.2227874994278,-13.7280006408691,34.078052520752,63.4600524902344,3.72495007514954,-24.6600017547607,-33.6619529724121,11.6509504318237,2.76300024986267,-19.6450500488281,-0.0042624999769,-0.75267499685287,-6.37188768386841,2.90179991722107,2.81792497634888,-0.66467499732971,1.29868745803833,1.34241247177124,1.50177502632141,20.5939502716064,7.22505044937134,-36.1000518798828,-52.279052734375,-33.4699516296387,-6.57900047302246,-61.3999519348145,-61.3999519348145,27.3570003509521,-8.92924976348877,-10.3992624282837,-11.159912109375,-2.98801255226135,-4.22399997711182,-4.71748733520508,0.91258752346039,0.45732501149178,0.81840002536774,-32.6520004272461,-33.9550514221191,-26.4850521087646,-4.20405006408691,1.50300002098084,3.95505023002625,18.7369518280029,7.70505046844482,7.70505046844482,-10.8981122970581,-6.6426248550415,2.75976252555847,-4.18371248245239,1.65041244029999,10.0146751403809,3.02073740959167,3.68211245536804,2.97288751602173,-1.81500005722046,4.92600011825562,9.60000038146973,1.19700002670288,0.20100000500679,-0.29595002532005,10.6549501419067,10.7700004577637,10.7700004577637,7.54036235809326,11.5442247390747,12.2777872085571,12.999662399292,13.9709625244141,12.7092628479004,4.44551229476929,6.26408767700195,5.90259981155396,9.9060001373291,5.80695009231567,2.93400025367737,0.69900006055832,2.34600019454956,2.80605006217957,5.86605024337769,3.52995014190674,7.78200054168701,12.4239501953125,11.606650352478,2.38631248474121,10.2815628051758,5.03607511520386,-11.195387840271,5.08901262283325,4.18989992141724,4.69727516174316,0.29100000858307,-0.62700003385544,0.09900000691414,2.95905017852783,2.76705002784729,1.732950091362,9.92700004577637,10.3099508285522,10.1569509506226,SWING_RIGHT
0.44714999198914,0.49073749780655,0.39957499504089,0.25519999861717,0.50448751449585,0.85030001401901,-0.00192499998957,-0.00604999996722,-0.1891999989748,0.67395001649857,0.82695001363754,0.52095001935959,2.76705002784729,2.6140501499176,3.30405020713806,10.1179504394531,10.1179504394531,9.39105033874512,0.2954874932766,0.17806249856949,0.00316249998286,0.90158748626709,0.8984249830246,0.85236251354218,-0.16761249303818,-0.00563749996945,-0.00192499998957,0.25304999947548,-0.12900000810623,-0.39705002307892,3.53295016288757,3.8779501914978,4.33800029754639,8.5090503692627,8.5090503692627,8.5090503692627,0.00041249999776,0.00439999997616,0.20817500352859,0.65202498435974,0.56966251134872,0.55797499418259,0.00618749996647,0.18878750503063,0.2404875010252,-0.62700003385544,-1.27905011177063,-2.35095000267029,3.49500012397766,3.91695022583008,4.56795024871826,9.42900085449219,10.5400505065918,10.8460502624512,0.33797499537468,0.56155002117157,0.57034999132156,0.595787525177,0.80739998817444,1.04403746128082,0.27610000967979,0.36245000362396,0.40356248617172,-3.1560001373291,-6.9859504699707,-13.3069505691528,4.56795024871826,5.14200019836426,5.94705009460449,11.3059501647949,10.6930503845215,11.9569501876831,0.49802500009537,0.35832500457764,-0.00247499998659,1.34818744659424,1.69193744659424,2.75893759727478,0.46543750166893,0.53556251525879,0.54711252450943,-13.4599504470825,-9.5149507522583,30.094051361084,2.38394999504089,-1.98195004463196,-20.8290004730225,11.9569501876831,11.0380506515503,7.78200054168701,-0.36396250128746,-0.98326247930527,-2.13606238365173,3.30632495880127,3.76323747634888,3.65846252441406,0.49994999170303,0.52181249856949,0.80107498168945,72.0400543212891,43.1569519042969,6.57300043106079,-37.9519500732422,-49.8660011291504,-38.6800537109375,6.09600019454956,-27.3070507049561,-43.8940505981445,-8.09270000457764,-10.2554378509521,-11.4100246429443,-0.00481249997392,-2.58032488822937,-3.98186254501343,2.10828757286072,1.67433750629425,1.19377493858337,-37.4410514831543,-33.0349502563477,-29.6260509490967,-9.68205070495606,-5.85105037689209,-2.13495016098022,21.8790016174316,21.8790016174316,18.3540000915527,-11.9319753646851,-10.6642246246338,-7.02336263656616,-4.61766242980957,-4.04139995574951,0.33412501215935,1.42449998855591,3.02926254272461,2.70462489128113,-25.2589511871338,-8.94000053405762,1.21005010604858,2.46105003356934,4.2610502243042,2.53695011138916,14.3700008392334,15.0979509353638,15.0979509353638,1.46781253814697,6.73846244812012,11.0284624099731,8.40509986877441,12.1928119659424,13.2807121276855,0.00453749997541,0.57365000247955,2.65182495117188,6.53505039215088,8.94795036315918,5.8840503692627,1.46505010128021,1.38795006275177,2.6140501499176,7.74300050735474,1.6519501209259,0.34995001554489,11.8399877548218,12.1059122085571,11.5196123123169,12.1785125732422,10.2286252975464,6.31578731536865,2.55626249313354,2.05727505683899,1.6797000169754,3.7390501499176,2.05305004119873,0.78900003433228,3.03495025634766,3.07395005226135,2.80605006217957,4.48695039749146,6.24900007247925,7.70505046844482,SWING_RIGHT
0.28819999098778,0.43243750929832,0.7041375041008,0.33343750238419,0.60554999113083,1.63776254653931,-0.00082499999553,-0.00467499997467,-0.41263750195503,-5.49195003509521,-4.22805023193359,-0.81900006532669,6.06195020675659,4.41495037078857,1.27305006980896,10.7700004577637,9.8500509262085,9.46695041656494,0.78058749437332,0.72503751516342,0.50709998607635,2.16397500038147,2.64852499961853,2.99763751029968,-0.57571250200272,-0.68158751726151,-0.7039999961853,0.98100006580353,3.77700018882751,5.30895042419434,-0.25800001621246,-1.13895010948181,-1.02404999732971,9.46695041656494,9.42900085449219,8.24100017547607,-0.62163752317429,-1.45447504520416,-2.30463743209839,2.81641244888306,2.00873756408691,0.77852499485016,-0.20116250216961,0.53363752365112,1.62800002098084,7.1100001335144,6.53505039215088,5.30895042419434,0.69900006055832,1.77105009555817,2.72895002365112,8.47095012664795,8.47095012664795,7.78200054168701,-2.95941257476807,-2.95336246490479,-2.18707489967346,-0.72668749094009,-3.58462500572205,-4.49020004272461,2.81503748893738,4.56513738632202,5.0810375213623,4.27500009536743,4.08300018310547,4.62000036239624,3.72495007514954,4.1850004196167,3.8779501914978,6.82395029067993,7.01505041122437,8.70105075836182,-0.9757000207901,0.44151249527931,3.16428756713867,-4.83202505111694,-4.5809497833252,-2.65498757362366,5.36442518234253,5.2733998298645,3.90334987640381,3.96900010108948,1.74705004692078,-0.20595000684261,4.45305013656616,5.83200025558472,6.7900505065918,8.70105075836182,9.42900085449219,9.46695041656494,4.027512550354,0.16830000281334,0.21051250398159,-1.23475003242493,-0.00219999998808,-0.00109999999404,3.07450008392334,-0.00027499999851,0.00027499999851,17.4910507202148,0.98100006580353,0.94200003147125,-6.11895036697388,3.61005020141602,3.6870002746582,9.16095066070557,9.08400058746338,9.31395053863525,0.21793749928474,0.21216249465942,0.1915374994278,-0.00068749999627,-0.00068749999627,-0.00109999999404,0.00041249999776,0.00027499999851,0.00013749999925,1.05705010890961,0.98100006580353,1.09500002861023,3.72495007514954,3.49500012397766,3.45705008506775,9.08400058746338,8.89305019378662,9.08400058746338,0.00522499997169,0.00219999998808,-0.00082499999553,-0.00261249998584,-0.00343749998137,-0.00412499997765,-0.00068749999627,-0.0015124999918,-0.00206249998882,0.94200003147125,0.94200003147125,1.1340000629425,3.6870002746582,3.61005020141602,3.49500012397766,9.16095066070557,9.08400058746338,9.04605007171631,-0.00316249998286,-0.00577499996871,-0.00577499996871,-0.00467499997467,-0.00494999997318,-0.00439999997616,-0.0027499999851,-0.00384999997914,-0.0042624999769,0.90405005216599,0.94200003147125,0.98100006580353,3.61005020141602,3.64800024032593,3.49500012397766,9.00705051422119,9.23700046539307,9.23700046539307,-0.00494999997318,-0.00439999997616,-0.00357499998063,-0.00371249997988,-0.00302499998361,-0.00192499998957,-0.0042624999769,-0.00439999997616,-0.00412499997765,1.01895010471344,1.01895010471344,1.01895010471344,3.45705008506775,3.49500012397766,3.53295016288757,9.08400058746338,9.04605007171631,8.96895027160645,SWING_RIGHT
-0.2216500043869,-0.2080374956131,-0.00591249996796,0.00412499997765,0.00398749997839,0.00522499997169,0.26798748970032,0.31446251273155,0.29617500305176,1.36395001411438,1.36395001411438,0.67395001649857,4.06995010375977,3.95505023002625,4.49100017547607,8.93100070953369,8.8540506362915,8.70105075836182,-0.00302499998361,0.00013749999925,0.00329999998212,0.00618749996647,0.14176249504089,0.16651250422001,0.2441999912262,0.18521249294281,0.00577499996871,-0.05295000225306,-0.85695004463196,-1.24005007743835,4.79805040359497,5.25705003738403,5.52495002746582,8.73900032043457,8.73900032043457,7.97295045852661,0.21807499229908,0.30291250348091,0.40356248617172,0.30621248483658,0.4478375017643,0.63414996862411,-0.00412499997765,-0.21133749186993,-0.30483749508858,-1.39305007457733,-0.35895001888275,3.12600016593933,4.64400005340576,3.45705008506775,1.61805009841919,6.67095041275024,6.67095041275024,6.82395029067993,0.51590001583099,0.54738748073578,0.34540000557899,0.8592374920845,1.33924996852875,1.42491245269775,-0.33701249957085,-0.00673749996349,0.27472499012947,4.04505014419556,1.97700011730194,0.52095001935959,0.16200000047684,1.77105009555817,3.11205005645752,8.62395000457764,11.9569501876831,11.3830509185791,-0.00109999999404,-0.50778752565384,-1.32536244392395,1.42711246013641,1.3417249917984,0.98642498254776,1.00828754901886,1.97780001163483,4.19168758392334,1.55505001544952,1.59300005435944,22.6240501403809,2.99700021743774,3.41895008087158,-6.27195024490356,11.1529502868652,10.8460502624512,12.3019504547119,-1.50603747367859,-1.50672495365143,-1.35987496376038,0.75913751125336,0.59441250562668,0.41222500801086,5.16766262054443,5.78861236572266,6.02208757400513,45.9150009155273,32.2390518188477,0.483000010252,-28.5289516448975,-43.6219520568848,-46.4560508728027,12.3019504547119,8.73900032043457,-18.4200000762939,-2.61800003051758,-4.0644998550415,-4.62494993209839,-0.60981249809265,-1.71545004844666,-4.12554979324341,6.63877487182617,7.7299747467041,9.89051246643066,-22.0410003662109,-31.8480014801025,-28.0549507141113,-24.0469512939453,-15.0450010299683,-10.8690004348755,3.52995014190674,11.9950504302979,11.9950504302979,-3.82648754119873,-4.90366268157959,-5.18567514419556,-11.3640995025635,-16.8100624084473,-16.5473003387451,14.2687873840332,17.3925132751465,18.2532615661621,-30.469051361084,-27.6720008850098,-15.2989511489868,-2.13495016098022,7.86195039749146,3.64800024032593,10.0030508041382,3.7590000629425,5.36805009841919,-3.57912492752075,0.95246249437332,7.46308755874634,-14.6957244873047,-11.4771251678467,-3.2965624332428,18.7611865997314,18.2587623596191,12.9020376205444,-6.18195009231567,-0.58905005455017,7.1100001335144,0.20100000500679,-1.33095002174377,-2.13495016098022,8.8540506362915,10.3099508285522,4.21905040740967,8.1552619934082,9.37639999389648,10.0643119812012,3.39776253700256,5.0142126083374,4.41677474975586,8.83093738555908,7.17227506637573,5.98977518081665,7.26300048828125,5.69205045700073,3.27900004386902,-1.86705005168915,-1.06200003623962,0.16200000047684,3.87405014038086,3.87405014038086,6.90105009078979,SWING_RIGHT
0.16073749959469,0.0042624999769,0.00068749999627,0.88907498121262,0.81372499465942,0.70262497663498,0.97033751010895,1.08803749084473,1.22017502784729,-0.85695004463196,-0.97200006246567,-0.74205005168915,1.92495012283325,2.15400004386902,1.57995009422302,9.46695041656494,7.81995058059692,7.81995058059692,-0.00261249998584,-0.00687499996275,-0.14891250431538,0.55935001373291,0.28696250915527,0.19126249849796,1.33319997787476,1.46712493896484,1.52611243724823,-0.66600000858307,-1.85295009613037,-2.88705015182495,1.23495006561279,2.34600019454956,3.18900012969971,8.73900032043457,11.0380506515503,11.0380506515503,-0.14781250059605,-0.15180000662804,-0.18562500178814,0.14052499830723,0.00632499996573,0.37001249194145,1.62800002098084,1.72493743896484,1.82833743095398,-3.19395017623901,-3.19395017623901,-2.54295015335083,2.88195013999939,2.00100016593933,1.54095005989075,11.0380506515503,10.8850507736206,12.3780002593994,-0.21298749744892,-0.25671249628067,-0.31446251273155,0.57997500896454,0.80423748493195,1.02409994602203,1.87302494049072,1.9375125169754,1.96638751029968,-3.11700010299683,-5.7610502243042,-9.40005016326904,2.46105003356934,3.99300026893616,5.44905042648315,12.3780002593994,11.8810501098633,11.8420505523682,-0.42858749628067,-0.42143750190735,-0.41387498378754,1.37170004844666,1.4748250246048,1.4913250207901,1.91042494773865,1.93572497367859,2.050950050354,-1.04895007610321,50.5879516601563,52.3510513305664,-1.02404999732971,-24.0079517364502,-32.3590507507324,5.63595008850098,3.07005023956299,-3.74805021286011,-0.40534999966621,-2.38919997215271,-4.88276243209839,1.49586248397827,-0.14575000107288,-1.76178753376007,2.23286247253418,2.12918758392334,1.17081248760223,16.4950504302979,-19.7809505462646,-28.6300506591797,-46.9540519714355,-3.01605010032654,2.57595014572144,-39.4879531860351,6.13395023345947,23.0280017852783,-7.6052622795105,-9.73142528533936,-10.6273746490479,-2.28387498855591,-1.34268748760223,-0.00536249997094,-0.60788750648499,-1.6299250125885,-0.87807500362396,-19.2060012817383,-19.8580513000488,-7.44600057601929,-0.37305000424385,2.38394999504089,1.50300002098084,23.0280017852783,9.46695041656494,5.13795042037964,-9.8223123550415,-7.07272481918335,-1.87426245212555,0.76917499303818,3.2106249332428,6.35965013504028,0.52648746967316,2.14733743667603,3.23441243171692,-5.56905031204224,-2.61900019645691,1.78500008583069,2.49900007247925,1.88595008850098,-0.02805000171065,6.24900007247925,10.5780000686646,11.8420505523682,7.89483737945557,9.92475032806396,10.4572877883911,7.16704988479614,5.48143768310547,3.78922486305237,5.90383768081665,5.9417872428894,5.29443740844727,5.5009503364563,2.47500014305115,1.66995012760162,-1.44495010375977,0.43095001578331,0.66000002622604,9.88905048370361,8.70105075836182,10.6930503845215,10.0468502044678,6.18942499160767,2.79344987869263,1.60957503318787,-4.89238739013672,-7.20101261138916,4.06848764419556,0.90227496623993,0.50599998235703,0.71205002069473,-1.62300002574921,-2.35095000267029,0.8520000576973,1.19700002670288,1.19700002670288,11.4210004806519,11.076000213623,10.3870506286621,SWING_RIGHT
1.00526249408722,0.89787501096725,0.79241251945496,0.46461248397827,0.42019999027252,0.38170000910759,0.62273746728897,0.5626500248909,0.51906251907349,-0.09105000644922,-0.16800001263618,-0.20595000684261,3.95505023002625,4.06995010375977,4.14600038528442,9.23700046539307,9.23700046539307,9.23700046539307,0.70606249570847,0.56045001745224,0.51727497577667,0.35172501206398,0.3408625125885,0.35956248641014,0.48894998431206,0.41799998283386,0.38005000352859,-0.16800001263618,-0.09105000644922,-0.39705002307892,4.1850004196167,3.99300026893616,4.22294998168945,9.00705051422119,8.778000831604,9.35205078125,0.48578751087189,0.4463250041008,0.34553748369217,0.40204998850822,0.43986248970032,0.49183750152588,0.36959999799728,0.37441250681877,0.41978749632835,-0.47400003671646,-0.78105002641678,0.06105000153184,4.2610502243042,4.49100017547607,3.80205011367798,9.5440502166748,9.58200073242188,10.5780000686646,0.28352499008179,0.21133749186993,0.00659999996424,0.51590001583099,0.55233746767044,0.60046249628067,0.46667498350143,0.57048749923706,0.7011125087738,-0.20595000684261,-1.89105010032654,-4.80300045013428,3.80205011367798,5.14200019836426,6.63600015640259,10.5400505065918,10.5400505065918,10.3870506286621,-0.00013749999925,-0.00316249998286,-0.00618749996647,0.7343875169754,0.86570000648499,1.03097498416901,0.96332502365112,1.0757999420166,1.22319996356964,4.54305028915405,49.3240509033203,61.3530044555664,-1.86705005168915,-26.0389518737793,-36.037052154541,6.63195037841797,3.79800009727478,-1.56405007839203,-0.1717374920845,-1.75230002403259,-3.86567497253418,1.21041250228882,0.7071624994278,-0.0015124999918,1.38998746871948,1.67873752117157,1.45763754844666,16.9549503326416,-33.9930000305176,-15.7590007781982,-57.6420021057129,5.75505018234253,-1.21605002880096,-44.0470504760742,27.8160018920898,27.8160018920898,-6.50264978408813,-8.60777473449707,-10.1392498016357,-0.3827999830246,0.63717502355576,2.80802488327026,0.43202498555183,-0.00604999996722,1.06012499332428,-15.1840505599976,-18.0949516296387,-10.5490503311157,-0.18105000257492,4.03095006942749,5.41095018386841,3.98895025253296,3.98895025253296,7.9350004196167,-8.79243755340576,-3.62958741188049,2.50882506370544,4.48222494125366,7.5286750793457,9.38643741607666,2.14706254005432,1.97821247577667,1.73992502689362,-7.17795038223267,-2.92605018615723,3.01095008850098,4.64400005340576,2.6140501499176,-0.67905002832413,9.81195068359375,10.0420503616333,8.8540506362915,10.1116123199463,11.9047498703003,12.7285127639771,8.92003726959229,6.85258769989014,4.59140014648438,3.95642495155334,4.14370012283325,3.62422490119934,2.70405006408691,2.70405006408691,2.47500014305115,0.54495000839233,0.58395004272461,0.8520000576973,7.51305055618286,7.97295045852661,9.58200073242188,12.2551002502441,3.70947504043579,0.3632749915123,1.87316250801086,-6.2529501914978,-8.07798767089844,2.51253747940063,2.18707489967346,1.75119996070862,1.1340000629425,-0.35895001888275,-1.35495007038116,1.23495006561279,1.35000002384186,1.88595008850098,9.96495056152344,10.8460502624512,11.0380506515503,SWING_RIGHT
0.00343749998137,0.00536249997094,0.14066250622272,0.24846249818802,0.22288750112057,0.24612499773502,1.02808749675751,1.10962498188019,1.17246246337891,-1.54695010185242,-1.31700003147125,-1.04895007610321,2.57595014572144,2.26905012130737,2.19300007820129,9.65895080566406,9.12195014953613,9.12195014953613,0.17655000090599,0.1876875013113,0.17929999530315,0.35640001296997,0.43285000324249,0.50366252660751,1.21440005302429,1.21866250038147,1.21742498874664,0.17595000565052,0.59700000286102,1.09500002861023,1.57995009422302,1.38795006275177,1.35000002384186,9.08400058746338,9.08400058746338,9.42900085449219,0.14190000295639,0.00109999999404,-0.00261249998584,0.53006249666214,0.29576250910759,0.0027499999851,1.20092499256134,1.16888749599457,1.18992495536804,1.09500002861023,0.44400003552437,-1.93005013465881,1.732950091362,2.72895002365112,4.49100017547607,10.6159505844116,10.3480501174927,10.2720003128052,-0.14451250433922,-0.20267499983311,0.00013749999925,-0.21147499978542,-0.46997499465942,-0.57529997825623,1.2471250295639,1.33608746528625,1.59183752536774,-4.34295034408569,-7.40805053710938,-6.41205024719238,5.37195014953613,5.83200025558472,1.77105009555817,10.2720003128052,10.8079509735107,10.0030508041382,0.2435124963522,0.49321249127388,0.71156251430511,-0.18067499995232,0.44385001063347,1.17645001411438,1.69578754901886,1.80441248416901,1.91454994678497,-1.66200006008148,9.86805057525635,45.4549522399902,-0.06599999964237,-4.35705041885376,-22.9740009307861,2.91705012321472,2.38005018234253,1.57605004310608,0.56306248903275,-0.27527499198914,-3.17803740501404,2.6166250705719,2.48627495765686,1.1672375202179,2.26517510414124,2.59778738021851,2.32278752326965,8.79495048522949,-1.89105010032654,-20.086950302124,-55.5739517211914,-24.928050994873,-8.03400039672852,-55.7310028076172,-55.7310028076172,9.8500509262085,-7.39804983139038,-12.6240119934082,-12.9244499206543,-0.00082499999553,1.21343743801117,0.73713749647141,0.33577498793602,-2.03527498245239,-1.58867502212524,-24.4159507751465,-22.8840007781982,-21.8500518798828,-3.39900016784668,-1.98195004463196,4.1850004196167,28.4680519104004,9.08400058746338,9.08400058746338,-12.5277624130249,-11.5050373077393,-1.3668874502182,0.25286251306534,0.64308750629425,6.88407516479492,-0.66275000572205,0.36629998683929,2.72043752670288,-15.1840505599976,-9.0169506072998,2.47500014305115,4.83600044250488,4.2610502243042,0.88995003700256,13.4890508651733,14.3320503234863,13.2600002288818,6.17980003356934,10.5578002929688,12.1488122940063,8.02340030670166,6.65238761901855,5.70198726654053,4.53516244888306,5.43028736114502,5.22389984130859,6.22905015945435,7.91400051116943,6.15195035934448,0.04800000041723,-0.06599999964237,1.1580001115799,10.0420503616333,5.2150502204895,3.79800009727478,12.1177377700806,11.1457500457764,8.79573726654053,3.45386242866516,1.1061874628067,-2.82108759880066,3.40298748016357,2.22667503356934,1.49531245231628,2.70405006408691,1.93800008296967,1.59300005435944,2.69100022315979,2.57595014572144,2.07795000076294,11.0380506515503,11.0380506515503,10.5400505065918,SWING_RIGHT
0.00508749997243,0.00137499999255,-0.00068749999627,0.36753749847412,0.33783748745918,0.32752498984337,0.40122500061989,0.39985001087189,0.41635000705719,0.36795002222061,0.25304999947548,0.02295000106096,2.00100016593933,1.96305012702942,2.11605000495911,9.96495056152344,9.88905048370361,9.88905048370361,-0.00137499999255,-0.00013749999925,0.00192499998957,0.34278750419617,0.43367499113083,0.48633748292923,0.43518748879433,0.46323749423027,0.49307498335838,-0.24405001103878,-0.85695004463196,-1.125,2.53695011138916,2.88195013999939,3.03495025634766,9.39105033874512,8.54805088043213,9.69705009460449,0.0054999999702,0.2041874974966,0.40837499499321,0.55384999513626,0.63662499189377,0.8291249871254,0.55302500724792,0.62218749523163,0.74909996986389,-1.62300002574921,-2.00595021247864,-3.8449501991272,3.57195019721985,3.99300026893616,3.99300026893616,10.5400505065918,10.5400505065918,9.5440502166748,0.53088748455048,0.66659998893738,0.76628750562668,0.96896249055862,1.14977502822876,1.35588753223419,0.81963747739792,0.90186250209808,0.96222501993179,-5.9520001411438,-9.55305004119873,-12.961950302124,4.33800029754639,5.33400011062622,4.45305013656616,13.03005027771,13.6429510116577,13.6429510116577,0.75473749637604,0.6347000002861,0.41854998469353,1.94809997081757,2.36940002441406,2.75701236724854,0.8486499786377,0.64721250534058,0.45141249895096,-9.16995048522949,4.96500015258789,51.355052947998,-3.51405024528503,-7.95795059204102,-18.0330009460449,9.42900085449219,5.29200029373169,-4.28400039672852,-0.00068749999627,-1.68726253509521,-3.61212491989136,3.05745005607605,3.1605749130249,2.59833741188049,0.24818749725819,-0.00536249997094,-0.83311247825623,64.0729522705078,6.72705030441284,-21.2370014190674,-36.457950592041,-47.8740005493164,-18.9520511627197,-10.452000617981,-51.2869529724121,2.4190502166748,-7.24927473068237,-10.5829620361328,-12.7835121154785,1.8327374458313,1.68079996109009,0.60073751211166,-3.19164991378784,-5.62567520141602,-6.16371250152588,-27.8640022277832,-30.3150005340576,-23.5729503631592,-11.6740503311157,-5.42895030975342,3.15000009536743,30.8040008544922,30.8040008544922,13.8720006942749,-12.2324123382568,-10.9982128143311,-8.60626220703125,-0.40796250104904,-1.19116246700287,-0.81730002164841,-5.2511248588562,-3.79211258888245,-1.63583743572235,-13.9200010299683,-7.21605014801025,1.44000005722046,2.57595014572144,1.732950091362,0.16200000047684,9.12195014953613,6.32595014572144,5.56005048751831,5.00541257858276,10.6565246582031,13.4897127151489,2.8356626033783,2.74670004844666,2.51308751106262,4.88936233520508,6.63135004043579,6.9310998916626,5.07900047302246,4.46700000762939,4.62000036239624,1.00499999523163,1.54095005989075,1.46505010128021,3.22305011749268,3.83595013618469,7.24500036239624,14.5323753356934,13.6966495513916,11.9303245544434,2.40267491340637,0.00109999999404,-4.01623725891113,6.58611249923706,4.76451253890991,3.37521243095398,4.46700000762939,4.39005041122437,3.43200016021729,1.38795006275177,0.39195001125336,0.50700002908707,8.66295051574707,8.96895027160645,9.61995029449463,SWING_RIGHT
