gyro_x_0,gyro_y_0,gyro_z_0,acc_x_0,acc_y_0,acc_z_0,gyro_x_1,gyro_y_1,gyro_z_1,acc_x_1,acc_y_1,acc_z_1,gyro_x_2,gyro_y_2,gyro_z_2,acc_x_2,acc_y_2,acc_z_2,gyro_x_3,gyro_y_3,gyro_z_3,acc_x_3,acc_y_3,acc_z_3,gyro_x_4,gyro_y_4,gyro_z_4,acc_x_4,acc_y_4,acc_z_4,gyro_x_5,gyro_y_5,gyro_z_5,acc_x_5,acc_y_5,acc_z_5,gyro_x_6,gyro_y_6,gyro_z_6,acc_x_6,acc_y_6,acc_z_6,gyro_x_7,gyro_y_7,gyro_z_7,acc_x_7,acc_y_7,acc_z_7,gyro_x_8,gyro_y_8,gyro_z_8,acc_x_8,acc_y_8,acc_z_8,gyro_x_9,gyro_y_9,gyro_z_9,acc_x_9,acc_y_9,acc_z_9,gyro_x_10,gyro_y_10,gyro_z_10,acc_x_10,acc_y_10,acc_z_10,gyro_x_11,gyro_y_11,gyro_z_11,acc_x_11,acc_y_11,acc_z_11,gyro_x_12,gyro_y_12,gyro_z_12,acc_x_12,acc_y_12,acc_z_12,gyro_x_13,gyro_y_13,gyro_z_13,acc_x_13,acc_y_13,acc_z_13,gyro_x_14,gyro_y_14,gyro_z_14,acc_x_14,acc_y_14,acc_z_14,gyro_x_15,gyro_y_15,gyro_z_15,acc_x_15,acc_y_15,acc_z_15,gyro_x_16,gyro_y_16,gyro_z_16,acc_x_16,acc_y_16,acc_z_16,gyro_x_17,gyro_y_17,gyro_z_17,acc_x_17,acc_y_17,acc_z_17,gyro_x_18,gyro_y_18,gyro_z_18,acc_x_18,acc_y_18,acc_z_18,gyro_x_19,gyro_y_19,gyro_z_19,acc_x_19,acc_y_19,acc_z_19,gyro_x_20,gyro_y_20,gyro_z_20,acc_x_20,acc_y_20,acc_z_20,gyro_x_21,gyro_y_21,gyro_z_21,acc_x_21,acc_y_21,acc_z_21,gyro_x_22,gyro_y_22,gyro_z_22,acc_x_22,acc_y_22,acc_z_22,gyro_x_23,gyro_y_23,gyro_z_23,acc_x_23,acc_y_23,acc_z_23,gyro_x_24,gyro_y_24,gyro_z_24,acc_x_24,acc_y_24,acc_z_24,gyro_x_25,gyro_y_25,gyro_z_25,acc_x_25,acc_y_25,acc_z_25,gyro_x_26,gyro_y_26,gyro_z_26,acc_x_26,acc_y_26,acc_z_26,gyro_x_27,gyro_y_27,gyro_z_27,acc_x_27,acc_y_27,acc_z_27,gyro_x_28,gyro_y_28,gyro_z_28,acc_x_28,acc_y_28,acc_z_28,gyro_x_29,gyro_y_29,gyro_z_29,acc_x_29,acc_y_29,acc_z_29,motion_type
0.31459999084473,0.32656249403954,0.30703750252724,-0.00522499997169,-0.007012499962,-0.16733749210835,-0.26042500138283,-0.007012499962,0.00068749999627,0.40605002641678,0.44400003552437,0.75105005502701,3.26505017280579,3.30405020713806,3.64800024032593,8.81595039367676,8.81595039367676,9.42900085449219,0.23100000619888,0.19112500548363,0.15950000286102,-0.23732499778271,-0.28586250543594,-0.32615000009537,0.3785375058651,0.56072497367859,0.69629997014999,-0.39705002307892,-0.62700003385544,0.59700000286102,4.03095006942749,3.84000015258789,3.57195019721985,9.31395053863525,8.93100070953369,8.93100070953369,0.00687499996275,0.00632499996573,0.00591249996796,-0.35199999809265,-0.36794999241829,-0.33770000934601,0.76931250095367,0.75707501173019,0.6767749786377,0.55905002355576,-0.01395000051707,0.09900000691414,3.37995004653931,3.53295016288757,3.7630500793457,9.12195014953613,9.35205078125,10.0030508041382,0.00494999997318,0.00357499998063,-0.00013749999925,-0.27417498826981,-0.19442500174046,-0.00164999999106,0.54285001754761,0.39737498760223,0.16403749585152,0.25304999947548,0.21405000984669,-0.09105000644922,3.7630500793457,3.64800024032593,3.61005020141602,10.0030508041382,9.00705051422119,7.16895055770874,-0.00178749999031,-0.00206249998882,0.00013749999925,0.00192499998957,0.00343749998137,0.00123749999329,0.0027499999851,-0.00673749996349,-0.38774999976158,-0.97200006246567,-8.05905055999756,-17.941951751709,4.22294998168945,4.30005025863647,-3.28395009040833,6.97695016860962,6.55605030059814,9.77400016784668,0.21023750305176,0.37716248631477,1.02960002422333,-0.16156250238419,-0.1530375033617,-0.28325000405312,-1.24066245555878,-2.79991245269775,-7.32159996032715,-51.4609527587891,-40.8120002746582,-24.5310020446777,-5.50605010986328,-26.3830509185791,-33.7770004272461,12.9150009155273,11.4210004806519,1.34595000743866,3.09718751907349,4.0136251449585,3.66135001182556,0.00439999997616,2.54388737678528,3.54708743095398,-13.2438621520996,-18.1229114532471,-19.1736869812012,-7.71405029296875,41.0880012512207,31.2430515289307,-34.6960525512695,-23.9320507049561,-11.9800510406494,-1.90905010700226,-9.87705039978027,-3.48000025749207,3.25861239433289,3.0793125629425,1.03289997577667,4.26428747177124,5.01380014419556,7.40959978103638,-19.9923629760742,-20.7611255645752,-15.6322374343872,22.5859508514404,16.5330009460449,13.123950958252,-9.56700038909912,-8.1109504699707,-2.97795009613037,-3.48000025749207,-3.48000025749207,6.90105009078979,-1.14702498912811,-2.13881254196167,-2.3310375213623,7.40918731689453,6.87032508850098,6.17980003356934,-13.0285377502441,-12.4174871444702,-12.4612121582031,12.127950668335,7.03305053710938,3.50895023345947,-2.51805019378662,-3.74400019645691,-4.05000019073486,9.23700046539307,9.61995029449463,10.8079509735107,-1.3362250328064,-0.58011251688004,0.40837499499321,5.37349987030029,5.00651264190674,4.732337474823,-12.0966997146606,-10.781512260437,-8.96458721160889,1.97700011730194,1.97700011730194,1.21005010604858,-3.47595024108887,-3.05400013923645,-2.55600023269653,11.8420505523682,11.8420505523682,11.3440504074097,SWING_LEFT
0.35557499527931,0.41112500429153,0.45086249709129,0.46406251192093,0.4160749912262,0.26908749341965,-1.22127497196198,-1.20078754425049,-1.08143746852875,3.66195011138916,4.19805002212524,4.77300024032593,1.61805009841919,1.42695009708405,0.77505004405975,10.6930503845215,10.5780000686646,10.5780000686646,0.37798750400543,0.26743748784065,0.00673749996349,-0.1710499972105,-0.46502500772476,-0.77027499675751,-0.56897497177124,-0.17847499251366,0.29589998722076,5.8840503692627,4.19805002212524,4.27500009536743,0.69900006055832,1.42695009708405,1.57995009422302,12.7620010375977,12.7999505996704,11.6890506744385,0.00027499999851,-0.00687499996275,-0.00384999997914,-1.00333750247955,-1.11319994926453,-1.01433753967285,0.78622502088547,1.66952502727509,2.0355498790741,3.96900010108948,0.483000010252,0.483000010252,1.84800004959106,3.37995004653931,2.53695011138916,11.2290000915527,8.93100070953369,8.93100070953369,0.00591249996796,0.39242500066757,1.05613744258881,-0.80588752031326,-0.41635000705719,0.77109998464584,2.4224750995636,2.7279999256134,3.34248757362366,-1.85295009613037,-9.63000011444092,-59.5060539245605,0.46905001997948,-1.40700006484985,-6.96195030212402,9.77400016784668,11.3440504074097,-7.34895038604736,1.37747502326965,1.51635003089905,-0.53996247053146,1.66072499752045,4.05996227264404,8.08981227874756,4.28367519378662,11.2143621444702,19.9458866119385,-53.3760032653809,-44.5660514831543,-37.8619499206543,-15.5040006637573,-29.7930011749268,-47.6440505981445,-11.7540006637573,-11.7540006637573,-11.7540006637573,-1.72878754138947,-2.1128249168396,-2.92545008659363,13.0861501693726,14.1125869750977,14.3665494918823,18.2756748199463,16.9548492431641,15.4441375732422,17.8740005493164,38.2150535583496,26.1480007171631,-72.1990509033203,-33.0870018005371,-21.1740016937256,-14.4360008239746,-14.4360008239746,-11.8690509796143,-4.42062520980835,-6.65761232376099,-5.66362476348877,13.7933120727539,7.07258749008179,3.50020003318787,13.4499750137329,-6.16646242141724,-9.32167530059814,17.7210006713867,16.9549503326416,20.97705078125,-15.6960010528564,-6.50205039978027,-4.27995014190674,5.63595008850098,1.38405001163483,1.38405001163483,-4.98478746414185,-4.90971231460571,-4.78293752670288,2.26228737831116,3.26988744735718,5.85406255722046,-10.1542377471924,-10.5963001251221,-11.1109628677368,19.252950668335,9.3319501876831,2.05305004119873,-4.70205020904541,-3.43695020675659,-1.21605002880096,3.26100015640259,4.44900035858154,5.59800004959106,-3.2210750579834,-1.07167494297028,0.14258749783039,7.21187496185303,8.95454978942871,10.021824836731,-10.9203872680664,-9.83839988708496,-8.5185375213623,2.16795015335083,1.8229501247406,0.86595004796982,-1.6750500202179,-2.51805019378662,-2.63295006752014,5.06205034255981,7.12995052337646,10.9230003356934,0.61435002088547,1.30226254463196,2.15435004234314,8.4676628112793,6.58638763427734,6.2511625289917,-6.10004997253418,-4.69163751602173,-3.2548999786377,-1.16400003433228,-1.125,-0.39705002307892,-0.7180500626564,-0.33495002985001,-0.37305000424385,11.4589509963989,9.92700004577637,9.92700004577637,SWING_LEFT
0.00604999996722,0.00343749998137,0.00013749999925,-0.26922500133514,-0.38018751144409,-0.52483749389648,-1.27682495117188,-0.91960000991821,-0.54614996910095,4.65795040130615,6.99495029449463,11.9749507904053,3.26505017280579,4.06995010375977,3.61005020141602,10.5780000686646,11.4210004806519,13.1059503555298,-0.00343749998137,-0.174899995327,-0.18892499804497,-0.6707249879837,-1.08377504348755,-1.31821250915527,-0.19456249475479,0.54491251707077,0.87505000829697,15.6520509719849,-0.51195001602173,-1.04895007610321,0.16200000047684,3.22695016860962,3.64800024032593,13.1059503555298,12.4930505752563,15.1369504928589,-0.2095499932766,-0.31006249785423,-1.12035000324249,-1.50988745689392,-1.64326250553131,-1.63583743572235,1.06232500076294,1.06287503242493,-0.00687499996275,2.24505019187927,5.23305034637451,-8.1739501953125,1.46505010128021,1.04295003414154,0.50700002908707,12.3400506973267,6.24900007247925,2.30400013923645,-1.94974994659424,-2.91225004196167,-3.70644998550415,-1.46437501907349,-1.21811246871948,-0.7233874797821,-1.83452498912811,-4.32286262512207,-6.8558874130249,-17.9809513092041,-32.881950378418,-61.1910018920898,-4.8550500869751,-13.3210506439209,-21.1350002288818,0.58005005121231,0.58005005121231,-5.74005031585693,-4.5934624671936,-5.13205003738403,-4.39972496032715,3.67716240882874,8.0407247543335,11.1979999542236,-9.77817535400391,-10.9224500656128,-11.401912689209,-52.3420524597168,-35.3719520568848,-4.87905025482178,-37.8760528564453,-59.0599517822266,-78.3660049438477,-19.9519500732422,-21.0630016326904,-34.7770500183105,-2.89547491073608,-2.90207505226135,-7.68872499465942,13.0517749786377,13.1492624282837,9.23821258544922,-10.6654624938965,-7.84973764419556,-8.54094982147217,51.775951385498,9.1399507522583,13.123950958252,-78.3660049438477,-18.3390007019043,-15.8869504928589,-43.6260032653809,-19.875,29.5399513244629,-9.92846202850342,-9.41063785552978,-8.96774959564209,5.57864999771118,2.17387509346008,-0.40837499499321,-9.54415035247803,-9.69086265563965,-9.05712509155273,14.9239511489868,13.6600503921509,11.2849502563477,-8.53200054168701,-5.12295007705688,-4.08900022506714,29.5399513244629,1.84395003318787,6.70905017852783,-9.39400005340576,-9.02866268157959,-5.60752487182617,1.69235002994537,4.79971265792847,8.80921268463135,-8.93447494506836,-8.4811372756958,-7.37701225280762,11.2090501785278,10.2510004043579,7.56900024414063,-1.90500009059906,0.23895001411438,0.88995003700256,9.27600002288818,9.27600002288818,8.62395000457764,1.64601254463196,2.58046245574951,3.03503751754761,15.7058000564575,15.4390497207642,14.0827503204346,-5.25662517547607,-5.15762519836426,-5.08571243286133,3.01095008850098,2.13000011444092,1.05705010890961,0.20100000500679,0.08595000207424,-0.02805000171065,5.25300025939941,9.12195014953613,9.12195014953613,3.40037488937378,4.98987483978271,5.18361234664917,11.6414375305176,6.56796264648438,5.62966251373291,-4.98519992828369,-4.67554998397827,-3.90871238708496,0.25304999947548,-1.58505010604858,-0.85695004463196,-0.18105000257492,-0.94695001840591,-0.94695001840591,9.39105033874512,9.61995029449463,10.5400505065918,SWING_LEFT
-0.28586250543594,-0.22935000061989,-0.15056249499321,0.21422499418259,0.00371249997988,-0.00068749999627,-0.55206251144409,-0.26606249809265,-0.15647499263287,1.24905002117157,1.40205001831055,1.55505001544952,1.81005012989044,1.84800004959106,1.81005012989044,9.73500061035156,9.5440502166748,9.5440502166748,-0.00233749998733,0.00288749998435,0.21175000071526,-0.00494999997318,-0.1710499972105,-0.21230000257492,-0.00329999998212,-0.00027499999851,0.00096249999478,1.55505001544952,1.8229501247406,3.08700013160706,1.81005012989044,1.88595008850098,1.77105009555817,9.65895080566406,9.65895080566406,9.65895080566406,0.24433749914169,0.25066250562668,0.23539999127388,-0.19923749566078,-0.19236250221729,-0.21573749184608,-0.00013749999925,-0.00137499999255,-0.00164999999106,4.54305028915405,6.95595026016235,9.86805057525635,1.6560001373291,1.38795006275177,0.92895007133484,10.0800008773804,10.1569509506226,10.3099508285522,0.15111249685287,0.00591249996796,0.00481249997392,-0.48014998435974,-0.86528748273849,-1.40992498397827,0.00687499996275,0.45113748311996,0.91712498664856,17.1079502105713,-1.73805010318756,-49.9290008544922,-6.65505027770996,-22.1310005187988,-19.4119510650635,12.4930505752563,16.5540008544922,16.5540008544922,-0.00384999997914,-2.88268756866455,-6.48573732376099,-1.96350002288818,-2.0268874168396,1.71091246604919,1.38586246967316,-0.37894999980927,-4.73110008239746,-78.3139572143555,-47.8219528198242,-16.5250511169434,-9.528000831604,-38.7949523925781,-64.9210510253906,12.0340509414673,-25.3909511566162,-43.2430534362793,-7.95066261291504,-9.15378761291504,-13.2093496322632,5.72508764266968,8.50973701477051,10.3063125610352,-4.39408731460571,-3.89427495002747,-4.49968767166138,44.3830528259277,40.4370002746582,13.8900003433228,-78.3660049438477,-44.9239540100098,-24.2380504608154,-52.2060012817383,-52.2060012817383,31.7620506286621,-16.0685253143311,-16.7358131408691,-13.3269128799438,9.3035249710083,9.09658718109131,7.8630747795105,-5.7934250831604,-6.89961242675781,-3.67166256904602,9.94395065307617,15.2689504623413,22.1640014648438,-8.83905029296875,3.8779501914978,3.26505017280579,11.076000213623,-2.56005001068115,-6.85095024108887,-10.648962020874,-10.4256620407104,-8.69137477874756,13.7403745651245,15.9715871810913,16.5466117858887,-0.83270001411438,-1.40291249752045,-2.52683758735657,16.0349998474121,5.3860502243042,-0.81900006532669,-1.1010000705719,-0.52605003118515,-0.06599999964237,-5.31795024871826,-4.70595026016235,-3.25005006790161,-5.45146226882935,-2.46111249923706,-2.93768739700317,18.446174621582,19.5953998565674,17.8842124938965,-3.1128625869751,-2.82287502288818,-2.51432490348816,-4.65000009536743,2.05305004119873,0.55905002355576,1.23495006561279,-3.36105012893677,-1.25400006771088,-0.7219500541687,15.9790506362915,13.3740005493164,-3.48232507705688,-1.41460001468658,2.8862624168396,12.2384624481201,3.00767493247986,7.44878768920898,-3.35871243476868,-6.18832492828369,-3.14146256446838,-0.01395000051707,-0.24405001103878,0.67395001649857,-0.64095002412796,-0.56400001049042,-0.56400001049042,13.2210006713867,11.6119508743286,11.3830509185791,SWING_LEFT
0.00412499997765,0.0027499999851,0.00096249999478,0.28627499938011,0.3617624938488,0.43876248598099,-0.53583747148514,-0.54834997653961,-0.58038747310638,2.206050157547,2.47500014305115,5.23305034637451,0.62205004692078,0.69900006055832,0.43095001578331,10.4629507064819,10.5010509490967,11.2680006027222,-0.00013749999925,-0.00109999999404,-0.00233749998733,0.42460000514984,0.36492499709129,0.21422499418259,-0.61462497711182,-0.6599999666214,-0.7067499756813,8.22105026245117,10.3660507202148,7.56900024414063,-1.1010000705719,-2.28795003890991,-1.75200009346008,12.2250003814697,12.9150009155273,13.6039505004883,-0.28187498450279,-0.49857500195503,-0.72861248254776,-0.51590001583099,-0.92895001173019,-1.29841244220734,-0.76917499303818,-0.78100001811981,-0.80973750352859,6.53505039215088,4.39005041122437,2.32095003128052,-1.17705011367798,-0.98595005273819,-1.13895010948181,11.9569501876831,13.2600002288818,13.2600002288818,-0.94985002279282,-1.43948745727539,-1.79327499866486,-1.59706246852875,-1.7106374502182,-1.27627503871918,-0.84205001592636,-1.04884994029999,-1.50562500953674,1.1340000629425,-11.3149509429932,-46.443000793457,-2.44095015525818,-9.03000068664551,-16.3849506378174,12.8380508422852,10.0420503616333,7.81995058059692,-2.39689993858337,-3.34537506103516,-4.40123748779297,-0.41043749451637,1.04610002040863,7.45442485809326,-2.73267507553101,-5.23393726348877,-9.19517517089844,-78.3139572143555,-63.0679512023926,-26.791051864624,-4.31895017623901,-21.211950302124,-59.5960540771484,0.3120000064373,-24.586950302124,-30.8689517974854,-4.19567489624023,-1.40621244907379,10.8843622207642,11.45787525177,15.3899621963501,22.1583995819092,-9.54415035247803,-10.2497997283936,-10.2928371429443,14.6179504394531,46.3750534057617,16.1890506744385,-78.3660049438477,-64.0780563354492,-15.8869504928589,-42.9739532470703,-43.4719505310059,-43.4719505310059,17.9302749633789,19.9775123596191,21.2812881469727,26.4884128570557,27.1149997711182,26.4268131256104,-7.13899993896484,-4.3324875831604,-2.1927125453949,11.4000005722046,11.0940008163452,13.2010507583618,-13.6650009155273,-4.58700037002563,-1.33095002174377,34.3290023803711,6.21105051040649,-0.91305005550385,22.6382751464844,14.1817502975464,6.3460373878479,25.9408874511719,29.5612621307373,26.3683757781982,-0.60967499017715,6.20248746871948,5.3191876411438,12.5880002975464,8.41200065612793,6.49695014953613,-1.98195004463196,-1.06200003623962,-0.75600004196167,-0.91305005550385,8.89305019378662,8.89305019378662,4.18082475662231,4.26153755187988,5.0824122428894,25.2192878723145,24.6811122894287,21.2948989868164,4.11867475509644,3.15645003318787,1.64243745803833,4.27500009536743,1.8229501247406,-1.93005013465881,-0.7180500626564,-1.02404999732971,-1.02404999732971,8.73900032043457,7.05405044555664,6.97695016860962,4.7564001083374,5.44829988479614,6.10348749160767,15.9227752685547,8.90944957733154,7.09004974365234,-1.23199999332428,-4.33400011062622,-3.64416241645813,-1.93005013465881,-1.31700003147125,-1.20195007324219,-0.90900003910065,-0.75600004196167,-0.67905002832413,8.70105075836182,10.3480501174927,10.5400505065918,SWING_LEFT
-0.15138749778271,-0.2072124928236,-0.00659999996424,-0.00563749996945,-0.30428749322891,-0.35598748922348,-0.67182499170303,-0.65601247549057,-0.72668749094009,1.90005004405975,1.86195003986359,1.78500008583069,2.69100022315979,2.84400010108948,2.76705002784729,9.12195014953613,8.778000831604,8.778000831604,-0.00123749999329,0.00453749997541,0.29122498631477,-0.39544999599457,-0.40713748335838,-0.39462500810623,-0.84961247444153,-0.98752498626709,-1.19844996929169,2.89605021476746,5.19405031204224,10.8640508651733,2.65200018882751,2.26905012130737,0.69900006055832,8.8540506362915,9.19905090332031,10.0800008773804,0.33495000004768,0.29741248488426,0.17503750324249,-0.46667498350143,-0.72448748350143,-1.14138746261597,-1.24657499790192,-1.19556248188019,-1.00471246242523,9.75300025939941,5.65395021438599,4.04505014419556,-0.64095002412796,-0.14295001327991,-0.7180500626564,11.7660007476807,14.8680009841919,16.1329498291016,-0.37771248817444,-0.79048746824265,-1.3055624961853,-1.93586254119873,-2.09412503242493,-2.02702498435974,-0.31707498431206,-0.00082499999553,0.00261249998584,-2.84895014762878,-7.75200033187866,-19.627950668335,-3.1690502166748,-4.27995014190674,-4.39499998092651,14.907000541687,11.9190006256104,9.23700046539307,-1.98646247386932,-3.64663743972778,-3.95793747901917,-1.61961245536804,1.02079999446869,3.92534995079041,-0.27788749337196,-2.88571238517761,-4.59428739547729,-66.9370498657227,-58.5859527587891,-28.1700019836426,-4.01205015182495,-46.9930534362793,-70.245002746582,-3.17295026779175,-52.245002746582,-52.245002746582,-3.62229990959167,-3.46101236343384,-16.838249206543,7.92701244354248,11.9882125854492,11.2829751968384,-5.5757622718811,-6.21362495422363,-7.85949993133545,15.2689504623413,26.2630519866943,15.9970502853394,-78.3660049438477,-58.8679542541504,-17.3809509277344,-47.3029518127441,-40.101001739502,36.2820014953613,-15.6682624816895,-14.158374786377,-12.6079244613647,12.4682245254517,13.269437789917,13.8528499603271,-7.59893751144409,-6.38261222839355,-4.17078733444214,16.2649517059326,11.4769506454468,10.2130508422852,-4.70205020904541,1.35000002384186,2.30805015563965,9.12195014953613,-6.4680004119873,-6.4680004119873,-10.7621250152588,-9.37447452545166,3.15727496147156,16.6113758087158,17.07200050354,21.7700996398926,3.22753739356995,4.61161231994629,5.6513876914978,23.4289512634277,16.9549503326416,4.04505014419556,-2.51805019378662,-3.09300017356873,-1.06200003623962,2.95500016212463,3.49095010757446,5.36805009841919,3.22836256027222,2.97811245918274,2.83071255683899,21.7768383026123,20.4843368530273,18.4801368713379,5.26487493515015,2.65746259689331,0.77852499485016,0.25304999947548,-1.62300002574921,-1.50795006752014,-1.59900009632111,-1.06200003623962,-0.79395002126694,10.6549501419067,9.58200073242188,9.08400058746338,2.87333750724792,3.93923759460449,5.66197490692139,14.3361625671387,10.6325998306274,9.75411224365234,-2.35798740386963,-4.12197494506836,-1.9239000082016,-1.62300002574921,-1.73805010318756,0.44400003552437,-0.56400001049042,-0.06599999964237,0.50700002908707,9.08400058746338,10.0420503616333,10.6930503845215,SWING_LEFT
-0.55398750305176,-0.44742500782013,-0.31968748569489,0.00041249999776,-0.00357499998063,-0.16747500002384,-1.90313744544983,-2.04778742790222,-2.21705007553101,1.55505001544952,3.50895023345947,5.07900047302246,2.03895020484924,2.38394999504089,2.69100022315979,9.88905048370361,10.3480501174927,10.3480501174927,-0.00164999999106,0.00508749997243,0.2050125002861,-0.37936249375343,-0.57172501087189,-0.89196246862411,-2.53412508964539,-2.7161750793457,-2.90111255645752,5.19405031204224,5.42400026321411,5.23305034637451,3.30405020713806,3.61005020141602,3.15000009536743,7.70505046844482,7.70505046844482,8.05005073547363,0.28600001335144,0.35530000925064,0.30002498626709,-1.25798749923706,-1.97119998931885,-2.28951239585876,-3.01881241798401,-2.95226240158081,-2.85903739929199,3.81495022773743,-0.58905005455017,-2.84895014762878,2.30805015563965,1.27305006980896,0.88995003700256,11.7660007476807,11.3830509185791,8.89305019378662,0.00412499997765,-0.30250000953674,-1.44003748893738,-2.48751258850098,-2.44626259803772,-1.31876254081726,-2.87787508964539,-3.09636259078979,-4.26401233673096,-5.30100011825562,-10.1280002593994,-48.1669540405273,0.62205004692078,-0.7180500626564,-3.51405024528503,8.08800029754639,8.05005073547363,5.67495012283325,-1.97188746929169,-2.42604994773865,-2.59544992446899,-0.19552500545979,1.67117500305176,4.75722503662109,-5.2141375541687,-6.38962507247925,-7.66149997711182,-65.4810028076172,-58.2030029296875,-38.2830009460449,-9.03000068664551,-38.6800537109375,-74.3440551757813,-16.9260005950928,-28.0729522705078,-43.6260032653809,0.68199998140335,3.90527486801147,10.1092748641968,10.3959627151489,12.5573253631592,15.7882995605469,-9.98250007629394,-10.59987449646,-10.1560249328613,29.2900505065918,30.5149517059326,39.0199508666992,-78.3660049438477,-39.2929534912109,-33.0870018005371,-54.2749519348145,-54.2749519348145,27.6630020141602,15.6502494812012,18.6652126312256,19.3675632476807,19.1834506988525,20.8752498626709,20.8286380767822,-8.56075000762939,-6.32032489776611,-4.18440008163452,19.0620002746582,1.47900009155273,6.26700019836426,-21.0970516204834,3.99300026893616,0.46905001997948,27.6630020141602,-6.1230001449585,-6.1230001449585,19.0129489898682,16.6007881164551,6.52299976348877,27.4432125091553,30.0554370880127,26.3185997009277,2.074049949646,4.99372482299805,4.9825873374939,9.79095077514648,12.7030506134033,6.15195035934448,-2.47995018959045,-3.706050157547,-1.78995013237,-2.75205016136169,3.64395022392273,10.4629507064819,4.33839988708496,4.33592510223389,4.64007520675659,24.5771617889404,23.3124370574951,21.7373752593994,4.11647510528564,3.49690008163452,2.40638756752014,-0.47400003671646,-2.27505016326904,-1.93005013465881,-0.87105005979538,-1.02404999732971,-1.13895010948181,10.4629507064819,8.89305019378662,5.86605024337769,5.01407480239868,5.9328498840332,6.36652517318726,9.50716209411621,7.97004985809326,7.85344982147217,-4.57242488861084,-4.21162509918213,-3.19178748130798,0.59700000286102,0.75105005502701,0.06105000153184,-1.13895010948181,-1.06200003623962,-0.56400001049042,9.58200073242188,10.0800008773804,10.5400505065918,SWING_LEFT
0.55096250772476,0.46818751096725,0.33316248655319,-0.19676250219345,-0.37207499146461,-0.53006249666214,-1.30418753623962,-1.29181253910065,-1.25606250762939,4.04505014419556,3.31695008277893,4.58100032806396,2.23095011711121,2.34600019454956,2.23095011711121,10.1179504394531,9.77400016784668,9.77400016784668,-0.00123749999329,-0.23168750107288,-0.46048748493195,-0.76298749446869,-0.862124979496,-0.97184997797012,-1.17603754997253,-1.19528746604919,-1.30597496032715,6.99495029449463,8.48895072937012,10.7490005493164,2.07795000076294,1.732950091362,0.96705007553101,10.0030508041382,9.65895080566406,9.58200073242188,-0.67636251449585,-1.09587502479553,-1.38874995708466,-1.14730000495911,-1.60902500152588,-1.84607493877411,-1.4557124376297,-1.80248749256134,-2.04325008392334,8.22105026245117,-4.68795013427734,-9.40005016326904,0.3160500228405,-1.71405005455017,-2.21205019950867,9.58200073242188,10.5780000686646,10.5780000686646,-1.86106252670288,-2.56781244277954,-4.32643747329712,-2.04187488555908,-1.94851243495941,0.00233749998733,-2.48806238174438,-3.27360010147095,-5.82683753967285,-14.2260007858276,-20.9299507141113,-46.4040031433105,-1.98195004463196,-2.44095015525818,-4.27995014190674,9.61995029449463,8.08800029754639,0.77100002765656,-4.73054981231689,-4.44537496566772,-2.92435002326965,2.4224750995636,5.64217519760132,8.97984981536865,-7.06145000457764,-8.34253787994385,-9.7491626739502,-59.4670524597168,-54.9850540161133,-45.1399536132813,-14.8909511566162,-35.7300033569336,-68.5210494995117,-14.5500011444092,-36.3859519958496,-41.0970001220703,1.96872496604919,4.59263753890991,7.86101245880127,13.4920501708984,15.1258249282837,16.3167133331299,-10.5091247558594,-10.0649995803833,-8.96032524108887,34.4610023498535,22.1260509490967,24.9229507446289,-78.3660049438477,-38.3740501403809,-34.2750015258789,-72.0109558105469,-72.0109558105469,21.3810005187988,11.9565877914429,16.2709255218506,15.8285875320435,17.4431133270264,18.1691131591797,18.7213115692139,-7.12978744506836,-2.93919992446899,-0.56155002117157,0.55905002355576,0.75105005502701,7.03305053710938,-15.5430011749268,3.80205011367798,-1.98195004463196,20.5380001068115,-9.26400089263916,-9.26400089263916,15.4303874969482,14.104887008667,9.74448776245117,23.9223880767822,28.5927124023438,28.4242744445801,3.91778755187988,7.26577472686768,7.69312477111816,13.3920001983643,14.2350006103516,5.46300029754639,-4.93095016479492,-4.4719500541687,-0.83295005559921,0.42705002427101,9.50505065917969,12.6079502105713,6.73145008087158,5.32620000839233,5.10193729400635,26.6114749908447,24.5928382873535,22.8886623382568,6.58803749084473,5.17728757858276,3.33465003967285,0.483000010252,-1.04895007610321,-0.74205005168915,-0.75600004196167,-0.64095002412796,-0.90900003910065,7.12995052337646,4.10400009155273,4.10400009155273,5.16326236724854,6.14143753051758,6.68538761138916,11.9937124252319,9.04956245422363,8.3271369934082,-3.55038738250732,-3.97498750686646,-3.23083758354187,0.86595004796982,0.21405000984669,-0.89505004882813,-1.59900009632111,-1.25400006771088,-1.44495010375977,6.78600025177002,10.0800008773804,10.6930503845215,SWING_LEFT
1.20133745670319,1.05338752269745,0.83916246891022,-0.34581249952316,-0.66687500476837,-0.97652500867844,-1.41556251049042,-1.13052499294281,-0.84892499446869,1.1340000629425,1.63200008869171,1.40205001831055,2.84400010108948,2.88195013999939,2.95905017852783,9.61995029449463,9.61995029449463,9.77400016784668,0.58368748426437,0.00467499997467,-0.00508749997243,-1.22897493839264,-1.34475004673004,-1.26596248149872,-0.57502502202988,-0.00673749996349,-0.00068749999627,0.90405005216599,1.28700006008148,1.59300005435944,3.07395005226135,3.07395005226135,2.95905017852783,9.77400016784668,9.58200073242188,9.42900085449219,-0.23704999685287,-0.30992498993874,-0.29026249051094,-1.15101253986359,-1.0060875415802,-0.70620000362396,0.00206249998882,0.00206249998882,-0.00522499997169,2.43600010871887,3.77700018882751,8.56500053405762,2.88195013999939,2.76705002784729,1.50300002098084,9.35205078125,9.65895080566406,10.8079509735107,-0.25464999675751,-0.23168750107288,-0.25368750095367,-0.69354999065399,-0.85978752374649,-1.17163753509521,-0.18507499992847,-0.24997499585152,-0.27541249990463,11.9749507904053,8.94795036315918,-3.1560001373291,-0.18105000257492,-0.37305000424385,-0.25800001621246,11.3059501647949,13.2210006713867,15.4050006866455,-0.64652502536774,-1.03606247901917,-1.61590003967285,-1.87825000286102,-2.14046239852905,-1.89681243896484,-0.26358750462532,-0.35461249947548,-0.97913748025894,-63.6040534973145,-74.9820022583008,-66.1710052490234,11.2330503463745,2.99700021743774,-29.2570514678955,15.903000831604,-47.3800506591797,-62.2429542541504,-2.18418741226196,-2.83373737335205,-12.9958124160767,0.00646249996498,7.9997501373291,10.4966125488281,-2.26545000076294,-3.43928742408752,-2.59929990768433,-22.4239501953125,44.8810539245605,26.5699520111084,-78.3660049438477,-25.7710514068604,-26.8810520172119,-68.0659561157227,-53.7390022277832,38.3509521484375,-16.289213180542,-15.5346126556396,-12.2376375198364,12.4029121398926,14.6711120605469,18.3304004669189,-3.61748743057251,-3.91737508773804,-1.18470001220703,1.36395001411438,-6.06705045700073,11.0550003051758,-16.8829517364502,3.41895008087158,2.92095017433167,38.3509521484375,5.56005048751831,-14.3590507507324,-10.7677621841431,-10.1481876373291,-6.99256229400635,17.9986114501953,17.0820369720459,15.7574996948242,2.0520498752594,4.59469985961914,5.02218770980835,14.695050239563,12.7030506134033,6.53505039215088,0.00900000054389,-0.33495002985001,0.77505004405975,-1.2960000038147,4.79400014877319,7.78200054168701,3.9591748714447,3.00795006752014,1.84318745136261,16.0897006988525,15.7195501327515,15.6040496826172,5.87564992904663,4.75859975814819,1.99691247940063,-1.50795006752014,-1.77705013751984,1.17195010185242,1.42695009708405,1.19700002670288,0.35400000214577,12.0340509414673,9.81195068359375,5.86605024337769,1.76178753376007,2.26668739318848,2.4835250377655,15.7272500991821,14.8526124954224,14.7896375656128,-0.78649997711182,-4.04882478713989,-4.222487449646,3.16395020484924,1.86195003986359,1.70805013179779,-0.10500000417233,0.43095001578331,0.96705007553101,6.82395029067993,12.4930505752563,12.4930505752563,SWING_LEFT
-0.25602498650551,-0.24062499403954,-0.00467499997467,-0.434087485075,-0.33934998512268,-0.16582499444485,0.00178749999031,-0.00027499999851,-0.16568750143051,1.66995012760162,1.78500008583069,3.04905009269714,2.03895020484924,1.81005012989044,1.69500005245209,9.61995029449463,9.88905048370361,9.92700004577637,-0.00013749999925,0.00302499998361,0.00439999997616,-0.00632499996573,-0.00659999996424,-0.19552500545979,-0.24667499959469,-0.32477501034737,-0.37963750958443,4.92600011825562,8.22105026245117,10.7490005493164,1.732950091362,1.12005007266998,-0.7180500626564,10.1179504394531,10.6930503845215,11.19105052948,0.00013749999925,-0.00659999996424,-0.39476248621941,-0.684750020504,-1.22636246681213,-1.79836249351501,-0.35516250133514,-0.2253624945879,-0.00164999999106,9.17805004119873,8.6419506072998,2.81895017623901,-1.86705005168915,-3.706050157547,-5.62095022201538,12.5700006484985,14.907000541687,16.0939502716064,-0.71060001850128,-1.48417496681213,-2.10938739776611,-2.29446244239807,-2.82205009460449,-2.52944993972778,0.17655000090599,0.41690000891685,0.007012499962,-7.06305027008057,-28.3230018615723,-41.6539535522461,-5.23800039291382,-1.98195004463196,-1.25400006771088,16.0939502716064,5.8279504776001,-0.33900001645088,-3.09127497673035,-4.01747512817383,-3.35417509078979,-1.2754499912262,1.12543749809265,8.87012481689453,-0.97047501802444,-2.88584995269775,-5.91346263885498,-49.6219520568848,-40.8120002746582,-19.4740505218506,-5.23800039291382,-18.1470012664795,-49.2910537719727,-14.8570508956909,-29.1460514068604,-25.7749519348145,-0.71389997005463,4.38886260986328,9.86878776550293,12.8535003662109,16.469612121582,19.4126625061035,-7.53637504577637,-8.97558784484863,-9.31933784484863,9.6379508972168,25.6120510101318,24.0030002593994,-58.255054473877,-42.8560523986816,-24.2770519256592,-22.0590019226074,-15.0480003356934,25.2109508514404,21.335599899292,23.6629257202148,24.7513751983643,23.8035869598389,23.6626491546631,22.0325870513916,-6.2543249130249,-4.83202505111694,-4.49831247329712,17.7589511871338,15.5760011672974,13.0470008850098,-9.98805046081543,-2.02005004882813,1.77105009555817,21.7639503479004,14.4090003967285,3.64395022392273,24.6977500915527,16.1233882904053,11.7136249542236,20.3438129425049,27.6571617126465,25.4369506835938,-4.50395011901855,-2.15778756141663,-3.5755500793457,10.5570001602173,7.03305053710938,4.31295013427734,1.92495012283325,-0.29595002532005,-0.60300004482269,3.64395022392273,7.20705032348633,8.47095012664795,7.66370010375977,6.36033725738525,5.53726243972778,22.7467632293701,20.4693508148193,17.122875213623,-5.22513723373413,-5.87303733825684,-5.03483724594116,2.58900022506714,0.71205002069473,-0.70395004749298,-0.37305000424385,-0.25800001621246,-0.02805000171065,7.89705038070679,7.81995058059692,8.70105075836182,5.20052480697632,6.33242511749268,5.61343765258789,12.7612371444702,4.03961229324341,4.08966255187988,-4.76726245880127,-5.16669988632202,-3.17459988594055,-0.89505004882813,-0.62700003385544,-0.01395000051707,0.20100000500679,0.69900006055832,0.62205004692078,9.58200073242188,9.58200073242188,9.31395053863525,SWING_LEFT
0.35859999060631,0.6208124756813,1.25606250762939,0.57200002670288,0.66261249780655,0.83448749780655,-4.37772512435913,-4.70387506484985,-4.89486265182495,-2.35095000267029,-1.20195007324219,0.29100000858307,5.37195014953613,5.21895027160645,5.02695035934448,6.55605030059814,6.90105009078979,7.4370002746582,1.59706246852875,1.91276252269745,2.15091252326965,0.91904997825623,0.96332502365112,0.86116248369217,-4.82184982299805,-4.61298751831055,-4.17876243591309,-0.05295000225306,0.40605002641678,1.8229501247406,5.02695035934448,5.10405015945435,4.64400005340576,7.9350004196167,8.24100017547607,9.00705051422119,2.08807492256165,1.79341244697571,1.35286247730255,0.2088624984026,-0.23870000243187,-0.7345250248909,-2.63697504997253,-1.76838743686676,-0.88907498121262,2.58900022506714,4.19805002212524,5.8840503692627,4.60605001449585,4.1850004196167,3.8779501914978,9.96495056152344,10.8460502624512,10.9230003356934,0.80121248960495,-0.3980624973774,-0.88041251897812,-1.214674949646,-1.81843745708466,-1.88347494602203,-0.00302499998361,1.1834625005722,1.42229998111725,4.73505020141602,-26.7150020599365,-45.4849510192871,2.15400004386902,0.69900006055832,1.12005007266998,10.9230003356934,12.1099510192871,12.1099510192871,-1.32577502727509,-1.72864997386932,-2.10292506217957,-1.88388752937317,-1.35506248474121,3.26218748092651,1.35080003738403,0.76188749074936,-1.90657496452332,-43.3399505615234,-37.2490501403809,6.03705024719238,-4.77795028686523,-11.2519502639771,-39.9439506530762,5.90505027770996,-11.0650501251221,-28.3789520263672,-2.1319375038147,-2.54677510261536,-7.3665623664856,5.85777473449707,8.27461242675781,9.44652462005615,-3.11327505111694,-4.06903743743896,-4.36356258392334,20.6700000762939,17.5290012359619,23.0839519500732,-43.7749519348145,-21.5569515228271,-17.1900005340576,-26.8470020294189,-9.91500091552734,35.0560531616211,-14.7707996368408,-14.4005126953125,-13.4422750473022,10.3321628570557,11.2943878173828,11.6242504119873,-6.94787502288818,-7.99095010757446,-8.07977485656738,7.99095058441162,4.46700000762939,3.96900010108948,-6.54000043869019,1.92495012283325,4.98900032043457,30.3829517364502,8.28000068664551,-6.62100028991699,-12.8848495483398,-13.0747375488281,-4.62041234970093,14.9481744766235,21.5412998199463,22.9332122802734,-6.39663743972778,-4.10795021057129,-4.5667872428894,5.53905010223389,4.54305028915405,2.70405006408691,2.92095017433167,0.73695003986359,0.50700002908707,-6.4680004119873,1.84395003318787,4.41105031967163,-0.99907499551773,-0.00357499998063,-0.60101246833801,23.5023250579834,22.263313293457,15.9301996231079,-3.96137499809265,-3.22547507286072,-4.43698740005493,0.55905002355576,-0.47400003671646,0.75105005502701,0.58395004272461,0.39195001125336,0.58395004272461,10.0420503616333,14.1409502029419,13.1830501556396,0.83008748292923,2.73707509040833,2.65127491950989,7.5153374671936,5.82999992370605,7.29629993438721,-7.57047510147095,-7.26316261291504,-5.78998756408691,0.78900003433228,0.71205002069473,1.05705010890961,0.54495000839233,0.23895001411438,0.58395004272461,7.24500036239624,7.24500036239624,10.1179504394531,SWING_LEFT
-0.21161249279976,-0.48468750715256,-0.64184999465942,0.00632499996573,-0.29370000958443,-0.6434999704361,-1.23708748817444,-1.06342494487762,-0.88907498121262,-0.20595000684261,-0.05295000225306,0.483000010252,1.12005007266998,1.35000002384186,1.31205010414124,10.5010509490967,10.5010509490967,10.5010509490967,-0.67773747444153,-0.55343747138977,-0.42501249909401,-0.89911252260208,-1.04843747615814,-1.04967498779297,-0.72036248445511,-0.43477499485016,-0.35653749108315,0.78900003433228,3.24105024337769,5.8840503692627,1.46505010128021,1.69500005245209,1.61805009841919,10.5780000686646,10.6930503845215,10.6930503845215,-0.27211248874664,-0.00604999996722,0.00467499997467,-1.03468751907349,-1.03592503070831,-1.53890001773834,-0.32958748936653,-0.34993749856949,-0.45993748307228,7.72305059432983,11.0550003051758,11.5530004501343,1.81005012989044,1.61805009841919,-3.28395009040833,10.8460502624512,10.9230003356934,12.3019504547119,0.007012499962,0.00453749997541,-0.1545500010252,-2.05535006523132,-2.59916257858276,-3.08068752288818,-0.512600004673,-0.61201250553131,-0.76092499494553,1.86195003986359,-22.3090515136719,-49.737003326416,-1.98195004463196,-5.12295007705688,-3.36105012893677,12.2640008926392,12.2640008926392,12.0340509414673,-1.33801245689392,-2.35537505149841,-2.97673749923706,-3.28418755531311,-1.59885001182556,1.93435001373291,-1.5743750333786,-2.86852502822876,-4.06628751754761,-52.3039512634277,-29.8170013427734,2.7810001373291,-20.1390018463135,-42.7410011291504,-61.8940544128418,-12.7120504379272,-22.0200004577637,-27.6130504608154,-3.32626247406006,-8.80178737640381,-11.9638748168945,5.46053743362427,9.6321496963501,10.0838375091553,-4.28587484359741,-2.92531251907349,-3.24032497406006,27.0289516448975,22.969051361084,9.56100082397461,-56.263053894043,-13.3210506439209,-6.50205039978027,-27.6130504608154,28.0080013275146,19.9249515533447,-12.8359003067017,-12.3763751983643,-11.3540620803833,11.0236501693726,11.596887588501,11.3536500930786,-4.26071262359619,-4.90256261825562,-4.31282520294189,5.3860502243042,6.64995050430298,12.1660509109497,3.61005020141602,8.35995006561279,2.69100022315979,0.08205000311136,-6.62100028991699,-9.11100006103516,-13.5357751846313,-11.5090246200562,-7.3180251121521,19.9966239929199,20.5968132019043,21.4042129516602,-0.63580000400543,-2.20536255836487,-3.74261236190796,11.1700506210327,5.84595012664795,1.47900009155273,-0.06599999964237,-0.79395002126694,0.58395004272461,-5.39505004882813,-1.83195006847382,9.08400058746338,-4.45623731613159,-4.63141250610352,-4.72876262664795,20.4113254547119,18.7379493713379,16.7384243011475,-4.04401254653931,-3.67179989814758,-3.13719987869263,-0.58905005455017,0.59700000286102,0.52095001935959,-0.29595002532005,-0.56400001049042,0.43095001578331,17.1289501190186,17.1289501190186,9.58200073242188,-3.02087497711182,0.5545374751091,0.50503748655319,9.06578731536865,8.11882495880127,10.0094499588013,-5.97203731536865,-5.07801246643066,-3.26259994506836,0.29100000858307,1.51695013046265,2.43600010871887,1.42695009708405,1.27305006980896,1.19700002670288,7.4370002746582,8.24100017547607,12.3780002593994,SWING_LEFT
0.3106124997139,0.18975000083447,-0.00453749997541,-0.32284998893738,-0.3286249935627,-0.36217498779297,-0.23017500340939,-0.19346250593662,-0.16486249864101,1.55505001544952,1.47900009155273,1.44000005722046,1.1580001115799,1.31205010414124,1.57995009422302,10.3870506286621,10.3870506286621,10.5780000686646,-0.20831249654293,-0.28311249613762,-0.30621248483658,-0.38953748345375,-0.41717499494553,-0.43807500600815,-0.18424999713898,-0.23375000059605,-0.3119874894619,1.63200008869171,2.35995006561279,4.39005041122437,1.61805009841919,1.69500005245209,1.92495012283325,10.4250001907349,10.3870506286621,10.0420503616333,-0.21188749372959,-0.00673749996349,-0.00302499998361,-0.45925000309944,-0.50104999542236,-0.66756248474121,-0.51644998788834,-0.62796247005463,-0.76367497444153,8.6419506072998,11.4769506454468,16.1500511169434,1.08195006847382,-0.7180500626564,-3.43695020675659,9.8500509262085,9.8500509262085,11.19105052948,-0.00082499999553,-0.27761250734329,-0.76807498931885,-1.03042495250702,-2.13702487945557,-2.64701247215271,-0.88274997472763,-0.88852500915527,-0.75597500801086,14.1199502944946,-21.3900012969971,-43.1479530334473,-7.80405044555664,-7.57500028610229,-5.62095022201538,11.19105052948,13.1830501556396,12.3019504547119,-1.59060001373291,-2.88447499275208,-5.25717496871948,-2.97274994850159,-2.34698748588562,4.3058123588562,-0.79763752222061,-1.44595003128052,-3.42842507362366,-57.7050018310547,-60.577953338623,-32.8440017700195,-10.2180004119873,-8.99205017089844,-49.828052520752,7.16895055770874,-14.6650505065918,-42.4000511169434,-5.02672481536865,-3.88492488861084,0.17765000462532,8.22002506256104,11.6700372695923,15.7031869888306,-3.33189988136292,-3.57403755187988,-4.3396372795105,15.5760011672974,32.6220016479492,20.2870502471924,-75.4169998168945,-58.6380043029785,-20.9820003509521,-38.4930000305176,-37.3429527282715,-22.8250503540039,16.9868869781494,19.5228004455566,21.3846874237061,24.984712600708,25.9997367858887,24.8506507873535,-4.44771242141724,-3.67289996147156,-2.7885000705719,18.1039505004883,6.26700019836426,5.73105049133301,-18.7600517272949,-6.96195030212402,4.03095006942749,37.2400512695313,16.0180511474609,-0.18495000898838,22.3817005157471,19.4511623382568,5.63145017623901,23.2417621612549,31.4949245452881,27.8653373718262,-2.84088754653931,2.79276251792908,3.34757494926453,6.72705030441284,9.29295063018799,8.48895072937012,6.40605020523071,0.00900000054389,-1.06200003623962,-7.23405027389526,-3.05805015563965,0.73305004835129,2.55653738975525,2.05851244926453,1.89695000648499,26.577787399292,25.4419002532959,21.2271118164063,2.61511254310608,1.83823752403259,0.18026250600815,5.61600017547607,1.17195010185242,-1.20195007324219,-0.41100001335144,1.19700002670288,-0.90900003910065,1.99695014953613,11.3059501647949,13.6039505004883,1.30075001716614,2.11681246757507,4.27721261978149,17.9837627410889,10.5175123214722,6.26807498931885,-1.43013751506805,-5.20121240615845,-6.25721263885498,-0.47400003671646,0.21405000984669,0.29100000858307,-0.33495002985001,0.58395004272461,0.69900006055832,13.068000793457,10.0030508041382,9.00705051422119,SWING_LEFT
-0.53460001945496,-0.57241249084473,-0.5819000005722,-0.31968748569489,-0.1733874976635,-0.00453749997541,-0.15895000100136,-0.29012501239777,-0.48207500576973,3.39405012130737,3.81495022773743,4.8880500793457,2.23095011711121,2.46105003356934,2.84400010108948,9.58200073242188,9.50505065917969,9.46695041656494,-0.51713746786118,-0.45347499847412,-0.40122500061989,-0.00013749999925,-0.00192499998957,-0.20198750495911,-0.97171247005463,-1.25207495689392,-1.55622494220734,6.49695014953613,6.84195041656494,7.14795017242432,2.00100016593933,1.732950091362,0.73695003986359,9.31395053863525,8.66295051574707,8.47095012664795,-0.37372499704361,-0.48166251182556,-0.67306250333786,-0.51603752374649,-1.3503874540329,-1.8133499622345,-1.82105004787445,-2.04874992370605,-2.02303743362427,8.02905082702637,7.30095052719116,3.77700018882751,-0.14295001327991,-2.67105007171631,-3.93495011329651,8.47095012664795,8.58600044250488,8.20305061340332,-1.01021254062653,-1.54316246509552,-3.73339986801147,-2.24331259727478,-2.57028746604919,-2.28318738937378,-1.97738754749298,-1.93819999694824,-2.66392493247986,-4.80300045013428,-15.6049509048462,-58.2799530029297,-4.8550500869751,-6.23400020599365,-0.67905002832413,8.20305061340332,9.31395053863525,-0.87495005130768,-5.81611251831055,-7.47284984588623,-7.68900012969971,-0.8401250243187,2.30367493629456,7.02404975891113,-4.47603750228882,-6.52767515182495,-7.12346267700195,-49.0090522766113,-34.2229499816895,-24.340051651001,-9.29805088043213,-22.5139503479004,-41.6680526733398,-9.30195045471191,-22.0200004577637,-24.0510005950928,-2.79042506217957,1.07401251792908,5.08598756790161,14.9221878051758,17.8532752990723,20.2758865356445,-9.01395034790039,-9.4829626083374,-9.41146278381348,5.46300029754639,12.6640510559082,20.2870502471924,-62.086051940918,-53.0449523925781,-24.3529510498047,-27.4219512939453,-17.1169509887695,-1.64100003242493,11.3315124511719,19.597599029541,20.0121631622314,23.1954250335693,24.2716369628906,21.9209365844727,-7.73134994506836,-3.59479999542236,-3.3324499130249,29.5579509735107,5.65395021438599,4.00695037841797,-21.211950302124,-5.08500003814697,3.61005020141602,42.6030006408691,25.5180015563965,9.31395053863525,18.6361999511719,14.9413003921509,9.02838706970215,20.5038623809814,29.6502246856689,30.7731876373291,-2.44090008735657,2.33144998550415,2.92228746414185,4.27500009536743,5.5770001411438,7.53105020523071,3.8779501914978,1.08195006847382,-1.71405005455017,-2.63700008392334,-2.63700008392334,9.58200073242188,5.4733247756958,4.71941232681274,5.31121253967285,28.0046253204346,25.7515506744385,24.18088722229,1.44801247119904,0.3948999941349,0.00412499997765,4.31295013427734,0.90405005216599,-0.74205005168915,-1.25400006771088,-0.75600004196167,-1.21605002880096,10.1569509506226,10.2330007553101,10.2330007553101,6.39127492904663,7.69711256027222,7.39447498321533,19.7884502410889,6.71054983139038,5.53767490386963,-0.50297498703003,-4.45816230773926,-3.60992503166199,-0.81900006532669,-0.35895001888275,-0.24405001103878,-0.83295005559921,-0.37305000424385,0.12405000627041,7.4370002746582,7.4370002746582,8.08800029754639,SWING_LEFT
0.17929999530315,0.22041249275208,0.25038748979568,0.39531248807907,0.23773749172688,0.00371249997988,-0.26565000414848,-0.24406249821186,-0.22522500157356,1.70805013179779,1.93800008296967,1.8229501247406,0.16200000047684,-0.25800001621246,-0.33495002985001,9.8500509262085,9.92700004577637,9.92700004577637,0.22274999320507,0.17434999346733,0.00563749996945,-0.23636250197887,-0.33357501029968,-0.36822500824928,-0.22261250019073,-0.23127499222755,-0.24502499401569,1.36395001411438,1.78500008583069,2.97300004959106,0.27705001831055,0.46905001997948,0.77505004405975,10.6930503845215,10.5010509490967,10.1569509506226,0.00219999998808,-0.00261249998584,-0.00343749998137,-0.35901248455048,-0.27403751015663,-0.30456250905991,-0.25671249628067,-0.26647499203682,-0.28146249055862,7.33995056152344,11.6299505233765,13.3920001983643,0.81405001878738,-1.90500009059906,-3.55200028419495,10.8460502624512,11.6509504318237,11.7660007476807,-0.0042624999769,-0.16238750517368,-0.66233748197556,-0.60486251115799,-1.18786251544952,-2.51968741416931,-0.36781248450279,-0.51314997673035,-0.68557500839233,12.5880002975464,11.5150508880615,1.28700006008148,-4.70205020904541,-7.57500028610229,-9.79605007171631,13.2600002288818,13.4130010604858,12.6079502105713,-1.03839993476868,-1.52294993400574,-2.06841254234314,-3.04493737220764,-3.41948747634888,-3.4461624622345,-0.63208746910095,-0.47107499837875,-0.20982499420643,-6.02895021438599,-12.4260005950928,-28.6300506591797,-9.75795078277588,-12.5929508209229,-11.2900505065918,11.1529502868652,9.92700004577637,4.2960000038147,-3.61336255073547,-4.8449501991272,-5.72646236419678,-1.3113374710083,1.75010001659393,7.36009979248047,0.00673749996349,-0.84878748655319,-3.50817489624023,-59.9269523620605,-43.9909515380859,-32.4990005493164,-6.61695051193237,-15.6960010528564,-29.3710517883301,-18.2280006408691,-25.5060005187988,-25.5060005187988,-5.14965009689331,-0.3301374912262,11.571174621582,12.5406875610352,20.8278121948242,27.7976875305176,-4.06161260604858,-3.61432504653931,-2.81888747215271,-12.5790004730225,26.7610511779785,26.6460018157959,-50.1720008850098,-46.2270011901855,-22.0930519104004,-25.3909511566162,-17.5380001068115,9.16095066070557,16.6959381103516,20.8720874786377,25.3435878753662,30.6669006347656,32.2903633117676,28.3245868682861,-1.99924993515015,-0.74868750572205,3.15892505645752,25.7650508880615,22.0500011444092,14.7709503173828,-16.0020008087158,-14.3550004959106,1.38795006275177,26.2840518951416,26.2840518951416,6.97695016860962,26.1923751831055,24.6516876220703,14.6207876205444,28.2649116516113,36.4527626037598,32.8899993896484,3.12812495231628,5.90218734741211,4.48428726196289,11.7829504013062,8.48895072937012,5.23305034637451,-0.18105000257492,-0.52605003118515,-0.98595005273819,-1.83195006847382,-1.83195006847382,3.682950258255,5.80841255187988,4.4068751335144,3.80984997749329,27.3827114105225,24.9308128356934,22.7695865631104,-0.00068749999627,-1.40758752822876,-1.8321875333786,-0.51195001602173,-2.16000008583069,-2.12100005149841,-0.79395002126694,-0.90900003910065,-1.6750500202179,9.46695041656494,11.7270002365112,11.7270002365112,SWING_LEFT
0.21147499978542,0.32106250524521,0.31514999270439,0.00632499996573,0.50627499818802,0.53473746776581,-1.27778744697571,-1.70458745956421,-1.91069996356964,2.43600010871887,3.27900004386902,3.66195011138916,1.42695009708405,1.1580001115799,1.12005007266998,8.96895027160645,9.96495056152344,10.9230003356934,0.27829998731613,0.22714999318123,0.00247499998659,0.45993748307228,0.2773374915123,-0.31446251273155,-2.12547492980957,-2.3116500377655,-2.46262502670288,3.8539502620697,4.00695037841797,8.10599994659424,1.35000002384186,1.12005007266998,-0.41100001335144,11.1529502868652,11.5740003585815,10.8460502624512,-0.00467499997467,-0.25712499022484,-0.47176250815392,-0.64074999094009,-0.92111247777939,-1.19817495346069,-2.46056246757507,-2.47486257553101,-2.49933743476868,9.86805057525635,7.64595031738281,4.08300018310547,-1.59900009632111,-1.56000006198883,-0.14295001327991,10.8079509735107,10.5780000686646,7.9350004196167,-1.13520002365112,-1.60654997825623,-2.25499987602234,-1.59004998207092,-1.65783751010895,-1.61864995956421,-2.63078737258911,-2.88557505607605,-3.49744987487793,-3.6540002822876,-23.6500511169434,-57.1690521240234,-2.59500002861023,-6.34905052185059,0.27705001831055,8.28000068664551,8.28000068664551,7.39905023574829,-3.13651251792908,-4.88358736038208,-4.52045011520386,-1.38297498226166,2.35867500305176,6.95956230163574,-4.60212516784668,-7.77122497558594,-8.52513790130615,-65.7499542236328,-38.7430534362793,-15.1069507598877,-3.43695020675659,-37.9909515380859,-59.3280029296875,-2.79000020027161,-27.2299518585205,-35.2360534667969,-2.38507509231567,1.76495003700256,14.0467252731323,10.8807878494263,14.2150249481201,21.1793994903564,-9.54648780822754,-10.4024248123169,-8.87493705749512,12.3199510574341,17.4910507202148,30.1320018768311,-72.1609497070313,-43.2769508361816,-22.7059516906738,-35.2360534667969,-32.7460517883301,36.435001373291,18.2766380310059,20.1863746643066,21.0395622253418,24.0072250366211,24.5993003845215,22.3647880554199,-7.06461238861084,-5.73388767242432,-5.27807474136353,17.7210006713867,7.76100015640259,9.60000038146973,-15.1590003967285,-3.78195023536682,5.02695035934448,36.435001373291,23.871000289917,9.16095066070557,19.1933498382568,15.559775352478,10.5228748321533,5.94453763961792,3.2184624671936,0.62424999475479,-9.91993713378906,-10.2654752731323,-11.1249876022339,9.17805004119873,5.8840503692627,2.58900022506714,0.8520000576973,-1.78995013237,-2.25,-0.68295001983643,0.4650000333786,2.57205009460449,6.72993755340576,6.6279125213623,6.85960006713867,-2.12781238555908,-5.60958766937256,-6.95873737335205,-12.5754747390747,-13.4406251907349,-13.5269746780396,-1.73805010318756,-3.23205018043518,-1.39305007457733,-1.36905002593994,-1.52205002307892,-1.94295012950897,5.56005048751831,12.6469507217407,12.6469507217407,6.75111246109009,5.97162485122681,5.63337516784668,-3.65805006027222,3.511887550354,6.4306001663208,-10.8083248138428,-6.14226245880127,-2.27686238288879,-0.89505004882813,-0.85695004463196,-0.89505004882813,-0.90900003910065,-0.06599999964237,0.27705001831055,10.9990501403809,9.04605007171631,10.1569509506226,SWING_LEFT
-0.00192499998957,-0.00302499998361,-0.00453749997541,-0.0054999999702,-0.18782499432564,-0.30634999275208,-0.30538749694824,-0.34581249952316,-0.40081250667572,5.23305034637451,5.11800003051758,5.80695009231567,-1.63695013523102,-1.63695013523102,-1.36905002593994,10.5400505065918,11.0380506515503,11.8039503097534,-0.23017500340939,-0.33027499914169,-0.44811248779297,-0.81716251373291,-1.09972500801086,-1.36056244373322,-0.6014249920845,-0.71527498960495,-0.85978752374649,10.7110500335693,13.8130502700806,14.7709503173828,-3.13095021247864,-5.889000415802,-8.6089506149292,11.8039503097534,12.2640008926392,12.2640008926392,-0.60060000419617,-1.24877500534058,-1.68904995918274,-1.68148744106293,-2.31976246833801,-2.41656255722046,-1.04678750038147,-1.28713750839233,-1.26348745822906,11.1700506210327,-0.28305000066757,-4.07505035400391,-10.0260000228882,-6.73200035095215,-6.50205039978027,12.07200050354,9.19905090332031,8.62395000457764,-2.13908743858337,-2.66103744506836,-4.85223770141602,-2.3365375995636,-2.01959991455078,0.55412501096725,-1.23584997653961,-1.22443747520447,-2.1117250919342,-7.29300022125244,-15.6439504623413,-66.6310501098633,-10.371000289917,-13.9339504241943,-10.7920503616333,8.5090503692627,7.47495031356812,-17.5000514984131,-6.67947483062744,-7.52180004119873,-7.24130010604858,4.24503755569458,8.92966270446777,13.3524875640869,-4.39078760147095,-6.11654996871948,-5.3428373336792,-56.2110023498535,-38.5129508972168,-19.7040004730225,-22.9360504150391,-39.5230522155762,-55.5739517211914,-35.7730522155762,-35.7730522155762,-32.1340522766113,1.89530003070831,6.89961242675781,11.4076871871948,23.7219123840332,27.0701751708984,29.130199432373,-5.2332501411438,-4.80438756942749,-3.92961239814758,29.5960521697998,29.9790019989014,21.552001953125,-61.8180046081543,-44.3880004882813,-18.6840000152588,-26.6170520782471,-26.6170520782471,-8.49795055389404,17.1223239898682,22.1027126312256,22.4555377960205,30.7954616546631,27.9316120147705,26.7541999816895,-1.34268748760223,1.5382125377655,0.74414998292923,15.8820009231567,16.1119499206543,13.123950958252,-14.9680509567261,2.38394999504089,2.15400004386902,35.2099533081055,9.58200073242188,1.61400008201599,18.351713180542,11.11838722229,4.80273723602295,33.094051361084,32.5608253479004,28.7223739624023,5.20368766784668,5.73925018310547,2.9114248752594,10.0980005264282,6.95595026016235,-0.24405001103878,0.92895007133484,0.43095001578331,-1.1010000705719,-3.21195006370544,-3.5179500579834,-2.48400020599365,2.58046245574951,2.45519995689392,2.33227491378784,25.7378005981445,23.6861629486084,21.2522754669189,0.88770002126694,0.00082499999553,-0.6484500169754,-2.92605018615723,-4.18994998931885,-2.84895014762878,-0.87105005979538,-0.02805000171065,-0.75600004196167,3.18495011329651,8.54805088043213,13.8720006942749,2.36362504959106,2.30106258392334,3.9725124835968,3.36654996871948,0.88632500171661,3.48589992523193,-7.13556241989136,-6.41904973983765,-4.39010000228882,-0.16800001263618,-0.12900000810623,1.24905002117157,-0.29595002532005,1.57995009422302,1.77105009555817,15.481050491333,11.2680006027222,9.50505065917969,SWING_LEFT
0.00261249998584,0.00343749998137,0.00453749997541,0.19483749568462,0.00247499998659,-0.00096249999478,-1.63061249256134,-2.050950050354,-2.19491243362427,3.62400007247925,2.35995006561279,2.7810001373291,1.42695009708405,2.11605000495911,2.80605006217957,11.3059501647949,8.8540506362915,8.778000831604,0.00494999997318,0.00522499997169,0.17228749394417,-0.00646249996498,-0.30841249227524,-0.72668749094009,-2.32993745803833,-2.44268751144409,-2.55997490882874,3.50895023345947,3.47100019454956,1.66995012760162,2.26905012130737,2.30805015563965,2.99700021743774,7.51305055618286,7.51305055618286,8.24100017547607,0.22591249644756,0.26785001158714,0.30360001325607,-0.88123750686646,-1.04843747615814,-1.20945000648499,-2.63037490844727,-2.76705002784729,-2.92654991149902,2.62800002098084,2.62800002098084,1.1340000629425,2.92095017433167,3.34200024604797,3.26505017280579,8.24100017547607,8.24100017547607,8.28000068664551,0.33948749303818,0.32229998707771,0.25671249628067,-1.23804998397827,-1.08308744430542,-0.88096249103546,-3.16799998283386,-3.26947498321533,-3.35293745994568,-2.12100005149841,-11.0470504760742,-19.7809505462646,2.92095017433167,2.46105003356934,0.46905001997948,9.69705009460449,11.1139507293701,12.9150009155273,0.14561249315739,-0.14396250247955,-0.47657498717308,-0.59193748235703,1.13300001621246,3.20814990997314,-3.37479996681213,-3.47778749465942,-3.66121244430542,-25.5270004272461,-38.4370536804199,-20.1259517669678,-3.43695020675659,-18.79905128479,-33.8920516967773,12.9150009155273,1.92105007171631,-9.45600032806396,-1.24602496623993,-2.43374991416931,-5.95979976654053,5.41158723831177,7.10187482833862,9.10552501678467,-3.59301257133484,-3.30054998397827,-2.79386258125305,4.19805002212524,26.377950668335,25.8799514770508,-38.6800537109375,-27.8770503997803,-13.206000328064,-20.4109516143799,-5.62500047683716,32.451000213623,-7.39268732070923,-8.42393779754639,-8.86201286315918,9.22267532348633,8.77167510986328,7.85234975814819,-3.10804986953735,-4.0880126953125,-5.58483743667603,15.1930503845215,13.6990509033203,11.4769506454468,-5.96595048904419,-1.82895004749298,0.50700002908707,20.4610500335693,-2.13900017738342,-2.29200005531311,-7.51011228561401,-6.78246259689331,-5.20423746109009,20.4410247802734,20.8188743591309,20.4620628356934,-6.80088758468628,-8.86765003204346,-10.4018745422363,5.65395021438599,2.32095003128052,-1.24005007743835,1.27305006980896,1.19700002670288,0.43095001578331,-0.8359500169754,1.53795003890991,3.49095010757446,-3.60813736915588,-1.47399997711182,-1.0147500038147,20.2793254852295,20.1304130554199,19.2820377349854,-11.0313501358032,-9.88171291351318,-8.31215000152588,-3.46200013160706,0.59700000286102,1.59300005435944,-0.67905002832413,-1.82895004749298,-0.44895002245903,7.28400039672852,13.1830501556396,13.1830501556396,-0.57351249456406,2.61277508735657,4.31282520294189,8.26003742218018,6.15780019760132,10.2290372848511,-8.49777507781982,-6.33792495727539,-1.37706243991852,2.13000011444092,2.85795021057129,2.93400025367737,0.50700002908707,0.92895007133484,1.04295003414154,10.5400505065918,9.5440502166748,10.2720003128052,SWING_LEFT
0.00192499998957,0.00123749999329,-0.00027499999851,-1.26142501831055,-1.30253744125366,-1.2225124835968,-0.72118747234344,-0.83366250991821,-0.93321251869202,3.7390501499176,3.01095008850098,2.85795021057129,1.46505010128021,1.84800004959106,1.42695009708405,8.16495037078857,8.08800029754639,8.16495037078857,-0.00096249999478,-0.00123749999329,-0.00206249998882,-1.01007497310638,-0.4657124876976,-0.24887499213219,-1.02341246604919,-1.12241244316101,-1.12131249904633,3.96900010108948,8.41200065612793,6.84195041656494,0.88995003700256,-1.02404999732971,-1.63695013523102,8.05005073547363,9.08400058746338,9.77400016784668,-0.00316249998286,-0.14135000109673,-0.63868749141693,-0.00412499997765,0.00041249999776,0.00068749999627,-1.10632503032684,-1.05723750591278,-0.76614999771118,3.35595011711121,0.71205002069473,-2.65800023078919,-2.02005004882813,-1.78995013237,-1.29195010662079,12.3400506973267,13.3360509872437,11.6119508743286,-0.96813750267029,-1.294837474823,-1.65110003948212,0.00439999997616,0.40232500433922,1.00938749313354,-0.61902499198914,-0.56636250019073,-0.69629997014999,-3.27105021476746,-18.3250503540039,-34.4140510559082,-4.70205020904541,-5.62095022201538,-11.0220003128052,10.7700004577637,10.7700004577637,11.9569501876831,-2.37173748016357,-2.43883752822876,-1.98838746547699,2.86701250076294,4.99784994125366,7.86390018463135,-1.93586254119873,-3.34056258201599,-4.56829977035522,-60.1950035095215,-45.7920036315918,-15.4519510269165,-12.9760503768921,-35.9599533081055,-64.5370559692383,-3.93900012969971,-38.9520034790039,-38.9520034790039,-1.43302500247955,-2.95129990577698,-6.92752504348755,10.0868625640869,12.3206872940063,11.1810874938965,-5.0685248374939,-5.04996252059937,-5.39962482452393,28.3320007324219,16.4950504302979,17.6830501556396,-69.3640518188477,-11.5590009689331,-18.2620506286621,-36.0409507751465,-6.85095024108887,49.9960517883301,-9.03443717956543,-9.13714981079102,-8.05516242980957,10.380012512207,10.2697372436523,10.8450374603271,-6.08093738555908,-5.92061233520508,-2.76979994773865,15.0780010223389,15.0010509490967,15.6139507293701,-10.1029500961304,-1.48395001888275,0.46905001997948,49.9960517883301,10.3870506286621,-4.09305000305176,-7.76723766326904,-7.42637491226196,-4.21698760986328,14.8999128341675,17.3890743255615,18.9883365631104,0.31253749132156,1.07511246204376,0.61764997243881,13.5450010299683,9.67605018615723,5.80695009231567,0.27705001831055,-0.48795002698898,-0.60300004482269,-4.05404996871948,-3.82395029067993,-0.95100003480911,1.4276624917984,1.48101246356964,0.66893750429153,21.1303119659424,19.3913497924805,16.4359245300293,0.64968746900558,0.33137500286102,-0.79997497797012,-4.07505035400391,-2.88705015182495,-0.58905005455017,-0.06599999964237,-1.94295012950897,-2.59500002861023,3.52995014190674,12.3400506973267,14.9830503463745,-0.35241249203682,1.6637499332428,3.4568874835968,11.2437877655029,5.00623750686646,7.22095012664795,-3.42691254615784,-5.24342489242554,-3.16910004615784,0.71205002069473,0.40605002641678,0.82695001363754,-1.36905002593994,0.00900000054389,0.92895007133484,14.4090003967285,8.89305019378662,8.89305019378662,SWING_LEFT
-0.1885125041008,-0.23704999685287,-0.28751251101494,-0.49169999361038,-0.53294998407364,-0.56443750858307,-0.76174998283386,-0.86322498321533,-0.95796251296997,4.96500015258789,4.54305028915405,4.54305028915405,-0.10500000417233,-0.02805000171065,0.43095001578331,10.2720003128052,10.5780000686646,10.7310009002686,-0.36836248636246,-0.4131875038147,-0.49252501130104,-0.55013751983643,-0.53473746776581,-0.54023748636246,-1.08611249923706,-1.15486252307892,-1.27077496051788,9.21705055236816,8.87205028533936,5.15595006942749,-1.06200003623962,-1.36905002593994,-0.52605003118515,11.6509504318237,10.0030508041382,9.35205078125,-0.60885000228882,-0.9150624871254,-1.12915003299713,-0.59757500886917,-0.7068874835968,-0.71142500638962,-1.40992498397827,-1.70211243629456,-1.92293751239777,3.20205020904541,-0.47400003671646,-2.54295015335083,0.8520000576973,-0.22005000710487,-1.78995013237,9.35205078125,11.0380506515503,11.0380506515503,-1.44361245632172,-1.87893748283386,-3.29683756828308,-0.59262502193451,-0.33371248841286,1.19817495346069,-2.29955005645752,-2.93039989471436,-5.89613723754883,-8.71005058288574,-15.3370504379272,-50.5420532226563,-1.86705005168915,-2.25,-1.48395001888275,9.8500509262085,6.28800010681152,-2.10105013847351,-3.84876251220703,-3.64773750305176,-2.50071239471436,2.96271252632141,5.64244985580444,9.09576225280762,-8.29991245269775,-10.3174495697021,-11.6336002349854,-48.0900039672851,-39.7770004272461,-23.803050994873,-6.00405025482178,-20.8290004730225,-44.5410003662109,-9.11100006103516,-23.1310520172119,-28.2640514373779,2.58238744735718,5.35452508926392,8.95248699188232,13.6479749679565,15.0825128555298,16.2542877197266,-12.8191251754761,-12.451587677002,-11.2751379013062,19.0999507904053,10.7869501113892,24.7309513092041,-60.5539512634277,-34.3900527954102,-24.4680004119873,-28.2640514373779,6.44100046157837,34.1749534606934,14.7182750701904,20.0846252441406,19.6183624267578,18.000675201416,18.9454364776611,17.7630748748779,-8.34941291809082,-3.46651244163513,-2.69321250915527,28.0249519348145,7.95195055007935,2.70405006408691,-20.3689517974854,-1.33095002174377,4.06995010375977,34.1749534606934,8.93100070953369,-4.16895008087158,18.2814502716064,14.8027000427246,10.2990245819092,17.7398376464844,27.5500507354736,26.1315994262695,-2.39098739624023,1.60641252994537,0.61448746919632,0.75105005502701,2.62800002098084,4.84995031356812,4.91295003890991,2.88195013999939,-2.78595018386841,-4.32195043563843,-4.32195043563843,6.59400033950806,6.20001268386841,4.57613754272461,4.0479998588562,23.284387588501,20.333911895752,18.109712600708,-1.16943752765656,-2.13812494277954,-2.65237498283386,1.1340000629425,-0.09105000644922,0.36795002222061,-1.48395001888275,-1.17705011367798,-1.56000006198883,12.6469507217407,16.47705078125,16.47705078125,4.86351251602173,5.51608753204346,4.82735013961792,7.97623729705811,5.25263738632202,6.14212512969971,-6.09853744506836,-5.74475002288818,-4.2523250579834,-0.28305000066757,-0.62700003385544,-0.70395004749298,-0.14295001327991,0.3160500228405,0.43095001578331,10.0420503616333,7.28400039672852,7.28400039672852,SWING_LEFT
0.007012499962,0.00591249996796,0.00522499997169,-0.27939999103546,-0.40961250662804,-0.47740000486374,-0.44041249155998,-0.47244998812675,-0.52249997854233,1.97700011730194,1.97700011730194,1.36395001411438,1.00499999523163,0.73695003986359,1.42695009708405,10.2330007553101,10.2330007553101,10.0800008773804,0.00536249997094,0.00673749996349,0.18273749947548,-0.37042498588562,-0.18796250224113,0.00109999999404,-0.65477502346039,-0.74277502298355,-0.86185002326965,1.55505001544952,3.39405012130737,5.5009503364563,1.96305012702942,1.81005012989044,1.50300002098084,9.92700004577637,9.8500509262085,9.46695041656494,0.25616249442101,0.38170000910759,0.40177500247955,0.21573749184608,0.27967500686646,-0.0015124999918,-0.98395001888275,-1.1779625415802,-1.23612499237061,6.64995050430298,11.1700506210327,3.96900010108948,1.19700002670288,-1.6750500202179,-0.7180500626564,9.46695041656494,9.65895080566406,11.0380506515503,0.36547499895096,0.27335000038147,-0.19208750128746,-0.53074997663498,-1.09958744049072,-1.97876250743866,-1.26197504997253,-1.22512495517731,-0.9620875120163,-2.27505016326904,-4.99395036697388,-26.9059505462646,1.23495006561279,0.00900000054389,-1.6750500202179,11.9190006256104,11.6509504318237,8.05005073547363,-0.59331250190735,-1.1418000459671,-1.68822503089905,-1.80372500419617,-0.99178749322891,0.865149974823,-0.93596249818802,-1.2531750202179,-2.10141253471375,-49.3159523010254,-46.2130508422851,-34.873950958252,-2.40300011634827,-9.06900024414062,-22.7059516906738,4.75500011444092,-6.27600049972534,-19.3770008087158,-1.63006246089935,-1.76660001277924,-3.35046243667603,7.69656229019165,10.4726877212524,12.3748626708984,-3.68073749542236,-3.82882499694824,-3.96563744544983,13.8900003433228,30.4770011901855,21.5130004882813,-54.0409507751465,-46.9159507751465,-17.5350017547607,-27.1540508270264,-17.9599514007568,-0.49200001358986,-6.00586223602295,-7.49017477035522,-6.89314985275269,12.9031372070313,12.6707620620728,12.0510501861572,-4.66496229171753,-6.75826263427734,-6.87967491149902,19.8660011291504,10.5960006713867,10.135950088501,-16.8070507049561,-0.98595005273819,2.03895020484924,44.7859535217285,18.7369518280029,-0.64500004053116,-6.15917491912842,-6.38646268844604,-3.80215001106262,12.5017747879028,19.0768871307373,20.9255752563477,-6.04876232147217,-2.85876250267029,-3.54158759117126,7.18605041503906,5.04105043411255,0.44400003552437,1.38795006275177,0.43095001578331,-1.25400006771088,-3.90105009078979,-3.90105009078979,3.60600018501282,-1.20958745479584,0.16335000097752,0.44866248965263,21.3716239929199,21.3369750976563,20.2861995697021,-3.38139986991882,-2.75467491149902,-1.99650001525879,-3.19395017623901,-2.1979501247406,-0.62700003385544,-1.52205002307892,-3.24600005149841,-3.51405024528503,8.16495037078857,13.9489507675171,13.9489507675171,0.00013749999925,2.0266125202179,3.25916242599487,12.7199878692627,8.24312496185303,9.39812469482422,-3.85343742370605,-4.75969982147217,-2.86522507667542,1.51695013046265,1.66995012760162,1.8229501247406,-0.7180500626564,0.54495000839233,1.00499999523163,10.3480501174927,8.66295051574707,8.66295051574707,SWING_LEFT
-0.00178749999031,0.00068749999627,0.00137499999255,0.16238750517368,0.40590000152588,0.49651250243187,-0.80849999189377,-0.79447501897812,-0.77976250648499,0.06105000153184,0.44400003552437,1.86195003986359,0.3160500228405,0.54495000839233,0.23895001411438,9.35205078125,9.58200073242188,9.58200073242188,0.00206249998882,0.00261249998584,0.00371249997988,0.55605000257492,0.59262502193451,0.54766249656677,-0.78168749809265,-0.78581249713898,-0.81372499465942,2.28299999237061,0.67395001649857,1.32495009899139,0.00900000054389,0.58395004272461,0.66000002622604,9.46695041656494,9.46695041656494,10.6930503845215,0.00467499997467,0.0054999999702,0.00577499996871,0.44110000133514,0.25052499771118,0.00013749999925,-0.86281251907349,-0.96525001525879,-1.08143746852875,2.28299999237061,3.08700013160706,3.47100019454956,0.58395004272461,0.58395004272461,0.50700002908707,10.6930503845215,10.5010509490967,10.5010509490967,0.00481249997392,0.00316249998286,0.00027499999851,-0.51218748092651,-0.77439999580383,-0.99247497320175,-1.31037497520447,-1.43371248245239,-1.58784997463226,1.40205001831055,-4.87905025482178,-14.953950881958,1.08195006847382,1.61805009841919,0.16200000047684,11.1529502868652,11.3830509185791,12.6469507217407,-0.00302499998361,-0.17710000276566,-0.1733874976635,-1.13258755207062,-0.56306248903275,0.75157499313354,-1.74817502498627,-2.13908743858337,-2.48324990272522,-25.3740005493164,-40.6579513549805,-20.3940010070801,4.91295003890991,-9.91095066070557,-32.742000579834,14.8680009841919,-18.2280006408691,-19.1089515686035,-0.0042624999769,-0.0054999999702,-2.70063757896423,2.66254997253418,4.65355014801025,8.21548748016357,-2.74876236915588,-2.7560498714447,-2.68207502365112,-4.49595022201538,14.1199502944946,14.8090505599976,-45.1159515380859,-25.0039520263672,-19.795051574707,-19.1089515686035,-4.05404996871948,30.5359516143799,-4.35242509841919,-5.58745002746582,-6.33297491073608,8.94396209716797,8.93928718566895,7.57061243057251,-3.16043758392334,-4.3191499710083,-5.94233751296997,11.2470006942749,18.4870510101318,20.556001663208,-7.26795053482056,2.95905017852783,0.50700002908707,25.1350517272949,12.9910507202148,-7.19505023956299,-6.79263734817505,-5.00156259536743,-2.70627498626709,-7.96166229248047,-12.9522247314453,-15.7562627792358,-7.38512516021729,-8.47000026702881,-9.61839962005615,6.26700019836426,0.55905002355576,-5.22405004501343,-0.25800001621246,-1.02404999732971,-1.21605002880096,-7.46400022506714,-5.43300008773804,-2.17695021629334,-0.36286249756813,1.92059993743896,1.78117501735687,-17.2382373809814,-19.1261119842529,-19.1721744537354,-10.1854496002197,-9.22501277923584,-7.88163757324219,-7.40805053710938,2.206050157547,3.66195011138916,-0.60300004482269,-2.05800008773804,-0.56400001049042,3.64395022392273,18.4309501647949,13.2979507446289,1.48527503013611,0.52854996919632,3.52178740501404,-13.7765378952026,-6.33599996566772,4.5101375579834,-6.7106876373291,-5.86299991607666,-1.11732494831085,2.43600010871887,2.24505019187927,1.32495009899139,1.12005007266998,1.31205010414124,0.96705007553101,11.5360507965088,8.62395000457764,9.19905090332031,SWING_LEFT
-0.66687500476837,-0.5879499912262,-0.49555000662804,0.78925001621246,0.59537500143051,0.41717499494553,0.80217498540878,0.61489999294281,0.48894998431206,1.78500008583069,3.50895023345947,3.93000030517578,-0.18105000257492,-0.29595002532005,-0.33495002985001,10.0030508041382,9.00705051422119,8.89305019378662,-0.38513749837875,-0.26358750462532,-0.0027499999851,0.18314999341965,-0.00467499997467,-0.63841247558594,0.35956248641014,0.22838750481606,-0.00013749999925,2.97300004959106,2.74305009841919,6.49695014953613,0.62205004692078,0.8520000576973,-0.06599999964237,8.89305019378662,9.65895080566406,8.54805088043213,-0.00041249999776,0.0015124999918,0.00329999998212,-0.89099997282028,-1.0922999382019,-1.23488748073578,-0.00357499998063,-0.00618749996647,-0.16307500004768,7.45395040512085,5.99895048141479,2.93400025367737,0.16200000047684,0.04800000041723,0.12405000627041,8.54805088043213,9.27600002288818,10.8079509735107,0.00563749996945,0.00563749996945,0.00357499998063,-1.35492503643036,-1.3252249956131,-1.08721244335175,-0.21670000255108,-0.25203749537468,-0.3436124920845,0.13800001144409,-2.0830500125885,-9.13199996948242,-0.14295001327991,-1.29195010662079,0.3160500228405,13.6810503005981,13.8720006942749,13.7580003738403,-0.00027499999851,-0.21051250398159,-0.30579999089241,-0.5986750125885,0.76711249351501,1.94988751411438,-0.4961000084877,-0.97652500867844,-1.35052502155304,-23.1520519256592,-44.8720512390137,-36.8280029296875,2.23095011711121,-3.13095021247864,-21.1740016937256,12.6079502105713,-0.18495000898838,-20.6800518035889,-0.35062500834465,-0.39531248807907,-1.81885004043579,3.87474989891052,5.9519624710083,9.09548759460449,-1.70857501029968,-1.78103744983673,-1.61273753643036,-18.2869510650635,21.8200511932373,20.5170001983643,-39.1009521484375,-40.1359519958496,-13.7040004730225,-20.6800518035889,-8.91900062561035,13.068000793457,-3.0214250087738,-4.19539976119995,-5.33376264572144,9.59598731994629,9.34945011138916,8.32988739013672,-1.80235004425049,-2.32526254653931,-3.31333756446838,9.79095077514648,11.0940008163452,22.0110015869141,-6.92295026779175,4.10805034637451,1.35000002384186,12.8760004043579,2.72505021095276,-3.25005006790161,-9.52517509460449,-8.93351268768311,-7.65008735656738,-6.07131242752075,-12.0207996368408,-14.4515247344971,-6.10211229324341,-8.52802467346191,-10.9312496185303,13.5840005874634,3.24105024337769,-0.20595000684261,-0.75600004196167,0.8520000576973,-0.33495002985001,-1.64100003242493,1.72905004024506,6.09600019454956,-6.03762483596802,-2.97714996337891,-0.70345002412796,-15.8262500762939,-16.3773498535156,-15.3518753051758,-12.2523498535156,-12.8007001876831,-11.6649503707886,-1.89105010032654,-2.46600008010864,-1.39305007457733,0.12405000627041,0.20100000500679,0.46905001997948,9.12195014953613,9.46695041656494,10.3870506286621,3.59658741950989,6.68827486038208,6.85891246795654,-9.81708717346191,1.1035749912262,7.89401245117188,-9.60052490234375,-6.90071249008179,-1.14289999008179,-0.74205005168915,0.25304999947548,1.59300005435944,0.92895007133484,1.46505010128021,1.84800004959106,11.3059501647949,11.3059501647949,11.5360507965088,SWING_LEFT
-0.2788499891758,-0.19744999706745,-0.15895000100136,0.30401250720024,0.26537498831749,0.17201249301434,-1.17782497406006,-1.18648743629456,-1.17218744754791,2.13000011444092,1.97700011730194,2.89605021476746,2.6140501499176,2.49900007247925,2.42295002937317,10.0420503616333,10.0420503616333,10.3480501174927,-0.17022499442101,-0.30511251091957,-0.40892499685287,0.00371249997988,-0.00563749996945,-0.26372501254082,-1.15073752403259,-1.08501243591309,-1.05709993839264,3.31695008277893,3.54705023765564,4.81095027923584,2.46105003356934,2.42295002937317,2.34600019454956,9.73500061035156,10.195050239563,10.195050239563,-0.52552497386932,-0.63731247186661,-0.78911250829697,-0.39022499322891,-0.4822124838829,-0.81124997138977,-1.04238748550415,-1.05173754692078,-1.08982503414154,5.99895048141479,6.34395027160645,4.58100032806396,1.77105009555817,1.69500005245209,1.69500005245209,9.8500509262085,9.23700046539307,9.69705009460449,-0.84067499637604,-0.88673746585846,-0.92729997634888,-1.08294999599457,-1.32316243648529,-1.5081000328064,-1.09711253643036,-1.11856245994568,-1.14619994163513,0.21405000984669,-6.56505012512207,-20.7390003204346,2.07795000076294,2.65200018882751,3.6870002746582,12.0340509414673,12.0340509414673,11.3059501647949,-1.06149995326996,-1.1394624710083,-1.05709993839264,-1.34021246433258,-0.41387498378754,2.11199998855591,-1.4803249835968,-2.04132509231567,-2.90771245956421,-55.7509536743164,-47.2470016479492,-9.5149507522583,-10.0260000228882,-35.8840522766113,-63.7710037231445,-13.8610506057739,-22.8250503540039,-22.8250503540039,-0.91451251506805,-6.92078733444214,-9.95018768310547,5.71202516555786,11.420337677002,12.4931125640869,-3.43832492828369,-2.70764994621277,-3.28776240348816,40.8199501037598,22.5859508514404,9.48495006561279,-57.5659523010254,-15.5040006637573,-3.05400013923645,-22.8250503540039,19.0819511413574,19.0819511413574,-10.8861503601074,-10.6554250717163,-8.1413745880127,13.4171123504639,14.0927877426147,18.2349758148193,-4.26456260681152,-5.13823747634888,-4.16418743133545,11.1700506210327,18.4870510101318,13.2769508361816,-0.79395002126694,-2.28795003890991,0.12405000627041,3.14595007896423,1.92105007171631,2.57205009460449,-7.81233739852905,-4.43795013427734,0.70331251621246,24.4568500518799,23.7441883087158,23.5485248565674,-2.66763758659363,-5.2007999420166,-6.37697505950928,5.30895042419434,1.05705010890961,-1.39305007457733,1.61805009841919,1.27305006980896,-0.29595002532005,3.07005023956299,3.07005023956299,3.7590000629425,4.62921237945557,5.06220006942749,4.94958734512329,22.7279243469238,21.6981868743896,19.2880878448486,-6.10362482070923,-5.01641225814819,-3.8836874961853,-1.35495007038116,-0.12900000810623,0.59700000286102,0.35400000214577,1.00499999523163,1.732950091362,11.3440504074097,11.9569501876831,11.9569501876831,5.1727499961853,7.07547473907471,6.48601245880127,8.62784957885742,8.24697494506836,8.83712482452393,-6.44490003585815,-1.88801252841949,-0.67402499914169,1.78500008583069,3.93000030517578,4.46700000762939,1.61805009841919,1.77105009555817,1.50300002098084,9.96495056152344,10.7310009002686,10.195050239563,SWING_LEFT
-0.2389750033617,-0.16156250238419,-0.00494999997318,-0.20102499425411,-0.1544124931097,-0.00563749996945,-0.63868749141693,-0.73809999227524,-0.82087498903275,1.40205001831055,1.36395001411438,2.74305009841919,2.95905017852783,3.37995004653931,3.26505017280579,9.00705051422119,9.39105033874512,8.96895027160645,-0.00247499998659,0.0,0.00261249998584,-0.0054999999702,-0.00673749996349,-0.34031251072884,-0.91423749923706,-0.98175001144409,-0.97803747653961,4.04505014419556,5.46300029754639,8.91000080108643,2.76705002784729,2.53695011138916,1.12005007266998,8.73900032043457,8.73900032043457,9.39105033874512,0.00068749999627,-0.00412499997765,-0.24378749728203,-0.65532499551773,-1.10934996604919,-1.66471254825592,-0.91038751602173,-0.8068500161171,-0.64638751745224,9.29295063018799,7.30095052719116,6.11400032043457,0.04800000041723,-0.87105005979538,-1.02404999732971,10.2720003128052,10.8079509735107,14.1790504455566,-0.83819997310638,-1.27215003967285,-1.78667497634888,-2.65553736686707,-2.95652508735657,-2.96009993553162,-0.20047499239445,-0.00096249999478,-0.00123749999329,1.63200008869171,-4.95600032806396,-9.89805030822754,-1.59900009632111,-0.94695001840591,-1.25400006771088,13.9489507675171,13.1830501556396,11.4970502853394,-2.37132501602173,-3.79018759727478,-4.30237483978271,-2.60741257667542,-0.41414999961853,1.50933754444122,-0.29452499747276,-2.23313736915588,-4.02063751220703,-17.635950088501,-69.7339553833008,-60.3870010375977,-3.51405024528503,-2.55600023269653,-25.3110008239746,9.5440502166748,-7.65495014190674,-29.2219505310059,-4.23747491836548,-3.71580004692078,-4.60803747177124,4.08842515945435,7.77603769302368,12.7870874404907,-5.66225004196167,-6.50168752670288,-6.68387508392334,-41.5390510559082,-4.84095001220703,24.3480014801025,-53.428050994873,-68.8660507202148,-15.6960010528564,-29.2219505310059,-8.72805023193359,-6.4680004119873,-8.87411212921143,-10.7035503387451,-10.5155878067017,12.107837677002,11.0622873306274,10.2573623657227,-6.38522481918335,-6.37422513961792,-6.00600004196167,9.02505016326904,5.69205045700073,10.5960006713867,-11.4439506530762,-8.07299995422363,-2.82495021820068,20.5000514984131,20.5000514984131,9.50505065917969,-9.29651260375977,-6.28210020065308,-5.58236265182495,8.20366287231445,16.975887298584,18.3775615692139,-5.49009990692139,-3.56317496299744,-4.76368761062622,16.8780002593994,12.4729509353638,7.95195055007935,-1.02404999732971,0.43095001578331,2.46105003356934,-1.56405007839203,0.12000000476837,0.12000000476837,-1.88966250419617,3.79128742218018,4.44496250152588,18.774112701416,20.3230495452881,19.9560623168945,-6.7739372253418,-8.6796875,-8.84317493438721,6.03705024719238,1.90005004405975,0.6360000371933,3.30405020713806,2.30805015563965,2.03895020484924,-0.87495005130768,2.03595018386841,7.70505046844482,5.2007999420166,5.74158763885498,10.4656753540039,19.0851383209229,14.8350124359131,3.91531252861023,-8.69371223449707,-8.96458721160889,-9.11899948120117,-0.09105000644922,-0.70395004749298,0.32895001769066,2.34600019454956,3.03495025634766,3.30405020713806,11.4970502853394,13.6810503005981,9.42900085449219,SWING_LEFT
0.2268749922514,0.27678748965263,0.25451248884201,-0.35859999060631,-0.36849999427795,-0.36396250128746,-0.64955002069473,-0.79337501525879,-0.83160001039505,2.05305004119873,0.94200003147125,1.66995012760162,2.57595014572144,2.72895002365112,2.6140501499176,9.50505065917969,10.0420503616333,10.1179504394531,0.18397499620914,0.00398749997839,-0.15317499637604,-0.34856250882149,-0.34402498602867,-0.40287500619888,-0.85469996929169,-0.85703748464584,-0.81551247835159,2.39805006980896,2.7810001373291,4.65795040130615,2.6140501499176,2.57595014572144,2.07795000076294,9.39105033874512,9.00705051422119,9.27600002288818,-0.26510000228882,-0.36808750033379,-0.44893750548363,-0.47547498345375,-0.59936249256134,-0.83104997873306,-0.80299997329712,-0.82183748483658,-0.84521251916885,4.46700000762939,5.04105043411255,5.99895048141479,2.15400004386902,2.30805015563965,1.81005012989044,10.0420503616333,10.3870506286621,11.3830509185791,-0.56952500343323,-0.66165000200272,-0.83132499456406,-1.42642498016357,-1.66058754920959,-1.84236252307892,-0.89980000257492,-0.98395001888275,-1.21632504463196,1.09500002861023,-5.7610502243042,-19.8190517425537,2.07795000076294,1.96305012702942,-1.06200003623962,11.7270002365112,11.6509504318237,11.6509504318237,-1.08844995498657,-1.79726254940033,-1.96061253547668,-1.96130001544952,-0.98642498254776,1.1727374792099,-1.64078748226166,-3.43983745574951,-4.85058736801147,-49.3540534973145,-63.987003326416,-41.3860511779785,0.16200000047684,-44.1960029602051,-78.3660049438477,11.6509504318237,-39.4500007629395,-58.2589530944824,-1.70541250705719,-1.08432495594025,-2.53110003471375,4.77248764038086,8.18977451324463,12.2864503860474,-6.19574975967407,-7.38581228256226,-8.69357490539551,45.7230033874512,49.7070007324219,-0.51195001602173,-78.3660049438477,-29.5630512237549,-7.23000049591064,-58.2589530944824,-25.582950592041,25.4029502868652,-1.0480250120163,0.52758747339249,2.08917498588562,14.1370620727539,15.5753126144409,16.3532867431641,-8.38640022277832,-7.41812515258789,-5.8005747795105,0.17595000565052,8.296950340271,12.6259508132935,2.07795000076294,3.91695022583008,0.69900006055832,1.4230500459671,-7.65495014190674,-7.65495014190674,4.08856248855591,4.12788724899292,4.30924987792969,15.3969745635986,15.5813627243042,16.1475868225098,-0.83008748292923,1.60214996337891,2.90867495536804,12.01305103302,9.9060001373291,4.8880500793457,-0.14295001327991,0.58395004272461,3.15000009536743,1.84395003318787,3.30000019073486,5.48295021057129,5.5280499458313,4.21918725967407,4.38336229324341,17.9624500274658,18.4496116638184,17.660774230957,2.66337490081787,-1.28108751773834,-2.33419990539551,2.35995006561279,0.59700000286102,1.21005010604858,3.64800024032593,2.26905012130737,2.53695011138916,10.2720003128052,10.1569509506226,9.58200073242188,4.59964990615845,4.9354248046875,5.83371257781982,16.4080123901367,14.9565620422363,12.7198495864868,-3.54777503013611,-4.68489980697632,-5.13837480545044,1.66995012760162,1.63200008869171,0.94200003147125,2.30805015563965,2.07795000076294,1.732950091362,9.58200073242188,10.2330007553101,10.6549501419067,SWING_LEFT
-0.33109998703003,-0.38596248626709,-0.39036250114441,-0.18218749761581,-0.28256249427795,-0.30360001325607,-0.67278748750687,-0.78457498550415,-0.86872500181198,1.8229501247406,0.25304999947548,1.36395001411438,2.26905012130737,2.76705002784729,2.76705002784729,9.5440502166748,9.61995029449463,9.50505065917969,-0.37606251239777,-0.33123749494553,-0.17242500185966,-0.29878750443459,-0.25244998931885,-0.0042624999769,-0.98931246995926,-1.12653744220734,-1.40002501010895,1.40205001831055,1.05705010890961,2.70405006408691,2.80605006217957,2.88195013999939,2.76705002784729,9.50505065917969,8.70105075836182,9.12195014953613,-0.0042624999769,-0.00013749999925,0.00329999998212,-0.00096249999478,-0.00041249999776,-0.00206249998882,-1.55113744735718,-1.72273743152618,-1.87618744373322,4.77300024032593,7.72305059432983,10.9399509429932,2.46105003356934,2.19300007820129,1.12005007266998,9.27600002288818,9.31395053863525,9.58200073242188,0.00384999997914,-0.00206249998882,-0.32106250524521,-0.60720002651215,-1.14303743839264,-1.71819996833801,-1.92981243133545,-1.82091248035431,-1.70500004291534,-0.24405001103878,-8.02095031738281,-17.67405128479,-0.67905002832413,-0.52605003118515,-1.52205002307892,12.9910507202148,15.2130002975464,15.2130002975464,-0.80286252498627,-2.21154999732971,-2.79386258125305,-2.20783758163452,-1.65412497520447,0.26977500319481,-1.6493124961853,-2.57963752746582,-3.61693739891052,-42.9949531555176,-53.836051940918,-35.9470520019531,1.81005012989044,-17.1130504608154,-64.6519546508789,1.57605004310608,-33.5890502929688,-36.3859519958496,-2.86261248588562,-2.57028746604919,-12.3855876922607,3.96577501296997,7.54036235809326,10.8549375534058,-4.38075017929077,-4.85938739776611,-5.38119983673096,19.981050491333,61.3530044555664,15.7669506072998,-78.3660049438477,-37.0710029602051,-16.6920013427734,-36.3859519958496,-31.0990524291992,14.8300504684448,-14.7900495529175,-14.0911378860474,-12.7126998901367,11.6714124679565,12.9013500213623,13.6782245635986,-6.33723735809326,-6.50292491912842,-5.86753749847412,1.40205001831055,-3.96000027656555,2.58900022506714,-3.93495011329651,8.09205055236816,6.13800048828125,1.49895012378693,-2.86695003509521,-5.16495037078857,-10.4157629013062,-10.5851621627808,-6.71907472610474,14.3870372772217,16.6278743743896,17.9759254455566,-2.37888741493225,-0.25011250376701,-0.29067498445511,9.52305030822754,8.6419506072998,7.87605047225952,-0.94695001840591,-0.56400001049042,-1.33095002174377,-0.91305005550385,5.90505027770996,11.0380506515503,1.26692497730255,1.73195004463196,1.67612504959106,20.322774887085,19.7308368682861,19.3102245330811,-0.00439999997616,-1.06246244907379,-1.8191249370575,4.81095027923584,-0.09105000644922,1.24905002117157,-1.94295012950897,0.88995003700256,1.35000002384186,13.6810503005981,9.88905048370361,7.4370002746582,1.44952499866486,1.46079993247986,2.90661239624023,17.768575668335,14.2751121520996,10.6892499923706,-2.50387501716614,-4.06766271591187,-3.76530003547669,1.93800008296967,1.90005004405975,2.55105018615723,1.19700002670288,1.1580001115799,0.58395004272461,7.4370002746582,8.39505004882813,10.9990501403809,SWING_LEFT
0.00027499999851,-0.00082499999553,-0.00041249999776,0.00384999997914,0.00563749996945,0.00673749996349,-0.15812499821186,-0.23333749175072,-0.26853749155998,1.86195003986359,2.09100008010864,2.35995006561279,2.07795000076294,2.11605000495911,2.07795000076294,9.19905090332031,9.00705051422119,9.46695041656494,0.00054999999702,0.0015124999918,0.00329999998212,0.16032500565052,0.17077499628067,0.00673749996349,-0.29603749513626,-0.31171250343323,-0.30112498998642,2.62800002098084,2.62800002098084,7.87605047225952,1.96305012702942,1.92495012283325,1.12005007266998,9.50505065917969,9.92700004577637,10.1179504394531,0.00357499998063,0.00288749998435,0.00027499999851,0.00453749997541,0.00109999999404,-0.15083749592304,-0.27981248497963,-0.25382500886917,-0.21408750116825,12.01305103302,14.0820007324219,13.6990509033203,0.27705001831055,-1.17705011367798,-3.09300017356873,10.8460502624512,11.3440504074097,12.7620010375977,-0.33508750796318,-0.64226251840591,-1.07208752632141,-1.33086252212524,-2.00832509994507,-2.55172491073608,0.00288749998435,0.29191249608994,0.45141249895096,3.27900004386902,-5.30100011825562,-14.8780508041382,-5.0460000038147,-3.24600005149841,-3.05400013923645,17.1289501190186,11.7270002365112,5.86605024337769,-1.5856499671936,-3.46912503242493,-5.06673765182495,-2.90001249313354,-2.11626243591309,-0.00563749996945,0.45278748869896,-0.87147498130798,-2.97206258773804,-31.503002166748,-71.6110534667969,-50.5800018310547,-0.29595002532005,-9.60495090484619,-45.1159515380859,3.49095010757446,-26.7319507598877,-47.4949531555176,-5.84567499160767,-5.65509986877441,4.4438624382019,4.33028745651245,10.330924987793,19.0649242401123,-4.82542514801025,-4.89761257171631,-4.84536266326904,-10.0129508972168,54.5719528198242,24.7309513092041,-78.3660049438477,-57.6040534973145,-14.5470008850098,-47.4949531555176,-20.871000289917,13.9870510101318,7.3136248588562,10.1543750762939,13.0653877258301,21.210750579834,22.8699626922607,23.640100479126,-4.52718734741211,-3.71965003013611,-2.08491253852844,7.33995056152344,3.62400007247925,4.35195016860962,-4.20405006408691,5.83200025558472,6.36795043945313,13.9870510101318,7.97295045852661,6.90105009078979,18.2113246917725,19.1948623657227,14.2020998001099,21.6262741088867,25.4442367553711,26.8713493347168,1.57739996910095,4.16006231307983,3.27579998970032,10.6339502334595,8.56500053405762,5.80695009231567,1.50300002098084,-0.02805000171065,-0.75600004196167,1.19295001029968,5.06205034255981,10.6930503845215,9.613450050354,9.05038738250732,8.67638778686523,26.2677249908447,25.029125213623,23.6697998046875,0.95314997434616,-2.32388758659363,-2.78987503051758,3.7390501499176,-0.05295000225306,-1.54695010185242,-1.25400006771088,-0.41100001335144,1.38795006275177,11.8810501098633,9.8500509262085,8.5090503692627,7.43599987030029,5.61481237411499,4.88180017471313,21.8645629882813,16.7059745788574,7.61433744430542,-2.76581239700317,-4.40137481689453,-3.56372499465942,-0.97200006246567,0.483000010252,2.206050157547,2.03895020484924,1.77105009555817,1.61805009841919,8.5090503692627,8.73900032043457,10.8850507736206,SWING_LEFT
-0.0054999999702,-0.0042624999769,-0.00178749999031,1.46066248416901,1.52281248569489,1.43962502479553,-0.71692502498627,-0.79516249895096,-0.87216252088547,1.63200008869171,2.206050157547,2.28299999237061,2.30805015563965,2.26905012130737,2.30805015563965,9.27600002288818,9.61995029449463,9.8500509262085,0.00137499999255,0.00632499996573,0.00659999996424,1.20463752746582,0.38623750209808,-0.00494999997318,-0.91066247224808,-0.81427496671677,-0.70358747243881,2.66595005989075,4.77300024032593,5.96100044250488,2.23095011711121,1.84800004959106,1.61805009841919,10.5400505065918,11.4210004806519,11.5740003585815,0.00467499997467,0.00054999999702,-0.25437501072884,-0.59166252613068,-1.06507503986359,-1.85721254348755,-0.5821750164032,-0.45443749427795,-0.20074999332428,5.5770001411438,5.53905010223389,11.2090501785278,1.69500005245209,1.92495012283325,-1.59900009632111,12.3400506973267,12.5320501327515,12.1489505767822,-0.40562498569489,-0.55288749933243,-0.7233874797821,-2.0625,-2.14761257171631,-2.15201258659363,-0.00632499996573,-0.00522499997169,-0.00577499996871,4.04505014419556,-3.19395017623901,-10.0129508972168,-1.36905002593994,-0.29595002532005,0.16200000047684,12.1489505767822,11.9569501876831,8.778000831604,-1.20491254329681,-1.67213749885559,-2.36266255378723,-1.82448744773865,-1.05764997005463,0.27788749337196,-0.44948750734329,-1.29373753070831,-3.56620001792908,-39.202953338623,-72.8749542236328,-62.8770027160645,0.50700002908707,-9.25995063781738,-40.7100028991699,0.8479500412941,-14.4739503860474,-50.4829521179199,-2.56437492370605,0.48908749222755,6.66916227340698,2.61841249465942,10.7577247619629,14.7669496536255,-6.75743722915649,-10.7250003814697,-11.8688621520996,-48.9330024719238,47.6389541625977,44.1910514831543,-77.7150039672852,-60.4390525817871,-25.5790519714355,-50.4829521179199,-42.3619537353516,1.30800008773804,14.5440626144409,19.2908382415771,24.7574253082275,18.6594371795654,21.4670505523682,24.2710876464844,-10.4697999954224,-8.51620006561279,-1.80771243572235,20.7090015411377,6.22905015945435,9.86805057525635,-16.8070507049561,-1.98195004463196,0.73695003986359,16.8220500946045,16.8220500946045,12.5700006484985,26.5346126556396,27.0254878997803,24.6320247650146,24.2738380432129,23.9953994750977,24.6655750274658,2.80885004997253,6.88462495803833,10.171012878418,14.7709503173828,13.9669504165649,9.06300067901611,-0.7180500626564,-0.37305000424385,1.00499999523163,6.32595014572144,4.94700002670288,2.68695020675659,13.1851501464844,12.7983627319336,12.6524753570557,23.9204616546631,23.2362632751465,21.2409992218018,6.38261222839355,3.4791624546051,1.46492505073547,0.36795002222061,-0.62700003385544,-1.08705008029938,0.35400000214577,-0.14295001327991,0.3160500228405,4.52595043182373,6.01905012130737,7.4370002746582,11.6945123672485,9.28069972991943,8.96527481079102,18.6465129852295,11.5479373931885,8.23404979705811,-0.39544999599457,-4.5159125328064,-4.76506233215332,-1.125,1.32495009899139,1.55505001544952,0.81405001878738,1.27305006980896,1.77105009555817,8.70105075836182,10.2330007553101,10.9230003356934,SWING_LEFT
-0.00439999997616,-0.0054999999702,-0.00673749996349,-0.00563749996945,-0.007012499962,-0.17833749949932,-0.21504999697208,-0.19621250033379,-0.19827499985695,3.24105024337769,3.43200016021729,3.7390501499176,2.99700021743774,2.99700021743774,3.18900012969971,9.58200073242188,9.5440502166748,9.39105033874512,-0.15716250240803,-0.18314999341965,-0.19112500548363,-0.23828749358654,-0.40658751130104,-0.51947498321533,-0.21697500348091,-0.27348750829697,-0.31803750991821,4.00695037841797,5.19405031204224,6.88005018234253,3.37995004653931,2.99700021743774,2.53695011138916,9.35205078125,9.23700046539307,9.08400058746338,-0.20363749563694,-0.21601249277592,-0.28902500867844,-0.64831250905991,-0.81386250257492,-1.2615624666214,-0.37936249375343,-0.44233748316765,-0.48894998431206,8.6419506072998,7.49295043945313,6.42000007629395,1.27305006980896,1.1580001115799,-0.64095002412796,9.08400058746338,11.5360507965088,12.2250003814697,-0.44082498550415,-0.69849997758865,-1.05957496166229,-1.53051245212555,-1.73428750038147,-1.86395001411438,-0.43573749065399,-0.41841250658035,-0.46942499279976,0.6360000371933,-9.43800067901611,-28.2090015411377,-0.67905002832413,0.12405000627041,-0.33495002985001,12.2250003814697,10.3480501174927,8.31795024871826,-2.27438759803772,-3.31031250953674,-4.01733732223511,-1.57863748073578,-0.59441250562668,2.06112504005432,-1.28796243667603,-2.83236241340637,-5.27188730239868,-66.2089538574219,-50.5030517578125,-36.0619506835938,-3.36105012893677,-32.4739532470703,-72.3139572143555,-7.57905054092407,-51.5170516967773,-51.5170516967773,-3.63522505760193,-5.8063497543335,-16.2056121826172,6.5682373046875,13.5077247619629,12.6064128875732,-6.85547494888306,-8.53737449645996,-11.0694370269775,54.2280044555664,27.9870014190674,9.98295021057129,-75.034049987793,-16.078950881958,-12.8989505767822,-48.6060028076172,21.7639503479004,21.7639503479004,-15.4812622070313,-13.6401376724243,-9.61771202087402,14.2186002731323,15.7767496109009,16.5636615753174,-11.3078622817993,-10.1066627502441,-2.90152502059937,1.1340000629425,-1.89105010032654,9.8299503326416,1.31205010414124,8.89605045318604,1.1580001115799,10.6549501419067,2.26500010490417,-3.13500022888184,-9.38437461853027,-9.15089988708496,1.73621249198914,16.223762512207,16.1334247589111,18.723237991333,0.18177500367165,1.51951253414154,3.00698757171631,7.30095052719116,5.04105043411255,3.62400007247925,0.20100000500679,-0.18105000257492,-0.94695001840591,3.33795022964478,8.39505004882813,11.1139507293701,5.63516235351563,5.97520017623901,5.75519990921021,20.4370365142822,19.6337623596191,18.3082618713379,1.90382504463196,0.23306250572205,-1.24781250953674,0.90405005216599,-0.39705002307892,-0.28305000066757,-1.06200003623962,0.12405000627041,1.1580001115799,12.3019504547119,10.5400505065918,9.39105033874512,5.10317516326904,5.05793762207031,4.78431224822998,16.2636375427246,11.996187210083,10.6086750030518,-2.95336246490479,-3.65997505187988,-2.64385008811951,1.63200008869171,3.47100019454956,3.16395020484924,1.12005007266998,1.12005007266998,1.1580001115799,10.5400505065918,10.9990501403809,11.0380506515503,SWING_LEFT
0.14836250245571,0.20363749563694,0.22866250574589,-0.49224999547005,-0.45168748497963,-0.38912498950958,0.00522499997169,0.00357499998063,0.00233749998733,2.81895017623901,2.97300004959106,3.16395020484924,3.95505023002625,3.7630500793457,3.84000015258789,8.5090503692627,8.5090503692627,8.5090503692627,0.21917499601841,0.00687499996275,0.0042624999769,-0.31762498617172,-0.15716250240803,-0.00384999997914,0.0015124999918,0.00109999999404,0.00123749999329,3.08700013160706,4.27500009536743,7.18605041503906,3.84000015258789,3.64800024032593,3.80205011367798,8.54805088043213,8.8540506362915,8.89305019378662,0.00123749999329,-0.00178749999031,-0.14272500574589,-0.0015124999918,-0.00164999999106,-0.40053749084473,0.00137499999255,0.0015124999918,0.00646249996498,10.288950920105,11.7070503234863,13.3920001983643,3.34200024604797,2.11605000495911,-0.10500000417233,9.00705051422119,9.04605007171631,12.2640008926392,-0.21862499415874,-0.35268750786781,-0.57612502574921,-0.89361250400543,-1.48197495937347,-2.00502490997314,0.2909500002861,0.53198748826981,0.80822497606277,10.7869501113892,4.65795040130615,-13.6900510787964,-1.44495010375977,-2.40300011634827,-3.85905027389526,14.2939510345459,14.2939510345459,11.9950504302979,-1.3527250289917,-2.04710006713867,-3.46994996070862,-2.59599995613098,-2.37448740005493,-1.1504625082016,1.24574995040894,1.04445004463196,-0.32120001316071,-76.819953918457,-70.5760498046875,-46.443000793457,8.78205013275146,-14.4319505691528,-57.6040534973145,-11.7919502258301,-32.5549507141113,-55.6920013427734,-4.95618724822998,-4.50408744812012,6.28622484207153,2.3561999797821,13.1538000106812,18.6796493530273,-3.28157496452332,-6.41025018692017,-6.33833742141724,-14.9929504394531,37.909049987793,21.2830505371094,-78.3660049438477,-21.211950302124,-18.2239513397217,-61.2469520568848,-37.3050003051758,37.0870513916016,12.075249671936,14.467474937439,21.7258243560791,22.2919120788574,24.8859882354736,30.1676368713379,-5.7253623008728,-5.34902477264404,2.19821238517761,6.49695014953613,-3.96000027656555,4.31295013427734,-3.51405024528503,10.3140001296997,2.57595014572144,7.81995058059692,2.03595018386841,0.73305004835129,23.7279624938965,23.5973377227783,22.7004241943359,30.3579368591309,28.1290626525879,26.3104877471924,7.71223735809326,9.2024621963501,9.27561283111572,4.58100032806396,2.81895017623901,2.206050157547,-0.37305000424385,-1.90500009059906,-1.94295012950897,0.73305004835129,2.91705012321472,9.81195068359375,8.39437484741211,8.07702541351318,7.7962498664856,21.8312873840332,20.7073631286621,19.1438503265381,6.12521266937256,4.41704988479614,1.38916254043579,-2.50395011901855,-3.3469500541687,-2.84895014762878,0.00900000054389,1.19700002670288,1.88595008850098,11.4210004806519,9.42900085449219,7.59000015258789,6.7592248916626,6.61883735656738,6.55971240997314,16.1532249450684,12.7756748199463,11.880687713623,-2.17195010185242,-3.02843737602234,-2.44420003890991,-1.62300002574921,2.47500014305115,2.58900022506714,1.77105009555817,1.04295003414154,1.00499999523163,7.59000015258789,9.42900085449219,10.9230003356934,SWING_LEFT
-0.14300000667572,-0.00123749999329,0.00123749999329,-0.22769999504089,-0.34911251068115,-0.37138751149178,0.00082499999553,0.00082499999553,0.00068749999627,1.51695013046265,2.05305004119873,2.09100008010864,1.50300002098084,1.46505010128021,1.35000002384186,9.69705009460449,9.58200073242188,9.69705009460449,0.00247499998659,0.00302499998361,0.00261249998584,-0.3797749876976,-0.37001249194145,-0.32023748755455,0.00054999999702,0.00027499999851,-0.00041249999776,2.09100008010864,2.62800002098084,6.03705024719238,1.38795006275177,1.31205010414124,0.66000002622604,9.69705009460449,9.69705009460449,10.1569509506226,0.00164999999106,-0.00013749999925,-0.00371249997988,-0.29452499747276,-0.31913748383522,-0.49279999732971,-0.00096249999478,-0.00219999998808,-0.00357499998063,6.68805027008057,6.99495029449463,8.6419506072998,0.23895001411438,-0.18105000257492,-1.48395001888275,10.8850507736206,11.6890506744385,12.2250003814697,-0.34485000371933,-0.55371248722076,-0.84741246700287,-1.1620124578476,-1.52240002155304,-1.87220001220703,-0.0054999999702,-0.00659999996424,-0.19525000452995,13.0090503692627,7.64595031738281,-3.96000027656555,-5.23800039291382,-5.00805044174194,-2.7480001449585,11.9950504302979,12.2640008926392,12.9529504776001,-1.22210001945496,-2.15517497062683,-2.88681244850159,-2.16094994544983,-2.11021256446838,-1.04719996452332,-0.28366249799728,-0.81840002536774,-1.72603750228882,-16.945951461792,-71.2660522460938,-61.3440017700195,-0.98595005273819,4.68300008773804,-25.9999504089355,13.4130010604858,9.58200073242188,-54.8500518798828,-3.74866247177124,-3.70356249809265,-3.41934990882874,1.36317503452301,5.24851226806641,12.7509250640869,-3.70947504043579,-5.51924991607666,-6.20963764190674,-40.5820503234863,4.65795040130615,42.5059509277344,-73.3480529785156,-78.3660049438477,-16.3849506378174,-56.0370025634766,-56.0370025634766,31.2259521484375,-14.0842628479004,-16.3943996429443,-15.3247871398926,12.5658502578735,13.7048997879028,15.3330373764038,-6.33201265335083,-7.09252500534058,-6.64179992675781,22.3939514160156,0.67395001649857,-2.96400022506714,-20.2930507659912,1.57995009422302,9.81600093841553,31.2259521484375,16.1329498291016,0.88605004549026,-10.5326375961304,-9.3564624786377,-9.16891288757324,16.4301490783691,16.6714630126953,16.5021991729736,0.00206249998882,4.75365018844604,7.02734994888306,6.84195041656494,7.99095058441162,6.57300043106079,2.38394999504089,-0.06599999964237,-1.06200003623962,-3.86295008659363,0.42705002427101,6.86205053329468,-4.73206233978271,7.50612497329712,7.78813743591309,16.7230243682861,20.3533000946045,19.7511882781982,6.82439994812012,6.53798723220825,4.18082475662231,5.5009503364563,-0.16800001263618,-1.50795006752014,-1.82895004749298,-1.82895004749298,-0.29595002532005,12.5320501327515,14.026050567627,12.9529504776001,7.88521242141724,6.72787475585938,5.63887500762939,19.1580123901367,17.198637008667,13.5066251754761,1.72259998321533,-1.11594998836517,-4.00400018692017,-1.47000002861023,-0.58905005455017,2.13000011444092,0.27705001831055,0.81405001878738,0.69900006055832,12.07200050354,9.00705051422119,10.0420503616333,SWING_LEFT
-0.00178749999031,-0.00288749998435,0.00096249999478,-0.40411248803139,-0.35021248459816,-0.20198750495911,0.25575000047684,0.19291250407696,-0.00288749998435,1.01895010471344,1.74705004692078,1.63200008869171,4.52895021438599,4.33800029754639,4.1850004196167,8.20305061340332,8.16495037078857,8.20305061340332,0.00453749997541,0.16293749213219,0.22426250576973,-0.15001249313354,-0.00632499996573,-0.00604999996722,-0.19511249661446,-0.30634999275208,-0.37509998679161,2.05305004119873,2.206050157547,2.43600010871887,4.14600038528442,4.22294998168945,4.3759503364563,8.66295051574707,8.62395000457764,8.47095012664795,0.26166251301765,0.22068749368191,0.15125000476837,-0.15413749217987,-0.20198750495911,-0.26798748970032,-0.37056249380112,-0.30442500114441,-0.20831249654293,5.42400026321411,10.6720504760742,15.6520509719849,4.1850004196167,4.1850004196167,2.69100022315979,8.66295051574707,10.3480501174927,10.6930503845215,0.00329999998212,-0.18521249294281,-0.45966249704361,-0.40314999222755,-1.24877500534058,-1.82586252689362,-0.00357499998063,0.48001250624657,0.81633746623993,15.9970502853394,-7.33095026016235,-22.8840007781982,-1.25400006771088,-2.67105007171631,-7.19205045700073,11.0380506515503,14.4090003967285,12.7999505996704,-1.00072503089905,-1.82311248779297,-4.04112482070923,-2.37503743171692,-2.6637876033783,-0.38912498950958,1.00650000572205,0.8124874830246,-1.39947497844696,-59.3140525817871,-76.0159530639648,-30.3540019989014,3.6870002746582,3.26505017280579,-78.3660049438477,9.88905048370361,-15.0480003356934,-52.8190536499023,-4.62659978866577,-4.44152498245239,3.8286874294281,3.65997505187988,8.38584995269775,14.3605003356934,-2.62514996528625,-3.90376257896423,-6.24428749084473,54.3040542602539,60.3949546813965,41.8159523010254,-78.3660049438477,-24.8130016326904,-20.3689517974854,-55.0030517578125,-52.8190536499023,14.9830503463745,14.4519376754761,16.402099609375,18.5465507507324,21.9513244628906,24.0924739837646,25.2675495147705,-6.08354997634888,-5.27628755569458,-3.50789999961853,-1.27905011177063,-2.69595003128052,6.45795011520386,0.43095001578331,9.77805042266846,8.09205055236816,-0.7219500541687,-4.01595020294189,-4.01595020294189,20.3952369689941,20.1411380767822,5.72384977340698,24.5408630371094,21.9440364837646,18.5525989532471,-0.95947498083115,5.30983734130859,7.56263732910156,10.9399509429932,6.95595026016235,5.46300029754639,4.91295003890991,1.38795006275177,0.20100000500679,-3.74805021286011,3.18495011329651,7.09200048446655,2.64109992980957,0.83558750152588,-1.19872498512268,18.0624122619629,17.9871997833252,16.8205127716064,7.05980014801025,5.20258760452271,0.3573625087738,4.39005041122437,3.66195011138916,0.67395001649857,-0.25800001621246,-0.02805000171065,0.43095001578331,7.09200048446655,6.67095041275024,7.09200048446655,-1.67873752117157,-1.83878743648529,-1.58757495880127,16.0388240814209,14.5928745269775,13.1795120239258,-1.25785005092621,-2.85271239280701,-3.79830002784729,1.1340000629425,2.89605021476746,3.81495022773743,0.54495000839233,0.77505004405975,0.88995003700256,10.3480501174927,12.3019504547119,12.3019504547119,SWING_LEFT
-0.00027499999851,0.00453749997541,0.21257500350475,-0.56663751602173,-0.5823125243187,-0.58382499217987,-0.74909996986389,-0.74194997549057,-0.77206248044968,1.66995012760162,1.59300005435944,1.66995012760162,4.10805034637451,4.14600038528442,4.22294998168945,8.93100070953369,9.16095066070557,8.93100070953369,0.32972499728203,0.40727499127388,0.36836248636246,-0.57516247034073,-0.53074997663498,-0.46805000305176,-0.79392498731613,-0.7595499753952,-0.71898752450943,2.24505019187927,2.43600010871887,3.08700013160706,4.10805034637451,4.30005025863647,4.49100017547607,8.05005073547363,8.31795024871826,8.31795024871826,0.30992498993874,0.2411749958992,0.00632499996573,-0.40356248617172,-0.36698749661446,-0.45966249704361,-0.66673749685287,-0.59716248512268,-0.42033749818802,4.35195016860962,5.8840503692627,14.0430002212524,4.41495037078857,4.33800029754639,2.19300007820129,8.16495037078857,8.16495037078857,9.96495056152344,0.00563749996945,0.00618749996647,0.00481249997392,-0.6599999666214,-0.99096250534058,-1.48500001430511,-0.29878750443459,-0.00687499996275,0.00618749996647,15.4990510940552,12.5110502243042,0.98100006580353,0.54495000839233,-0.90900003910065,-2.86305022239685,11.6890506744385,12.2640008926392,13.8340511322021,-0.48179998993874,-1.08583748340607,-2.10278749465942,-2.38218760490417,-2.63161253929138,-2.41477489471436,0.72668749094009,0.81193751096725,0.18026250600815,-78.3139572143555,-78.3139572143555,-57.1690521240234,7.05795049667358,-4.8550500869751,-42.3580513000488,12.9910507202148,-10.2600002288818,-36.3090019226074,-3.44891238212585,-4.6157374382019,-13.9361753463745,-0.62631249427795,9.00927448272705,10.6415376663208,-1.50658750534058,-4.14713764190674,-4.26098728179932,-34.3380012512207,46.4899520874023,29.5579509735107,-78.3660049438477,-34.8880500793457,-27.5710506439209,-57.7990531921387,-51.5940017700195,30.306001663208,-17.9757881164551,-16.7938365936279,-12.941499710083,12.0206623077393,14.3070125579834,17.9346752166748,-5.39742517471313,-5.82560014724731,-3.58902502059937,1.24905002117157,-1.08705008029938,8.06700038909912,-14.8530006408691,3.95505023002625,2.69100022315979,30.306001663208,13.2600002288818,-10.3750505447388,-10.5972623825073,-9.33996200561523,-7.89208745956421,17.4653873443604,15.8057622909546,14.6756496429443,-0.16554999351501,3.15301251411438,5.25208759307861,12.5880002975464,13.4299507141113,11.3620510101318,-0.87105005979538,-0.83295005559921,-1.17705011367798,0.38805001974106,6.86205053329468,10.7700004577637,4.73921251296997,4.1739501953125,3.80765008926392,17.4024124145508,17.9792251586914,18.3414001464844,6.84227514266968,5.97959995269775,3.46417498588562,1.1340000629425,-0.39705002307892,-0.32100000977516,-1.33095002174377,-1.13895010948181,-0.75600004196167,9.42900085449219,8.05005073547363,7.16895055770874,3.76337504386902,3.44437503814697,3.79802489280701,18.0027370452881,14.4995126724243,13.3695373535156,1.31051254272461,-2.37833738327026,-3.14806246757507,0.90405005216599,2.70405006408691,3.04905009269714,-0.56400001049042,-0.44895002245903,-0.87105005979538,7.16895055770874,10.6159505844116,11.7660007476807,SWING_LEFT
0.20899999141693,0.18521249294281,0.00591249996796,-0.75625002384186,-0.71609997749329,-0.66769999265671,-0.35475000739098,-0.4116750061512,-0.49692499637604,3.12600016593933,3.66195011138916,4.54305028915405,-0.64095002412796,-0.83295005559921,-0.87105005979538,9.96495056152344,10.8460502624512,10.8460502624512,0.00068749999627,-0.28545001149178,-0.44866248965263,-0.62589997053146,-0.56086248159409,-0.56608748435974,-0.59936249256134,-0.81853747367859,-0.95988750457764,4.42799997329712,4.73505020141602,5.5770001411438,-0.79395002126694,-1.90500009059906,-2.51805019378662,10.6930503845215,10.3099508285522,11.3830509185791,-0.62507498264313,-0.82857501506805,-1.38503754138947,-0.61489999294281,-0.6681125164032,-0.71541249752045,-1.19418752193451,-1.49448752403259,-2.23657488822937,7.30095052719116,8.87205028533936,5.07900047302246,-3.51405024528503,-4.9699501991272,-5.96595048904419,12.3400506973267,12.7999505996704,11.9950504302979,-1.75821244716644,-2.21924996376038,-2.69733738899231,-0.70001250505447,-0.60582500696182,-0.43422499299049,-2.68523740768433,-3.13197493553162,-3.48892498016357,2.39805006980896,-4.07505035400391,-14.8390502929688,-5.39100027084351,-5.81295013427734,-6.23400020599365,11.9190006256104,10.7700004577637,10.1569509506226,-3.45908737182617,-3.66753745079041,-3.74440002441406,0.29809999465942,1.05228745937347,2.52766251564026,-3.70094990730286,-3.51202487945557,-3.08165001869202,-71.8789520263672,-78.3139572143555,-60.4249534606934,9.54795074462891,-1.29195010662079,-40.5570030212402,6.70905017852783,-9.83895015716553,-46.8430519104004,-3.56702494621277,-6.82646226882935,-9.62871265411377,5.12847518920898,9.34945011138916,10.4605875015259,-1.67365002632141,3.84876251220703,4.44840002059937,-42.1909523010254,51.6229515075684,38.2150535583496,-78.3660049438477,-24.2770519256592,-24.1620006561279,-65.461051940918,-8.95800018310547,20.6149501800537,-9.41104984283447,-8.24408721923828,-5.57177495956421,11.6393747329712,13.0028247833252,14.3345127105713,4.40756225585938,4.31983757019043,4.14246225357056,9.52305030822754,-0.28305000066757,7.7989501953125,-14.202000617981,-3.20805025100708,4.49100017547607,20.6149501800537,-3.09705018997192,-5.93100023269653,-4.42351245880127,-2.2314875125885,1.70156252384186,14.3037128448486,15.5691251754761,17.8736248016357,3.02060008049011,1.44773745536804,0.42762500047684,14.5410003662109,10.1740503311157,4.77300024032593,-0.25800001621246,0.27705001831055,0.73695003986359,4.10400009155273,5.59800004959106,5.59800004959106,2.8804874420166,2.27438759803772,2.00530004501343,18.6938133239746,17.7768249511719,16.9417877197266,-0.00178749999031,-0.9922000169754,-2.49837493896484,-0.62700003385544,-0.32100000977516,-0.20595000684261,0.08595000207424,-0.18105000257492,-0.52605003118515,7.9350004196167,7.9350004196167,7.12995052337646,1.92884993553162,1.77760004997253,2.00859999656677,15.965950012207,12.591287612915,11.1810874938965,-3.67289996147156,-5.38766241073608,-5.40292501449585,-0.12900000810623,-0.20595000684261,0.36795002222061,-0.7180500626564,-0.7180500626564,-0.90900003910065,7.12995052337646,10.7700004577637,10.8079509735107,SWING_LEFT
0.26537498831749,0.346774995327,0.36918750405312,-0.19359999895096,-0.00123749999329,0.00302499998361,-0.35667499899864,-0.38774999976158,-0.40878748893738,1.1340000629425,1.01895010471344,1.01895010471344,0.73695003986359,0.69900006055832,0.50700002908707,9.35205078125,9.35205078125,9.35205078125,0.29919999837875,0.2426874935627,0.1740749925375,-0.00206249998882,-0.14726249873638,-0.25712499022484,-0.41717499494553,-0.41029998660088,-0.40576249361038,2.32095003128052,3.39405012130737,4.77300024032593,0.20100000500679,0.23895001411438,-0.06599999964237,10.1179504394531,10.6549501419067,10.6930503845215,0.0042624999769,-0.00481249997392,-0.1883749961853,-0.37207499146461,-0.68571251630783,-0.95933747291565,-0.39283749461174,-0.33577498793602,-0.29438748955727,7.07100009918213,11.4000005722046,15.0390005111694,-0.79395002126694,-4.24200010299683,-6.84705018997192,11.2290000915527,13.03005027771,13.03005027771,-0.32188749313354,-0.5380374789238,-1.21233749389648,-1.34571254253387,-1.81774997711182,-2.61360001564026,-0.22577500343323,-0.00522499997169,0.34883749485016,12.9709510803223,2.24505019187927,-55.1389541625977,-9.22200012207031,-8.72399997711182,-3.05400013923645,11.9190006256104,11.9190006256104,14.1790504455566,-1.58124995231628,-1.95318746566772,-2.40418744087219,-2.81311249732971,-2.48572492599487,-1.12323749065399,0.67278748750687,1.01062500476837,1.47083747386932,-78.3139572143555,-65.0599517822266,-40.3140029907227,8.62800025939941,-15.7339506149292,-53.8879508972168,12.0340509414673,-9.64695072174072,-55.2709541320801,-3.25792503356934,-4.50986242294312,-5.98922491073608,5.04570007324219,8.07468700408936,10.7329750061035,4.02971267700195,5.22321224212646,5.44747495651245,55.0320014953613,48.2130012512207,24.4249515533447,-61.5499534606934,-12.2100009918213,-21.7099514007568,-56.1520538330078,3.41505026817322,33.4470024108887,-6.67411231994629,-6.23108768463135,-5.37239980697632,12.7789745330811,15.4563751220703,15.2838125228882,4.77303743362427,3.1603000164032,2.37421250343323,-3.80700016021729,-4.72605037689209,6.57300043106079,-9.29805088043213,9.47100067138672,2.30805015563965,33.4470024108887,-9.41700077056885,-5.89305019378662,-4.55730009078979,-3.32529997825623,0.9784500002861,14.1131372451782,13.4142246246338,12.4290370941162,1.15816247463226,-0.16197499632835,-0.60390001535416,12.127950668335,10.4809503555298,2.74305009841919,-1.25400006771088,-1.06200003623962,-0.79395002126694,1.03995001316071,7.47495031356812,11.6890506744385,2.31481242179871,2.52986240386963,2.18680000305176,12.6339120864868,12.9428749084473,14.7131872177124,-0.15702499449253,-0.29438748955727,-2.24001240730286,2.16795015335083,0.94200003147125,0.21405000984669,-0.94695001840591,-1.36905002593994,-1.59900009632111,10.9990501403809,8.73900032043457,8.73900032043457,1.85611248016357,1.55869996547699,1.03839993476868,15.9631996154785,15.3137874603271,14.827449798584,-5.05793762207031,-5.5280499458313,-5.95801258087158,1.36395001411438,1.59300005435944,1.74705004692078,-1.56000006198883,-1.25400006771088,-0.44895002245903,12.4930505752563,11.6890506744385,11.3059501647949,SWING_LEFT
-0.0015124999918,-0.15125000476837,-0.23553749918938,-0.29039999842644,-0.21628749370575,-0.18741250038147,-0.33825001120567,-0.40094998478889,-0.42116248607635,2.89605021476746,2.85795021057129,2.7810001373291,0.27705001831055,0.08595000207424,0.16200000047684,10.1569509506226,10.5780000686646,11.1139507293701,-0.32917499542236,-0.41359999775887,-0.50765001773834,-0.17063750326633,-0.16073749959469,-0.15111249685287,-0.4446749985218,-0.46667498350143,-0.48413750529289,3.8539502620697,5.99895048141479,14.3110504150391,0.16200000047684,-0.25800001621246,-1.90500009059906,11.1139507293701,10.8079509735107,11.9569501876831,-0.51727497577667,-0.52249997854233,-0.55398750305176,-0.20363749563694,-0.39861249923706,-0.87285000085831,-0.48069998621941,-0.47905001044273,-0.45498749613762,13.8900003433228,15.8050508499146,16.4179515838623,-3.01605010032654,-4.39499998092651,-7.45995044708252,11.9569501876831,11.3440504074097,8.16495037078857,-0.73713749647141,-0.88440001010895,-1.03551244735718,-2.24372506141663,-2.85614991188049,-3.39377498626709,-0.20927499234676,-0.00013749999925,0.2041874974966,-4.53495025634766,-11.0470504760742,-16.9080009460449,-4.20405006408691,-2.36505007743835,-5.12295007705688,5.63595008850098,9.46695041656494,10.9990501403809,-1.27283751964569,-2.64357495307922,-3.4935998916626,-3.56152486801147,-1.44883751869202,1.78447496891022,0.38032498955727,0.22426250576973,-0.43009999394417,-30.0859508514404,-69.9250564575195,-56.2110023498535,-5.65905046463013,0.88995003700256,-41.860050201416,9.19905090332031,-17.0400009155273,-46.7290534973145,-3.40683746337891,-2.38150000572205,-0.00673749996349,6.88380002975464,11.5308876037598,17.1835117340088,-0.5517874956131,-0.2743124961853,-1.00045001506805,-40.8499526977539,17.7210006713867,42.6589508056641,-78.3660049438477,-78.3660049438477,-30.5970020294189,-58.680004119873,-66.6100540161133,-5.62500047683716,-10.6768751144409,-11.9488878250122,-10.6616125106812,15.0196752548218,14.7635126113892,14.2663125991821,-3.45936250686646,-4.70346260070801,-4.94766235351563,20.1720008850098,1.36395001411438,-1.81500005722046,-25.195951461792,-9.68205070495606,0.39195001125336,5.40705013275146,-4.36094999313354,-4.36094999313354,-9.38134956359863,-9.97356224060059,-10.9272623062134,9.08325004577637,7.53802490234375,7.51327514648438,-6.1047248840332,-6.55517482757568,-6.50705003738403,5.5770001411438,7.7989501953125,6.84195041656494,-1.06200003623962,-2.32695007324219,-1.59900009632111,7.16895055770874,13.03005027771,13.03005027771,-7.6012749671936,0.55274999141693,-0.15867500007153,9.65139961242676,19.9175624847412,22.3623123168945,-5.57053756713867,-1.92747497558594,-3.02279996871948,5.07900047302246,3.01095008850098,1.01895010471344,-0.18105000257492,0.23895001411438,-0.98595005273819,9.27600002288818,4.83195018768311,6.78600025177002,0.65601247549057,1.08666253089905,1.1978999376297,22.965799331665,22.1905746459961,18.1132869720459,-4.27088737487793,-4.30567502975464,-3.76048755645752,1.09500002861023,1.8229501247406,2.32095003128052,-1.86705005168915,-2.13495016098022,-1.06200003623962,10.4629507064819,11.2290000915527,10.5780000686646,SWING_LEFT
