gyro_x_0,gyro_y_0,gyro_z_0,acc_x_0,acc_y_0,acc_z_0,gyro_x_1,gyro_y_1,gyro_z_1,acc_x_1,acc_y_1,acc_z_1,gyro_x_2,gyro_y_2,gyro_z_2,acc_x_2,acc_y_2,acc_z_2,gyro_x_3,gyro_y_3,gyro_z_3,acc_x_3,acc_y_3,acc_z_3,gyro_x_4,gyro_y_4,gyro_z_4,acc_x_4,acc_y_4,acc_z_4,gyro_x_5,gyro_y_5,gyro_z_5,acc_x_5,acc_y_5,acc_z_5,gyro_x_6,gyro_y_6,gyro_z_6,acc_x_6,acc_y_6,acc_z_6,gyro_x_7,gyro_y_7,gyro_z_7,acc_x_7,acc_y_7,acc_z_7,gyro_x_8,gyro_y_8,gyro_z_8,acc_x_8,acc_y_8,acc_z_8,gyro_x_9,gyro_y_9,gyro_z_9,acc_x_9,acc_y_9,acc_z_9,gyro_x_10,gyro_y_10,gyro_z_10,acc_x_10,acc_y_10,acc_z_10,gyro_x_11,gyro_y_11,gyro_z_11,acc_x_11,acc_y_11,acc_z_11,gyro_x_12,gyro_y_12,gyro_z_12,acc_x_12,acc_y_12,acc_z_12,gyro_x_13,gyro_y_13,gyro_z_13,acc_x_13,acc_y_13,acc_z_13,gyro_x_14,gyro_y_14,gyro_z_14,acc_x_14,acc_y_14,acc_z_14,motion_type
-0.26042500138283,-0.007012499962,0.00068749999627,0.40605002641678,0.44400003552437,0.75105005502701,0.23100000619888,0.19112500548363,0.15950000286102,-0.23732499778271,-0.28586250543594,-0.32615000009537,4.03095006942749,3.84000015258789,3.57195019721985,9.31395053863525,8.93100070953369,8.93100070953369,0.76931250095367,0.75707501173019,0.6767749786377,0.55905002355576,-0.01395000051707,0.09900000691414,0.00494999997318,0.00357499998063,-0.00013749999925,-0.27417498826981,-0.19442500174046,-0.00164999999106,3.7630500793457,3.64800024032593,3.61005020141602,10.0030508041382,9.00705051422119,7.16895055770874,0.0027499999851,-0.00673749996349,-0.38774999976158,-0.97200006246567,-8.05905055999756,-17.941951751709,0.21023750305176,0.37716248631477,1.02960002422333,-0.16156250238419,-0.1530375033617,-0.28325000405312,-5.50605010986328,-26.3830509185791,-33.7770004272461,12.9150009155273,11.4210004806519,1.34595000743866,-13.2438621520996,-18.1229114532471,-19.1736869812012,-7.71405029296875,41.0880012512207,31.2430515289307,3.25861239433289,3.0793125629425,1.03289997577667,4.26428747177124,5.01380014419556,7.40959978103638,-9.56700038909912,-8.1109504699707,-2.97795009613037,-3.48000025749207,-3.48000025749207,6.90105009078979,-13.0285377502441,-12.4174871444702,-12.4612121582031,12.127950668335,7.03305053710938,3.50895023345947,-1.3362250328064,-0.58011251688004,0.40837499499321,5.37349987030029,5.00651264190674,4.732337474823,-3.47595024108887,-3.05400013923645,-2.55600023269653,11.8420505523682,11.8420505523682,11.3440504074097,SWING_LEFT
-1.22127497196198,-1.20078754425049,-1.08143746852875,3.66195011138916,4.19805002212524,4.77300024032593,0.37798750400543,0.26743748784065,0.00673749996349,-0.1710499972105,-0.46502500772476,-0.77027499675751,0.69900006055832,1.42695009708405,1.57995009422302,12.7620010375977,12.7999505996704,11.6890506744385,0.78622502088547,1.66952502727509,2.0355498790741,3.96900010108948,0.483000010252,0.483000010252,0.00591249996796,0.39242500066757,1.05613744258881,-0.80588752031326,-0.41635000705719,0.77109998464584,0.46905001997948,-1.40700006484985,-6.96195030212402,9.77400016784668,11.3440504074097,-7.34895038604736,4.28367519378662,11.2143621444702,19.9458866119385,-53.3760032653809,-44.5660514831543,-37.8619499206543,-1.72878754138947,-2.1128249168396,-2.92545008659363,13.0861501693726,14.1125869750977,14.3665494918823,-72.1990509033203,-33.0870018005371,-21.1740016937256,-14.4360008239746,-14.4360008239746,-11.8690509796143,13.4499750137329,-6.16646242141724,-9.32167530059814,17.7210006713867,16.9549503326416,20.97705078125,-4.98478746414185,-4.90971231460571,-4.78293752670288,2.26228737831116,3.26988744735718,5.85406255722046,-4.70205020904541,-3.43695020675659,-1.21605002880096,3.26100015640259,4.44900035858154,5.59800004959106,-10.9203872680664,-9.83839988708496,-8.5185375213623,2.16795015335083,1.8229501247406,0.86595004796982,0.61435002088547,1.30226254463196,2.15435004234314,8.4676628112793,6.58638763427734,6.2511625289917,-0.7180500626564,-0.33495002985001,-0.37305000424385,11.4589509963989,9.92700004577637,9.92700004577637,SWING_LEFT
-1.27682495117188,-0.91960000991821,-0.54614996910095,4.65795040130615,6.99495029449463,11.9749507904053,-0.00343749998137,-0.174899995327,-0.18892499804497,-0.6707249879837,-1.08377504348755,-1.31821250915527,0.16200000047684,3.22695016860962,3.64800024032593,13.1059503555298,12.4930505752563,15.1369504928589,1.06232500076294,1.06287503242493,-0.00687499996275,2.24505019187927,5.23305034637451,-8.1739501953125,-1.94974994659424,-2.91225004196167,-3.70644998550415,-1.46437501907349,-1.21811246871948,-0.7233874797821,-4.8550500869751,-13.3210506439209,-21.1350002288818,0.58005005121231,0.58005005121231,-5.74005031585693,-9.77817535400391,-10.9224500656128,-11.401912689209,-52.3420524597168,-35.3719520568848,-4.87905025482178,-2.89547491073608,-2.90207505226135,-7.68872499465942,13.0517749786377,13.1492624282837,9.23821258544922,-78.3660049438477,-18.3390007019043,-15.8869504928589,-43.6260032653809,-19.875,29.5399513244629,-9.54415035247803,-9.69086265563965,-9.05712509155273,14.9239511489868,13.6600503921509,11.2849502563477,-9.39400005340576,-9.02866268157959,-5.60752487182617,1.69235002994537,4.79971265792847,8.80921268463135,-1.90500009059906,0.23895001411438,0.88995003700256,9.27600002288818,9.27600002288818,8.62395000457764,-5.25662517547607,-5.15762519836426,-5.08571243286133,3.01095008850098,2.13000011444092,1.05705010890961,3.40037488937378,4.98987483978271,5.18361234664917,11.6414375305176,6.56796264648438,5.62966251373291,-0.18105000257492,-0.94695001840591,-0.94695001840591,9.39105033874512,9.61995029449463,10.5400505065918,SWING_LEFT
-0.55206251144409,-0.26606249809265,-0.15647499263287,1.24905002117157,1.40205001831055,1.55505001544952,-0.00233749998733,0.00288749998435,0.21175000071526,-0.00494999997318,-0.1710499972105,-0.21230000257492,1.81005012989044,1.88595008850098,1.77105009555817,9.65895080566406,9.65895080566406,9.65895080566406,-0.00013749999925,-0.00137499999255,-0.00164999999106,4.54305028915405,6.95595026016235,9.86805057525635,0.15111249685287,0.00591249996796,0.00481249997392,-0.48014998435974,-0.86528748273849,-1.40992498397827,-6.65505027770996,-22.1310005187988,-19.4119510650635,12.4930505752563,16.5540008544922,16.5540008544922,1.38586246967316,-0.37894999980927,-4.73110008239746,-78.3139572143555,-47.8219528198242,-16.5250511169434,-7.95066261291504,-9.15378761291504,-13.2093496322632,5.72508764266968,8.50973701477051,10.3063125610352,-78.3660049438477,-44.9239540100098,-24.2380504608154,-52.2060012817383,-52.2060012817383,31.7620506286621,-5.7934250831604,-6.89961242675781,-3.67166256904602,9.94395065307617,15.2689504623413,22.1640014648438,-10.648962020874,-10.4256620407104,-8.69137477874756,13.7403745651245,15.9715871810913,16.5466117858887,-1.1010000705719,-0.52605003118515,-0.06599999964237,-5.31795024871826,-4.70595026016235,-3.25005006790161,-3.1128625869751,-2.82287502288818,-2.51432490348816,-4.65000009536743,2.05305004119873,0.55905002355576,-3.48232507705688,-1.41460001468658,2.8862624168396,12.2384624481201,3.00767493247986,7.44878768920898,-0.64095002412796,-0.56400001049042,-0.56400001049042,13.2210006713867,11.6119508743286,11.3830509185791,SWING_LEFT
-0.53583747148514,-0.54834997653961,-0.58038747310638,2.206050157547,2.47500014305115,5.23305034637451,-0.00013749999925,-0.00109999999404,-0.00233749998733,0.42460000514984,0.36492499709129,0.21422499418259,-1.1010000705719,-2.28795003890991,-1.75200009346008,12.2250003814697,12.9150009155273,13.6039505004883,-0.76917499303818,-0.78100001811981,-0.80973750352859,6.53505039215088,4.39005041122437,2.32095003128052,-0.94985002279282,-1.43948745727539,-1.79327499866486,-1.59706246852875,-1.7106374502182,-1.27627503871918,-2.44095015525818,-9.03000068664551,-16.3849506378174,12.8380508422852,10.0420503616333,7.81995058059692,-2.73267507553101,-5.23393726348877,-9.19517517089844,-78.3139572143555,-63.0679512023926,-26.791051864624,-4.19567489624023,-1.40621244907379,10.8843622207642,11.45787525177,15.3899621963501,22.1583995819092,-78.3660049438477,-64.0780563354492,-15.8869504928589,-42.9739532470703,-43.4719505310059,-43.4719505310059,-7.13899993896484,-4.3324875831604,-2.1927125453949,11.4000005722046,11.0940008163452,13.2010507583618,22.6382751464844,14.1817502975464,6.3460373878479,25.9408874511719,29.5612621307373,26.3683757781982,-1.98195004463196,-1.06200003623962,-0.75600004196167,-0.91305005550385,8.89305019378662,8.89305019378662,4.11867475509644,3.15645003318787,1.64243745803833,4.27500009536743,1.8229501247406,-1.93005013465881,4.7564001083374,5.44829988479614,6.10348749160767,15.9227752685547,8.90944957733154,7.09004974365234,-0.90900003910065,-0.75600004196167,-0.67905002832413,8.70105075836182,10.3480501174927,10.5400505065918,SWING_LEFT
-0.67182499170303,-0.65601247549057,-0.72668749094009,1.90005004405975,1.86195003986359,1.78500008583069,-0.00123749999329,0.00453749997541,0.29122498631477,-0.39544999599457,-0.40713748335838,-0.39462500810623,2.65200018882751,2.26905012130737,0.69900006055832,8.8540506362915,9.19905090332031,10.0800008773804,-1.24657499790192,-1.19556248188019,-1.00471246242523,9.75300025939941,5.65395021438599,4.04505014419556,-0.37771248817444,-0.79048746824265,-1.3055624961853,-1.93586254119873,-2.09412503242493,-2.02702498435974,-3.1690502166748,-4.27995014190674,-4.39499998092651,14.907000541687,11.9190006256104,9.23700046539307,-0.27788749337196,-2.88571238517761,-4.59428739547729,-66.9370498657227,-58.5859527587891,-28.1700019836426,-3.62229990959167,-3.46101236343384,-16.838249206543,7.92701244354248,11.9882125854492,11.2829751968384,-78.3660049438477,-58.8679542541504,-17.3809509277344,-47.3029518127441,-40.101001739502,36.2820014953613,-7.59893751144409,-6.38261222839355,-4.17078733444214,16.2649517059326,11.4769506454468,10.2130508422852,-10.7621250152588,-9.37447452545166,3.15727496147156,16.6113758087158,17.07200050354,21.7700996398926,-2.51805019378662,-3.09300017356873,-1.06200003623962,2.95500016212463,3.49095010757446,5.36805009841919,5.26487493515015,2.65746259689331,0.77852499485016,0.25304999947548,-1.62300002574921,-1.50795006752014,2.87333750724792,3.93923759460449,5.66197490692139,14.3361625671387,10.6325998306274,9.75411224365234,-0.56400001049042,-0.06599999964237,0.50700002908707,9.08400058746338,10.0420503616333,10.6930503845215,SWING_LEFT
-1.90313744544983,-2.04778742790222,-2.21705007553101,1.55505001544952,3.50895023345947,5.07900047302246,-0.00164999999106,0.00508749997243,0.2050125002861,-0.37936249375343,-0.57172501087189,-0.89196246862411,3.30405020713806,3.61005020141602,3.15000009536743,7.70505046844482,7.70505046844482,8.05005073547363,-3.01881241798401,-2.95226240158081,-2.85903739929199,3.81495022773743,-0.58905005455017,-2.84895014762878,0.00412499997765,-0.30250000953674,-1.44003748893738,-2.48751258850098,-2.44626259803772,-1.31876254081726,0.62205004692078,-0.7180500626564,-3.51405024528503,8.08800029754639,8.05005073547363,5.67495012283325,-5.2141375541687,-6.38962507247925,-7.66149997711182,-65.4810028076172,-58.2030029296875,-38.2830009460449,0.68199998140335,3.90527486801147,10.1092748641968,10.3959627151489,12.5573253631592,15.7882995605469,-78.3660049438477,-39.2929534912109,-33.0870018005371,-54.2749519348145,-54.2749519348145,27.6630020141602,-8.56075000762939,-6.32032489776611,-4.18440008163452,19.0620002746582,1.47900009155273,6.26700019836426,19.0129489898682,16.6007881164551,6.52299976348877,27.4432125091553,30.0554370880127,26.3185997009277,-2.47995018959045,-3.706050157547,-1.78995013237,-2.75205016136169,3.64395022392273,10.4629507064819,4.11647510528564,3.49690008163452,2.40638756752014,-0.47400003671646,-2.27505016326904,-1.93005013465881,5.01407480239868,5.9328498840332,6.36652517318726,9.50716209411621,7.97004985809326,7.85344982147217,-1.13895010948181,-1.06200003623962,-0.56400001049042,9.58200073242188,10.0800008773804,10.5400505065918,SWING_LEFT
-1.30418753623962,-1.29181253910065,-1.25606250762939,4.04505014419556,3.31695008277893,4.58100032806396,-0.00123749999329,-0.23168750107288,-0.46048748493195,-0.76298749446869,-0.862124979496,-0.97184997797012,2.07795000076294,1.732950091362,0.96705007553101,10.0030508041382,9.65895080566406,9.58200073242188,-1.4557124376297,-1.80248749256134,-2.04325008392334,8.22105026245117,-4.68795013427734,-9.40005016326904,-1.86106252670288,-2.56781244277954,-4.32643747329712,-2.04187488555908,-1.94851243495941,0.00233749998733,-1.98195004463196,-2.44095015525818,-4.27995014190674,9.61995029449463,8.08800029754639,0.77100002765656,-7.06145000457764,-8.34253787994385,-9.7491626739502,-59.4670524597168,-54.9850540161133,-45.1399536132813,1.96872496604919,4.59263753890991,7.86101245880127,13.4920501708984,15.1258249282837,16.3167133331299,-78.3660049438477,-38.3740501403809,-34.2750015258789,-72.0109558105469,-72.0109558105469,21.3810005187988,-7.12978744506836,-2.93919992446899,-0.56155002117157,0.55905002355576,0.75105005502701,7.03305053710938,15.4303874969482,14.104887008667,9.74448776245117,23.9223880767822,28.5927124023438,28.4242744445801,-4.93095016479492,-4.4719500541687,-0.83295005559921,0.42705002427101,9.50505065917969,12.6079502105713,6.58803749084473,5.17728757858276,3.33465003967285,0.483000010252,-1.04895007610321,-0.74205005168915,5.16326236724854,6.14143753051758,6.68538761138916,11.9937124252319,9.04956245422363,8.3271369934082,-1.59900009632111,-1.25400006771088,-1.44495010375977,6.78600025177002,10.0800008773804,10.6930503845215,SWING_LEFT
-1.41556251049042,-1.13052499294281,-0.84892499446869,1.1340000629425,1.63200008869171,1.40205001831055,0.58368748426437,0.00467499997467,-0.00508749997243,-1.22897493839264,-1.34475004673004,-1.26596248149872,3.07395005226135,3.07395005226135,2.95905017852783,9.77400016784668,9.58200073242188,9.42900085449219,0.00206249998882,0.00206249998882,-0.00522499997169,2.43600010871887,3.77700018882751,8.56500053405762,-0.25464999675751,-0.23168750107288,-0.25368750095367,-0.69354999065399,-0.85978752374649,-1.17163753509521,-0.18105000257492,-0.37305000424385,-0.25800001621246,11.3059501647949,13.2210006713867,15.4050006866455,-0.26358750462532,-0.35461249947548,-0.97913748025894,-63.6040534973145,-74.9820022583008,-66.1710052490234,-2.18418741226196,-2.83373737335205,-12.9958124160767,0.00646249996498,7.9997501373291,10.4966125488281,-78.3660049438477,-25.7710514068604,-26.8810520172119,-68.0659561157227,-53.7390022277832,38.3509521484375,-3.61748743057251,-3.91737508773804,-1.18470001220703,1.36395001411438,-6.06705045700073,11.0550003051758,-10.7677621841431,-10.1481876373291,-6.99256229400635,17.9986114501953,17.0820369720459,15.7574996948242,0.00900000054389,-0.33495002985001,0.77505004405975,-1.2960000038147,4.79400014877319,7.78200054168701,5.87564992904663,4.75859975814819,1.99691247940063,-1.50795006752014,-1.77705013751984,1.17195010185242,1.76178753376007,2.26668739318848,2.4835250377655,15.7272500991821,14.8526124954224,14.7896375656128,-0.10500000417233,0.43095001578331,0.96705007553101,6.82395029067993,12.4930505752563,12.4930505752563,SWING_LEFT
0.00178749999031,-0.00027499999851,-0.16568750143051,1.66995012760162,1.78500008583069,3.04905009269714,-0.00013749999925,0.00302499998361,0.00439999997616,-0.00632499996573,-0.00659999996424,-0.19552500545979,1.732950091362,1.12005007266998,-0.7180500626564,10.1179504394531,10.6930503845215,11.19105052948,-0.35516250133514,-0.2253624945879,-0.00164999999106,9.17805004119873,8.6419506072998,2.81895017623901,-0.71060001850128,-1.48417496681213,-2.10938739776611,-2.29446244239807,-2.82205009460449,-2.52944993972778,-5.23800039291382,-1.98195004463196,-1.25400006771088,16.0939502716064,5.8279504776001,-0.33900001645088,-0.97047501802444,-2.88584995269775,-5.91346263885498,-49.6219520568848,-40.8120002746582,-19.4740505218506,-0.71389997005463,4.38886260986328,9.86878776550293,12.8535003662109,16.469612121582,19.4126625061035,-58.255054473877,-42.8560523986816,-24.2770519256592,-22.0590019226074,-15.0480003356934,25.2109508514404,-6.2543249130249,-4.83202505111694,-4.49831247329712,17.7589511871338,15.5760011672974,13.0470008850098,24.6977500915527,16.1233882904053,11.7136249542236,20.3438129425049,27.6571617126465,25.4369506835938,1.92495012283325,-0.29595002532005,-0.60300004482269,3.64395022392273,7.20705032348633,8.47095012664795,-5.22513723373413,-5.87303733825684,-5.03483724594116,2.58900022506714,0.71205002069473,-0.70395004749298,5.20052480697632,6.33242511749268,5.61343765258789,12.7612371444702,4.03961229324341,4.08966255187988,0.20100000500679,0.69900006055832,0.62205004692078,9.58200073242188,9.58200073242188,9.31395053863525,SWING_LEFT
-4.37772512435913,-4.70387506484985,-4.89486265182495,-2.35095000267029,-1.20195007324219,0.29100000858307,1.59706246852875,1.91276252269745,2.15091252326965,0.91904997825623,0.96332502365112,0.86116248369217,5.02695035934448,5.10405015945435,4.64400005340576,7.9350004196167,8.24100017547607,9.00705051422119,-2.63697504997253,-1.76838743686676,-0.88907498121262,2.58900022506714,4.19805002212524,5.8840503692627,0.80121248960495,-0.3980624973774,-0.88041251897812,-1.214674949646,-1.81843745708466,-1.88347494602203,2.15400004386902,0.69900006055832,1.12005007266998,10.9230003356934,12.1099510192871,12.1099510192871,1.35080003738403,0.76188749074936,-1.90657496452332,-43.3399505615234,-37.2490501403809,6.03705024719238,-2.1319375038147,-2.54677510261536,-7.3665623664856,5.85777473449707,8.27461242675781,9.44652462005615,-43.7749519348145,-21.5569515228271,-17.1900005340576,-26.8470020294189,-9.91500091552734,35.0560531616211,-6.94787502288818,-7.99095010757446,-8.07977485656738,7.99095058441162,4.46700000762939,3.96900010108948,-12.8848495483398,-13.0747375488281,-4.62041234970093,14.9481744766235,21.5412998199463,22.9332122802734,2.92095017433167,0.73695003986359,0.50700002908707,-6.4680004119873,1.84395003318787,4.41105031967163,-3.96137499809265,-3.22547507286072,-4.43698740005493,0.55905002355576,-0.47400003671646,0.75105005502701,0.83008748292923,2.73707509040833,2.65127491950989,7.5153374671936,5.82999992370605,7.29629993438721,0.54495000839233,0.23895001411438,0.58395004272461,7.24500036239624,7.24500036239624,10.1179504394531,SWING_LEFT
-1.23708748817444,-1.06342494487762,-0.88907498121262,-0.20595000684261,-0.05295000225306,0.483000010252,-0.67773747444153,-0.55343747138977,-0.42501249909401,-0.89911252260208,-1.04843747615814,-1.04967498779297,1.46505010128021,1.69500005245209,1.61805009841919,10.5780000686646,10.6930503845215,10.6930503845215,-0.32958748936653,-0.34993749856949,-0.45993748307228,7.72305059432983,11.0550003051758,11.5530004501343,0.007012499962,0.00453749997541,-0.1545500010252,-2.05535006523132,-2.59916257858276,-3.08068752288818,-1.98195004463196,-5.12295007705688,-3.36105012893677,12.2640008926392,12.2640008926392,12.0340509414673,-1.5743750333786,-2.86852502822876,-4.06628751754761,-52.3039512634277,-29.8170013427734,2.7810001373291,-3.32626247406006,-8.80178737640381,-11.9638748168945,5.46053743362427,9.6321496963501,10.0838375091553,-56.263053894043,-13.3210506439209,-6.50205039978027,-27.6130504608154,28.0080013275146,19.9249515533447,-4.26071262359619,-4.90256261825562,-4.31282520294189,5.3860502243042,6.64995050430298,12.1660509109497,-13.5357751846313,-11.5090246200562,-7.3180251121521,19.9966239929199,20.5968132019043,21.4042129516602,-0.06599999964237,-0.79395002126694,0.58395004272461,-5.39505004882813,-1.83195006847382,9.08400058746338,-4.04401254653931,-3.67179989814758,-3.13719987869263,-0.58905005455017,0.59700000286102,0.52095001935959,-3.02087497711182,0.5545374751091,0.50503748655319,9.06578731536865,8.11882495880127,10.0094499588013,1.42695009708405,1.27305006980896,1.19700002670288,7.4370002746582,8.24100017547607,12.3780002593994,SWING_LEFT
-0.23017500340939,-0.19346250593662,-0.16486249864101,1.55505001544952,1.47900009155273,1.44000005722046,-0.20831249654293,-0.28311249613762,-0.30621248483658,-0.38953748345375,-0.41717499494553,-0.43807500600815,1.61805009841919,1.69500005245209,1.92495012283325,10.4250001907349,10.3870506286621,10.0420503616333,-0.51644998788834,-0.62796247005463,-0.76367497444153,8.6419506072998,11.4769506454468,16.1500511169434,-0.00082499999553,-0.27761250734329,-0.76807498931885,-1.03042495250702,-2.13702487945557,-2.64701247215271,-7.80405044555664,-7.57500028610229,-5.62095022201538,11.19105052948,13.1830501556396,12.3019504547119,-0.79763752222061,-1.44595003128052,-3.42842507362366,-57.7050018310547,-60.577953338623,-32.8440017700195,-5.02672481536865,-3.88492488861084,0.17765000462532,8.22002506256104,11.6700372695923,15.7031869888306,-75.4169998168945,-58.6380043029785,-20.9820003509521,-38.4930000305176,-37.3429527282715,-22.8250503540039,-4.44771242141724,-3.67289996147156,-2.7885000705719,18.1039505004883,6.26700019836426,5.73105049133301,22.3817005157471,19.4511623382568,5.63145017623901,23.2417621612549,31.4949245452881,27.8653373718262,6.40605020523071,0.00900000054389,-1.06200003623962,-7.23405027389526,-3.05805015563965,0.73305004835129,2.61511254310608,1.83823752403259,0.18026250600815,5.61600017547607,1.17195010185242,-1.20195007324219,1.30075001716614,2.11681246757507,4.27721261978149,17.9837627410889,10.5175123214722,6.26807498931885,-0.33495002985001,0.58395004272461,0.69900006055832,13.068000793457,10.0030508041382,9.00705051422119,SWING_LEFT
-0.15895000100136,-0.29012501239777,-0.48207500576973,3.39405012130737,3.81495022773743,4.8880500793457,-0.51713746786118,-0.45347499847412,-0.40122500061989,-0.00013749999925,-0.00192499998957,-0.20198750495911,2.00100016593933,1.732950091362,0.73695003986359,9.31395053863525,8.66295051574707,8.47095012664795,-1.82105004787445,-2.04874992370605,-2.02303743362427,8.02905082702637,7.30095052719116,3.77700018882751,-1.01021254062653,-1.54316246509552,-3.73339986801147,-2.24331259727478,-2.57028746604919,-2.28318738937378,-4.8550500869751,-6.23400020599365,-0.67905002832413,8.20305061340332,9.31395053863525,-0.87495005130768,-4.47603750228882,-6.52767515182495,-7.12346267700195,-49.0090522766113,-34.2229499816895,-24.340051651001,-2.79042506217957,1.07401251792908,5.08598756790161,14.9221878051758,17.8532752990723,20.2758865356445,-62.086051940918,-53.0449523925781,-24.3529510498047,-27.4219512939453,-17.1169509887695,-1.64100003242493,-7.73134994506836,-3.59479999542236,-3.3324499130249,29.5579509735107,5.65395021438599,4.00695037841797,18.6361999511719,14.9413003921509,9.02838706970215,20.5038623809814,29.6502246856689,30.7731876373291,3.8779501914978,1.08195006847382,-1.71405005455017,-2.63700008392334,-2.63700008392334,9.58200073242188,1.44801247119904,0.3948999941349,0.00412499997765,4.31295013427734,0.90405005216599,-0.74205005168915,6.39127492904663,7.69711256027222,7.39447498321533,19.7884502410889,6.71054983139038,5.53767490386963,-0.83295005559921,-0.37305000424385,0.12405000627041,7.4370002746582,7.4370002746582,8.08800029754639,SWING_LEFT
-0.26565000414848,-0.24406249821186,-0.22522500157356,1.70805013179779,1.93800008296967,1.8229501247406,0.22274999320507,0.17434999346733,0.00563749996945,-0.23636250197887,-0.33357501029968,-0.36822500824928,0.27705001831055,0.46905001997948,0.77505004405975,10.6930503845215,10.5010509490967,10.1569509506226,-0.25671249628067,-0.26647499203682,-0.28146249055862,7.33995056152344,11.6299505233765,13.3920001983643,-0.0042624999769,-0.16238750517368,-0.66233748197556,-0.60486251115799,-1.18786251544952,-2.51968741416931,-4.70205020904541,-7.57500028610229,-9.79605007171631,13.2600002288818,13.4130010604858,12.6079502105713,-0.63208746910095,-0.47107499837875,-0.20982499420643,-6.02895021438599,-12.4260005950928,-28.6300506591797,-3.61336255073547,-4.8449501991272,-5.72646236419678,-1.3113374710083,1.75010001659393,7.36009979248047,-6.61695051193237,-15.6960010528564,-29.3710517883301,-18.2280006408691,-25.5060005187988,-25.5060005187988,-4.06161260604858,-3.61432504653931,-2.81888747215271,-12.5790004730225,26.7610511779785,26.6460018157959,16.6959381103516,20.8720874786377,25.3435878753662,30.6669006347656,32.2903633117676,28.3245868682861,-16.0020008087158,-14.3550004959106,1.38795006275177,26.2840518951416,26.2840518951416,6.97695016860962,3.12812495231628,5.90218734741211,4.48428726196289,11.7829504013062,8.48895072937012,5.23305034637451,5.80841255187988,4.4068751335144,3.80984997749329,27.3827114105225,24.9308128356934,22.7695865631104,-0.79395002126694,-0.90900003910065,-1.6750500202179,9.46695041656494,11.7270002365112,11.7270002365112,SWING_LEFT
-1.27778744697571,-1.70458745956421,-1.91069996356964,2.43600010871887,3.27900004386902,3.66195011138916,0.27829998731613,0.22714999318123,0.00247499998659,0.45993748307228,0.2773374915123,-0.31446251273155,1.35000002384186,1.12005007266998,-0.41100001335144,11.1529502868652,11.5740003585815,10.8460502624512,-2.46056246757507,-2.47486257553101,-2.49933743476868,9.86805057525635,7.64595031738281,4.08300018310547,-1.13520002365112,-1.60654997825623,-2.25499987602234,-1.59004998207092,-1.65783751010895,-1.61864995956421,-2.59500002861023,-6.34905052185059,0.27705001831055,8.28000068664551,8.28000068664551,7.39905023574829,-4.60212516784668,-7.77122497558594,-8.52513790130615,-65.7499542236328,-38.7430534362793,-15.1069507598877,-2.38507509231567,1.76495003700256,14.0467252731323,10.8807878494263,14.2150249481201,21.1793994903564,-72.1609497070313,-43.2769508361816,-22.7059516906738,-35.2360534667969,-32.7460517883301,36.435001373291,-7.06461238861084,-5.73388767242432,-5.27807474136353,17.7210006713867,7.76100015640259,9.60000038146973,19.1933498382568,15.559775352478,10.5228748321533,5.94453763961792,3.2184624671936,0.62424999475479,0.8520000576973,-1.78995013237,-2.25,-0.68295001983643,0.4650000333786,2.57205009460449,-12.5754747390747,-13.4406251907349,-13.5269746780396,-1.73805010318756,-3.23205018043518,-1.39305007457733,6.75111246109009,5.97162485122681,5.63337516784668,-3.65805006027222,3.511887550354,6.4306001663208,-0.90900003910065,-0.06599999964237,0.27705001831055,10.9990501403809,9.04605007171631,10.1569509506226,SWING_LEFT
-0.30538749694824,-0.34581249952316,-0.40081250667572,5.23305034637451,5.11800003051758,5.80695009231567,-0.23017500340939,-0.33027499914169,-0.44811248779297,-0.81716251373291,-1.09972500801086,-1.36056244373322,-3.13095021247864,-5.889000415802,-8.6089506149292,11.8039503097534,12.2640008926392,12.2640008926392,-1.04678750038147,-1.28713750839233,-1.26348745822906,11.1700506210327,-0.28305000066757,-4.07505035400391,-2.13908743858337,-2.66103744506836,-4.85223770141602,-2.3365375995636,-2.01959991455078,0.55412501096725,-10.371000289917,-13.9339504241943,-10.7920503616333,8.5090503692627,7.47495031356812,-17.5000514984131,-4.39078760147095,-6.11654996871948,-5.3428373336792,-56.2110023498535,-38.5129508972168,-19.7040004730225,1.89530003070831,6.89961242675781,11.4076871871948,23.7219123840332,27.0701751708984,29.130199432373,-61.8180046081543,-44.3880004882813,-18.6840000152588,-26.6170520782471,-26.6170520782471,-8.49795055389404,-1.34268748760223,1.5382125377655,0.74414998292923,15.8820009231567,16.1119499206543,13.123950958252,18.351713180542,11.11838722229,4.80273723602295,33.094051361084,32.5608253479004,28.7223739624023,0.92895007133484,0.43095001578331,-1.1010000705719,-3.21195006370544,-3.5179500579834,-2.48400020599365,0.88770002126694,0.00082499999553,-0.6484500169754,-2.92605018615723,-4.18994998931885,-2.84895014762878,2.36362504959106,2.30106258392334,3.9725124835968,3.36654996871948,0.88632500171661,3.48589992523193,-0.29595002532005,1.57995009422302,1.77105009555817,15.481050491333,11.2680006027222,9.50505065917969,SWING_LEFT
-1.63061249256134,-2.050950050354,-2.19491243362427,3.62400007247925,2.35995006561279,2.7810001373291,0.00494999997318,0.00522499997169,0.17228749394417,-0.00646249996498,-0.30841249227524,-0.72668749094009,2.26905012130737,2.30805015563965,2.99700021743774,7.51305055618286,7.51305055618286,8.24100017547607,-2.63037490844727,-2.76705002784729,-2.92654991149902,2.62800002098084,2.62800002098084,1.1340000629425,0.33948749303818,0.32229998707771,0.25671249628067,-1.23804998397827,-1.08308744430542,-0.88096249103546,2.92095017433167,2.46105003356934,0.46905001997948,9.69705009460449,11.1139507293701,12.9150009155273,-3.37479996681213,-3.47778749465942,-3.66121244430542,-25.5270004272461,-38.4370536804199,-20.1259517669678,-1.24602496623993,-2.43374991416931,-5.95979976654053,5.41158723831177,7.10187482833862,9.10552501678467,-38.6800537109375,-27.8770503997803,-13.206000328064,-20.4109516143799,-5.62500047683716,32.451000213623,-3.10804986953735,-4.0880126953125,-5.58483743667603,15.1930503845215,13.6990509033203,11.4769506454468,-7.51011228561401,-6.78246259689331,-5.20423746109009,20.4410247802734,20.8188743591309,20.4620628356934,1.27305006980896,1.19700002670288,0.43095001578331,-0.8359500169754,1.53795003890991,3.49095010757446,-11.0313501358032,-9.88171291351318,-8.31215000152588,-3.46200013160706,0.59700000286102,1.59300005435944,-0.57351249456406,2.61277508735657,4.31282520294189,8.26003742218018,6.15780019760132,10.2290372848511,0.50700002908707,0.92895007133484,1.04295003414154,10.5400505065918,9.5440502166748,10.2720003128052,SWING_LEFT
-0.72118747234344,-0.83366250991821,-0.93321251869202,3.7390501499176,3.01095008850098,2.85795021057129,-0.00096249999478,-0.00123749999329,-0.00206249998882,-1.01007497310638,-0.4657124876976,-0.24887499213219,0.88995003700256,-1.02404999732971,-1.63695013523102,8.05005073547363,9.08400058746338,9.77400016784668,-1.10632503032684,-1.05723750591278,-0.76614999771118,3.35595011711121,0.71205002069473,-2.65800023078919,-0.96813750267029,-1.294837474823,-1.65110003948212,0.00439999997616,0.40232500433922,1.00938749313354,-4.70205020904541,-5.62095022201538,-11.0220003128052,10.7700004577637,10.7700004577637,11.9569501876831,-1.93586254119873,-3.34056258201599,-4.56829977035522,-60.1950035095215,-45.7920036315918,-15.4519510269165,-1.43302500247955,-2.95129990577698,-6.92752504348755,10.0868625640869,12.3206872940063,11.1810874938965,-69.3640518188477,-11.5590009689331,-18.2620506286621,-36.0409507751465,-6.85095024108887,49.9960517883301,-6.08093738555908,-5.92061233520508,-2.76979994773865,15.0780010223389,15.0010509490967,15.6139507293701,-7.76723766326904,-7.42637491226196,-4.21698760986328,14.8999128341675,17.3890743255615,18.9883365631104,0.27705001831055,-0.48795002698898,-0.60300004482269,-4.05404996871948,-3.82395029067993,-0.95100003480911,0.64968746900558,0.33137500286102,-0.79997497797012,-4.07505035400391,-2.88705015182495,-0.58905005455017,-0.35241249203682,1.6637499332428,3.4568874835968,11.2437877655029,5.00623750686646,7.22095012664795,-1.36905002593994,0.00900000054389,0.92895007133484,14.4090003967285,8.89305019378662,8.89305019378662,SWING_LEFT
-0.76174998283386,-0.86322498321533,-0.95796251296997,4.96500015258789,4.54305028915405,4.54305028915405,-0.36836248636246,-0.4131875038147,-0.49252501130104,-0.55013751983643,-0.53473746776581,-0.54023748636246,-1.06200003623962,-1.36905002593994,-0.52605003118515,11.6509504318237,10.0030508041382,9.35205078125,-1.40992498397827,-1.70211243629456,-1.92293751239777,3.20205020904541,-0.47400003671646,-2.54295015335083,-1.44361245632172,-1.87893748283386,-3.29683756828308,-0.59262502193451,-0.33371248841286,1.19817495346069,-1.86705005168915,-2.25,-1.48395001888275,9.8500509262085,6.28800010681152,-2.10105013847351,-8.29991245269775,-10.3174495697021,-11.6336002349854,-48.0900039672851,-39.7770004272461,-23.803050994873,2.58238744735718,5.35452508926392,8.95248699188232,13.6479749679565,15.0825128555298,16.2542877197266,-60.5539512634277,-34.3900527954102,-24.4680004119873,-28.2640514373779,6.44100046157837,34.1749534606934,-8.34941291809082,-3.46651244163513,-2.69321250915527,28.0249519348145,7.95195055007935,2.70405006408691,18.2814502716064,14.8027000427246,10.2990245819092,17.7398376464844,27.5500507354736,26.1315994262695,4.91295003890991,2.88195013999939,-2.78595018386841,-4.32195043563843,-4.32195043563843,6.59400033950806,-1.16943752765656,-2.13812494277954,-2.65237498283386,1.1340000629425,-0.09105000644922,0.36795002222061,4.86351251602173,5.51608753204346,4.82735013961792,7.97623729705811,5.25263738632202,6.14212512969971,-0.14295001327991,0.3160500228405,0.43095001578331,10.0420503616333,7.28400039672852,7.28400039672852,SWING_LEFT
-0.44041249155998,-0.47244998812675,-0.52249997854233,1.97700011730194,1.97700011730194,1.36395001411438,0.00536249997094,0.00673749996349,0.18273749947548,-0.37042498588562,-0.18796250224113,0.00109999999404,1.96305012702942,1.81005012989044,1.50300002098084,9.92700004577637,9.8500509262085,9.46695041656494,-0.98395001888275,-1.1779625415802,-1.23612499237061,6.64995050430298,11.1700506210327,3.96900010108948,0.36547499895096,0.27335000038147,-0.19208750128746,-0.53074997663498,-1.09958744049072,-1.97876250743866,1.23495006561279,0.00900000054389,-1.6750500202179,11.9190006256104,11.6509504318237,8.05005073547363,-0.93596249818802,-1.2531750202179,-2.10141253471375,-49.3159523010254,-46.2130508422851,-34.873950958252,-1.63006246089935,-1.76660001277924,-3.35046243667603,7.69656229019165,10.4726877212524,12.3748626708984,-54.0409507751465,-46.9159507751465,-17.5350017547607,-27.1540508270264,-17.9599514007568,-0.49200001358986,-4.66496229171753,-6.75826263427734,-6.87967491149902,19.8660011291504,10.5960006713867,10.135950088501,-6.15917491912842,-6.38646268844604,-3.80215001106262,12.5017747879028,19.0768871307373,20.9255752563477,1.38795006275177,0.43095001578331,-1.25400006771088,-3.90105009078979,-3.90105009078979,3.60600018501282,-3.38139986991882,-2.75467491149902,-1.99650001525879,-3.19395017623901,-2.1979501247406,-0.62700003385544,0.00013749999925,2.0266125202179,3.25916242599487,12.7199878692627,8.24312496185303,9.39812469482422,-0.7180500626564,0.54495000839233,1.00499999523163,10.3480501174927,8.66295051574707,8.66295051574707,SWING_LEFT
-0.80849999189377,-0.79447501897812,-0.77976250648499,0.06105000153184,0.44400003552437,1.86195003986359,0.00206249998882,0.00261249998584,0.00371249997988,0.55605000257492,0.59262502193451,0.54766249656677,0.00900000054389,0.58395004272461,0.66000002622604,9.46695041656494,9.46695041656494,10.6930503845215,-0.86281251907349,-0.96525001525879,-1.08143746852875,2.28299999237061,3.08700013160706,3.47100019454956,0.00481249997392,0.00316249998286,0.00027499999851,-0.51218748092651,-0.77439999580383,-0.99247497320175,1.08195006847382,1.61805009841919,0.16200000047684,11.1529502868652,11.3830509185791,12.6469507217407,-1.74817502498627,-2.13908743858337,-2.48324990272522,-25.3740005493164,-40.6579513549805,-20.3940010070801,-0.0042624999769,-0.0054999999702,-2.70063757896423,2.66254997253418,4.65355014801025,8.21548748016357,-45.1159515380859,-25.0039520263672,-19.795051574707,-19.1089515686035,-4.05404996871948,30.5359516143799,-3.16043758392334,-4.3191499710083,-5.94233751296997,11.2470006942749,18.4870510101318,20.556001663208,-6.79263734817505,-5.00156259536743,-2.70627498626709,-7.96166229248047,-12.9522247314453,-15.7562627792358,-0.25800001621246,-1.02404999732971,-1.21605002880096,-7.46400022506714,-5.43300008773804,-2.17695021629334,-10.1854496002197,-9.22501277923584,-7.88163757324219,-7.40805053710938,2.206050157547,3.66195011138916,1.48527503013611,0.52854996919632,3.52178740501404,-13.7765378952026,-6.33599996566772,4.5101375579834,1.12005007266998,1.31205010414124,0.96705007553101,11.5360507965088,8.62395000457764,9.19905090332031,SWING_LEFT
0.80217498540878,0.61489999294281,0.48894998431206,1.78500008583069,3.50895023345947,3.93000030517578,-0.38513749837875,-0.26358750462532,-0.0027499999851,0.18314999341965,-0.00467499997467,-0.63841247558594,0.62205004692078,0.8520000576973,-0.06599999964237,8.89305019378662,9.65895080566406,8.54805088043213,-0.00357499998063,-0.00618749996647,-0.16307500004768,7.45395040512085,5.99895048141479,2.93400025367737,0.00563749996945,0.00563749996945,0.00357499998063,-1.35492503643036,-1.3252249956131,-1.08721244335175,-0.14295001327991,-1.29195010662079,0.3160500228405,13.6810503005981,13.8720006942749,13.7580003738403,-0.4961000084877,-0.97652500867844,-1.35052502155304,-23.1520519256592,-44.8720512390137,-36.8280029296875,-0.35062500834465,-0.39531248807907,-1.81885004043579,3.87474989891052,5.9519624710083,9.09548759460449,-39.1009521484375,-40.1359519958496,-13.7040004730225,-20.6800518035889,-8.91900062561035,13.068000793457,-1.80235004425049,-2.32526254653931,-3.31333756446838,9.79095077514648,11.0940008163452,22.0110015869141,-9.52517509460449,-8.93351268768311,-7.65008735656738,-6.07131242752075,-12.0207996368408,-14.4515247344971,-0.75600004196167,0.8520000576973,-0.33495002985001,-1.64100003242493,1.72905004024506,6.09600019454956,-12.2523498535156,-12.8007001876831,-11.6649503707886,-1.89105010032654,-2.46600008010864,-1.39305007457733,3.59658741950989,6.68827486038208,6.85891246795654,-9.81708717346191,1.1035749912262,7.89401245117188,0.92895007133484,1.46505010128021,1.84800004959106,11.3059501647949,11.3059501647949,11.5360507965088,SWING_LEFT
-1.17782497406006,-1.18648743629456,-1.17218744754791,2.13000011444092,1.97700011730194,2.89605021476746,-0.17022499442101,-0.30511251091957,-0.40892499685287,0.00371249997988,-0.00563749996945,-0.26372501254082,2.46105003356934,2.42295002937317,2.34600019454956,9.73500061035156,10.195050239563,10.195050239563,-1.04238748550415,-1.05173754692078,-1.08982503414154,5.99895048141479,6.34395027160645,4.58100032806396,-0.84067499637604,-0.88673746585846,-0.92729997634888,-1.08294999599457,-1.32316243648529,-1.5081000328064,2.07795000076294,2.65200018882751,3.6870002746582,12.0340509414673,12.0340509414673,11.3059501647949,-1.4803249835968,-2.04132509231567,-2.90771245956421,-55.7509536743164,-47.2470016479492,-9.5149507522583,-0.91451251506805,-6.92078733444214,-9.95018768310547,5.71202516555786,11.420337677002,12.4931125640869,-57.5659523010254,-15.5040006637573,-3.05400013923645,-22.8250503540039,19.0819511413574,19.0819511413574,-4.26456260681152,-5.13823747634888,-4.16418743133545,11.1700506210327,18.4870510101318,13.2769508361816,-7.81233739852905,-4.43795013427734,0.70331251621246,24.4568500518799,23.7441883087158,23.5485248565674,1.61805009841919,1.27305006980896,-0.29595002532005,3.07005023956299,3.07005023956299,3.7590000629425,-6.10362482070923,-5.01641225814819,-3.8836874961853,-1.35495007038116,-0.12900000810623,0.59700000286102,5.1727499961853,7.07547473907471,6.48601245880127,8.62784957885742,8.24697494506836,8.83712482452393,1.61805009841919,1.77105009555817,1.50300002098084,9.96495056152344,10.7310009002686,10.195050239563,SWING_LEFT
-0.63868749141693,-0.73809999227524,-0.82087498903275,1.40205001831055,1.36395001411438,2.74305009841919,-0.00247499998659,0.0,0.00261249998584,-0.0054999999702,-0.00673749996349,-0.34031251072884,2.76705002784729,2.53695011138916,1.12005007266998,8.73900032043457,8.73900032043457,9.39105033874512,-0.91038751602173,-0.8068500161171,-0.64638751745224,9.29295063018799,7.30095052719116,6.11400032043457,-0.83819997310638,-1.27215003967285,-1.78667497634888,-2.65553736686707,-2.95652508735657,-2.96009993553162,-1.59900009632111,-0.94695001840591,-1.25400006771088,13.9489507675171,13.1830501556396,11.4970502853394,-0.29452499747276,-2.23313736915588,-4.02063751220703,-17.635950088501,-69.7339553833008,-60.3870010375977,-4.23747491836548,-3.71580004692078,-4.60803747177124,4.08842515945435,7.77603769302368,12.7870874404907,-53.428050994873,-68.8660507202148,-15.6960010528564,-29.2219505310059,-8.72805023193359,-6.4680004119873,-6.38522481918335,-6.37422513961792,-6.00600004196167,9.02505016326904,5.69205045700073,10.5960006713867,-9.29651260375977,-6.28210020065308,-5.58236265182495,8.20366287231445,16.975887298584,18.3775615692139,-1.02404999732971,0.43095001578331,2.46105003356934,-1.56405007839203,0.12000000476837,0.12000000476837,-6.7739372253418,-8.6796875,-8.84317493438721,6.03705024719238,1.90005004405975,0.6360000371933,5.2007999420166,5.74158763885498,10.4656753540039,19.0851383209229,14.8350124359131,3.91531252861023,2.34600019454956,3.03495025634766,3.30405020713806,11.4970502853394,13.6810503005981,9.42900085449219,SWING_LEFT
-0.64955002069473,-0.79337501525879,-0.83160001039505,2.05305004119873,0.94200003147125,1.66995012760162,0.18397499620914,0.00398749997839,-0.15317499637604,-0.34856250882149,-0.34402498602867,-0.40287500619888,2.6140501499176,2.57595014572144,2.07795000076294,9.39105033874512,9.00705051422119,9.27600002288818,-0.80299997329712,-0.82183748483658,-0.84521251916885,4.46700000762939,5.04105043411255,5.99895048141479,-0.56952500343323,-0.66165000200272,-0.83132499456406,-1.42642498016357,-1.66058754920959,-1.84236252307892,2.07795000076294,1.96305012702942,-1.06200003623962,11.7270002365112,11.6509504318237,11.6509504318237,-1.64078748226166,-3.43983745574951,-4.85058736801147,-49.3540534973145,-63.987003326416,-41.3860511779785,-1.70541250705719,-1.08432495594025,-2.53110003471375,4.77248764038086,8.18977451324463,12.2864503860474,-78.3660049438477,-29.5630512237549,-7.23000049591064,-58.2589530944824,-25.582950592041,25.4029502868652,-8.38640022277832,-7.41812515258789,-5.8005747795105,0.17595000565052,8.296950340271,12.6259508132935,4.08856248855591,4.12788724899292,4.30924987792969,15.3969745635986,15.5813627243042,16.1475868225098,-0.14295001327991,0.58395004272461,3.15000009536743,1.84395003318787,3.30000019073486,5.48295021057129,2.66337490081787,-1.28108751773834,-2.33419990539551,2.35995006561279,0.59700000286102,1.21005010604858,4.59964990615845,4.9354248046875,5.83371257781982,16.4080123901367,14.9565620422363,12.7198495864868,2.30805015563965,2.07795000076294,1.732950091362,9.58200073242188,10.2330007553101,10.6549501419067,SWING_LEFT
-0.67278748750687,-0.78457498550415,-0.86872500181198,1.8229501247406,0.25304999947548,1.36395001411438,-0.37606251239777,-0.33123749494553,-0.17242500185966,-0.29878750443459,-0.25244998931885,-0.0042624999769,2.80605006217957,2.88195013999939,2.76705002784729,9.50505065917969,8.70105075836182,9.12195014953613,-1.55113744735718,-1.72273743152618,-1.87618744373322,4.77300024032593,7.72305059432983,10.9399509429932,0.00384999997914,-0.00206249998882,-0.32106250524521,-0.60720002651215,-1.14303743839264,-1.71819996833801,-0.67905002832413,-0.52605003118515,-1.52205002307892,12.9910507202148,15.2130002975464,15.2130002975464,-1.6493124961853,-2.57963752746582,-3.61693739891052,-42.9949531555176,-53.836051940918,-35.9470520019531,-2.86261248588562,-2.57028746604919,-12.3855876922607,3.96577501296997,7.54036235809326,10.8549375534058,-78.3660049438477,-37.0710029602051,-16.6920013427734,-36.3859519958496,-31.0990524291992,14.8300504684448,-6.33723735809326,-6.50292491912842,-5.86753749847412,1.40205001831055,-3.96000027656555,2.58900022506714,-10.4157629013062,-10.5851621627808,-6.71907472610474,14.3870372772217,16.6278743743896,17.9759254455566,-0.94695001840591,-0.56400001049042,-1.33095002174377,-0.91305005550385,5.90505027770996,11.0380506515503,-0.00439999997616,-1.06246244907379,-1.8191249370575,4.81095027923584,-0.09105000644922,1.24905002117157,1.44952499866486,1.46079993247986,2.90661239624023,17.768575668335,14.2751121520996,10.6892499923706,1.19700002670288,1.1580001115799,0.58395004272461,7.4370002746582,8.39505004882813,10.9990501403809,SWING_LEFT
-0.15812499821186,-0.23333749175072,-0.26853749155998,1.86195003986359,2.09100008010864,2.35995006561279,0.00054999999702,0.0015124999918,0.00329999998212,0.16032500565052,0.17077499628067,0.00673749996349,1.96305012702942,1.92495012283325,1.12005007266998,9.50505065917969,9.92700004577637,10.1179504394531,-0.27981248497963,-0.25382500886917,-0.21408750116825,12.01305103302,14.0820007324219,13.6990509033203,-0.33508750796318,-0.64226251840591,-1.07208752632141,-1.33086252212524,-2.00832509994507,-2.55172491073608,-5.0460000038147,-3.24600005149841,-3.05400013923645,17.1289501190186,11.7270002365112,5.86605024337769,0.45278748869896,-0.87147498130798,-2.97206258773804,-31.503002166748,-71.6110534667969,-50.5800018310547,-5.84567499160767,-5.65509986877441,4.4438624382019,4.33028745651245,10.330924987793,19.0649242401123,-78.3660049438477,-57.6040534973145,-14.5470008850098,-47.4949531555176,-20.871000289917,13.9870510101318,-4.52718734741211,-3.71965003013611,-2.08491253852844,7.33995056152344,3.62400007247925,4.35195016860962,18.2113246917725,19.1948623657227,14.2020998001099,21.6262741088867,25.4442367553711,26.8713493347168,1.50300002098084,-0.02805000171065,-0.75600004196167,1.19295001029968,5.06205034255981,10.6930503845215,0.95314997434616,-2.32388758659363,-2.78987503051758,3.7390501499176,-0.05295000225306,-1.54695010185242,7.43599987030029,5.61481237411499,4.88180017471313,21.8645629882813,16.7059745788574,7.61433744430542,2.03895020484924,1.77105009555817,1.61805009841919,8.5090503692627,8.73900032043457,10.8850507736206,SWING_LEFT
-0.71692502498627,-0.79516249895096,-0.87216252088547,1.63200008869171,2.206050157547,2.28299999237061,0.00137499999255,0.00632499996573,0.00659999996424,1.20463752746582,0.38623750209808,-0.00494999997318,2.23095011711121,1.84800004959106,1.61805009841919,10.5400505065918,11.4210004806519,11.5740003585815,-0.5821750164032,-0.45443749427795,-0.20074999332428,5.5770001411438,5.53905010223389,11.2090501785278,-0.40562498569489,-0.55288749933243,-0.7233874797821,-2.0625,-2.14761257171631,-2.15201258659363,-1.36905002593994,-0.29595002532005,0.16200000047684,12.1489505767822,11.9569501876831,8.778000831604,-0.44948750734329,-1.29373753070831,-3.56620001792908,-39.202953338623,-72.8749542236328,-62.8770027160645,-2.56437492370605,0.48908749222755,6.66916227340698,2.61841249465942,10.7577247619629,14.7669496536255,-77.7150039672852,-60.4390525817871,-25.5790519714355,-50.4829521179199,-42.3619537353516,1.30800008773804,-10.4697999954224,-8.51620006561279,-1.80771243572235,20.7090015411377,6.22905015945435,9.86805057525635,26.5346126556396,27.0254878997803,24.6320247650146,24.2738380432129,23.9953994750977,24.6655750274658,-0.7180500626564,-0.37305000424385,1.00499999523163,6.32595014572144,4.94700002670288,2.68695020675659,6.38261222839355,3.4791624546051,1.46492505073547,0.36795002222061,-0.62700003385544,-1.08705008029938,11.6945123672485,9.28069972991943,8.96527481079102,18.6465129852295,11.5479373931885,8.23404979705811,0.81405001878738,1.27305006980896,1.77105009555817,8.70105075836182,10.2330007553101,10.9230003356934,SWING_LEFT
-0.21504999697208,-0.19621250033379,-0.19827499985695,3.24105024337769,3.43200016021729,3.7390501499176,-0.15716250240803,-0.18314999341965,-0.19112500548363,-0.23828749358654,-0.40658751130104,-0.51947498321533,3.37995004653931,2.99700021743774,2.53695011138916,9.35205078125,9.23700046539307,9.08400058746338,-0.37936249375343,-0.44233748316765,-0.48894998431206,8.6419506072998,7.49295043945313,6.42000007629395,-0.44082498550415,-0.69849997758865,-1.05957496166229,-1.53051245212555,-1.73428750038147,-1.86395001411438,-0.67905002832413,0.12405000627041,-0.33495002985001,12.2250003814697,10.3480501174927,8.31795024871826,-1.28796243667603,-2.83236241340637,-5.27188730239868,-66.2089538574219,-50.5030517578125,-36.0619506835938,-3.63522505760193,-5.8063497543335,-16.2056121826172,6.5682373046875,13.5077247619629,12.6064128875732,-75.034049987793,-16.078950881958,-12.8989505767822,-48.6060028076172,21.7639503479004,21.7639503479004,-11.3078622817993,-10.1066627502441,-2.90152502059937,1.1340000629425,-1.89105010032654,9.8299503326416,-9.38437461853027,-9.15089988708496,1.73621249198914,16.223762512207,16.1334247589111,18.723237991333,0.20100000500679,-0.18105000257492,-0.94695001840591,3.33795022964478,8.39505004882813,11.1139507293701,1.90382504463196,0.23306250572205,-1.24781250953674,0.90405005216599,-0.39705002307892,-0.28305000066757,5.10317516326904,5.05793762207031,4.78431224822998,16.2636375427246,11.996187210083,10.6086750030518,1.12005007266998,1.12005007266998,1.1580001115799,10.5400505065918,10.9990501403809,11.0380506515503,SWING_LEFT
0.00522499997169,0.00357499998063,0.00233749998733,2.81895017623901,2.97300004959106,3.16395020484924,0.21917499601841,0.00687499996275,0.0042624999769,-0.31762498617172,-0.15716250240803,-0.00384999997914,3.84000015258789,3.64800024032593,3.80205011367798,8.54805088043213,8.8540506362915,8.89305019378662,0.00137499999255,0.0015124999918,0.00646249996498,10.288950920105,11.7070503234863,13.3920001983643,-0.21862499415874,-0.35268750786781,-0.57612502574921,-0.89361250400543,-1.48197495937347,-2.00502490997314,-1.44495010375977,-2.40300011634827,-3.85905027389526,14.2939510345459,14.2939510345459,11.9950504302979,1.24574995040894,1.04445004463196,-0.32120001316071,-76.819953918457,-70.5760498046875,-46.443000793457,-4.95618724822998,-4.50408744812012,6.28622484207153,2.3561999797821,13.1538000106812,18.6796493530273,-78.3660049438477,-21.211950302124,-18.2239513397217,-61.2469520568848,-37.3050003051758,37.0870513916016,-5.7253623008728,-5.34902477264404,2.19821238517761,6.49695014953613,-3.96000027656555,4.31295013427734,23.7279624938965,23.5973377227783,22.7004241943359,30.3579368591309,28.1290626525879,26.3104877471924,-0.37305000424385,-1.90500009059906,-1.94295012950897,0.73305004835129,2.91705012321472,9.81195068359375,6.12521266937256,4.41704988479614,1.38916254043579,-2.50395011901855,-3.3469500541687,-2.84895014762878,6.7592248916626,6.61883735656738,6.55971240997314,16.1532249450684,12.7756748199463,11.880687713623,1.77105009555817,1.04295003414154,1.00499999523163,7.59000015258789,9.42900085449219,10.9230003356934,SWING_LEFT
0.00082499999553,0.00082499999553,0.00068749999627,1.51695013046265,2.05305004119873,2.09100008010864,0.00247499998659,0.00302499998361,0.00261249998584,-0.3797749876976,-0.37001249194145,-0.32023748755455,1.38795006275177,1.31205010414124,0.66000002622604,9.69705009460449,9.69705009460449,10.1569509506226,-0.00096249999478,-0.00219999998808,-0.00357499998063,6.68805027008057,6.99495029449463,8.6419506072998,-0.34485000371933,-0.55371248722076,-0.84741246700287,-1.1620124578476,-1.52240002155304,-1.87220001220703,-5.23800039291382,-5.00805044174194,-2.7480001449585,11.9950504302979,12.2640008926392,12.9529504776001,-0.28366249799728,-0.81840002536774,-1.72603750228882,-16.945951461792,-71.2660522460938,-61.3440017700195,-3.74866247177124,-3.70356249809265,-3.41934990882874,1.36317503452301,5.24851226806641,12.7509250640869,-73.3480529785156,-78.3660049438477,-16.3849506378174,-56.0370025634766,-56.0370025634766,31.2259521484375,-6.33201265335083,-7.09252500534058,-6.64179992675781,22.3939514160156,0.67395001649857,-2.96400022506714,-10.5326375961304,-9.3564624786377,-9.16891288757324,16.4301490783691,16.6714630126953,16.5021991729736,2.38394999504089,-0.06599999964237,-1.06200003623962,-3.86295008659363,0.42705002427101,6.86205053329468,6.82439994812012,6.53798723220825,4.18082475662231,5.5009503364563,-0.16800001263618,-1.50795006752014,7.88521242141724,6.72787475585938,5.63887500762939,19.1580123901367,17.198637008667,13.5066251754761,0.27705001831055,0.81405001878738,0.69900006055832,12.07200050354,9.00705051422119,10.0420503616333,SWING_LEFT
0.25575000047684,0.19291250407696,-0.00288749998435,1.01895010471344,1.74705004692078,1.63200008869171,0.00453749997541,0.16293749213219,0.22426250576973,-0.15001249313354,-0.00632499996573,-0.00604999996722,4.14600038528442,4.22294998168945,4.3759503364563,8.66295051574707,8.62395000457764,8.47095012664795,-0.37056249380112,-0.30442500114441,-0.20831249654293,5.42400026321411,10.6720504760742,15.6520509719849,0.00329999998212,-0.18521249294281,-0.45966249704361,-0.40314999222755,-1.24877500534058,-1.82586252689362,-1.25400006771088,-2.67105007171631,-7.19205045700073,11.0380506515503,14.4090003967285,12.7999505996704,1.00650000572205,0.8124874830246,-1.39947497844696,-59.3140525817871,-76.0159530639648,-30.3540019989014,-4.62659978866577,-4.44152498245239,3.8286874294281,3.65997505187988,8.38584995269775,14.3605003356934,-78.3660049438477,-24.8130016326904,-20.3689517974854,-55.0030517578125,-52.8190536499023,14.9830503463745,-6.08354997634888,-5.27628755569458,-3.50789999961853,-1.27905011177063,-2.69595003128052,6.45795011520386,20.3952369689941,20.1411380767822,5.72384977340698,24.5408630371094,21.9440364837646,18.5525989532471,4.91295003890991,1.38795006275177,0.20100000500679,-3.74805021286011,3.18495011329651,7.09200048446655,7.05980014801025,5.20258760452271,0.3573625087738,4.39005041122437,3.66195011138916,0.67395001649857,-1.67873752117157,-1.83878743648529,-1.58757495880127,16.0388240814209,14.5928745269775,13.1795120239258,0.54495000839233,0.77505004405975,0.88995003700256,10.3480501174927,12.3019504547119,12.3019504547119,SWING_LEFT
-0.74909996986389,-0.74194997549057,-0.77206248044968,1.66995012760162,1.59300005435944,1.66995012760162,0.32972499728203,0.40727499127388,0.36836248636246,-0.57516247034073,-0.53074997663498,-0.46805000305176,4.10805034637451,4.30005025863647,4.49100017547607,8.05005073547363,8.31795024871826,8.31795024871826,-0.66673749685287,-0.59716248512268,-0.42033749818802,4.35195016860962,5.8840503692627,14.0430002212524,0.00563749996945,0.00618749996647,0.00481249997392,-0.6599999666214,-0.99096250534058,-1.48500001430511,0.54495000839233,-0.90900003910065,-2.86305022239685,11.6890506744385,12.2640008926392,13.8340511322021,0.72668749094009,0.81193751096725,0.18026250600815,-78.3139572143555,-78.3139572143555,-57.1690521240234,-3.44891238212585,-4.6157374382019,-13.9361753463745,-0.62631249427795,9.00927448272705,10.6415376663208,-78.3660049438477,-34.8880500793457,-27.5710506439209,-57.7990531921387,-51.5940017700195,30.306001663208,-5.39742517471313,-5.82560014724731,-3.58902502059937,1.24905002117157,-1.08705008029938,8.06700038909912,-10.5972623825073,-9.33996200561523,-7.89208745956421,17.4653873443604,15.8057622909546,14.6756496429443,-0.87105005979538,-0.83295005559921,-1.17705011367798,0.38805001974106,6.86205053329468,10.7700004577637,6.84227514266968,5.97959995269775,3.46417498588562,1.1340000629425,-0.39705002307892,-0.32100000977516,3.76337504386902,3.44437503814697,3.79802489280701,18.0027370452881,14.4995126724243,13.3695373535156,-0.56400001049042,-0.44895002245903,-0.87105005979538,7.16895055770874,10.6159505844116,11.7660007476807,SWING_LEFT
-0.35475000739098,-0.4116750061512,-0.49692499637604,3.12600016593933,3.66195011138916,4.54305028915405,0.00068749999627,-0.28545001149178,-0.44866248965263,-0.62589997053146,-0.56086248159409,-0.56608748435974,-0.79395002126694,-1.90500009059906,-2.51805019378662,10.6930503845215,10.3099508285522,11.3830509185791,-1.19418752193451,-1.49448752403259,-2.23657488822937,7.30095052719116,8.87205028533936,5.07900047302246,-1.75821244716644,-2.21924996376038,-2.69733738899231,-0.70001250505447,-0.60582500696182,-0.43422499299049,-5.39100027084351,-5.81295013427734,-6.23400020599365,11.9190006256104,10.7700004577637,10.1569509506226,-3.70094990730286,-3.51202487945557,-3.08165001869202,-71.8789520263672,-78.3139572143555,-60.4249534606934,-3.56702494621277,-6.82646226882935,-9.62871265411377,5.12847518920898,9.34945011138916,10.4605875015259,-78.3660049438477,-24.2770519256592,-24.1620006561279,-65.461051940918,-8.95800018310547,20.6149501800537,4.40756225585938,4.31983757019043,4.14246225357056,9.52305030822754,-0.28305000066757,7.7989501953125,-4.42351245880127,-2.2314875125885,1.70156252384186,14.3037128448486,15.5691251754761,17.8736248016357,-0.25800001621246,0.27705001831055,0.73695003986359,4.10400009155273,5.59800004959106,5.59800004959106,-0.00178749999031,-0.9922000169754,-2.49837493896484,-0.62700003385544,-0.32100000977516,-0.20595000684261,1.92884993553162,1.77760004997253,2.00859999656677,15.965950012207,12.591287612915,11.1810874938965,-0.7180500626564,-0.7180500626564,-0.90900003910065,7.12995052337646,10.7700004577637,10.8079509735107,SWING_LEFT
-0.35667499899864,-0.38774999976158,-0.40878748893738,1.1340000629425,1.01895010471344,1.01895010471344,0.29919999837875,0.2426874935627,0.1740749925375,-0.00206249998882,-0.14726249873638,-0.25712499022484,0.20100000500679,0.23895001411438,-0.06599999964237,10.1179504394531,10.6549501419067,10.6930503845215,-0.39283749461174,-0.33577498793602,-0.29438748955727,7.07100009918213,11.4000005722046,15.0390005111694,-0.32188749313354,-0.5380374789238,-1.21233749389648,-1.34571254253387,-1.81774997711182,-2.61360001564026,-9.22200012207031,-8.72399997711182,-3.05400013923645,11.9190006256104,11.9190006256104,14.1790504455566,0.67278748750687,1.01062500476837,1.47083747386932,-78.3139572143555,-65.0599517822266,-40.3140029907227,-3.25792503356934,-4.50986242294312,-5.98922491073608,5.04570007324219,8.07468700408936,10.7329750061035,-61.5499534606934,-12.2100009918213,-21.7099514007568,-56.1520538330078,3.41505026817322,33.4470024108887,4.77303743362427,3.1603000164032,2.37421250343323,-3.80700016021729,-4.72605037689209,6.57300043106079,-4.55730009078979,-3.32529997825623,0.9784500002861,14.1131372451782,13.4142246246338,12.4290370941162,-1.25400006771088,-1.06200003623962,-0.79395002126694,1.03995001316071,7.47495031356812,11.6890506744385,-0.15702499449253,-0.29438748955727,-2.24001240730286,2.16795015335083,0.94200003147125,0.21405000984669,1.85611248016357,1.55869996547699,1.03839993476868,15.9631996154785,15.3137874603271,14.827449798584,-1.56000006198883,-1.25400006771088,-0.44895002245903,12.4930505752563,11.6890506744385,11.3059501647949,SWING_LEFT
-0.33825001120567,-0.40094998478889,-0.42116248607635,2.89605021476746,2.85795021057129,2.7810001373291,-0.32917499542236,-0.41359999775887,-0.50765001773834,-0.17063750326633,-0.16073749959469,-0.15111249685287,0.16200000047684,-0.25800001621246,-1.90500009059906,11.1139507293701,10.8079509735107,11.9569501876831,-0.48069998621941,-0.47905001044273,-0.45498749613762,13.8900003433228,15.8050508499146,16.4179515838623,-0.73713749647141,-0.88440001010895,-1.03551244735718,-2.24372506141663,-2.85614991188049,-3.39377498626709,-4.20405006408691,-2.36505007743835,-5.12295007705688,5.63595008850098,9.46695041656494,10.9990501403809,0.38032498955727,0.22426250576973,-0.43009999394417,-30.0859508514404,-69.9250564575195,-56.2110023498535,-3.40683746337891,-2.38150000572205,-0.00673749996349,6.88380002975464,11.5308876037598,17.1835117340088,-78.3660049438477,-78.3660049438477,-30.5970020294189,-58.680004119873,-66.6100540161133,-5.62500047683716,-3.45936250686646,-4.70346260070801,-4.94766235351563,20.1720008850098,1.36395001411438,-1.81500005722046,-9.38134956359863,-9.97356224060059,-10.9272623062134,9.08325004577637,7.53802490234375,7.51327514648438,-1.06200003623962,-2.32695007324219,-1.59900009632111,7.16895055770874,13.03005027771,13.03005027771,-5.57053756713867,-1.92747497558594,-3.02279996871948,5.07900047302246,3.01095008850098,1.01895010471344,0.65601247549057,1.08666253089905,1.1978999376297,22.965799331665,22.1905746459961,18.1132869720459,-1.86705005168915,-2.13495016098022,-1.06200003623962,10.4629507064819,11.2290000915527,10.5780000686646,SWING_LEFT
2.25554990768433,2.16576242446899,2.00722503662109,0.59700000286102,0.55905002355576,0.82695001363754,-0.17228749394417,-0.34319999814034,-0.35420000553131,0.60939997434616,0.16747500002384,-0.00302499998361,0.66000002622604,0.58395004272461,0.58395004272461,9.8500509262085,10.0030508041382,10.1569509506226,0.66316246986389,0.4808374941349,0.21491250395775,2.28299999237061,3.66195011138916,12.01305103302,-0.00522499997169,-0.00604999996722,-0.22247499227524,-0.59138751029968,-0.80877500772476,-1.18731248378754,-6.96195030212402,-9.56700038909912,-10.6780500411987,14.1790504455566,14.2939510345459,14.2939510345459,-0.58973747491837,-0.62534999847412,-0.73411250114441,-74.8279571533203,-58.4710540771484,-31.1580009460449,-2.90785002708435,-3.83542490005493,-4.67857503890991,1.4441624879837,9.05684947967529,11.6613750457764,-78.3660049438477,-16.9980010986328,-22.2850513458252,-46.0770034790039,31.8390007019043,31.8390007019043,-0.88550001382828,-1.63129997253418,-2.6496250629425,3.08700013160706,-3.46200013160706,4.54305028915405,-3.08481240272522,-2.56396245956421,-1.77443754673004,16.0514755249023,15.1547002792358,14.7617244720459,-2.36505007743835,-1.78995013237,-1.33095002174377,2.76300024986267,5.67495012283325,14.4850511550903,-1.01901245117188,-0.55192500352859,-1.81389999389648,1.93800008296967,1.05705010890961,0.483000010252,2.87938737869263,3.14338755607605,3.18972492218018,17.5330371856689,13.8846120834351,12.6460123062134,-1.06200003623962,-1.21605002880096,-0.87105005979538,6.63195037841797,10.6159505844116,9.88905048370361,SWING_LEFT
0.00137499999255,-0.00109999999404,-0.00164999999106,1.70805013179779,1.90005004405975,1.74705004692078,0.00054999999702,-0.00013749999925,-0.00123749999329,-0.00481249997392,-0.00439999997616,-0.00371249997988,0.88995003700256,0.88995003700256,0.92895007133484,9.65895080566406,9.8500509262085,9.77400016784668,-0.0015124999918,-0.00137499999255,-0.00123749999329,6.68805027008057,10.288950920105,13.3540506362915,-0.00481249997392,-0.19318750500679,-0.40424999594688,-0.56691247224808,-1.17961251735687,-1.85803747177124,-7.49805021286011,-6.34905052185059,-3.93495011329651,11.0380506515503,14.2560005187988,17.6650505065918,0.00467499997467,0.89168751239777,2.12203741073608,-65.7109527587891,-38.5129508972168,-8.47994995117188,-2.23451256752014,-3.39707493782043,-4.7635498046875,3.60882496833801,6.84543752670288,12.5449495315552,-59.1739540100098,-12.5550003051758,-17.8410015106201,-50.8270530700684,-37.995002746582,56.5470008850098,4.43148756027222,3.28858757019043,2.03500008583069,-0.97200006246567,-0.47400003671646,4.42799997329712,-2.9991500377655,-2.18776249885559,-2.04957509040833,15.4580249786377,15.0474500656128,14.2697496414185,1.12005007266998,0.54495000839233,0.62205004692078,-2.52195000648499,4.71705007553101,7.70505046844482,0.64074999094009,0.72572499513626,-0.91025000810623,2.16795015335083,0.25304999947548,0.06105000153184,-2.28263759613037,-1.4030499458313,-1.45131254196167,11.859375,13.5602502822876,15.7573623657227,-0.94695001840591,-1.06200003623962,0.08595000207424,8.5090503692627,13.068000793457,14.3700008392334,SWING_LEFT
-0.45567500591278,-0.37180000543594,-0.33206251263618,2.09100008010864,2.13000011444092,2.55105018615723,-0.14891250431538,-0.00206249998882,-0.00082499999553,-1.11388754844666,-0.76394999027252,-0.60032498836517,1.04295003414154,0.8520000576973,0.16200000047684,10.5400505065918,10.4250001907349,10.8850507736206,-0.25850000977516,-0.23168750107288,-0.00563749996945,9.25500011444092,12.8940010070801,2.206050157547,-0.43972501158714,-0.64363747835159,-0.84631252288818,-1.72246253490448,-2.08793759346008,-2.36321258544922,-0.67905002832413,-0.64095002412796,6.75105047225952,6.78600025177002,5.98095035552979,5.713050365448,-0.0054999999702,-0.47079998254776,-0.63662499189377,-59.544002532959,-41.7690010070801,-19.2829513549805,-1.92527496814728,-8.15705013275146,-9.74215030670166,8.61272525787354,13.6497621536255,14.6911878585815,-78.3660049438477,-23.203950881958,-22.1310005187988,-45.2350540161133,41.2620010375977,41.2620010375977,-1.84525001049042,-2.57056260108948,-3.5648250579834,-1.69995009899139,-2.0830500125885,0.40605002641678,-5.22857475280762,-1.44636249542236,2.23327493667603,15.5722875595093,19.1714878082275,20.8172245025635,-2.47995018959045,-3.8209502696991,-2.32695007324219,8.778000831604,14.4090003967285,10.9609508514404,-0.77990001440048,-0.50655001401901,-0.60376250743866,-0.28305000066757,-0.74205005168915,-0.28305000066757,6.89081239700317,7.32105016708374,6.39196252822876,18.9556121826172,8.76631259918213,6.61347484588623,-0.44895002245903,-0.60300004482269,-0.83295005559921,7.89705038070679,9.92700004577637,10.5400505065918,SWING_LEFT
-0.55123752355576,-0.62163752317429,-0.71623748540878,1.66995012760162,1.70805013179779,1.78500008583069,-0.00288749998435,-0.00618749996647,-0.18906250596046,0.00481249997392,0.00439999997616,0.0042624999769,1.00499999523163,1.1580001115799,1.08195006847382,10.3870506286621,10.3480501174927,10.0800008773804,-0.70152497291565,-0.63456249237061,-0.55343747138977,9.56100082397461,12.8179502487183,15.6520509719849,-0.22371250391006,-0.43422499299049,-0.69396251440048,-0.00412499997765,-1.28136253356934,-1.93792498111725,-6.50205039978027,-4.20405006408691,-4.05000019073486,11.4970502853394,10.5780000686646,10.4250001907349,0.60073751211166,0.91918748617172,2.42440009117126,-75.097053527832,-63.528003692627,-2.77305006980896,-2.63065004348755,-4.5858998298645,-6.70779991149902,4.67224979400635,8.0768871307373,10.6979122161865,-71.3940048217773,-10.2559509277344,-14.5470008850098,-43.7410507202149,-31.0609512329102,14.6770505905151,4.3440375328064,3.37933754920959,2.32856249809265,2.24505019187927,10.021050453186,15.9199504852295,-6.68813753128052,-2.73006248474121,-1.29236245155334,14.7218503952026,14.7063121795654,15.9311628341675,-2.25,2.00100016593933,3.34200024604797,7.05405044555664,11.6509504318237,4.83195018768311,-3.58806252479553,-4.45087480545044,-6.11723756790161,5.80695009231567,2.93400025367737,1.40205001831055,-3.70081257820129,-3.64333748817444,-3.25448751449585,16.4283618927002,13.9019374847412,11.4159374237061,3.72495007514954,3.7630500793457,3.41895008087158,5.52195024490356,3.22305011749268,3.22305011749268,SWING_LEFT
-0.22522500157356,0.00206249998882,0.26441249251366,2.16795015335083,2.01495003700256,1.09500002861023,-0.43505001068115,-0.34979999065399,-0.24158750474453,-1.19583749771118,-1.03056252002716,-0.85057497024536,4.83600044250488,4.7590503692627,4.56795024871826,8.24100017547607,8.08800029754639,8.0110502243042,-0.16499999165535,-0.22701250016689,-0.27169999480247,3.39405012130737,5.11800003051758,8.14395046234131,0.37180000543594,0.41181248426437,0.26248750090599,-0.27774998545647,-0.60582500696182,-0.9620875120163,1.81005012989044,0.43095001578331,0.16200000047684,10.5780000686646,10.5780000686646,10.4629507064819,0.66247498989105,1.05764997005463,1.07910001277924,-37.6319999694824,-70.537956237793,-28.3999519348145,-1.61246252059937,-1.88443744182587,-3.98296236991882,1.98288750648499,5.92666244506836,9.86782455444336,-78.3660049438477,-38.2969512939453,-16.3849506378174,-37.7260513305664,-32.9380531311035,26.2069511413574,-1.81114995479584,-3.08536243438721,-3.83459997177124,1.1340000629425,0.483000010252,9.79095077514648,-13.4569873809814,-12.4717998504639,-6.68373727798462,17.8710117340088,15.1128997802734,13.8599996566772,1.92495012283325,0.8520000576973,0.27705001831055,-7.5400505065918,-5.39505004882813,6.36405038833618,-2.56891250610352,-1.90409994125366,-2.04833745956421,3.89205026626587,4.00695037841797,1.36395001411438,-3.39528751373291,-3.66891241073608,-4.30471229553223,9.65964984893799,10.6713752746582,12.5779495239258,0.46905001997948,0.73695003986359,1.04295003414154,9.92700004577637,9.92700004577637,11.076000213623,SWING_LEFT
-0.00673749996349,-0.21188749372959,-0.24516250193119,2.51295018196106,2.74305009841919,3.16395020484924,-0.00618749996647,-0.00604999996722,-0.00659999996424,-0.00041249999776,-0.00027499999851,-0.00481249997392,0.58395004272461,0.39195001125336,-0.56400001049042,10.0800008773804,11.076000213623,11.4970502853394,-0.29425001144409,-0.23608750104904,-0.00563749996945,18.6400508880615,19.9039516448975,15.7669506072998,-0.50283747911453,-1.01021254062653,-1.6550874710083,-2.04655003547669,-2.55392503738403,-2.89245009422302,-9.79605007171631,-6.04200029373169,-1.63695013523102,11.4589509963989,9.77400016784668,9.27600002288818,0.52387499809265,-2.06084990501404,-2.63505005836487,-59.0460014343262,-50.7720031738281,-25.756950378418,-6.67700004577637,-6.66338729858398,-10.2058000564575,9.78601264953613,12.9438371658325,15.7176246643066,-71.4709548950195,-16.8070507049561,-12.1720504760742,-41.9779510498047,-32.4780006408691,26.5140018463135,-0.9451749920845,-0.6374499797821,-0.00041249999776,-3.27105021476746,-0.24405001103878,9.4079999923706,-6.9163875579834,-6.73213768005371,-4.31502485275269,13.6328496932983,15.8716249465942,17.1771869659424,2.76705002784729,2.07795000076294,0.69900006055832,0.96300005912781,4.14195013046265,4.87005043029785,-1.46478748321533,-2.06772494316101,-2.71562504768372,2.16795015335083,2.89605021476746,1.74705004692078,7.8871374130249,7.91491222381592,7.11975002288818,13.4305877685547,10.4321250915527,8.0709753036499,1.00499999523163,1.19700002670288,1.19700002670288,11.19105052948,10.8460502624512,9.61995029449463,SWING_LEFT
-0.42336249351501,-0.44687500596046,-0.47685000300407,2.51295018196106,2.43600010871887,2.81895017623901,-0.00591249996796,-0.00659999996424,-0.16596250236034,-0.00329999998212,-0.00467499997467,-0.14052499830723,0.77505004405975,0.50700002908707,-0.10500000417233,10.195050239563,11.3830509185791,11.3830509185791,-0.69726252555847,-0.97006249427795,-1.28534996509552,13.1620502471924,16.57200050354,6.57300043106079,-1.52913749217987,-2.8802125453949,-6.00050020217896,-2.3231999874115,-2.87526249885559,-2.89753746986389,-9.79605007171631,-6.46395015716553,-7.91895055770874,7.59000015258789,9.92700004577637,11.5740003585815,-4.23527479171753,-3.88024997711182,-2.73102498054504,-44.4889526367188,-62.6470527648926,-63.0300025939941,-12.3326501846313,-11.6590375900269,-10.4321250915527,-0.92895001173019,0.89182502031326,2.57881259918213,-78.3660049438477,-78.3660049438477,-27.7630519866943,-52.6279525756836,-52.6279525756836,-20.6800518035889,17.663387298584,17.4259243011475,16.4280872344971,28.9830017089844,-4.07505035400391,4.84995031356812,3.74164986610413,2.95762491226196,5.0271372795105,12.8422250747681,5.94398736953735,3.15809988975525,0.69900006055832,-0.60300004482269,-0.37305000424385,-7.80795049667358,2.26500010490417,12.8380508422852,-14.4339246749878,-15.5673370361328,-16.8671245574951,1.97700011730194,-1.35495007038116,-1.85295009613037,10.8744621276855,13.0825748443604,12.6403751373291,-1.69303750991821,4.86447477340698,4.90242481231689,-0.02805000171065,0.69900006055832,1.12005007266998,11.8810501098633,12.2640008926392,12.2640008926392,SWING_LEFT
-6.87912511825562,-6.74877500534058,-6.42221260070801,0.71205002069473,0.6360000371933,1.8229501247406,0.36423748731613,0.00288749998435,-0.00563749996945,-0.92647498846054,-1.49160003662109,-1.76687502861023,3.03495025634766,2.88195013999939,3.11205005645752,9.04605007171631,8.96895027160645,8.47095012664795,-3.90499997138977,-3.8286874294281,-3.61693739891052,5.27100038528442,5.84595012664795,9.21705055236816,-0.27238750457764,-0.27651250362396,-0.31185001134872,-2.70737504959106,-2.92902493476868,-3.13568758964539,1.38795006275177,-1.56000006198883,-1.06200003623962,8.89305019378662,8.0110502243042,8.0110502243042,-1.7294750213623,-1.02341246604919,-0.37152498960495,-43.6459503173828,-62.3020515441895,-51.9970512390137,-1.03509998321533,-4.9429874420166,-6.64564990997314,-1.54577493667603,7.67689990997314,11.4071378707886,-42.2040023803711,-37.4929504394531,-11.0220003128052,-33.0150032043457,-24.2809505462646,23.4490509033203,12.6592121124268,11.7639503479004,8.98933792114258,16.57200050354,7.87605047225952,9.3319501876831,-11.7902126312256,-10.0049123764038,-5.74873733520508,5.36868762969971,0.92688751220703,-1.80482494831085,0.00900000054389,-0.60300004482269,-0.10500000417233,-3.36495018005371,-1.33395004272461,5.44500017166138,-19.066162109375,-18.8512496948242,-17.4660739898682,-0.89505004882813,0.13800001144409,1.47900009155273,4.99166250228882,11.6034870147705,10.897837638855,-5.19213724136353,6.80143737792969,6.95488739013672,1.00499999523163,1.42695009708405,1.50300002098084,10.8460502624512,10.9609508514404,10.8850507736206,SWING_LEFT
-0.18947499990463,-0.00439999997616,0.00219999998808,0.86595004796982,0.86595004796982,1.28700006008148,-0.00453749997541,-0.00646249996498,-0.00618749996647,0.19827499985695,0.39847499132156,0.46543750166893,0.3160500228405,0.50700002908707,0.43095001578331,10.1179504394531,9.77400016784668,9.96495056152344,0.62823748588562,0.55797499418259,0.00302499998361,3.62400007247925,5.8840503692627,5.3860502243042,-0.17022499442101,-0.24722500145435,-0.30181249976158,-0.33371248841286,-0.77852499485016,-1.20009994506836,2.69100022315979,2.84400010108948,-2.32695007324219,9.5440502166748,9.08400058746338,9.08400058746338,-1.61067497730255,0.00687499996275,3.49786257743835,-29.5489521026611,1.17195010185242,34.6529998779297,-0.50503748655319,-2.10374999046326,-2.99557495117188,4.40082502365112,8.10232448577881,8.63554954528809,-14.3550004959106,-5.81295013427734,0.12405000627041,4.18095016479492,-9.26400089263916,-9.26400089263916,4.1001124382019,2.15380001068115,-7.00204992294312,-6.10500049591064,-5.03295040130615,2.58900022506714,-5.11293745040894,-2.08587503433228,1.82448744773865,-9.49905014038086,-11.8204622268677,-12.0880374908447,2.57595014572144,1.08195006847382,-0.22005000710487,7.59000015258789,5.59800004959106,5.59800004959106,-5.48047494888306,-3.83294987678528,-1.75339996814728,1.86195003986359,0.17595000565052,-0.05295000225306,10.8222122192383,5.90534973144531,2.56850004196167,1.63349997997284,2.70957493782043,1.87838745117188,2.57595014572144,2.42295002937317,2.00100016593933,10.6549501419067,7.59000015258789,7.59000015258789,SWING_LEFT
2.61291241645813,1.96941244602203,0.89141249656677,1.1340000629425,1.70805013179779,2.39805006980896,0.33673748373985,0.1717374920845,0.00178749999031,0.00027499999851,-0.00522499997169,-0.22508749365807,1.96305012702942,1.77105009555817,1.57995009422302,9.69705009460449,9.23700046539307,9.23700046539307,-0.53817498683929,-0.72600001096725,-0.89086252450943,2.47500014305115,2.62800002098084,2.55105018615723,-0.42184999585152,-0.56787496805191,-0.65890002250671,-0.8729875087738,-0.88673746585846,-0.85607498884201,1.57995009422302,0.88995003700256,-0.7180500626564,9.73500061035156,9.46695041656494,9.46695041656494,-1.97697496414185,-2.41931247711182,-3.66506242752075,12.7789506912231,9.10200023651123,-34.298999786377,-2.42123746871948,-3.75484991073608,-6.3211498260498,-2.50813746452332,-2.88763737678528,-2.30147504806519,13.9150505065918,-9.56700038909912,-58.1779518127441,12.07200050354,-20.7180004119873,-39.4879531860351,-13.0897245407104,-14.2599878311157,-16.8909130096436,28.5619506835938,33.7330513000488,13.5450010299683,7.62162494659424,10.9414253234863,12.8565244674683,21.937162399292,25.5290756225586,24.2500495910645,-3.74400019645691,1.46505010128021,-1.21605002880096,-6.50595045089722,-9.41700077056885,4.33395004272461,-16.2068500518799,-20.0256366729736,-18.1339130401611,8.71905040740967,3.01095008850098,2.32095003128052,3.53952503204346,6.50815010070801,10.3311996459961,-4.56389999389648,-5.2453498840332,-5.01132488250732,-0.7180500626564,-0.37305000424385,-0.60300004482269,10.1179504394531,10.1179504394531,10.6930503845215,SWING_LEFT
-1.15527498722076,-1.21329998970032,-1.22704994678497,-0.32100000977516,-0.09105000644922,0.44400003552437,0.19813749194145,0.19291250407696,0.17558750510216,0.00206249998882,-0.00302499998361,-0.17751249670982,0.39195001125336,0.66000002622604,0.73695003986359,10.195050239563,9.8500509262085,9.8500509262085,-0.32628750801086,-0.0027499999851,0.41084998846054,0.55905002355576,1.36395001411438,2.97300004959106,0.00329999998212,0.00247499998659,0.00137499999255,-0.71101248264313,-0.76972502470016,-0.84631252288818,-0.60300004482269,-4.20405006408691,-5.889000415802,9.69705009460449,9.69705009460449,13.6429510116577,0.52813750505447,0.38885000348091,0.14946250617504,-57.5899543762207,-52.6099510192871,-33.4180526733398,-1.32137501239777,-1.04623746871948,-1.57904994487762,1.98343753814697,7.52166223526001,8.99497509002686,-70.2840042114258,-21.1350002288818,-11.8650007247925,-43.7790031433105,17.473051071167,17.473051071167,-3.91558742523193,-4.54258728027344,-7.40684986114502,1.59300005435944,5.42400026321411,11.3620510101318,-12.7810373306274,-13.0847749710083,-12.9074001312256,-6.27673768997192,-9.1579122543335,-10.9540748596191,0.3160500228405,0.81405001878738,1.04295003414154,11.2680006027222,11.2680006027222,7.12995052337646,-12.8830623626709,-12.68630027771,-10.3358745574951,-0.58905005455017,0.17595000565052,0.483000010252,11.3601121902466,11.9631872177124,11.9455871582031,2.92008757591248,6.18942499160767,6.89851236343384,0.3160500228405,0.81405001878738,0.62205004692078,10.9990501403809,10.8079509735107,9.88905048370361,SWING_LEFT
2.3116500377655,0.9706124663353,0.34567499160767,0.32895001769066,-0.32100000977516,-0.66600000858307,0.00109999999404,-0.23003749549389,-0.46956250071526,0.49623748660088,-0.0027499999851,-0.81386250257492,0.16200000047684,0.04800000041723,0.12405000627041,10.3099508285522,10.3099508285522,10.2720003128052,-0.7345250248909,-0.60596251487732,-0.46502500772476,0.32895001769066,0.86595004796982,1.59300005435944,-0.2072124928236,-0.15180000662804,-0.00563749996945,-0.17861250042915,-0.14808750152588,-0.27252501249313,-0.94695001840591,-5.35305023193359,-9.528000831604,9.92700004577637,9.92700004577637,11.4589509963989,-0.40548750758171,-1.0008624792099,-1.16943752765656,-19.2060012817383,-60.0799522399902,-51.0010528564453,-1.67887496948242,-2.14389991760254,-1.81197500228882,-0.00646249996498,3.25723743438721,8.78954982757568,-52.0110015869141,-58.1400032043457,-19.6410007476807,-39.5650520324707,-30.984001159668,16.5540008544922,-1.04554998874664,-0.93046247959137,-1.51635003089905,13.3150510787964,15.6520509719849,27.1440010070801,-16.1279239654541,-16.4993133544922,-16.6948375701904,0.25313749909401,-2.67987489700317,-4.16074991226196,1.08195006847382,-0.10500000417233,1.04295003414154,8.778000831604,10.8079509735107,10.8079509735107,-15.4171876907349,-17.7672004699707,-16.4745616912842,-4.68795013427734,-2.0830500125885,0.17595000565052,11.0054998397827,13.3639001846313,13.3667869567871,4.44427490234375,8.39299964904785,10.2370128631592,1.19700002670288,2.07795000076294,2.11605000495911,10.6930503845215,10.5010509490967,8.66295051574707,SWING_LEFT
-1.19776248931885,-1.25152504444122,-1.29690003395081,1.59300005435944,2.55105018615723,3.20205020904541,-0.27981248497963,-0.30401250720024,-0.3634124994278,-0.26592499017715,-0.30937498807907,-0.4448125064373,1.27305006980896,1.27305006980896,1.35000002384186,9.8500509262085,10.8079509735107,10.7700004577637,-1.64944994449615,-1.9849499464035,-2.13262510299683,5.96100044250488,8.75699996948242,8.22105026245117,-1.04142498970032,-1.25413751602173,-1.62689995765686,-1.62277495861053,-1.9375125169754,-2.21223759651184,-3.3229501247406,-3.20805025100708,1.00499999523163,10.3480501174927,10.8079509735107,9.88905048370361,-1.31312501430511,-0.77467501163483,-0.00206249998882,-46.021053314209,-71.4570007324219,-58.1650543212891,-1.51524996757507,-5.84512519836426,-7.43077516555786,4.02118730545044,6.53331232070923,9.14127540588379,-75.0720062255859,-30.4819507598877,-25.3489513397217,-44.8519515991211,-44.8519515991211,-7.0420503616333,12.2168750762939,9.49643707275391,6.87830018997192,11.7829504013062,-4.99395036697388,-1.125,-4.19457483291626,-3.68706250190735,0.0042624999769,8.2882251739502,-0.19566249847412,-5.8851375579834,-0.48795002698898,-0.37305000424385,1.38795006275177,-6.42900037765503,5.48295021057129,13.7580003738403,-16.039924621582,-15.9454622268677,-16.2544250488281,6.26700019836426,3.77700018882751,1.55505001544952,10.9427995681763,12.6659498214722,12.6372127532959,0.52511250972748,5.08956241607666,6.79882478713989,0.66000002622604,0.62205004692078,0.46905001997948,10.7310009002686,12.0340509414673,12.0340509414673,SWING_LEFT
-0.80767500400543,-0.74580001831055,-0.59537500143051,2.51295018196106,2.97300004959106,3.70005011558533,-0.00398749997839,-0.00109999999404,0.00082499999553,-0.31845000386238,-0.28022500872612,-0.2576749920845,0.69900006055832,0.23895001411438,-0.7180500626564,9.61995029449463,9.61995029449463,10.4250001907349,0.00618749996647,0.25121250748634,0.44082498550415,5.27100038528442,3.58500027656555,0.02295000106096,-0.50778752565384,-0.94655001163483,-1.05998754501343,-0.72751247882843,-0.74524998664856,-0.38073748350143,-3.47595024108887,11.1949501037598,-16.8070507049561,11.2290000915527,10.4250001907349,-12.8650503158569,2.96573758125305,4.65024995803833,6.54816246032715,-29.2429504394531,-1.54695010185242,16.9549503326416,-4.60514974594116,-4.23252487182617,-3.88286256790161,9.12312507629394,10.7578620910645,12.0883121490479,-14.4319505691528,-13.5889511108398,-2.09700012207031,65.3569564819336,65.3569564819336,25.594051361084,-4.96223735809326,-10.3665370941162,-13.7741994857788,5.53905010223389,6.53505039215088,6.19005012512207,-4.41471242904663,-2.16452503204346,-0.00233749998733,-6.19080018997192,-9.07458782196045,-10.4183750152588,-0.44895002245903,0.04800000041723,0.20100000500679,12.9150009155273,15.9790506362915,7.47495031356812,-14.4821872711182,-9.75782489776611,-5.05367517471313,-0.24405001103878,-0.20595000684261,2.206050157547,11.3819751739502,10.3944501876831,8.98425006866455,4.31351232528687,5.12201261520386,5.92707490921021,0.8520000576973,1.08195006847382,1.31205010414124,11.9569501876831,11.4589509963989,10.6930503845215,SWING_LEFT
1.3836624622345,2.05328750610352,2.94552493095398,-2.16000008583069,-2.31300020217896,-1.27905011177063,0.77824997901917,0.71046251058578,0.64432501792908,2.58857488632202,2.39098739624023,2.17813754081726,1.732950091362,1.732950091362,1.81005012989044,8.4330005645752,8.54805088043213,9.46695041656494,1.53367495536804,0.90323752164841,0.26606249809265,0.71205002069473,0.90405005216599,0.82695001363754,0.33412501215935,0.00082499999553,-0.14162500202656,-0.28531250357628,-1.38380002975464,-1.72507500648499,1.46505010128021,-0.10500000417233,-1.82895004749298,10.6159505844116,10.8850507736206,12.2250003814697,-1.54563748836517,-1.61617493629456,-1.77278745174408,8.68005084991455,1.21005010604858,-28.3999519348145,-1.35368752479553,-1.8486875295639,-2.39030003547669,-1.58111250400543,-1.14812505245209,0.00494999997318,5.9089503288269,-17.6490001678467,-38.449951171875,8.5090503692627,-12.7500009536743,-20.6029510498047,-14.6027746200562,-17.4640121459961,-21.5604114532471,23.7730503082275,36.0319519042969,32.506950378418,15.5340623855591,15.9915246963501,14.3391876220703,19.5273380279541,21.0612869262695,14.0849494934082,-7.38300037384033,3.61005020141602,1.00499999523163,20.2309513092041,-9.95400047302246,-9.95400047302246,-22.6159992218018,-21.2422370910645,-16.6000995635986,7.72305059432983,5.19405031204224,-0.24405001103878,-0.46708750724792,2.07776260375977,8.53462505340576,-9.51939964294434,-10.686224937439,-8.39492511749268,0.35400000214577,0.8520000576973,0.73695003986359,8.81595039367676,7.78200054168701,7.39905023574829,SWING_LEFT
1.39122498035431,1.22924995422363,1.06631255149841,2.55105018615723,2.51295018196106,2.81895017623901,0.00384999997914,0.00041249999776,-0.00302499998361,-0.00384999997914,-0.14519999921322,-0.23925000429153,1.04295003414154,1.04295003414154,1.04295003414154,9.5440502166748,9.5440502166748,9.50505065917969,0.0015124999918,-0.78086251020432,-1.28741252422333,9.21705055236816,19.6740016937256,15.0010509490967,-0.84658747911453,-1.39892494678497,-2.76429986953735,-1.94026243686676,-2.62157487869263,-3.60483741760254,-15.5809507369995,-8.64705085754395,-9.03000068664551,9.35205078125,13.8720006942749,17.473051071167,-0.77811247110367,0.4961000084877,2.24620008468628,-67.2049560546875,-59.7349510192871,-43.6080017089844,-2.22433757781982,-0.15331250429153,2.21058750152588,8.73702526092529,12.1494998931885,15.2494373321533,-38.7180023193359,-8.41695022583008,-14.9680509567261,-56.0370025634766,28.9270515441895,48.6940536499023,3.60579991340637,2.03664994239807,-0.34924998879433,6.42000007629395,6.72705030441284,7.68405055999756,8.31544971466064,7.32366228103638,7.73382472991943,11.1842498779297,6.95309972763062,5.14621257781982,-0.06599999964237,0.23895001411438,0.81405001878738,-6.39105033874512,8.24100017547607,15.1750507354736,-16.6665115356445,-16.372537612915,-15.6477746963501,4.12200021743774,2.55105018615723,0.90405005216599,14.7189626693726,13.7758502960205,12.1261253356934,4.5787501335144,4.36177492141724,3.66671252250671,0.77505004405975,0.3160500228405,0.73695003986359,8.0110502243042,10.1179504394531,10.6930503845215,SWING_LEFT
0.55879998207092,0.4629625082016,0.40026250481606,1.36395001411438,1.55505001544952,1.70805013179779,0.00233749998733,0.00329999998212,0.00329999998212,-0.14396250247955,-0.1907124966383,-0.20790000259876,0.46905001997948,0.39195001125336,0.16200000047684,9.69705009460449,10.1179504394531,10.7310009002686,0.21628749370575,0.19181250035763,-0.18177500367165,8.48895072937012,10.0590000152588,9.98295021057129,-0.32339999079704,-0.68268752098083,-1.08996248245239,-1.04953753948212,-1.57341253757477,-2.03334999084473,-6.04200029373169,-3.85905027389526,-1.86705005168915,11.7270002365112,9.8500509262085,8.54805088043213,-1.00925004482269,-0.34306249022484,1.0978000164032,-51.9970512390137,-39.2410507202149,-20.9299507141113,-1.40690004825592,-2.21223759651184,-2.73913741111755,2.02647495269775,8.38860034942627,10.5946502685547,-52.4710540771484,-16.0410003662109,-14.3550004959106,-22.0200004577637,8.96895027160645,42.2200508117676,6.4363751411438,5.02342510223389,-2.84583759307861,9.02505016326904,9.67605018615723,8.6419506072998,-7.01552486419678,-5.25621223449707,-2.97825002670288,-0.00302499998361,-3.9395124912262,-6.3701000213623,1.50300002098084,1.12005007266998,1.50300002098084,-3.17295026779175,6.59400033950806,7.78200054168701,-17.4769382476807,-17.3230743408203,-15.1956748962402,-0.89505004882813,-1.04895007610321,-0.32100000977516,14.5202751159668,13.0024127960205,11.2666120529175,-4.05858755111694,2.80115008354187,4.57256269454956,1.19700002670288,1.08195006847382,0.8520000576973,9.00705051422119,11.1139507293701,12.1489505767822,SWING_LEFT
-1.34158754348755,-1.30432498455048,-1.3029500246048,0.32895001769066,1.8229501247406,1.51695013046265,-0.00481249997392,-0.00137499999255,0.00137499999255,-1.01364994049072,-0.78883749246597,-0.57626247406006,3.61005020141602,2.57595014572144,3.26505017280579,7.9350004196167,8.66295051574707,8.66295051574707,-1.56763744354248,-1.85212504863739,-1.91757500171661,1.66995012760162,-6.18195009231567,-1.73805010318756,0.00412499997765,0.00068749999627,-0.00536249997094,-1.09119999408722,-1.30528748035431,-1.35052502155304,2.95905017852783,2.26905012130737,-0.7180500626564,10.1179504394531,10.1179504394531,4.2960000038147,-1.45144999027252,-1.49627494812012,-1.60407495498657,-3.8449501991272,-15.8350505828857,-46.9789505004883,-1.85363745689392,-2.42398738861084,-3.75182509422302,-2.22461247444153,-0.45278748869896,3.2153000831604,-34.006950378418,-36.1519508361816,-32.8570518493652,-2.82795023918152,-14.4360008239746,-19.9900512695313,0.75171250104904,1.14441251754761,0.30593749880791,28.4089508056641,36.3379516601563,37.1040000915527,-12.2523498535156,-15.5604619979858,-13.2265377044678,8.28575038909912,-1.24038743972778,-9.33212471008301,-5.85105037689209,-0.18105000257492,1.23495006561279,1.00095009803772,1.00095009803772,6.01905012130737,-15.1384744644165,-16.2959499359131,-16.3905506134033,-2.1979501247406,-1.04895007610321,-2.12100005149841,6.0645751953125,9.65703773498535,10.4449129104614,-3.11657500267029,4.47259998321533,8.06451225280762,0.00900000054389,1.00499999523163,1.00499999523163,9.31395053863525,9.31395053863525,9.31395053863525,SWING_LEFT
-0.87422502040863,-0.93211251497269,-0.8984249830246,1.66995012760162,1.66995012760162,1.78500008583069,-0.1710499972105,-0.15633749961853,-0.00659999996424,-0.52648746967316,-0.36698749661446,-0.00068749999627,2.65200018882751,2.53695011138916,2.30805015563965,9.27600002288818,9.39105033874512,9.39105033874512,-0.35681250691414,-0.25203749537468,-0.24846249818802,6.53505039215088,9.25500011444092,14.6560506820679,-0.57048749923706,-0.84947496652603,-1.23103749752045,-0.82665002346039,-1.56474995613098,-2.29404997825623,-5.85105037689209,-4.66305017471313,-2.44095015525818,8.05005073547363,14.5620002746582,20.8440017700195,-0.42047500610352,0.88151252269745,2.23052501678467,-25.4890518188477,-59.4670524597168,-52.9170036315918,-2.00488758087158,-2.50195002555847,-7.61323738098145,1.71421253681183,5.03634977340698,9.38437461853027,-67.1809539794922,-68.7900009155273,-15.9640502929688,-45.9619522094727,-45.9619522094727,40.150951385498,11.0019245147705,9.72482490539551,7.9094123840332,18.985050201416,6.68805027008057,4.81095027923584,-14.6015377044678,-13.7722749710083,-10.31676197052,4.6553373336792,2.75852489471436,2.66420006752014,-0.75600004196167,-0.7180500626564,-0.60300004482269,16.4389514923096,16.7070007324219,16.7070007324219,-17.4542503356934,-19.5156497955322,-18.3171997070313,1.70805013179779,0.6360000371933,0.78900003433228,12.0306997299194,15.0291624069214,15.2003498077393,4.88936233520508,8.33332538604736,7.96771240234375,0.43095001578331,0.81405001878738,1.08195006847382,9.88905048370361,9.77400016784668,9.77400016784668,SWING_LEFT
-0.96291249990463,-0.92839998006821,-0.91079998016357,2.16795015335083,2.47500014305115,2.51295018196106,-0.25602498650551,-0.21298749744892,-0.20377500355244,-0.00659999996424,-0.14052499830723,-0.14588749408722,0.35400000214577,0.00900000054389,-0.41100001335144,9.8500509262085,9.88905048370361,10.5010509490967,-0.81551247835159,-0.83929997682571,-0.8786249756813,11.4379501342773,20.5170001983643,14.9239511489868,-0.61971247196198,-1.04403746128082,-1.53505003452301,-1.66773748397827,-2.29638743400574,-2.84570002555847,-10.4479503631592,-2.44095015525818,1.46505010128021,17.8180503845215,17.8180503845215,13.1830501556396,1.46574997901917,2.5471875667572,4.43685007095337,-57.4750518798828,-50.7720031738281,-33.3799514770508,-2.14334988594055,-6.90964984893799,-9.28111267089844,3.90871238708496,8.14151287078857,9.51665019989014,-61.6639518737793,-16.3090515136719,-8.72399997711182,-51.0960006713867,33.6389999389648,33.6389999389648,10.8594751358032,9.58457469940186,3.34345006942749,-1.96800005435944,-0.51195001602173,8.87205028533936,-10.3068628311157,-6.58514976501465,-1.73965001106262,0.97281247377396,0.76518750190735,1.46850001811981,-1.82895004749298,-0.90900003910065,-0.02805000171065,16.9750499725342,16.9750499725342,8.05005073547363,-18.6359252929688,-17.7599124908447,-16.2346248626709,1.24905002117157,1.63200008869171,2.05305004119873,11.4842748641968,11.5416126251221,9.93602466583252,5.25263738632202,6.18461227416992,4.99317502975464,0.00900000054389,0.39195001125336,0.46905001997948,10.3870506286621,9.00705051422119,9.31395053863525,SWING_LEFT
-0.95232498645782,-0.96291249990463,-0.95713746547699,1.74705004692078,1.55505001544952,1.63200008869171,-0.20212499797344,-0.22962500154972,-0.24337500333786,-0.00192499998957,-0.00329999998212,-0.00467499997467,-0.41100001335144,-0.60300004482269,-0.87105005979538,10.5400505065918,10.3099508285522,10.3099508285522,-0.68089997768402,-0.53033751249313,-0.4268000125885,4.65795040130615,11.9749507904053,15.8050508499146,-0.2549250125885,-0.32903748750687,-0.77151250839233,-0.77962499856949,-1.13011252880096,-1.9102874994278,-10.9840507507324,-11.7499504089355,1.35000002384186,13.9489507675171,14.026050567627,12.6469507217407,1.17040002346039,1.79698753356934,2.62886238098145,-46.1359519958496,-62.6080513000488,-56.0580024719238,-1.13341248035431,-2.11186242103577,-3.30041241645813,2.21705007553101,4.78376245498657,7.66370010375977,-78.3660049438477,-35.0790023803711,-17.9560508728027,-55.0030517578125,-30.5250015258789,22.185001373291,9.33363723754883,6.8857250213623,5.36222505569458,15.2689504623413,2.09100008010864,12.2050504684448,-1.29359996318817,4.08553743362427,7.39090013504028,15.1713371276855,23.8323249816895,23.1009616851807,0.39195001125336,-0.87105005979538,-1.6750500202179,11.5740003585815,11.5740003585815,5.25300025939941,3.41247487068176,2.06139993667603,1.95923745632172,0.29100000858307,0.52095001935959,0.09900000691414,14.7972002029419,13.5213375091553,13.3959369659424,12.5610370635986,8.64806270599365,8.13202476501465,-0.56400001049042,-0.41100001335144,-0.44895002245903,9.92700004577637,9.92700004577637,9.96495056152344,SWING_LEFT
-0.00123749999329,0.68158751726151,2.28318738937378,1.17195010185242,1.1340000629425,1.17195010185242,0.54202497005463,0.64996248483658,0.71252501010895,-0.21889999508858,-0.14066250622272,-0.0027499999851,-0.56400001049042,-0.60300004482269,-0.48795002698898,10.0420503616333,10.3099508285522,10.4629507064819,4.24943733215332,3.82249999046326,3.13444995880127,4.84995031356812,9.02505016326904,22.8160514831543,0.24571250379086,-0.36849999427795,-1.02698755264282,-0.14794999361038,-1.08556246757507,-1.72535002231598,-20.791051864624,-13.5510005950928,0.54495000839233,11.6119508743286,19.9249515533447,19.9249515533447,-0.84218752384186,-0.88646250963211,1.38118743896484,-59.6200523376465,-50.4649505615234,-22.1560516357422,-3.03888750076294,-3.99712491035461,-5.30777502059937,3.29876255989075,6.14886236190796,8.75338745117188,-63.2350540161133,-22.5139503479004,-14.2780504226685,-46.1160011291504,-28.5330009460449,43.0240516662598,6.1505126953125,5.30282497406006,4.07563734054565,-7.10100030899048,-5.72205018997192,5.8840503692627,-4.06862497329712,1.51511251926422,4.02641248703003,13.8520250320435,20.5268249511719,21.1095504760742,-3.62895011901855,-2.05800008773804,-0.48795002698898,16.5919513702393,20.3080501556396,7.81995058059692,9.17922496795654,8.31984996795654,8.18386268615723,2.47500014305115,1.93800008296967,2.74305009841919,13.7248373031616,12.3906745910645,12.4691877365112,16.2911376953125,9.11666202545166,6.47611236572266,0.04800000041723,0.27705001831055,0.50700002908707,9.65895080566406,9.65895080566406,9.12195014953613,SWING_LEFT
-0.83875000476837,-1.03028750419617,-1.17314994335175,0.06105000153184,0.94200003147125,2.206050157547,0.00123749999329,0.00398749997839,0.00384999997914,0.21133749186993,0.39091250300407,0.53583747148514,-0.02805000171065,-0.06599999964237,-0.56400001049042,10.2330007553101,10.5400505065918,10.7700004577637,-2.17222499847412,-2.49314999580383,-2.86494994163513,10.4809503555298,5.99895048141479,4.50495004653931,-1.20903754234314,-1.71957504749298,-2.1872124671936,-1.51002502441406,-2.00901246070862,-2.41436243057251,-6.04200029373169,-7.0770001411438,-5.00805044174194,9.16095066070557,9.16095066070557,12.5320501327515,-3.68994998931885,-2.53178739547729,-1.34433746337891,-31.0819511413574,-60.5020523071289,-41.1559524536133,-2.10072493553162,-2.35496258735657,-2.97604990005493,1.49654996395111,4.78293752670288,9.6262378692627,-78.3660049438477,-50.4790534973145,-13.8570003509521,-46.957950592041,-6.3139500617981,7.09200048446655,5.49051237106323,4.41718769073486,3.40229988098145,9.6379508972168,9.98295021057129,13.2769508361816,10.4244251251221,11.6304378509521,12.7293376922607,21.323637008667,19.3648128509521,17.3808250427246,-0.33495002985001,-1.02404999732971,-0.48795002698898,1.53795003890991,1.53795003890991,3.72105026245117,-11.2435121536255,-12.6891870498657,-12.7587623596191,-2.50395011901855,-0.70395004749298,0.02295000106096,8.07180023193359,7.8688497543335,7.58573722839355,2.10292506217957,2.69486260414124,6.73571252822876,0.46905001997948,0.69900006055832,0.43095001578331,12.2640008926392,12.4549503326416,10.6159505844116,SWING_LEFT
-0.72256249189377,-1.10701251029968,-1.48994994163513,2.206050157547,2.206050157547,1.66995012760162,-0.34044998884201,-0.42198750376701,-0.54573750495911,-0.00494999997318,-0.18823750317097,-0.27610000967979,1.31205010414124,1.04295003414154,1.42695009708405,10.2720003128052,10.2720003128052,9.23700046539307,-3.79183745384216,-5.19296264648438,-5.94962501525879,2.16795015335083,1.63200008869171,1.40205001831055,-1.28149998188019,-1.35052502155304,-1.22636246681213,-0.62961250543594,-0.68791252374649,-0.72269999980927,1.38795006275177,1.19700002670288,1.27305006980896,9.08400058746338,9.5440502166748,9.61995029449463,-6.42675018310547,-5.66706228256226,-4.56761264801025,5.27100038528442,5.61600017547607,0.90405005216599,-0.27857500314713,-0.00591249996796,-0.34498751163483,-0.85689997673035,-0.92922496795654,-0.79502499103546,1.12005007266998,-13.8570003509521,-25.2340507507324,18.3540000915527,5.25300025939941,-7.50195026397705,-2.68289995193481,-4.67500019073486,-5.71999979019165,-17.5969505310059,22.8919506072998,26.4550514221191,-2.58898758888245,-2.89299988746643,-1.37651252746582,8.62661266326904,9.37255001068115,10.6090869903564,-9.22200012207031,-7.11495018005371,-1.98195004463196,4.63995027542114,-2.21595001220703,0.73305004835129,-11.8053379058838,-13.8232870101929,-15.0932378768921,6.22905015945435,1.93800008296967,-1.69995009899139,3.11616253852844,3.66918754577637,3.36132502555847,-0.00536249997094,-0.37963750958443,-0.40191251039505,0.81405001878738,1.19700002670288,1.50300002098084,10.8460502624512,11.5740003585815,11.6890506744385,SWING_LEFT
1.06204998493195,0.71431249380112,0.40988749265671,1.70805013179779,1.66995012760162,1.86195003986359,-0.00398749997839,-0.21298749744892,-0.32216250896454,0.46694999933243,0.40617498755455,0.33646249771118,1.04295003414154,1.1580001115799,1.42695009708405,10.3870506286621,10.2330007553101,9.61995029449463,0.15125000476837,0.17778749763966,0.00563749996945,2.93400025367737,2.51295018196106,2.55105018615723,-0.23553749918938,-0.00618749996647,0.00206249998882,-0.15056249499321,-0.29012501239777,-0.55866247415543,0.62205004692078,0.3160500228405,1.00499999523163,9.12195014953613,9.69705009460449,9.35205078125,-0.86418747901917,-1.0949125289917,-1.41391253471375,2.47500014305115,5.99895048141479,2.93400025367737,-0.79337501525879,-1.28603744506836,-1.97903752326965,-0.30428749322891,-0.00068749999627,0.37757501006126,-1.52205002307892,-11.1370506286621,-20.0239505767822,14.2560005187988,-7.08105039596558,-20.1820507049561,-11.7507495880127,-12.849100112915,-12.8429126739502,-21.8880004882813,22.7770519256592,27.7960510253906,-3.52907490730286,-4.27088737487793,-4.49226236343384,10.3764371871948,10.5831003189087,10.1686744689941,-18.7600517272949,-7.49805021286011,0.62205004692078,13.068000793457,3.72105026245117,-12.7879505157471,-9.15461254119873,-10.8553495407104,-12.6504125595093,1.44000005722046,-2.77305006980896,-3.76905012130737,-0.95314997434616,1.08473753929138,2.83126258850098,4.64488744735718,4.050612449646,3.89413738250732,0.20100000500679,0.62205004692078,0.81405001878738,15.3280506134033,9.77400016784668,7.55205059051514,SWING_LEFT
1.39988744258881,1.32838749885559,1.25510001182556,2.70405006408691,3.70005011558533,4.39005041122437,0.1913999915123,0.00646249996498,0.00494999997318,-0.00137499999255,-0.39448750019073,-0.55852502584457,0.3160500228405,1.08195006847382,1.35000002384186,11.4210004806519,10.195050239563,8.89305019378662,0.92729997634888,0.89155000448227,0.55302500724792,0.25304999947548,0.82695001363754,2.16795015335083,0.00687499996275,0.00687499996275,0.0054999999702,-0.17710000276566,0.00646249996498,0.38568750023842,1.23495006561279,0.88995003700256,-0.79395002126694,10.2330007553101,9.81195068359375,9.81195068359375,-4.11963748931885,-5.51347494125366,-7.42458724975586,-26.1400508880615,-50.1199531555176,-45.3319511413574,-1.59018754959106,-2.06084990501404,-2.3570249080658,-0.78443747758865,2.79509997367859,4.80342483520508,-38.6419525146484,-40.0969505310059,-30.5970020294189,-37.420051574707,-9.5710506439209,11.3059501647949,-13.0370626449585,-12.2832870483398,-11.1754503250122,39.8620529174805,14.5800008773804,10.5960006713867,-10.4780502319336,-10.8201503753662,-10.6836128234863,6.17264986038208,4.39986228942871,2.70902490615845,-1.25400006771088,-0.98595005273819,-1.21605002880096,4.14195013046265,5.3299503326416,5.3299503326416,-12.9725751876831,-13.5000247955322,-12.7524375915527,0.17595000565052,0.71205002069473,1.78500008583069,4.38721227645874,6.90786266326904,7.73767518997192,1.00718748569489,3.34413743019104,4.50243759155273,0.73695003986359,0.54495000839233,0.39195001125336,7.6279501914978,10.5400505065918,10.5780000686646,SWING_LEFT
-1.06397497653961,-0.83160001039505,-0.71802496910095,4.00695037841797,3.12600016593933,3.89205026626587,0.00316249998286,0.00384999997914,0.00618749996647,-0.6513375043869,-0.74043750762939,-0.76986247301102,1.23495006561279,1.1580001115799,0.73695003986359,9.00705051422119,9.65895080566406,9.58200073242188,-0.21628749370575,-0.00343749998137,0.00673749996349,4.08300018310547,6.19005012512207,9.10200023651123,0.26001250743866,0.28159999847412,0.27857500314713,-0.68282496929169,-0.72930002212524,-0.8896250128746,-10.2940502166748,-15.4660511016846,-10.8690004348755,8.16495037078857,10.9230003356934,14.7919502258301,1.97339999675751,2.99296259880066,4.44950008392334,-75.8629531860352,-50.8860015869141,-26.5609512329102,-1.87618744373322,-3.68018746376038,-5.95031261444092,3.63013744354248,5.99953746795654,9.1360502243042,-78.1369552612305,-35.3860511779785,-10.9459505081177,-53.623950958252,41.4540023803711,-5.54805040359497,8.93942451477051,7.49993753433228,5.31176233291626,0.06105000153184,-3.1560001373291,4.84995031356812,-4.99345016479492,-3.56757497787476,-2.72140002250671,9.14993762969971,8.40180015563965,7.84327507019043,-0.48795002698898,-0.75600004196167,-0.7180500626564,11.5360507965088,6.70905017852783,6.40305042266846,-10.43088722229,-10.5450124740601,-10.1140871047974,0.09900000691414,0.75105005502701,1.1340000629425,0.00673749996349,0.40768748521805,1.03771245479584,11.1275997161865,12.1430377960205,12.4830751419067,0.23895001411438,0.08595000207424,0.58395004272461,10.0030508041382,10.5400505065918,10.6159505844116,SWING_LEFT
1.18277502059937,0.94503748416901,0.64515000581741,1.8229501247406,2.16795015335083,2.09100008010864,0.0015124999918,0.00082499999553,0.0,-0.35021248459816,-0.31308749318123,-0.2729375064373,0.3160500228405,0.39195001125336,0.3160500228405,10.3480501174927,10.3480501174927,10.1569509506226,0.48743748664856,0.46392500400543,0.4629625082016,2.05305004119873,1.86195003986359,2.13000011444092,0.0,0.00371249997988,0.0054999999702,-0.00646249996498,-0.00343749998137,-0.00371249997988,0.39195001125336,0.23895001411438,-1.02404999732971,9.46695041656494,9.77400016784668,9.12195014953613,0.48647499084473,0.46805000305176,-0.00659999996424,13.4299507141113,14.5410003662109,-24.2629508972168,-0.47726249694824,-0.88137501478195,-1.28012502193451,-1.90066254138947,-2.48723745346069,-2.59929990768433,4.33800029754639,3.61005020141602,-25.8090019226074,23.6029510498047,-2.63700008392334,-26.3110504150391,0.97679996490479,2.05741238594055,2.33323740959167,-3.88305020332336,27.2590503692627,32.4690017700195,-3.94295001029968,-4.55235004425049,-4.69369983673096,10.9813003540039,12.5173120498657,12.0546245574951,-15.4279508590698,-4.12695026397705,0.35400000214577,-1.71795010566711,-1.71795010566711,-2.48400020599365,-4.46022510528564,-9.23051261901856,-14.2680997848511,7.7989501953125,3.20205020904541,-6.52695035934448,-3.90513753890991,-3.85109996795654,-3.74082493782043,1.93916249275208,2.18446254730225,2.57111239433289,0.50700002908707,0.58395004272461,0.12405000627041,8.24100017547607,8.24100017547607,9.73500061035156,SWING_LEFT
0.61930000782013,0.8068500161171,0.99866247177124,1.55505001544952,1.70805013179779,1.09500002861023,0.39875000715256,0.47602498531342,0.60926252603531,0.18301250040531,0.45333749055862,0.7070249915123,4.41495037078857,4.06995010375977,2.69100022315979,8.62395000457764,8.89305019378662,9.35205078125,1.16943752765656,0.51218748092651,0.17544999718666,8.83395004272461,5.99895048141479,0.02295000106096,0.9813374876976,0.49376249313354,-1.37609994411469,-0.24626250565052,-0.92826247215271,-1.76549994945526,-3.28395009040833,-5.39100027084351,-14.2780504226685,17.2049999237061,20.9980506896973,19.3120517730713,-0.63263750076294,-1.46891248226166,-2.07679986953735,-55.560001373291,-59.7739524841309,-57.1309509277344,-4.14383745193481,-3.06955003738403,-1.71723747253418,8.1533374786377,10.9756622314453,13.3222370147705,-75.7620010375977,-38.2200012207031,-16.2319507598877,-26.3869514465332,-10.7959508895874,21.3810005187988,-3.94308757781982,-3.68266248703003,-4.28326225280762,22.1640014648438,19.560001373291,19.4059505462646,3.72748756408691,3.94473743438721,3.88891243934631,12.6696624755859,11.6183376312256,10.0491876602173,1.12005007266998,1.92495012283325,1.23495006561279,5.36805009841919,4.79400014877319,7.70505046844482,-12.5043878555298,-13.0242748260498,-12.9222497940063,-0.550950050354,0.06105000153184,0.02295000106096,1.31505000591278,1.39672493934631,1.6053124666214,8.1907377243042,8.88346290588379,10.003812789917,2.46105003356934,3.30405020713806,3.22695016860962,9.96495056152344,9.69705009460449,8.5090503692627,SWING_LEFT
-1.73414993286133,-1.83383750915527,-1.91083753108978,3.47100019454956,2.89605021476746,2.39805006980896,0.00412499997765,0.23127499222755,0.15565000474453,-0.5546749830246,-0.85236251354218,-0.9675874710083,2.53695011138916,2.53695011138916,2.38394999504089,10.7310009002686,10.7310009002686,9.81195068359375,-1.63954997062683,-1.56103754043579,-1.31889998912811,4.31295013427734,4.84995031356812,5.34795045852661,-0.78210002183914,-0.87972497940063,-0.90117502212524,-0.83558750152588,-0.77398747205734,-0.72751247882843,0.77505004405975,1.23495006561279,1.57995009422302,11.2290000915527,11.3440504074097,11.5740003585815,-0.23251250386238,-0.00577499996871,-0.00591249996796,-51.8820037841797,-55.1389541625977,-47.5920028686523,-0.76642501354218,0.345124989748,2.19463753700256,2.51886248588562,8.61822509765625,11.4298248291016,-53.2369537353516,-44.0050506591797,-13.3210506439209,-24.1270503997803,-8.2300500869751,12.9529504776001,-6.53152513504028,-7.01057481765747,-5.69538736343384,16.2649517059326,9.67605018615723,15.9589509963989,21.5015621185303,22.9043369293213,22.4779491424561,26.6054248809814,28.668062210083,30.0660247802734,0.23895001411438,2.99700021743774,1.31205010414124,6.21105051040649,4.41105031967163,4.41105031967163,-5.25236225128174,-6.85863733291626,-8.20531272888184,-0.32100000977516,-1.47000002861023,-1.43205010890961,7.68184995651245,4.94532489776611,4.57366228103638,15.4089374542236,7.47394990921021,5.33458757400513,-0.41100001335144,1.50300002098084,2.19300007820129,9.77400016784668,10.8850507736206,10.8079509735107,SWING_LEFT
-0.94008749723434,-1.07992494106293,-1.22498750686646,3.43200016021729,4.04505014419556,4.12200021743774,-0.00054999999702,0.00054999999702,0.00068749999627,-0.49871250987053,-0.67196249961853,-0.87463748455048,1.57995009422302,1.77105009555817,2.07795000076294,9.42900085449219,8.8540506362915,9.16095066070557,-1.40937495231628,-1.2277375459671,-1.15527498722076,5.42400026321411,12.0900001525879,15.69105052948,-0.14478750526905,-0.14245000481606,-0.21642500162125,-1.22993743419647,-1.33210003376007,-1.63102495670319,-5.46795034408569,-6.34905052185059,-2.47995018959045,13.03005027771,16.746000289917,14.5240507125854,0.46818751096725,0.00591249996796,-4.10354995727539,-35.5639533996582,-58.85400390625,-57.2449531555176,-8.18509960174561,-8.28135013580322,-7.71801233291626,3.58874988555908,7.95052480697632,11.9487495422363,-67.10400390625,-78.3660049438477,-50.7090034484863,-49.219051361084,-39.4500007629395,-19.3770008087158,-9.89284992218018,-9.77006244659424,-5.00128746032715,30.6690006256104,8.33595085144043,14.9239511489868,-8.12253761291504,-6.77544975280762,-4.54561233520508,11.5724124908447,9.41201210021973,9.98428726196289,-1.25400006771088,-0.25800001621246,-0.33495002985001,7.39905023574829,10.5400505065918,8.20305061340332,-10.4951000213623,-12.1983127593994,-12.109899520874,1.36395001411438,0.06105000153184,-1.20195007324219,7.68941259384155,6.61842489242554,5.13741254806519,14.5077619552612,13.69651222229,11.150975227356,0.12405000627041,0.27705001831055,0.96705007553101,9.81195068359375,9.81195068359375,10.3480501174927,SWING_LEFT
-1.17356252670288,-1.37279999256134,-1.61906254291534,2.01495003700256,1.78500008583069,1.05705010890961,-0.00632499996573,-0.00577499996871,-0.00522499997169,-0.31322500109673,-0.0054999999702,0.00109999999404,1.88595008850098,1.69500005245209,1.57995009422302,8.81595039367676,8.778000831604,9.12195014953613,-2.69032502174377,-2.94016242027283,-3.33561253547669,2.43600010871887,5.99895048141479,10.8259506225586,-0.1710499972105,-0.25547498464584,-0.40246251225471,0.34759998321533,-0.00041249999776,-0.56773751974106,-2.44095015525818,-2.59500002861023,-3.51405024528503,15.5200510025024,16.1329498291016,17.3970012664795,-0.8427374958992,-0.62150001525879,-3.11409997940063,-49.6990509033203,-59.1990013122559,-52.1890525817871,-3.98667502403259,-4.0110125541687,-4.15538740158081,0.74511247873306,7.67291259765625,11.2287998199463,-48.9850540161133,-54.0799522399902,-19.6410007476807,-46.8430519104004,-16.159049987793,21.151050567627,-9.08572483062744,-10.0831499099731,-6.74520015716553,20.7090015411377,6.84195041656494,19.5979499816895,-4.65767478942871,-3.4123375415802,-2.27933740615845,13.1616373062134,12.3205499649048,12.294150352478,0.96705007553101,-1.06200003623962,-0.90900003910065,5.2150502204895,10.0800008773804,10.0420503616333,-8.85169982910156,-9.06496238708496,-8.35312461853027,-3.46200013160706,-3.46200013160706,-2.12100005149841,9.14072513580322,7.36793756484985,6.47363758087158,13.6914253234863,11.274450302124,9.27506256103516,-0.52605003118515,0.96705007553101,1.31205010414124,10.6930503845215,10.8079509735107,10.0800008773804,SWING_LEFT
-1.76549994945526,-1.70252501964569,-1.62016248703003,0.483000010252,1.44000005722046,1.66995012760162,0.23938749730587,0.25533750653267,0.2253624945879,0.23622499406338,0.00522499997169,-0.21285000443459,1.19700002670288,1.23495006561279,0.46905001997948,10.2720003128052,10.2330007553101,10.0800008773804,-0.95122498273849,-0.76120001077652,-0.4490749835968,10.1740503311157,9.86805057525635,5.65395021438599,-0.00577499996871,-0.23801249265671,-0.35021248459816,-2.29583740234375,-2.69816255569458,-2.8215000629425,-3.97395014762878,-3.93495011329651,-4.58700037002563,16.5919513702393,17.5879516601563,19.5420017242432,2.14651250839233,-3.3932249546051,-9.95747470855713,-27.1360511779785,-53.568000793457,-50.1589508056641,-4.78678750991821,-4.71377515792847,-4.29811239242554,6.3905873298645,9.65291213989258,15.5555124282837,-54.5389518737793,-62.8900527954102,-12.3250503540039,-42.1699523925781,-23.859001159668,14.907000541687,-13.3981370925903,-12.6149377822876,-6.33489990234375,6.19005012512207,3.58500027656555,13.6990509033203,-4.99276256561279,-3.33520007133484,-1.34873747825623,7.93801259994507,5.96997499465942,7.46212482452393,0.20100000500679,0.73695003986359,0.77505004405975,11.6119508743286,11.6119508743286,9.77400016784668,-13.8033494949341,-15.4404249191284,-14.3332748413086,4.31295013427734,4.12200021743774,3.96900010108948,7.95739984512329,7.2575249671936,4.04360008239746,10.8948125839233,10.7240371704102,3.96563744544983,0.35400000214577,1.12005007266998,2.00100016593933,11.19105052948,9.35205078125,9.61995029449463,SWING_LEFT
-1.30803751945496,-1.31174993515015,-1.3860000371933,2.85795021057129,2.35995006561279,2.24505019187927,0.00577499996871,0.00687499996275,0.00659999996424,-0.54738748073578,-0.41277500987053,-0.34319999814034,2.65200018882751,2.76705002784729,2.72895002365112,9.39105033874512,9.19905090332031,8.73900032043457,-1.78667497634888,-1.85844993591309,-1.88856244087219,2.16795015335083,2.43600010871887,5.11800003051758,-0.23801249265671,-0.3255999982357,-0.38912498950958,-0.15262499451637,-0.20198750495911,-0.32491248846054,2.30805015563965,0.12405000627041,-0.83295005559921,10.6930503845215,10.7700004577637,11.5740003585815,-1.07456254959106,-0.60816252231598,-0.2788499891758,-19.4740505218506,-45.6379508972168,-62.953052520752,-0.94655001163483,-1.9679000377655,-1.62456250190735,-1.53312504291534,2.65814995765686,6.49522495269775,-26.4600009918213,-59.5579528808594,-28.0309505462646,-45.808952331543,-27.8809509277344,17.0520000457764,-8.43947505950928,-9.39606285095215,-11.3543376922607,33.9250526428223,16.7629508972168,12.1660509109497,-3.5572624206543,-0.90983748435974,0.92537498474121,13.201512336731,13.525050163269,13.7827253341675,-1.25400006771088,1.27305006980896,0.23895001411438,-1.71795010566711,13.2979507446289,15.8260507583618,-11.9103870391846,-12.7297496795654,-12.6204376220703,-1.08705008029938,-3.38505005836487,-4.61100006103516,11.6707248687744,8.88799953460693,7.20499992370605,11.3576374053955,9.26516246795654,7.09032487869263,0.23895001411438,1.69500005245209,2.11605000495911,10.0800008773804,9.39105033874512,9.39105033874512,SWING_LEFT
-0.85456252098083,-0.80107498168945,-0.75803750753403,2.01495003700256,1.70805013179779,1.70805013179779,0.00604999996722,0.00371249997988,0.00137499999255,-0.30992498993874,-0.27004998922348,-0.25685000419617,2.88195013999939,2.88195013999939,2.92095017433167,9.31395053863525,9.92700004577637,10.1179504394531,-0.64569997787476,-0.65477502346039,-0.6572499871254,2.47500014305115,3.89205026626587,8.68005084991455,-0.29425001144409,-0.32394999265671,-0.3269749879837,-0.32738751173019,-0.46117499470711,-0.70248746871948,0.23895001411438,-1.1010000705719,-0.37305000424385,9.81195068359375,12.7230005264282,15.8260507583618,0.7099124789238,1.08171248435974,0.26812499761581,-40.9270515441895,-59.8500022888184,-57.8200531005859,-2.49686241149902,-2.24138760566711,-2.00392508506775,-0.00206249998882,6.40241241455078,9.94936275482178,-48.9850540161133,-56.9910011291504,-23.1660003662109,-50.1000022888184,-30.4099521636963,12.8760004043579,-11.2942495346069,-12.6966123580933,-13.0373373031616,33.0439529418945,11.2090501785278,4.19805002212524,-2.98429989814758,-1.87371253967285,-1.02148747444153,13.1891374588013,11.8321495056152,10.804612159729,-0.33495002985001,1.38795006275177,1.27305006980896,1.57605004310608,6.93900012969971,11.0380506515503,-9.63325023651123,-10.2980623245239,-9.9847002029419,1.1340000629425,-1.85295009613037,-2.77305006980896,10.6467628479004,8.96197509765625,7.7994122505188,10.0601873397827,8.48649978637695,7.02583742141724,0.20100000500679,1.04295003414154,1.50300002098084,10.3870506286621,9.69705009460449,9.69705009460449,SWING_LEFT
-1.72108745574951,-1.48004996776581,-1.21302497386932,2.05305004119873,2.13000011444092,1.97700011730194,-0.29796248674393,-0.48482498526573,-0.49967500567436,-0.16293749213219,-0.14203749597073,-0.007012499962,2.49900007247925,2.26905012130737,2.34600019454956,10.2330007553101,10.6159505844116,10.6930503845215,-0.47932499647141,-0.50435000658035,-0.47327500581741,6.19005012512207,8.52705001831055,6.15195035934448,-0.28132501244545,-0.32339999079704,-0.42267498373985,-0.54972499608994,-0.80396246910095,-1.03826248645782,0.16200000047684,0.39195001125336,1.96305012702942,11.6119508743286,11.5740003585815,10.2330007553101,0.94929999113083,0.36643749475479,-2.54264998435974,-39.2410507202149,-57.7819519042969,-52.2649536132813,-2.98251247406006,-1.73923754692078,-0.82774996757507,0.45402500033379,7.15962505340576,10.2059373855591,-44.3110504150391,-68.0620498657227,-24.4300518035889,-42.553050994873,-18.9180011749268,19.465051651001,-13.0218000411987,-13.8275499343872,-12.2989625930786,22.8919506072998,4.19805002212524,27.1440010070801,-5.36579990386963,-4.94285011291504,-4.98423767089844,11.2259120941162,9.86590003967285,10.1931495666504,1.04295003414154,0.8520000576973,-0.87105005979538,3.14595007896423,4.02795028686523,8.89305019378662,-12.6014623641968,-12.6229124069214,-11.0551376342773,-3.1560001373291,-2.77305006980896,-2.12100005149841,5.80744981765747,4.85443735122681,4.44138765335083,13.4403495788574,13.0670375823975,11.3686370849609,1.1580001115799,2.76705002784729,3.49500012397766,11.076000213623,10.1569509506226,8.62395000457764,SWING_LEFT
-1.70211243629456,-1.7771874666214,-1.69963753223419,1.86195003986359,2.32095003128052,2.93400025367737,0.24942499399185,0.15331250429153,-0.0054999999702,-0.00261249998584,-0.00604999996722,-0.29521250724792,1.92495012283325,1.88595008850098,1.92495012283325,10.5010509490967,10.6549501419067,10.8079509735107,-0.58079999685287,-0.33934998512268,-0.15798750519753,5.69205045700073,6.07500028610229,6.72705030441284,-0.36258751153946,-0.29727500677109,-0.26317501068115,-1.17589998245239,-1.39617502689362,-1.55801248550415,0.35400000214577,0.8520000576973,2.6140501499176,11.2680006027222,11.076000213623,10.3480501174927,0.29081249237061,-0.29466250538826,-2.46798753738403,-27.5959510803223,-64.6000518798828,-49.5840034484863,-2.06772494316101,-1.58619999885559,-1.82352495193481,1.05696249008179,4.67953729629517,11.3724870681763,-65.5330505371094,-70.6279525756836,-13.9339504241943,-34.2019500732422,-28.4560508728027,23.871000289917,-12.3494253158569,-13.7054500579834,-14.0190877914429,18.295051574707,19.560001373291,22.3939514160156,-1.79616248607636,-1.51538753509521,-0.78677499294281,14.3489503860474,13.7237377166748,12.8709621429443,0.58395004272461,-0.94695001840591,-1.56000006198883,9.39105033874512,10.195050239563,10.195050239563,-10.4152126312256,-9.54854965209961,-8.46683788299561,-6.33495044708252,-5.56905031204224,-3.92205023765564,8.42462539672852,7.57913732528687,6.42647504806519,12.186487197876,11.4750623703003,10.1260499954224,1.84800004959106,2.34600019454956,3.15000009536743,9.69705009460449,9.04605007171631,8.66295051574707,SWING_LEFT
-1.35134994983673,-1.56859993934631,-1.77773749828339,1.70805013179779,1.44000005722046,1.21005010604858,-0.00536249997094,-0.00398749997839,-0.00329999998212,0.00096249999478,0.00453749997541,0.15358750522137,2.99700021743774,3.07395005226135,3.22695016860962,8.62395000457764,8.89305019378662,9.31395053863525,-2.75714993476868,-3.10969996452332,-3.18724989891052,2.24505019187927,6.26700019836426,7.53105020523071,-0.16637499630451,-0.19799999892712,-0.26853749155998,0.0,-0.340725004673,-1.30404996871948,0.3160500228405,-1.36905002593994,1.92495012283325,12.6469507217407,12.6850509643555,11.19105052948,-0.8984249830246,-0.32092499732971,-0.34333750605583,-19.9720516204834,-39.3940505981445,-61.4209518432617,-3.74893736839294,-3.73972487449646,-3.25600004196167,-0.87353748083115,2.53481245040894,6.29640007019043,-71.7010498046875,-78.3660049438477,-54.9220542907715,-49.0270538330078,-49.0270538330078,-47.0730018615723,-10.7526378631592,-13.7647123336792,-15.5024375915527,48.6730537414551,17.6059513092041,16.1890506744385,-7.39667510986328,-6.17237520217896,-5.41200017929077,13.8014249801636,13.2731494903564,11.1843872070313,-0.7180500626564,2.07795000076294,0.43095001578331,-1.2960000038147,5.06205034255981,14.026050567627,-8.53861236572266,-9.32442474365234,-8.39190006256104,-0.20595000684261,-2.61900019645691,-3.80700016021729,8.21191215515137,7.70591259002686,6.91858768463135,14.6928377151489,14.7543001174927,14.1872501373291,0.12405000627041,1.04295003414154,2.42295002937317,12.0340509414673,10.4250001907349,9.50505065917969,SWING_LEFT
