gyro_x_0,gyro_y_0,gyro_z_0,acc_x_0,acc_y_0,acc_z_0,gyro_x_1,gyro_y_1,gyro_z_1,acc_x_1,acc_y_1,acc_z_1,gyro_x_2,gyro_y_2,gyro_z_2,acc_x_2,acc_y_2,acc_z_2,gyro_x_3,gyro_y_3,gyro_z_3,acc_x_3,acc_y_3,acc_z_3,gyro_x_4,gyro_y_4,gyro_z_4,acc_x_4,acc_y_4,acc_z_4,gyro_x_5,gyro_y_5,gyro_z_5,acc_x_5,acc_y_5,acc_z_5,gyro_x_6,gyro_y_6,gyro_z_6,acc_x_6,acc_y_6,acc_z_6,gyro_x_7,gyro_y_7,gyro_z_7,acc_x_7,acc_y_7,acc_z_7,gyro_x_8,gyro_y_8,gyro_z_8,acc_x_8,acc_y_8,acc_z_8,gyro_x_9,gyro_y_9,gyro_z_9,acc_x_9,acc_y_9,acc_z_9,gyro_x_10,gyro_y_10,gyro_z_10,acc_x_10,acc_y_10,acc_z_10,gyro_x_11,gyro_y_11,gyro_z_11,acc_x_11,acc_y_11,acc_z_11,gyro_x_12,gyro_y_12,gyro_z_12,acc_x_12,acc_y_12,acc_z_12,gyro_x_13,gyro_y_13,gyro_z_13,acc_x_13,acc_y_13,acc_z_13,gyro_x_14,gyro_y_14,gyro_z_14,acc_x_14,acc_y_14,acc_z_14,motion_type
2.21927332878113,-0.10140363126993,-1.93155586719513,-0.27046057581902,1.76982927322388,2.28539967536926,-17.5261554718018,-12.624924659729,2.94965648651123,0.85473001003265,-1.4676456451416,-6.05523538589478,12.1523237228394,1.50372111797333,-5.10339736938477,52.5063400268555,37.6356544494629,16.4176387786865,3.3903021812439,4.21863555908203,1.86680424213409,1.16629445552826,0.00992656033486,-0.37003162503242,10.8987054824829,-3.68228220939636,-15.9076747894287,8.52126312255859,-4.74530792236328,-6.9530611038208,-8.70628070831299,-4.19076442718506,3.2825608253479,-17.9283809661865,-36.9197883605957,-37.7697296142578,-0.82772243022919,-0.00733038317412,1.50211763381958,0.49922960996628,0.40637809038162,-1.73103940486908,-23.7822036743164,-17.1742076873779,1.54665434360504,6.58914232254028,0.66079968214035,-8.05918216705322,9.67404365539551,-2.35083842277527,-6.5303783416748,68.2128982543945,40.4751777648926,13.1348896026611,-0.94928461313248,3.07081961631775,2.39031577110291,0.96104377508163,0.68798696994781,0.33368512988091,8.13100814819336,-6.44549036026001,-23.6457347869873,17.6961441040039,5.40401268005371,0.43335050344467,-3.86517357826233,5.1835732460022,11.8701047897339,-46.5232315063477,-40.6762886047363,-20.2603340148926,-0.23762658238411,1.18630027770996,-1.79777646064758,-0.11468994617462,-0.74265944957733,-0.52763485908508,-12.1796035766602,20.7918453216553,36.6707916259766,-2.91134929656982,-9.97214889526367,-8.00411510467529,-5.33674764633179,-8.70628070831299,-10.3391237258911,28.09446144104,11.8228673934937,0.31603461503983,SHAKE
-0.42882740497589,-0.07391469180584,0.76480329036713,0.73991054296494,0.47784933447838,-0.16355916857719,-16.4679183959961,-11.4661312103271,8.70801067352295,3.37821865081787,-0.14125789701939,-1.62566292285919,7.60504341125488,-2.22255682945251,-6.69836664199829,51.7018890380859,35.0092124938965,13.7430171966553,0.20952677726746,1.40865528583527,1.67254900932312,1.2402092218399,1.38498425483704,0.82237732410431,7.93947219848633,-1.89141929149628,-8.90912342071533,8.8564510345459,2.21224236488342,0.50757074356079,-8.17543888092041,-4.09119367599487,2.90504598617554,-14.8470430374146,-36.2134971618652,-40.0585861206055,-0.81428337097168,-0.70554935932159,-0.09957103431225,0.70386946201324,0.59513545036316,0.15836681425571,-15.0840692520142,-12.7135105133057,0.57939678430557,2.54024791717529,0.39504328370094,-3.99352836608887,10.9446439743042,-0.72349351644516,-6.66293621063232,53.9431610107422,37.8870429992676,12.7111158370972,-0.84421575069427,1.16186571121216,1.49661982059479,0.2689334154129,0.58963769674301,0.15164729952812,7.26670122146606,-1.91296720504761,-9.78540134429932,11.5211982727051,3.52187061309814,1.33357036113739,-7.42896127700806,-2.85174798965454,4.02537298202515,-21.3592720031738,-38.2198371887207,-38.2198371887207,0.38606682419777,0.51618111133575,-1.05435335636139,0.83520549535751,0.59513545036316,-0.11774427443743,-10.4246530532837,13.5059909820557,31.4295825958252,-0.85233581066132,-3.75650238990784,-4.65432786941528,-3.1358003616333,-6.08017063140869,-7.18095016479492,27.6946296691895,12.2777652740479,10.1876277923584,SHAKE
0.57848936319351,1.02808618545532,1.5968017578125,-1.0212140083313,0.07651086896658,1.60184133052826,-18.1223106384277,-16.484676361084,-14.9332342147827,8.29381370544434,11.9066638946533,6.78546667098999,13.8102121353149,13.3587827682495,1.51716017723084,10.7598419189453,56.7132530212402,46.4035186767578,-3.50331211090088,-2.47828030586243,-0.00427605677396,-0.62781673669815,0.02641992270947,0.57070088386536,25.0466423034668,10.872368812561,1.08457338809967,9.95778369903564,12.5219745635986,5.76793098449707,-7.98790311813354,-7.39597463607788,-3.44062209129334,-1.52031803131104,-16.5588970184326,-41.2269554138184,0.18020524084568,-0.31826078891754,-0.50152039527893,0.8150469660759,1.71179711818695,1.62444341182709,-17.0999870300293,-17.7105083465576,-9.39993476867676,6.07438898086548,2.67911171913147,-2.34152936935425,12.2244062423706,-0.9861655831337,-7.94086647033691,62.1289367675781,48.0555191040039,18.6274871826172,1.20645880699158,3.47337985038757,3.59921813011169,-0.10919216275215,0.48701232671738,0.90912020206451,8.38958168029785,-1.48201084136963,-9.20600509643555,15.8023300170898,6.13663816452026,-2.71023631095886,1.64849627017975,6.95508241653442,8.49018669128418,-37.2046966552734,-21.0528144836426,-1.57059633731842,-0.56688296794891,5.58269739151001,6.54419946670532,-5.7804651260376,-6.83542919158936,-5.39989614486694,9.90271759033203,21.2180137634277,27.5318241119385,11.2722005844116,10.0487642288208,-0.53390699625015,-3.52003455162048,-4.2035927772522,-4.47237348556519,11.6385135650635,4.29998636245728,2.44208574295044,SHAKE
1.17713737487793,3.16000580787659,3.65114164352417,-1.07924616336823,-1.87520360946655,-0.78297650814056,-10.6999864578247,-14.7201509475708,-13.1277074813843,8.55238819122314,10.6568908691406,12.2610063552856,7.53845882415771,11.2690134048462,9.5005578994751,-21.692066192627,7.17572164535522,42.6515045166016,-0.61636304855347,-1.44836151599884,-0.86498516798019,0.0080939643085,-2.0822868347168,-2.52577495574951,31.8677215576172,20.9091625213623,6.5460467338562,-11.8444147109985,2.3319525718689,0.55784898996353,-6.26831722259521,-5.36973476409912,-3.71673321723938,-3.9576153755188,-6.94348430633545,-13.309666633606,-2.58762526512146,-0.01221730466932,2.93887257575989,-1.08596563339233,0.50106221437454,1.38131904602051,-16.7360687255859,-16.4200344085693,-13.4150114059448,19.1182994842529,23.3967380523682,16.4559459686279,12.8676471710205,1.3412309885025,-6.49067211151123,55.5161514282227,44.7802505493164,11.1070013046265,-1.84298050403595,-0.36163222789764,-0.56688296794891,-0.61865377426147,-0.43783766031265,-0.58933222293854,11.7462530136108,-0.22984336316586,-8.83250904083252,8.66970348358154,2.01591777801514,0.04309562966228,-6.45340967178345,-3.70085072517395,7.25990438461304,-12.1245365142822,-27.8526458740234,-25.4967517852783,1.84053695201874,1.44591808319092,0.40927970409393,2.22553491592407,3.01538348197937,2.26401925086975,-6.1390323638916,22.7503032684326,35.6843795776367,3.42849683761597,0.07422025501728,-2.37744235992432,-6.92194318771362,-6.59024333953857,-6.60795831680298,-1.34314715862274,-1.2641384601593,-2.58094954490662,SHAKE
1.33596229553223,2.30601620674133,2.74706101417542,-2.09022808074951,-1.1079568862915,0.89323770999908,-16.2572288513184,-11.7414646148682,1.57059633731842,11.4134588241577,8.15255641937256,-2.38223075866699,11.3191041946411,0.94539034366608,-5.24328565597534,51.1895294189453,32.8062477111816,6.91475391387939,-0.07941248267889,1.56809103488922,1.26998889446259,-0.2105957865715,-0.46838092803955,-1.07741355895996,12.4884557723999,0.97922849655151,-8.37521648406982,9.2155818939209,0.33997663855553,-4.42927312850952,-7.51998043060303,-4.81690168380737,1.15980398654938,-9.07192993164062,-29.1143913269043,-38.1887130737305,1.86558246612549,3.05921316146851,3.02622652053833,0.03313944116235,0.61468315124512,1.83580279350281,-16.9826717376709,-11.2362880706787,12.9505367279053,10.4557781219482,2.15238738059998,-11.6624555587769,5.92333126068115,-3.45222854614258,-5.96777153015137,53.4616279602051,18.9818286895752,3.57454323768616,0.40622538328171,1.04641211032867,-0.15332718193531,-0.33765575289726,-1.04259431362152,-1.13911092281342,7.73357057571411,-3.17471146583557,-10.5132389068604,5.07600688934326,-1.38624274730682,-3.15316367149353,-6.3672776222229,-2.52982211112976,4.07974004745483,-13.6975269317627,-32.2364311218262,-37.5710105895996,1.92300379276276,3.08059334754944,2.88633823394775,0.20601430535316,1.00808036327362,2.91336917877197,-15.9340105056763,-9.9889087677002,21.0384483337402,10.2810010910034,2.44687414169312,-10.503662109375,4.92334461212158,-4.2145881652832,-6.48456382751465,50.2342414855957,16.3769378662109,3.50989961624146,SHAKE
0.46914452314377,1.92300379276276,3.08059334754944,-0.08781187981367,0.20601430535316,1.00808036327362,-18.9243679046631,-15.9340105056763,-9.9889087677002,14.7704286575317,10.2810010910034,2.44687414169312,14.5059881210327,4.92334461212158,-4.2145881652832,47.7969436645508,50.2342414855957,16.3769378662109,-0.61330872774124,1.29198002815247,0.90408056974411,-0.88315844535828,-0.93996888399124,-1.71821117401123,19.4151802062988,7.41753625869751,-2.39899015426636,10.489296913147,0.89782565832138,-3.35906505584717,-7.88466691970825,-6.97875356674194,1.38276982307434,-0.78290396928787,-9.15812110900879,-37.8631019592285,1.7623462677002,3.49292755126953,4.26383924484253,-0.06582073122263,0.51266866922379,2.03066873550415,-15.5413618087769,-12.7949132919312,1.78607451915741,14.0422925949097,6.59393072128296,-5.86369943618774,8.98559856414795,-1.7790687084198,-6.30985641479492,54.4028472900391,32.5644340515137,7.69765758514404,0.1362229436636,0.41233405470848,-0.72326445579529,-0.622318983078,-1.20508444309235,-1.23501682281494,12.3831100463867,2.92810869216919,-4.68545293807983,4.12999773025513,-0.91219085454941,-1.77649760246277,-6.95920610427856,-5.92989778518677,-2.72652077674866,-4.44842672348022,-14.9523878097534,-28.9755268096924,0.36224308609962,2.10870671272278,3.13923645019531,-0.31322115659714,-0.14767667651176,0.64278292655945,-15.6658601760864,-13.6807680130005,-10.3815574645996,13.254599571228,9.59386539459228,4.47476291656494,13.1700258255005,9.71313953399658,0.15493069589138,23.1309814453125,45.8552474975586,29.5740776062012,SHAKE
2.03784656524658,1.44652891159058,-1.02075576782227,1.23959827423096,1.60245227813721,1.2701416015625,4.39575433731079,24.28977394104,27.7592716217041,-2.90656089782715,-8.60266590118408,-8.47816753387451,-2.11199021339417,-3.90549063682556,-4.69228506088257,9.24431228637695,2.89458990097046,2.15717577934265,0.39767327904701,0.1050688251853,-0.58093285560608,-0.50747632980347,-0.59238654375076,-0.3798054754734,2.90416669845581,-2.51391172409058,-6.27310752868652,1.73819041252136,0.14844051003456,0.62488663196564,-3.652592420578,-1.03931081295013,2.62954568862915,-15.0673093795776,-22.1373882293701,-23.8923377990723,1.67865765094757,1.96881866455078,1.81610238552094,0.11255192011595,0.96898502111435,2.23408699035645,-6.37605857849121,-2.61207413673401,10.9298295974731,6.37845277786255,3.45483303070068,-4.19224739074707,6.37048435211182,-1.06130194664001,-4.62386798858643,36.4457359313965,23.3201236724854,6.91475391387939,0.22540926933289,0.94378679990768,0.54305922985077,-0.43478333950043,-0.84528475999832,-1.12872624397278,13.417405128479,5.99777460098267,-0.71107792854309,5.98580360412598,1.04626619815826,-0.93134444952011,-6.3849925994873,-5.50290298461914,-3.16878700256348,-5.15740966796875,-12.7566061019897,-20.6745300292969,0.02809980139136,1.18324601650238,2.00547051429749,-0.39629882574081,-0.26557365059853,0.46135598421097,-9.04080486297607,-6.01453399658203,-1.16118776798248,8.92588329315186,8.90433502197266,6.7734956741333,8.59769916534424,6.99539947509766,0.48785224556923,6.84292793273926,27.8550395965576,21.4933471679688,SHAKE
2.00547051429749,2.34144639968872,1.76601147651672,0.46135598421097,1.86329174041748,2.65191864967346,-1.16118776798248,8.41352367401123,26.8829936981201,6.7734956741333,0.56742578744888,-6.27071332931519,0.48785224556923,-4.0001745223999,-5.45892095565796,21.4933471679688,6.08875417709351,-1.61129772663116,0.9523389339447,-0.69088858366013,-2.21988439559937,-1.59970331192017,-1.29488158226013,-0.48243081569672,-0.42137950658798,-5.68892240524292,-9.12699604034424,-3.30399823188782,-3.29202723503113,-1.10133278369904,-2.37588405609131,0.92645353078842,5.29780530929565,-17.4375686645508,-24.8191928863525,-22.676082611084,1.54732167720795,2.01280093193054,1.61329507827759,-0.10858129709959,0.9873109459877,2.87977147102356,-6.58195972442627,0.90261405706406,23.6912250518799,6.69927549362183,1.95845699310303,-4.25689077377319,2.52814221382141,-2.61412143707275,-5.60491752624512,35.8950691223145,14.4157876968384,0.83318221569061,0.35674530267715,0.19364428520203,-2.09343528747559,-0.62903851270676,-1.06641805171967,-0.74998980760574,9.23952388763428,0.82360535860062,-10.000880241394,1.02471828460693,-2.86346530914307,0.80445176362991,-3.53591704368591,-0.65507662296295,3.66435146331787,-15.4623527526855,-23.4901123046875,-21.9769763946533,3.0158417224884,2.02746176719666,-0.42088615894318,0.93477654457092,2.7924177646637,2.03005790710449,4.76924991607666,23.9928932189941,35.6125526428223,0.85233581066132,-7.29064321517944,-7.4103536605835,-2.17613101005554,-4.14922571182251,-4.80773878097534,8.80377864837646,1.56580793857574,0.88346040248871,SHAKE
2.6334400177002,0.98776912689209,-1.51433491706848,2.2847888469696,3.25667524337769,1.57740676403046,4.30716896057129,30.4790859222412,36.2518043518066,-2.94247388839722,-8.95461368560791,-4.23055458068848,-4.42228269577026,-5.58414840698242,-5.86025953292847,9.65850925445557,2.14281058311462,2.90177249908447,0.05681046843529,-1.27854096889496,-1.91078650951386,-1.21485829353333,-0.99616849422455,-0.67912942171097,-0.25139117240906,-5.4159836769104,-9.45260715484619,-3.1004912853241,-2.12365698814392,-0.05506663769484,-4.14067363739014,-1.02159571647644,3.6490797996521,-15.6083993911743,-25.8894004821777,-26.0498123168945,1.97981429100037,2.33839225769043,2.6700918674469,-0.21792617440224,0.48823404312134,1.52731585502625,-8.72477054595947,-4.3646297454834,16.4367923736572,5.54048204421997,2.20505976676941,-2.70544791221619,5.69181346893311,-2.40398383140564,-5.20113563537598,43.2213249206543,18.7855052947998,4.52504110336304,0.83688539266586,0.26511552929878,-1.13926362991333,-1.13544583320618,-1.11528718471527,-0.93202763795853,14.3032598495483,6.76631307601929,-0.64882868528366,0.09337386488914,-3.84987640380859,-4.12999773025513,-6.11437940597534,-5.31170225143433,-3.15229368209839,-2.35589456558228,-8.61224269866943,-19.0799922943115,-0.4758640229702,1.59619092941284,2.79287600517273,-1.08291137218475,-1.19286715984344,-0.1330159008503,-11.6552734375,-10.0439758300781,-6.37605857849121,9.80216121673584,10.1205902099609,7.19726943969727,11.5836086273193,10.4700012207031,1.21356022357941,8.09270095825195,42.2516746520996,37.5063667297363,SHAKE
2.79287600517273,3.2113184928894,2.11848068237305,-0.1330159008503,1.58412635326386,3.18764758110046,-6.37605857849121,1.38863694667816,29.1790332794189,7.19726943969727,0.48841714859009,-9.60583686828613,1.21356022357941,-4.43205642700195,-5.3446888923645,37.5063667297363,11.1381254196167,0.31603461503983,0.50762903690338,-0.02138028293848,-1.22478485107422,-0.55329120159149,-0.82573711872101,-0.65897089242935,8.35127449035645,0.9528923034668,-4.00310516357422,-0.29688102006912,-2.75333189964294,-2.2170307636261,-4.61531591415405,-3.14985036849976,-0.01183551456779,-6.9722146987915,-15.6514949798584,-23.2363262176514,1.38605320453644,2.40619826316834,2.69941353797913,-1.22096693515778,-0.91431254148483,0.98914355039597,-8.26508331298828,-4.52982950210571,6.3185977935791,7.6378026008606,6.34253978729248,-2.36307716369629,9.03691101074219,0.26305383443832,-4.21275568008423,42.8669853210449,28.4655609130859,6.45506715774536,-0.50518554449081,0.39278635382652,-0.72204273939133,-0.50686544179916,-1.42988276481628,-1.4811954498291,15.160683631897,0.43095630407333,-4.60404968261719,7.38880586624146,-1.35272395610809,-0.33997663855553,-5.36668014526367,-3.53225183486938,0.43653959035873,-5.51654005050659,-16.8509902954102,-26.2365608215332,2.84663200378418,2.9101619720459,1.93277764320374,0.32696563005447,1.49921607971191,3.91274452209473,-7.52766942977905,-3.54102420806885,21.7064304351807,7.48217964172363,1.70227742195129,-8.1238260269165,4.85981464385986,-2.76195073127747,-5.47602510452271,40.321949005127,15.4408054351807,6.18691635131836,SHAKE
2.84663200378418,2.9101619720459,1.93277764320374,0.32696563005447,1.49921607971191,3.91274452209473,-7.52766942977905,-3.54102420806885,21.7064304351807,7.48217964172363,1.70227742195129,-8.1238260269165,4.85981464385986,-2.76195073127747,-5.47602510452271,40.321949005127,15.4408054351807,6.18691635131836,1.47096347808838,1.25593888759613,0.10995574295521,-0.74327027797699,-1.08046793937683,-1.12017416954041,10.3815574645996,3.17710566520691,-2.77009129524231,2.73657250404358,-0.96486330032349,-0.75417351722717,-6.12904024124146,-4.35325479507446,-0.84994262456894,-6.75913047790527,-17.035343170166,-27.6180152893066,1.31274938583374,2.082439661026,2.33839225769043,-0.78786343336105,-0.02306016348302,1.50043773651123,-9.43584823608398,-4.81952810287476,11.7247047424316,8.64815616607666,4.91798973083496,-4.74530792236328,5.44319105148315,-2.27325868606567,-4.9848895072937,40.9396514892578,20.8660659790039,4.14915132522583,1.17591559886932,1.20768058300018,0.11911872029305,-1.0823005437851,-1.60153591632843,-1.88497745990753,12.9577188491821,5.52611684799194,-0.89543145895004,3.2585084438324,-1.26174426078796,-1.50595283508301,-5.25916814804077,-3.57928848266602,-1.34840869903564,-5.99059200286865,-13.2689647674561,-23.9090976715088,-0.80206608772278,0.2101376503706,1.5968017578125,0.45646905899048,0.83642721176147,1.08932542800903,-9.16290950775146,-7.48457384109497,-1.22104287147522,10.163685798645,9.31613826751709,3.88339519500732,10.6697540283203,1.62100732326508,-4.95801162719727,41.0449981689453,38.4784126281738,9.51006889343262,SHAKE
-1.63834059238434,0.0549778714776,1.43919849395752,-0.14034628868103,-0.03527746722102,2.28539967536926,-6.50534534454346,-1.73100781440735,30.1079845428467,9.18924522399902,8.61703109741211,-6.54365253448486,-2.58357810974121,-5.55910301208496,-5.5859808921814,21.253927230835,1.76213240623474,-2.60489153862,0.16615535318851,-1.00853848457336,-1.94010806083679,-0.44333544373512,-0.86177814006805,-1.01877045631409,5.00418090820313,-0.88585460186005,-6.15100336074829,-4.6303858757019,-5.86609363555908,-3.14598107337952,-3.41557669639587,-1.00449156761169,2.41635394096375,-12.8763160705566,-19.7024841308594,-21.8117752075195,1.01892328262329,2.52776026725769,3.21987080574036,-1.52273428440094,-0.25152376294136,1.80953562259674,-6.00974559783936,-0.41419690847397,17.0688629150391,11.8444147109985,8.52126312255859,-2.72460150718689,4.86836671829224,-2.47178983688354,-4.96778535842896,36.6923370361328,14.5019788742065,0.16041150689125,-0.20280726253986,-0.22418753802776,-1.20401537418365,-0.74449199438095,-1.48974764347076,-1.5123496055603,11.4852848052979,2.95683908462524,-3.6152446269989,0.57700258493423,-1.721431016922,-0.22744916379452,-3.99345517158508,-2.40581631660461,0.43592870235443,-8.09270095825195,-15.244481086731,-20.7631149291992,2.20888876914978,3.44405817985535,3.24002933502197,-0.04444044828415,0.74479746818542,2.98911643028259,-10.0727062225342,-6.67772769927979,6.5268931388855,9.92187118530273,7.26670122146606,-2.25054955482483,6.45356225967407,-0.22197316586971,-3.62999033927917,36.3212356567383,23.0543670654297,6.4574613571167,SHAKE
4.80017900466919,2.78493475914001,0.24801129102707,2.23408699035645,3.79973459243774,2.41979002952576,-1.98000478744507,17.5931930541992,29.2676200866699,-0.13407529890537,-11.3703632354736,-8.03284645080566,-2.45774006843567,-4.4980297088623,-5.10645151138306,15.352219581604,5.84933423995972,4.20421838760376,0.16432274878025,-1.71714222431183,-3.08486938476563,-2.12871265411377,-1.78479552268982,-0.87766063213348,5.88764142990112,-0.22266076505184,-4.07493114471436,-4.87459468841553,-2.35589456558228,1.1180921792984,-3.67397260665894,-1.42843198776245,2.44445371627808,-11.8252611160278,-20.6338291168213,-24.9005947113037,2.76111102104187,3.87532901763916,3.82768154144287,-0.20143280923367,0.37950003147125,2.32816004753113,-7.42232465744019,-3.71580100059509,15.2851819992065,8.94743061065674,2.39899015426636,-8.14297962188721,5.05162668228149,-2.0625102519989,-4.71549797058105,40.8223342895508,17.9140148162842,5.77990198135376,1.99080979824066,2.45506739616394,1.52044355869293,-0.01389718428254,-1.89841651916504,-2.8635835647583,13.9704666137695,7.40795946121216,-0.68474167585373,0.04309562966228,-4.28562116622925,-5.46386766433716,-6.34039926528931,-4.2970552444458,-0.9678395986557,-9.00489139556885,-16.597204208374,-24.3232936859131,-1.31091678142548,0.21624629199505,1.48867857456207,-0.04993823543191,0.27320948243141,1.16140758991241,-9.29698467254639,-5.8732762336731,2.82994651794434,8.80138492584229,7.22599983215332,3.2585084438324,7.31304979324341,1.93804633617401,-2.00325632095337,25.6332206726074,22.9131088256836,8.97855567932129,SHAKE
1.48867857456207,1.74279856681824,0.97494095563889,1.16140758991241,2.38497066497803,1.66292786598206,2.82994651794434,19.7144546508789,29.1670627593994,3.2585084438324,-3.22498965263367,-4.89135408401489,-2.00325632095337,-3.3379967212677,-4.05942869186401,8.97855567932129,2.44926834106445,2.05901336669922,-2.06105923652649,-3.35120677947998,-3.86799883842468,-1.36513113975525,-1.56060802936554,-1.34741604328156,6.49576854705811,-0.61052143573761,-5.12389087677002,-6.62744951248169,-3.00951147079468,0.51235914230347,-3.97879433631897,-2.38810133934021,0.59536451101303,-8.50210952758789,-16.6355113983154,-23.557149887085,1.88024318218231,2.74400663375854,3.11113667488098,-1.31992709636688,-0.68462723493576,0.76434510946274,-7.76708936691284,-4.45560932159424,7.03446388244629,9.87877559661865,6.33535718917847,-0.85233581066132,8.26599979400635,0.28932106494904,-3.80347609519959,39.63720703125,24.8622875213623,5.76314258575439,-0.90163707733154,-0.01099557429552,-0.40194934606552,-0.07742717117071,-0.34681874513626,-0.97723168134689,14.736909866333,6.37366437911987,-0.27054479718208,5.65061521530151,0.08140286058187,-1.65918183326721,-5.44609260559082,-3.98795747756958,-1.13766014575958,-5.0281229019165,-13.6089420318604,-21.7519207000732,1.52410876750946,2.78859972953796,3.87288570404053,0.25488352775574,0.2023491114378,0.13698652386665,-7.39359426498413,-4.40533113479614,2.80361008644104,9.16769790649414,6.49576854705811,-0.07182604819536,8.41749382019043,1.0101420879364,-4.41983890533447,33.297061920166,29.7943439483643,0.51235914230347,SHAKE
2.83502554893494,3.28156805038452,2.7146852016449,0.93844175338745,1.83030498027802,3.44970870018005,-3.55538964271545,3.82832860946655,26.1383972167969,6.3377513885498,0.5434837937355,-8.95221900939941,0.3033709526062,-5.58659172058105,-6.91644525527954,33.5747871398926,10.2666358947754,0.25139117240906,0.69272118806839,-0.39095374941826,-1.7989981174469,-2.38161087036133,-2.62107014656067,-1.93384659290314,7.67850399017334,1.26174426078796,-3.227383852005,-1.83395850658417,-2.28167414665222,-0.64643448591232,-4.10279989242554,-0.12728904187679,4.23306703567505,-8.77504825592041,-24.5869560241699,-25.4895687103271,1.18202424049377,1.8600846529007,1.84786736965179,-0.0810923576355,0.55726182460785,2.27134966850281,-10.0966482162476,-8.28663158416748,6.02411079406738,7.3409218788147,3.2776620388031,-4.8410758972168,9.17741012573242,0.07918340712786,-3.99528789520264,43.2213249206543,27.6395626068115,8.29860210418701,-1.45202672481537,-0.34941491484642,-0.16615535318851,0.13698652386665,0.33063080906868,0.00198531197384,14.3439617156982,9.41669464111328,4.41969633102417,8.89236450195313,4.06774854660034,2.04704236984253,-6.30558013916016,-6.33795595169067,-5.70571041107178,0.30885201692581,-3.64397501945496,-7.53964042663574,1.19363069534302,2.52837133407593,3.49414920806885,-0.03100141137838,0.11866057664156,-0.0713185146451,-5.92355442047119,-6.00974559783936,-4.07493114471436,6.82616853713989,8.41352367401123,6.13663816452026,7.96178865432739,9.62761783599854,6.63621091842651,-9.26107120513916,12.7613945007324,32.0568656921387,SHAKE
2.12520027160645,2.38787221908569,-0.44043383002281,0.15164729952812,0.92927873134613,-0.62781673669815,3.91930818557739,21.8189582824707,26.0186882019043,-1.944091796875,-10.2762126922607,-2.78685069084167,-4.01972246170044,-5.55727005004883,-5.91951322555542,14.4564895629883,6.68251609802246,4.53701210021973,0.12522737681866,-0.02687807008624,-0.17348572611809,-0.49770244956017,-0.09636399149895,0.22678372263908,6.30423212051392,1.65439331531525,-1.82198750972748,1.84353530406952,0.86670100688934,0.37349545955658,-5.79489660263062,-2.821204662323,2.49576640129089,-13.0319395065308,-27.5126686096191,-33.0193328857422,-0.61819565296173,-0.54244834184647,-0.13744467496872,0.44425174593925,0.39171734452248,0.47968193888664,-7.9059534072876,-6.41915416717529,4.19703578948975,2.78685069084167,1.37666594982147,-0.76135611534119,8.51095676422119,-0.99716114997864,-5.98059988021851,38.9668312072754,26.6818809509277,7.01531028747559,2.63527274131775,3.77514719963074,3.77514719963074,-1.56060802936554,-1.37857019901276,-1.73714804649353,11.458948135376,5.89961242675781,0.28012159466743,8.48295593261719,2.54503631591797,-1.4676456451416,-7.95674896240234,-6.70997285842896,-3.39419627189636,-5.93552541732788,-15.3450374603271,-29.9044761657715,-4.21619176864624,-5.30597543716431,-5.53932619094849,0.48273625969887,1.70935368537903,1.74844908714294,-10.1660795211792,-8.83490371704102,-5.35612869262695,2.00634098052979,3.14119267463684,5.39922428131104,10.1914463043213,-2.06067752838135,-7.06732892990112,11.8204727172852,23.3751888275146,7.86764621734619,SHAKE
7.72316932678223,-0.96944314241409,-9.99742031097412,4.39593887329102,9.11731624603272,12.3640651702881,6.15579175949097,11.7701950073242,12.4597253799438,-5.53090524673462,-18.8118419647217,-22.1110515594482,3.19703960418701,1.99424600601196,0.79206317663193,-6.6346321105957,-15.0026664733887,9.72554683685303,1.04641211032867,9.3040885925293,13.9081802368164,-6.78350591659546,-9.44993305206299,-10.8439273834229,5.4662618637085,-4.75488471984863,-11.9713077545166,28.4823207855225,25.8654594421387,25.2836685180664,-13.3561868667603,-9.69099521636963,0.47807842493057,-6.50773954391479,-27.2014236450195,-21.7495269775391,-9.48612594604492,-19.9612426757813,-20.0223293304443,16.3481292724609,17.5674152374268,7.18026304244995,3.11485648155212,-8.78941345214844,-4.64953947067261,-23.8851547241211,-11.3320560455322,22.1732997894287,0.04253149405122,-5.45525550842285,-10.4521331787109,10.1900215148926,11.1548852920532,8.67449188232422,18.7529525756836,16.1714363098145,5.10988759994507,-6.7517409324646,-1.95095086097717,3.58165574073792,-18.6969203948975,-15.4048919677734,-3.19386506080627,9.89792919158936,-3.50750541687012,-30.8956756591797,5.30452489852905,6.10903406143188,2.68391275405884,-14.8039474487305,-2.05901336669922,-7.25233602523804,-20.0113353729248,-7.23630952835083,9.23261737823486,2.10213994979858,-2.29670071601868,-5.39012241363525,-9.28261947631836,4.11802673339844,-0.56263738870621,33.6274604797363,44.8688354492188,27.2133941650391,-6.450355052948,-9.53888988494873,-7.98729228973389,3.33991146087646,-9.967360496521,-35.1768074035645,SHAKE
-18.829309463501,-14.4781169891357,-0.78435099124908,7.802734375,-0.14462234079838,1.44668161869049,1.48919343948364,7.70484018325806,6.62984371185303,5.1861400604248,39.0841445922851,39.4720077514649,-5.64767837524414,-7.84923648834229,-9.688551902771,5.97862100601196,3.71819519996643,-3.67749381065369,12.7548666000366,8.34075450897217,3.36159133911133,-3.74261856079102,-5.23312997817993,-3.57829594612122,-7.76230096817017,-6.35451078414917,-10.2522706985474,-8.00890350341797,-6.31141471862793,-7.70005178451538,-1.50051414966583,2.97651720046997,8.90679740905762,-23.0256366729736,-29.6339321136475,-27.4097194671631,-7.00906801223755,-3.07204127311707,-0.19853121042252,2.4124596118927,1.64582371711731,1.8968893289566,-24.098237991333,-20.298641204834,-0.91458505392075,14.4325475692749,6.80462074279785,-1.71424841880798,11.7479314804077,-0.68073296546936,-4.5249080657959,52.1041145324707,27.5414009094238,7.68568658828735,-1.03114056587219,-0.53389620780945,-1.31274938583374,-0.0340557359159,0.42348232865334,0.28909197449684,16.1255474090576,12.5339450836182,3.70143580436707,10.079888343811,3.5506010055542,2.17632937431335,-9.44787120819092,-9.29576587677002,-8.24752044677734,2.94247388839722,-1.45088624954224,-8.16213321685791,1.78983521461487,3.24125099182129,3.61326789855957,-0.15500704944134,-0.84100872278214,-0.54596078395844,-12.0838356018066,-13.9345531463623,-15.3617963790894,7.70244598388672,7.21402883529663,6.09114837646484,7.40834474563599,11.3606424331665,15.7032833099365,-26.3969707489014,-16.0297794342041,7.68808078765869,SHAKE
-4.33103466033936,-3.32860469818115,-1.03114056587219,-0.17150041460991,-0.70845097303391,-0.0340557359159,31.781530380249,21.2275905609131,16.1255474090576,5.56442403793335,15.6467065811157,10.079888343811,-5.23962020874023,-7.99278974533081,-9.44787120819092,14.2074918746948,9.56034660339356,2.94247388839722,-1.28037357330322,-0.11606439948082,1.78983521461487,-0.07864890247583,0.04657847434282,-0.15500704944134,-7.41753625869751,-10.5563344955444,-12.0838356018066,4.76446151733398,6.89560031890869,7.70244598388672,-2.90855860710144,1.60512483119965,7.40834474563599,-23.8492412567139,-29.8613815307617,-26.3969707489014,1.71042263507843,0.56627207994461,-0.05803219974041,1.24937212467194,1.33733677864075,1.09665584564209,-16.1662483215332,-16.3721504211426,5.93073701858521,1.87226569652557,-0.60812723636627,-4.17309379577637,8.79012203216553,-2.2335524559021,-5.37645387649536,49.4417610168457,20.8038177490234,7.44387245178223,1.638951420784,3.25285744667053,3.07631731033325,0.19440786540508,0.52427512407303,-0.04505131021142,12.7135105133057,5.88764142990112,-0.98162269592285,12.8068838119507,4.32632255554199,1.41257905960083,-9.6958818435669,-8.33854007720947,-5.05574989318848,-4.18027639389038,-13.1923503875732,-27.1367797851563,0.74220126867294,-0.05070181563497,-1.49295461177826,-0.09453139454126,1.2811371088028,2.03677749633789,-11.0998182296753,-11.3057193756104,-13.225869178772,5.07361268997192,2.79403328895569,1.63284552097321,15.6140975952148,15.4430551528931,6.14568614959717,12.3567743301392,40.5517921447754,39.460033416748,SHAKE
-2.42574596405029,-2.57479691505432,-2.38603973388672,1.40758621692657,0.44425174593925,-0.18371772766113,-13.0415163040161,6.00495719909668,24.9772090911865,0.2777273952961,1.95845699310303,5.67695140838623,-1.93422842025757,-4.24513149261475,-4.87126874923706,20.3561019897461,8.86842250823975,12.4908494949341,1.69026410579681,1.08917272090912,0.32559117674828,0.05635231733322,-0.10858129709959,-0.1782199293375,8.85405731201172,2.08534979820251,-4.2760443687439,1.37666594982147,0.23223756253719,1.47722244262695,-9.07829761505127,-4.51085805892944,2.66253256797791,-15.6514949798584,-36.108154296875,-32.1813621520996,0.74036866426468,0.11850785464048,-0.73303830623627,-1.16415643692017,0.12721268832684,0.90362238883972,-12.1269311904907,-14.722544670105,-9.25628280639648,2.53067111968994,1.81241071224213,-0.26336219906807,13.1181020736694,0.7395287156105,-5.87980699539185,49.2789573669434,37.6571998596191,15.9148569107056,1.34817957878113,3.02378296852112,1.27915179729462,-1.72554159164429,-0.80741113424301,-0.87155199050903,12.7470293045044,6.69927549362183,-2.87783050537109,13.1301012039185,4.36941814422607,0.27054479718208,-7.99889850616455,-1.82610523700714,5.75778675079346,-18.6657943725586,-36.5845985412598,-30.2109355926514,-6.94859218597412,-4.08180141448975,1.786780834198,1.34894323348999,-1.770134806633,-2.45186042785645,-12.4956378936768,6.09593677520752,25.9588317871094,7.69286918640137,16.8509902954102,20.3752555847168,-5.26038980484009,-7.79670238494873,-7.78326320648193,23.3823719024658,9.25628280639648,5.66019201278687,SHAKE
1.35917520523071,4.21130514144897,5.11843967437744,-4.44144868850708,-1.47936296463013,-2.33335256576538,9.80216121673584,28.4535903930664,19.7024841308594,13.515567779541,14.9739360809326,6.46464395523071,-8.2298059463501,-7.92803812026978,-8.09480476379395,10.778995513916,9.20121669769287,6.46703815460205,-2.86495804786682,-5.62606906890869,-6.99990463256836,0.47235155105591,2.07831621170044,2.24324989318848,0.83557641506195,-4.53222370147705,-9.86441040039062,-8.6002721786499,-6.30662631988525,-4.35026454925537,-3.64892721176147,1.20378637313843,6.00396537780762,-24.1652755737305,-30.2133293151855,-23.2411136627197,1.41476392745972,3.81546425819397,5.45808076858521,-3.49460744857788,-4.13845920562744,-3.75789022445679,-9.94102478027344,-9.534010887146,7.30500888824463,6.99136829376221,2.02549457550049,-0.3687070608139,7.24463272094727,-3.63243389129639,-7.19561100006104,47.6197738647461,26.3969707489014,6.66096830368042,-2.70491123199463,-1.64689266681671,-1.21745443344116,1.10704052448273,2.38924670219421,2.13390493392944,8.54520511627197,3.87621259689331,-0.92176765203476,6.74955368041992,3.03584766387939,1.92972660064697,-7.38681173324585,-3.52308893203735,1.77311277389526,-14.0279273986816,-27.1702995300293,-27.0601654052734,6.10865259170532,6.18439960479736,5.39271831512451,-1.59848165512085,-0.69989883899689,3.60731196403503,-13.7047100067139,-11.1740388870239,4.00071096420288,1.99915838241577,1.98718738555908,-5.72004699707031,9.56653118133545,0.98082053661346,-2.94521045684814,43.2692108154297,29.4160594940186,10.3193082809448,SHAKE
5.39271831512451,1.13376593589783,-3.27423763275146,3.60731196403503,5.67447996139526,3.50224328041077,4.00071096420288,27.3067684173584,33.6011238098145,-5.72004699707031,-16.0489330291748,-4.56095409393311,-2.94521045684814,-3.55424308776855,-4.4870343208313,10.3193082809448,8.0448169708252,7.36486387252808,-1.58947134017944,-2.0512855052948,-2.52898216247559,0.97875881195068,0.65072417259216,0.35445454716682,5.0281229019165,-0.52911859750748,-4.2449197769165,-2.56658411026001,-1.7405846118927,0.09097966551781,-4.28422689437866,-1.77051651477814,2.65398049354553,-13.2043218612671,-21.9003620147705,-25.8582763671875,5.39516162872314,5.86552810668945,5.28642797470093,-1.84466028213501,-1.81717133522034,0.01420261710882,-13.8866691589355,-14.6001415252686,3.97916316986084,3.6343982219696,-1.68551802635193,-12.7685766220093,10.5390291213989,0.81161081790924,-2.36611008644104,54.9104156494141,30.9555320739746,10.6999864578247,-5.12699222564697,0.54428094625473,1.82160019874573,2.61648845672607,1.66414964199066,0.7417431473732,16.2213153839111,-1.83635270595551,-7.6378026008606,18.2013206481934,5.71047019958496,4.83389329910278,-6.99830150604248,-3.79797840118408,0.68271827697754,-11.1907978057861,-20.4997539520264,-25.0514297485352,4.74642276763916,3.70184350013733,2.11420464515686,-0.74265944957733,-0.34865134954453,1.64826714992523,-11.5978126525879,-7.13980865478516,8.48295593261719,-1.14442837238312,-0.3687070608139,4.13239192962646,4.76635265350342,0.51534116268158,-1.92689800262451,38.136043548584,22.158935546875,14.6552076339722,SHAKE
3.96329379081726,1.66582953929901,-0.28405234217644,-3.06944513320923,0.78083848953247,2.1601722240448,23.7127723693848,29.0066509246826,29.3394451141357,3.22498965263367,-0.4525041282177,-0.34715923666954,-1.35512816905975,-2.98064064979553,-4.84377956390381,12.0287685394287,12.2466411590576,7.52288103103638,-2.758056640625,-3.12701916694641,-2.91138386726379,1.37765383720398,1.75211429595947,1.63360643386841,1.59214413166046,-2.93050289154053,-6.08157157897949,-1.98718738555908,-1.59932672977448,-0.76135611534119,-5.39294767379761,-3.08998537063599,1.66804385185242,-12.3974752426147,-23.7510795593262,-24.344841003418,3.98406314849854,4.00666522979736,3.21620559692383,-3.1158709526062,-3.41336226463318,-2.73224759101868,-10.6425256729126,-8.01608657836914,10.587459564209,0.16280572116375,-1.15879356861115,3.43807363510132,6.52625513076782,-1.35024130344391,-3.08815288543701,45.883975982666,21.7375564575195,10.0487642288208,-0.06902777403593,-1.70370316505432,-3.04027628898621,1.18095529079437,1.46195328235626,2.08137059211731,13.6161241531372,2.60967993736267,-5.20768785476685,-4.37420654296875,-5.0592474937439,-4.28083276748657,-7.24631261825562,-1.65689563751221,2.78837084770203,-8.22677612304688,-23.6744651794434,-16.2548332214355,3.86494445800781,4.11051225662231,4.05064725875854,-2.3034200668335,-2.04624581336975,-2.01081562042236,-9.95538997650146,-1.21864867210388,19.4367275238037,3.5506010055542,1.72382521629334,4.3646297454834,5.87873792648315,-1.40094304084778,-3.91098833084106,34.3843269348145,24.2849864959717,10.340856552124,SHAKE
3.32493948936462,2.59067940711975,1.67193818092346,-1.93629014492035,-1.74142408370972,-1.04870295524597,-5.8732762336731,7.39359426498413,27.0362243652344,-0.36391866207123,0.83557641506195,6.11748456954956,4.37112283706665,0.04192062839866,-2.81143093109131,23.2315368652344,16.1901912689209,11.748646736145,0.58032196760178,-0.88270026445389,-2.63893795013428,0.14553864300251,-0.11407908797264,0.12354749441147,19.5899562835693,7.75751256942749,-3.74692559242249,-4.74291372299194,-5.39922428131104,-3.87621259689331,-6.62933874130249,-5.83582496643066,3.14878129959106,-2.39659595489502,-14.3583269119263,-19.6330528259277,3.37747383117676,2.46545219421387,1.4312572479248,-0.96501439809799,-1.20630609989166,-1.26189482212067,-11.025598526001,1.70946002006531,25.8367290496826,-1.97521638870239,-3.79480957984924,0.92176765203476,4.88791465759277,-0.38629591464996,-3.11442017555237,26.0306587219238,17.1287174224854,9.14614963531494,-0.48319441080093,-2.0390682220459,-3.74277138710022,-0.40790528059006,-0.55145859718323,-0.09453139454126,19.6019287109375,6.97700309753418,-5.22923564910889,-4.16830539703369,-4.06296014785767,-1.3910311460495,-5.71181917190552,-4.63730716705322,-1.54144203662872,-5.49499225616455,-15.4982662200928,-22.1685123443604,3.47215795516968,3.41351509094238,1.60962986946106,-0.9472993016243,-0.87766063213348,-0.22647829353809,-15.3234891891479,7.92031860351563,28.5924549102783,5.26514863967896,-5.07361268997192,-5.38725328445435,3.10235548019409,-1.43270802497864,-4.72038459777832,22.3648357391357,11.0040502548218,7.88679981231689,SHAKE
1.8924605846405,1.07390105724335,1.10627698898315,0.42164972424507,0.19318613409996,0.39904773235321,-2.77248549461365,12.3519859313965,27.4049301147461,-0.47884035110474,-1.31681096553802,-0.57939678430557,1.87329459190369,-1.42965376377106,-3.24942135810852,13.7885065078735,8.03763484954834,4.34068775177002,-1.26998889446259,-2.75316977500916,-3.30478096008301,-1.53372991085052,-1.27594482898712,-0.21853704750538,15.3474311828613,5.53569364547729,-3.26808524131775,-1.4867992401123,3.77805018424988,7.75511837005615,-4.25551652908325,-3.18772387504578,-0.71127623319626,-6.4766149520874,-14.8326778411865,-18.7974758148193,4.16610097885132,4.74947738647461,3.68412828445435,-1.58443176746368,-2.16597533226013,-0.64125579595566,-13.3407907485962,3.86424160003662,18.6394596099854,4.81473970413208,-0.83078801631927,-4.30716896057129,4.3191990852356,0.09689849615097,-2.13581395149231,21.8285350799561,13.1731967926025,9.04319953918457,-0.70982539653778,-1.09405970573425,-2.14841318130493,0.54809886217117,0.01237002108246,0.03680463135242,19.0105609893799,8.8947582244873,-0.8164227604866,-1.01753568649292,-2.15956997871399,-1.77649760246277,-5.76007747650146,-3.39725065231323,-0.86215990781784,-5.0784010887146,-14.3583269119263,-17.5213661193848,4.03659772872925,4.98160600662231,5.22534132003784,-0.75487673282623,-0.78786343336105,-0.90270608663559,-10.2498769760132,-5.77990198135376,0.13407529890537,7.53245782852173,3.91212558746338,0.76614451408386,7.89825868606567,6.03267621994019,1.1078804731369,13.4772605895996,19.0392913818359,14.6480255126953,SHAKE
3.47276902198792,2.48438906669617,1.39643800258636,0.97387194633484,1.63727152347565,2.29700613021851,-3.71340680122375,4.77403831481934,21.1390056610107,2.60249733924866,-0.33039984107018,-3.8187518119812,4.12860918045044,-0.70333498716354,-3.71367883682251,18.871696472168,8.44225406646729,2.50194072723389,0.12522737681866,-1.95537960529327,-3.66396975517273,-0.82879143953323,-0.78236567974091,-0.41523563861847,8.10706615447998,-0.6033388376236,-7.11586666107178,-4.5226469039917,-2.95444488525391,1.75494980812073,-3.46933269500732,-1.00388062000275,2.59411573410034,-12.3519859313965,-18.2803287506104,-18.3330001831055,2.57418608665466,3.01767420768738,2.8325822353363,-0.17699819803238,-0.83856528997421,-0.81535238027573,-10.3288850784302,-3.90494298934936,10.8963108062744,4.58489608764648,1.57299053668976,0.03830722719431,5.84636211395264,0.12011137604713,-1.62818491458893,28.2955741882324,16.2021617889404,5.85172843933105,1.27426493167877,0.70127332210541,-0.75686204433441,0.84436845779419,0.38988474011421,0.28359419107437,22.0009174346924,13.2474174499512,3.73016619682312,0.1508347094059,-3.004723072052,-2.63362193107605,-5.26222229003906,-4.6428050994873,-3.09426164627075,-4.65911674499512,-9.0743236541748,-14.8614082336426,0.87720251083374,2.41841554641724,2.57785129547119,0.28848111629486,-0.56367588043213,-1.12506103515625,-11.2219228744507,-9.15093803405762,-4.12760353088379,5.01854610443115,1.63284552097321,-0.17477671802044,7.32404518127441,6.96974325180054,3.25262832641602,2.8658595085144,18.6562175750732,18.7136783599854,SHAKE
2.03051614761353,1.00792765617371,-0.09773843735456,-0.90698218345642,0.50289481878281,1.27625024318695,5.49978065490723,22.2882213592529,33.1725616455078,-0.29209262132645,-0.24420857429504,1.63045132160187,-0.62880939245224,-2.41620111465454,-3.71184635162354,10.4318361282349,6.29226112365723,6.29226112365723,-0.13683381676674,-1.46424400806427,-2.52043008804321,-1.28327512741089,-1.30099022388458,-1.05420064926147,8.15255641937256,0.44292730093002,-5.53808784484863,-2.97599267959595,-1.7980455160141,1.50116443634033,-4.68067836761475,-2.20606350898743,1.99485683441162,-10.503662109375,-19.2858924865723,-21.8381118774414,2.62672066688538,2.97002673149109,2.9168815612793,0.52916198968887,0.15653422474861,-0.49037206172943,-8.88996982574463,-2.92092609405518,14.7416982650757,4.44363832473755,-0.59376204013824,-3.08612608909607,5.79443883895874,-0.47487136721611,-2.74179220199585,27.9148960113525,13.7118921279907,3.46919822692871,-1.39155101776123,-2.00363802909851,-2.58762526512146,1.17362487316132,0.98120230436325,0.92011576890945,19.1302700042725,9.90989971160889,0.86191260814667,-0.79248076677322,-0.70150107145309,1.1180921792984,-4.7014479637146,-3.41435503959656,-1.46813821792603,-7.68089818954468,-14.0327157974243,-15.4048919677734,1.88696277141571,2.93826174736023,2.657874584198,-0.80435681343079,-1.66201162338257,-1.8935295343399,-9.71836376190186,-5.86130523681641,2.20266556739807,0.15562310814857,-1.70946002006531,-0.9528923034668,6.46333599090576,4.86653423309326,1.04312872886658,8.10706615447998,16.6235408782959,14.6169004440308,SHAKE
2.48927593231201,1.98958814144135,0.10445795953274,-0.60521471500397,0.78083848953247,1.19622683525085,20.6098861694336,33.1174964904785,33.9746208190918,0.31603461503983,-5.0975546836853,-3.92888498306274,-2.19628953933716,-2.99346876144409,-4.34225940704346,3.93127918243408,5.42556047439575,4.35744714736938,-3.45383214950562,-4.06714057922363,-3.1624493598938,0.1522581577301,0.71791934967041,0.88835078477859,-1.36708915233612,-9.45739555358887,-13.953706741333,0.28012159466743,4.65911674499512,7.76948356628418,-0.78458005189896,2.1836142539978,4.54949522018433,-17.6554412841797,-14.7440929412842,-8.53083992004395,2.95719861984253,2.05739402770996,0.97616267204285,-0.58688879013062,-0.27290403842926,0.38621956110001,3.12203907966614,19.6210823059082,33.0193328857422,-1.49637603759766,-2.55221891403198,-3.35906505584717,0.43898302316666,-2.34961676597595,-3.52003455162048,15.2612400054932,8.67449188232422,6.10311937332153,-2.01219010353088,-2.72140455245972,-2.91565990447998,0.10461067408323,0.10644327104092,0.54443365335464,7.47739124298096,-3.78044438362122,-11.8348379135132,-0.30885201692581,2.69826531410217,7.31219148635864,-3.736891746521,-0.61109429597855,5.60812473297119,-17.0425262451172,-21.1844959259033,-4.67587614059448,2.32067704200745,1.20951318740845,-0.03420845419168,-0.25091290473938,0.15897768735886,0.57803124189377,14.5522575378418,31.5253524780273,36.9269714355469,-4.01986455917358,-3.54581260681152,-3.53623580932617,-1.3490195274353,-3.22193241119385,-4.66662883758545,8.95221900939941,6.85968732833862,3.97437477111816,SHAKE
3.30966782569885,3.54973793029785,2.07999610900879,-1.07191574573517,-0.85261517763138,-0.72250086069107,-13.7837181091309,-5.68652820587158,8.25550651550293,4.29040956497192,-1.88902509212494,-3.30160403251648,2.16712093353271,-0.66973739862442,-3.19688701629639,16.7217025756836,9.81892013549805,5.43274307250977,-0.26145032048225,-1.61329507827759,-3.1813862323761,-0.43295073509216,-0.58749967813492,-0.11896600574255,12.4908494949341,-0.63446342945099,-10.1900215148926,-2.76530289649963,-2.02070617675781,2.17154097557068,-3.4815502166748,-1.11139297485352,2.04494786262512,-11.9330005645752,-17.035343170166,-14.736909866333,2.30112934112549,1.92911243438721,1.56198239326477,-0.48976120352745,-0.16111570596695,-0.35598170757294,-6.14142656326294,8.34888076782227,28.8677883148193,2.41335535049438,-1.18512988090515,0.23942017555237,2.38825392723084,-1.55243766307831,-3.77415466308594,15.9699239730835,8.63618469238281,3.53384160995483,-2.26203393936157,-4.00727605819702,-3.99933481216431,-0.93324935436249,-0.45982882380486,0.09666942805052,-0.05985504388809,-12.6632318496704,-19.4367275238037,-2.72699570655823,3.00232887268066,11.8085021972656,-0.62025731801987,5.37416315078735,6.50609683990479,-17.79909324646,-6.82377433776855,3.86663579940796,2.74522852897644,1.34146010875702,-0.09834930300713,0.00076358154183,0.60857450962067,0.36361753940582,30.9148292541504,38.2174453735351,34.3364448547363,-4.52025270462036,-6.11509037017822,-3.98155736923218,-3.06921601295471,-4.23169279098511,-4.37707853317261,2.71981310844421,1.13006317615509,-1.34554135799408,SHAKE
2.69452667236328,2.26081228256226,1.24066734313965,-0.52274793386459,0.00381790776737,0.8278751373291,2.82994651794434,20.5021476745605,33.9698333740234,2.39180755615234,-1.42694425582886,-2.91853189468384,-0.98188954591751,-3.16451096534729,-4.54506635665894,8.57393550872803,3.77565598487854,2.7317841053009,0.07574728876352,-1.7623462677002,-3.32188510894775,-0.71150529384613,-0.61437773704529,-0.28145617246628,4.81713390350342,-4.9203839302063,-11.3679685592651,-3.46440982818604,-2.47799873352051,1.29765737056732,-2.90306067466736,-0.00267253536731,2.33999562263489,-14.3439617156982,-18.3090591430664,-15.9316167831421,3.40374112129211,3.77514719963074,3.35120677947998,-0.58016926050186,0.2561052441597,0.15958854556084,-4.75488471984863,6.52210474014282,28.2069873809814,4.97545051574707,-1.76213240623474,-5.44710826873779,2.87694621086121,-1.7045431137085,-3.75155258178711,16.4559459686279,6.05762958526611,0.86670100688934,-0.59253931045532,-1.44225287437439,-2.81792140007019,-0.64431011676788,-1.11406552791595,-0.92530810832977,10.8819456100464,0.41419690847397,-8.02566337585449,-2.63601613044739,-2.31998133659363,-0.32800564169884,-4.10768699645996,-2.26226305961609,0.87697339057922,-8.13100814819336,-16.7504329681396,-18.6705837249756,2.23943209648132,2.85701680183411,2.60289669036865,-0.53374350070953,0.47540587186813,1.18339872360229,-8.51168632507324,-0.61052143573761,12.363956451416,8.05918216705322,3.79959797859192,-3.84029960632324,5.19517993927002,0.02115120925009,-3.10403537750244,17.4639053344727,11.2530469894409,1.4484920501709,SHAKE
2.46361947059631,4.03659772872925,3.60410499572754,-0.21365012228489,0.03313944116235,0.95188075304031,-13.2162923812866,-6.91714811325073,4.49152231216431,8.60984897613525,2.60967993736267,-4.01268196105957,6.65331506729126,-1.28793299198151,-3.59883618354797,12.2298812866211,4.54898309707642,-0.42616790533066,-0.38301250338554,-2.37748742103577,-4.80750942230225,-1.54411458969116,-1.75058710575104,-1.29854679107666,13.8004779815674,2.04704236984253,-8.87081623077393,-6.62266111373901,-6.32817459106445,-2.827552318573,-2.13214874267578,0.61796653270721,3.75964641571045,-15.2516632080078,-18.7136783599854,-15.1870203018188,5.17158508300781,3.84050989151001,1.83442831039429,0.67149364948273,0.82359904050827,0.54076844453812,-3.80438661575317,11.2793836593628,11.2793836593628,-0.27054479718208,-8.70801067352295,-8.70801067352295,1.00525510311127,-1.97698903083801,-4.08447408676147,11.0639057159424,2.8467059135437,0.87148940563202,-3.16306018829346,-4.49963331222534,-3.9180896282196,-0.70539665222168,-0.25457808375359,-0.22403483092785,-2.9664158821106,-11.4757080078125,-15.7065620422363,-1.82438170909882,3.33991146087646,13.175591468811,-1.16026222705841,1.9301050901413,4.80239343643188,-18.1390705108643,-15.9555587768555,-9.54358768463135,4.08668851852417,2.15879774093628,0.29016098380089,0.89507031440735,0.67149364948273,0.55787271261215,7.71681118011475,29.8230743408203,34.8248596191406,-6.8453221321106,-8.19086360931396,-7.89398241043091,-1.58359181880951,-3.09853768348694,-4.02766370773315,3.32075786590576,1.00556468963623,0.95049810409546,SHAKE
2.25653624534607,2.60289669036865,2.14780211448669,-0.40546181797981,0.48212540149689,0.79305583238602,-7.4295072555542,-0.58897364139557,13.1181306838989,6.26113653182983,2.83234071731567,-3.0693666934967,5.6435546875,-0.64102673530579,-4.74787378311157,23.6146106719971,12.0120096206665,-0.48362874984741,1.02014493942261,-0.48685958981514,-1.89307141304016,-0.60643649101257,-0.84100872278214,-0.83856528997421,4.58489608764648,-3.6152446269989,-9.36641597747803,-3.86663579940796,-3.72058939933777,-1.38384854793549,-3.6715292930603,-0.820621073246,2.74194502830505,-13.8363904953003,-20.3537063598633,-20.2435741424561,2.20278000831604,2.74828267097473,3.28156805038452,0.01420261710882,0.29092457890511,0.52732944488525,-6.22282934188843,2.18590617179871,22.1709060668945,6.11509037017822,2.47081613540649,-3.85466480255127,4.06752252578735,-1.72470164299011,-4.58660554885864,19.8820495605469,6.22043514251709,-3.26329684257507,-0.14172074198723,-0.87170469760895,-2.31395745277405,-0.37186422944069,-1.23074078559875,-1.3956743478775,11.1812210083008,1.80762231349945,-5.99777460098267,-4.62080907821655,-5.60512542724609,-4.26886177062988,-4.31843566894531,-3.14374160766602,-0.67645692825317,-5.10952568054199,-12.6225309371948,-18.8501491546631,2.11970233917236,3.27851366996765,3.04577422142029,-1.29610335826874,-0.76587229967117,-0.18371772766113,-13.7549877166748,-8.37042808532715,1.1755530834198,8.64576148986816,3.70622420310974,-0.22505496442318,8.41810512542725,5.40653944015503,0.26427558064461,11.231499671936,17.4686946868896,8.56675338745117,SHAKE
3.45627546310425,3.86738777160645,3.34693074226379,-0.4317290186882,0.27259862422943,1.23348963260651,-6.49576854705811,3.38300704956055,21.91233253479,6.02171659469604,0.98162269592285,-7.21402883529663,4.6826639175415,-0.99410682916641,-3.61105346679688,20.0400676727295,7.58034181594849,-0.44532153010368,0.06963863968849,-0.63285636901855,-2.62122273445129,-0.48792862892151,-1.2789990901947,-1.35657894611359,14.4181823730469,4.60883808135986,-5.28430223464966,-3.67749381065369,-5.93313121795654,-5.57639503479004,-4.54384469985962,-3.49926519393921,-1.02953696250916,-3.14119267463684,-10.9394063949585,-19.7455806732178,4.36951923370361,4.45198583602905,3.30600261688232,0.00015271631128,1.09421241283417,1.45584464073181,-10.9465894699097,-0.04309562966228,25.5470294952393,6.62026691436768,-1.73100781440735,-12.0670757293701,4.13532876968384,-3.90793395042419,-4.64036130905151,23.631368637085,-0.27533319592476,0.64404028654099,-0.9957103729248,-2.53936672210693,-3.99872398376465,-1.59603822231293,-1.56060802936554,-1.35963332653046,2.06859016418457,-6.08157157897949,-12.2059392929077,-3.27287364006042,-2.83712911605835,1.41018486022949,-2.70147514343262,-0.23113614320755,3.51774382591248,-12.8236436843872,-20.9307098388672,-19.4271507263184,4.58087825775146,4.84904813766479,2.58884692192078,-0.38530325889587,0.70325863361359,1.23776566982269,-5.97143840789795,9.39035797119141,35.8232421875,6.71124649047852,-5.8421516418457,-14.2577705383301,0.56909734010696,-3.11869621276855,-4.25062942504883,16.3936977386475,0.53869539499283,1.25216746330261,SHAKE
1.1301007270813,3.55645751953125,4.10806894302368,0.32452216744423,0.04352414980531,0.66966104507446,-15.5413618087769,-11.2937488555908,-2.06140756607056,12.6632318496704,7.0224928855896,1.50355863571167,8.68871784210205,4.5892014503479,-0.30077478289604,15.5868520736694,24.378360748291,11.0926361083984,1.18813288211823,0.77152281999588,-1.33046448230743,-0.73777252435684,-1.84832549095154,-2.38100004196167,13.9632835388184,3.40934324264526,-6.06002378463745,-2.46123933792114,-6.36408758163452,-6.49337434768677,-3.92992520332336,-1.89757657051086,1.70836102962494,-6.4071831703186,-17.0856227874756,-21.9721870422363,2.28769040107727,4.53017663955688,4.56743955612183,-0.59238654375076,0.0258090570569,1.29640877246857,-10.5204219818115,-10.5204219818115,20.3513126373291,12.8284320831299,12.8284320831299,-10.1181955337524,4.59653186798096,-1.59336566925049,-3.67091822624207,26.3107795715332,8.70322227478027,-0.25617957115173,-0.50152039527893,-0.70921456813812,-1.88513016700745,-0.7512115240097,-1.24723410606384,-1.23501682281494,11.0758762359619,1.01274728775024,-7.27867221832275,-0.31124621629715,-2.88740730285645,-0.28730419278145,-1.36368024349213,2.22942900657654,5.62889432907104,-17.9666881561279,-19.9131736755371,-13.1516494750977,4.2925500869751,3.38175010681152,-0.23823744058609,0.97265017032623,1.52242887020111,0.99036526679993,4.43166732788086,27.5509777069092,34.6021995544434,-2.14041638374329,-14.0135622024536,-12.1053829193115,-2.28975200653076,-4.04110288619995,-4.97511577606201,6.13184976577759,1.63045132160187,2.43490314483643,SHAKE
0.59009581804276,1.94132971763611,2.43735241889954,0.23350323736668,0.49373182654381,1.2945761680603,-10.6521024703979,-6.74237108230591,1.87226569652557,9.90032291412354,7.90834760665894,2.99754047393799,9.26109886169434,4.39983320236206,-2.12359666824341,18.8357830047607,27.426477432251,8.17410373687744,-1.06351637840271,0.15821409225464,-0.25595253705978,-0.36758816242218,-1.02793347835541,-1.62474882602692,21.3449058532715,11.2243165969849,1.41497325897217,6.78067827224731,1.53707754611969,-2.20266556739807,-4.91219663619995,-3.92259478569031,-1.27877008914948,-1.45567464828491,-8.68406867980957,-20.7272033691406,1.75073981285095,4.18748140335083,4.93701314926147,0.35995236039162,0.61468315124512,1.21027672290802,-17.2244853973389,-9.99609184265137,5.43753147125244,15.337854385376,9.12939071655273,-4.48673391342163,9.43030834197998,-4.64463758468628,-5.32330894470215,37.8032493591309,0.27054479718208,-0.28490999341011,-0.27183502912521,-1.17713737487793,-2.32495307922363,-1.59909248352051,-2.08289766311646,-1.20936048030853,-0.05746084079146,-11.0639057159424,-17.5884037017822,-1.95366859436035,-1.70946002006531,9.16051483154297,-0.85421866178513,5.23305368423462,10.0191822052002,-28.3841590881348,-26.6244201660156,-4.90362453460693,4.82094860076904,-4.72748613357544,-1.82954144477844,1.8645133972168,0.61040711402893,0.63911777734756,29.6243553161621,30.2779731750488,13.2665710449219,-21.3832130432129,8.34409236907959,6.25155973434448,-6.34345388412476,-6.58535623550415,-5.51328802108765,3.1890766620636,-0.08140286058187,-10.927435874939,SHAKE
-0.27183502912521,-1.17713737487793,-2.32495307922363,-1.59909248352051,-2.08289766311646,-1.20936048030853,-0.05746084079146,-11.0639057159424,-17.5884037017822,-1.95366859436035,-1.70946002006531,9.16051483154297,-0.85421866178513,5.23305368423462,10.0191822052002,-28.3841590881348,-26.6244201660156,-4.90362453460693,4.82094860076904,-4.72748613357544,-1.82954144477844,1.8645133972168,0.61040711402893,0.63911777734756,29.6243553161621,30.2779731750488,13.2665710449219,-21.3832130432129,8.34409236907959,6.25155973434448,-6.34345388412476,-6.58535623550415,-5.51328802108765,3.1890766620636,-0.08140286058187,-10.927435874939,1.35245561599731,3.64747643470764,4.33836507797241,-0.0169515106827,0.52488595247269,2.52852392196655,-16.7791633605957,-7.92750120162964,15.1223764419556,15.4862947463989,10.8149080276489,-8.52126312255859,8.51401042938232,-3.30439925193787,-6.54626083374023,51.9532775878906,15.0505504608154,-0.45729252696037,-0.69944071769714,-1.99875104427338,-3.40923881530762,0.04413501545787,-0.56123244762421,-0.96929043531418,1.86987149715424,-10.3624038696289,-18.8549365997314,-4.60883808135986,-6.77110147476196,2.94726228713989,-2.38687968254089,3.31860184669495,8.59708881378174,-26.5023155212402,-28.4535903930664,-13.5682401657104,4.82094860076904,1.75745928287506,-3.73238658905029,1.54625260829926,1.15835320949554,-0.26496279239655,10.7119579315186,46.0372085571289,40.6547431945801,-10.6137952804565,-20.8469123840332,-0.79248076677322,-6.19501352310181,-6.72829866409302,-6.86574363708496,2.15717577934265,3.41892004013062,1.53707754611969,SHAKE
-2.99568319320679,-2.83441472053528,0.20586158335209,-1.28327512741089,-0.16294831037521,0.67821311950684,-12.4381771087646,-17.1670246124268,-19.42236328125,1.49158763885498,12.4166288375854,17.0377368927002,5.67593097686768,10.1266946792603,10.6935777664185,-23.8205108642578,-0.26336219906807,36.7881050109863,-0.5283984541893,-0.71104717254639,1.0812314748764,1.40880799293518,-0.23564127087593,-0.77992218732834,42.4001159667969,33.464656829834,17.315465927124,-7.17811584472656,5.65779781341553,1.82438170909882,-6.27259349822998,-6.00503444671631,-2.80287885665894,0.96246910095215,-0.56742578744888,-21.0097179412842,-0.65240406990051,3.99750208854675,6.5148777961731,0.34529158473015,0.14126259088516,1.11742520332336,-17.3346195220947,-12.6225309371948,-1.34314715862274,21.6848831176758,14.3702974319458,-1.51552963256836,10.7516098022461,0.06940956413746,-5.49862718582153,47.8208885192871,30.2037525177002,4.28322696685791,-1.54671084880829,-1.31641459465027,-2.80020618438721,-1.12445020675659,-1.88253402709961,-2.05052185058594,13.762170791626,-0.1268926858902,-10.7143516540527,0.74699091911316,-4.07732534408569,-1.24019646644592,-5.50962257385254,-2.44063568115234,3.98688840866089,-10.4485950469971,-28.4751377105713,-28.4751377105713,6.83497142791748,4.78063154220581,-1.79472208023071,1.44729244709015,4.28842687606812,2.15039849281311,-10.9777145385742,13.6664028167725,38.8136024475098,6.38084697723389,-20.7774810791016,-18.1366767883301,-3.70146155357361,-5.16753816604614,-6.14186811447144,11.9689140319824,3.84269380569458,7.01291608810425,SHAKE
-0.96089100837708,3.50514483451843,6.00175094604492,0.10888673365116,-0.25702154636383,0.84497934579849,-20.8828258514404,-19.7695217132568,-14.92844581604,20.2651214599609,15.7879648208618,4.40054273605347,13.7546234130859,5.69792175292969,-3.10159182548523,35.9549255371094,46.803352355957,13.7669591903687,-1.89918005466461,-0.21685716509819,-0.93584555387497,-0.70539665222168,-1.0334312915802,-1.52945387363434,25.0083351135254,13.5634517669678,1.91057300567627,9.06953525543213,-1.06781399250031,-4.1659107208252,-6.24754810333252,-5.5517725944519,-3.64770555496216,-1.58735573291779,-7.64498519897461,-16.4774951934814,-0.72876220941544,2.97735714912415,6.82031059265137,0.57436603307724,-0.7389942407608,2.0135645866394,-13.7310457229614,-14.7560634613037,-3.9073371887207,14.8087358474731,15.7424745559692,-4.09887313842773,11.9684534072876,0.2386192381382,-5.41493844985962,52.1400260925293,31.8270206451416,6.34972238540649,-0.09285151958466,0.24678955972195,-1.63284277915955,-1.43293714523315,-2.27959632873535,-2.57281160354614,16.1087875366211,4.68784713745117,-4.73094272613525,1.88423669338226,-4.74291372299194,-3.95522117614746,-6.48578548431396,-4.23535776138306,1.36383306980133,-4.36223554611206,-20.0735855102539,-30.4527492523193,6.21494293212891,5.90523433685303,1.54487824440002,0.6800457239151,3.03004431724548,2.45888543128967,-11.1740388870239,11.1261548995972,33.2563591003418,3.17949986457825,-15.0050601959229,-19.305046081543,-3.19871950149536,-5.74480581283569,-5.97998905181885,21.6633358001709,6.20128154754639,3.99113416671753,SHAKE
0.4459316432476,3.30722451210022,4.5313982963562,-0.22036963701248,-0.67302078008652,0.24694228172302,-15.0433673858643,-9.54598140716553,5.15022706985474,12.802095413208,7.98256778717041,-5.39922428131104,7.45538139343262,1.36444389820099,-2.50111126899719,27.9172897338867,20.7415676116943,7.11586666107178,-1.53266084194183,-1.14048540592194,-1.842369556427,-0.24358251690865,-0.77564615011215,-1.02182483673096,18.5867862701416,6.63223791122437,-2.98078107833862,2.06380176544189,-1.92733240127563,-1.69270062446594,-5.34774351119995,-3.51514768600464,-0.4363868534565,-5.42077207565308,-13.501202583313,-20.5907325744629,2.08488297462463,4.05309104919434,4.40861463546753,0.35995236039162,0.25121831893921,2.59755182266235,-11.3966989517212,-7.87961721420288,24.1964015960693,11.4948616027832,8.21001720428467,-14.1356658935547,5.37294149398804,-2.39482092857361,-5.16204023361206,32.9594802856445,15.0098485946655,3.84987640380859,-0.83688539266586,-0.7611380815506,-1.81732416152954,-0.11591167747974,-1.06030929088593,-1.05358982086182,9.77103614807129,0.5243301987648,-7.65456199645996,0.24420857429504,-2.2864625453949,-1.40539634227753,-5.72037124633789,-3.44123291969299,6.03695201873779,-8.76068305969238,-21.4574337005615,-19.0847797393799,5.80993938446045,4.1960334777832,-0.92851519584656,0.45219299197197,2.25302362442017,1.96225190162659,-2.43011474609375,27.3426818847656,37.1400527954102,-2.29125094413757,-17.5141830444336,-14.0638399124146,-3.42657232284546,-4.37035894393921,-5.42471265792847,6.98418569564819,2.74375510215759,5.29387903213501,SHAKE
1.98225772380829,4.43610334396362,4.45687294006348,-0.44394633173943,-0.31016683578491,1.12903165817261,-12.0335569381714,-0.58179098367691,25.8846130371094,11.0926361083984,2.35589456558228,-12.6153478622437,4.03209257125854,-1.43637323379517,-3.69352030754089,27.9244728088379,10.2857894897461,4.38138914108276,-0.91080009937286,-0.98654735088348,-2.16551733016968,-0.14217889308929,-0.85200428962708,-0.97539907693863,12.7039337158203,1.13963997364044,-8.04242324829102,-0.3687070608139,-3.88818359375,-2.90177249908447,-5.71976041793823,-3.85417795181274,0.51289772987366,-4.57292509078979,-17.2651863098145,-26.5382289886475,3.78308844566345,5.60529947280884,5.1324896812439,-0.02916881628335,0.67638051509857,1.95003461837769,-12.2322759628296,-1.08696758747101,25.841516494751,11.0758762359619,0.56024318933487,-17.1885719299316,5.1139349937439,-2.18040704727173,-4.71305465698242,31.2955074310303,9.15333271026611,1.13006317615509,-0.97371917963028,-0.34025195240974,-1.27182149887085,-0.38408151268959,-1.26189482212067,-1.53800594806671,7.38401746749878,-3.36145925521851,-11.6026010513306,0.49799394607544,-3.71819519996643,-3.62482142448425,-4.75398254394531,-1.89268958568573,3.17749190330505,-10.7598419189453,-23.3584308624268,-27.3570461273193,4.26811552047729,5.00542974472046,2.91199469566345,0.19807305932045,1.40758621692657,2.25913238525391,-8.60745429992676,5.81820917129517,37.5470695495605,8.93546009063721,-4.92517232894897,-19.1494235992432,-4.66662883758545,-5.73381042480469,-6.38926887512207,3.53384160995483,0.75896191596985,0.89782565832138,SHAKE
-1.58886051177979,1.62490153312683,4.26811552047729,-0.53863042593002,-0.08964447677135,0.19807305932045,-18.4000377655029,-16.3553905487061,-8.60745429992676,13.9010343551636,15.6682548522949,8.93546009063721,10.5518569946289,8.96605110168457,-4.66662883758545,7.07755947113037,36.6109352111816,3.53384160995483,-0.56382864713669,0.40805798768997,-0.58276546001434,-0.05543602257967,-1.01938140392303,-1.55083417892456,12.4597253799438,1.10372698307037,-7.676109790802,3.67988801002502,-3.24174904823303,-4.01028776168823,-4.72954797744751,-2.20056557655334,0.82016295194626,-9.06714153289795,-18.0600624084473,-27.2900085449219,2.34511160850525,4.56316328048706,4.77818775177002,-0.02733621932566,0.0306959785521,1.57862854003906,-11.5331687927246,-2.90656089782715,22.0895042419434,11.3703632354736,3.05978965759277,-13.5035972595215,5.41570234298706,-2.33801031112671,-4.71549797058105,36.0794219970703,11.4038820266724,0.60573303699493,-0.2858849465847,-2.0879373550415,-2.88817095756531,-0.76465058326721,-1.37918102741241,-0.86666506528854,8.67928028106689,-8.13100814819336,-11.9018754959106,-1.80283391475677,-2.43250894546509,2.29364514350891,-2.15047478675842,1.44813239574432,9.37166595458984,-17.9547176361084,-25.353099822998,-1.21386027336121,2.66398334503174,-1.30725157260895,-3.98528480529785,1.98302125930786,1.22432661056519,0.14004085958004,26.3203563690186,37.451301574707,31.1805858612061,-13.2809362411499,-15.8669729232788,5.15740966796875,-5.21701812744141,-5.78023624420166,-5.95433282852173,-0.06224924325943,0.33518823981285,-1.1947066783905,SHAKE
1.02136671543121,4.11723184585571,2.66398334503174,-0.56123244762421,0.53893584012985,1.98302125930786,-12.5578870773315,1.42455005645752,26.3203563690186,13.0750350952148,0.50996494293213,-13.2809362411499,2.67597150802612,-3.82852149009705,-5.21701812744141,32.9762382507324,9.04080486297607,-0.06224924325943,-0.29871311783791,-0.04459316283464,-0.78312921524048,-0.36147952079773,-0.82879143953323,-0.83978700637817,6.07678318023682,-2.559401512146,-8.26987171173096,2.18590617179871,-1.27610945701599,-1.67833542823792,-4.36302852630615,-2.17857456207275,1.5935183763504,-9.28501319885254,-18.7735347747803,-23.1644992828369,3.07692813873291,4.71160364151001,4.76963567733765,0.21212296187878,0.69531738758087,2.14551138877869,-10.0200338363647,-1.97282218933105,21.332935333252,9.8691987991333,2.53306531906128,-12.0431337356567,5.77428007125854,-1.47058176994324,-4.50963640213013,33.1342544555664,14.8661966323853,2.17632937431335,-0.75319683551788,-0.57421332597733,-1.70797920227051,-0.05726861581206,-0.88376927375793,-0.98334032297134,9.80455493927002,0.22744916379452,-7.31219148635864,-0.3447650372982,-3.41413164138794,-3.28005623817444,-4.21703195571899,-2.26531744003296,1.44996500015259,-8.82053852081299,-18.708890914917,-24.3352642059326,3.33960032463074,4.92113018035889,3.53996419906616,-0.4494441151619,0.42348232865334,1.88406109809875,-6.41675996780396,3.90015459060669,27.5964660644531,9.89074611663818,0.68953007459641,-16.0896339416504,1.44935417175293,-3.14923930168152,-4.23108196258545,24.0742969512939,4.75249052047729,0.39025488495827,SHAKE
0.40683624148369,3.33960032463074,4.92113018035889,0.04902193695307,-0.4494441151619,0.42348232865334,-12.0383453369141,-6.41675996780396,3.90015459060669,13.132495880127,9.89074611663818,0.68953007459641,7.92208242416382,1.44935417175293,-3.14923930168152,26.0976963043213,24.0742969512939,4.75249052047729,-2.222327709198,-1.12032687664032,-1.48928952217102,-0.05849034711719,-0.9411906003952,-1.5245668888092,16.3290538787842,6.75194787979126,-2.06859016418457,3.13640427589417,-1.21864867210388,-2.3247697353363,-5.05025196075439,-4.1345648765564,-2.13825750350952,-2.827552318573,-8.95461368560791,-19.6330528259277,1.66094255447388,5.79894399642944,5.10072469711304,0.1082758679986,1.38498425483704,3.2401819229126,-15.5581207275391,-3.78523278236389,19.6450233459473,15.4527759552002,1.19949507713318,-19.0105609893799,5.99235916137695,-2.09732937812805,-5.21640729904175,37.6548080444336,13.1684083938599,4.41490793228149,-0.9089674949646,-2.73850893974304,-4.07447099685669,-2.07556748390198,-2.10733246803284,-0.94546669721603,0.41419690847397,-8.28663158416748,-11.5020446777344,-4.73333692550659,-1.67594122886658,4.95629692077637,-3.12236142158508,0.25755605101585,4.62768602371216,-14.8638029098511,-23.193229675293,-20.9091625213623,6.30901622772217,6.39026117324829,3.49598169326782,0.30253100395203,2.34526443481445,2.59266471862793,-3.05260705947876,14.6432371139526,34.079963684082,6.33056879043579,-13.4916257858276,-20.490177154541,-1.55427026748657,-5.24572896957397,-5.42104721069336,19.3194122314453,4.66629934310913,0.10055647045374,SHAKE
4.0439281463623,6.30901622772217,6.39026117324829,-0.03039054572582,0.30253100395203,2.34526443481445,-9.09347724914551,-3.05260705947876,14.6432371139526,13.7741413116455,6.33056879043579,-13.4916257858276,5.75961923599243,-1.55427026748657,-5.24572896957397,30.6538619995117,19.3194122314453,4.66629934310913,-2.42941117286682,-2.28402519226074,-2.95658779144287,-0.31566461920738,-1.10551333427429,-1.36635279655457,9.91229438781738,0.65601128339767,-7.14220285415649,-1.41736745834351,-2.17393517494202,-0.28012159466743,-4.18099069595337,-2.94521045684814,-0.3502548635006,-6.99376249313354,-14.5594396591187,-21.1390056610107,3.67007827758789,5.5991907119751,5.57658863067627,-0.65469485521317,-0.69806623458862,1.5267049074173,-9.37838745117188,-1.57777893543243,19.4439105987549,9.0575647354126,3.86184740066528,-14.0279273986816,5.60629224777222,-1.3368022441864,-3.95985770225525,29.9786968231201,12.9050464630127,1.28089785575867,-1.92178201675415,-1.12093770503998,-1.67254900932312,-0.21914790570736,-1.15926957130432,-1.31931626796722,11.7270994186401,0.83318221569061,-8.10946083068848,2.14281058311462,-1.85071790218353,-1.71424841880798,-4.84133625030518,-3.22987365722656,0.41577014327049,-5.93313121795654,-16.2883529663086,-23.4015254974365,4.24245929718018,5.92783641815186,5.31452751159668,0.17302757501602,0.93721997737885,2.39169025421143,-8.41591835021973,2.19069457054138,24.9772090911865,11.3440265655518,2.33913516998291,-15.0242137908936,3.20009398460388,-1.50173580646515,-4.64402675628662,24.1533050537109,10.2905778884888,-1.38384854793549,SHAKE
4.75192070007324,6.28274917602539,5.87041521072388,0.13515393435955,1.02029764652252,2.14001369476318,-12.9649019241333,-4.21140098571777,14.3535385131836,11.0806646347046,2.19308876991272,-12.737452507019,6.34604978561401,1.59474003314972,-1.87802886962891,20.569185256958,12.4980325698853,3.64158082008362,-2.58701419830322,-2.94986820220947,-4.09707307815552,-0.57222801446915,-1.47264337539673,-1.87703621387482,17.3489837646484,5.53090524673462,-6.44788455963135,-4.37420654296875,-4.16112232208252,-1.6136919260025,-4.28972482681274,-3.0270664691925,0.13293954730034,-3.1890766620636,-14.4445180892944,-18.158224105835,5.62912321090698,6.45928907394409,5.02558851242065,0.16203200817108,1.13391864299774,2.47537875175476,-12.5052146911621,-2.47081613540649,17.6961441040039,9.88356399536133,0.16519992053509,-14.8135242462158,5.11943244934082,-0.01427897531539,-2.66299057006836,22.3768081665039,10.9609546661377,3.25132584571838,-1.96087741851807,-2.57540798187256,-3.80630135536194,-0.97967511415482,-1.66323339939117,-1.76097178459167,16.080057144165,4.08450794219971,-6.34732818603516,-3.13401007652283,-3.02148246765137,1.20907187461853,-4.35630893707275,-2.80348968505859,0.38400515913963,-4.37181234359741,-13.8363904953003,-17.5333385467529,4.16182470321655,3.87777256965637,1.62490153312683,0.6244570016861,2.42528772354126,2.20232200622559,-10.7287168502808,17.1502647399902,34.7482452392578,8.74631786346436,-11.1285486221313,-15.8550024032593,0.38522690534592,-2.33067989349365,-3.62388181686401,10.0990419387817,2.18590617179871,3.12443327903748,SHAKE
3.94313526153565,5.65600109100342,5.26138257980347,-0.14462234079838,0.3642283976078,1.85412871837616,-11.7606182098389,-2.71981310844421,17.1766014099121,10.4270477294922,2.2553379535675,-13.0032091140747,6.223876953125,-0.36858081817627,-4.0068941116333,29.4663372039795,16.5588970184326,3.72298359870911,-1.02014493942261,-1.74402022361755,-3.74277138710022,-1.01205098628998,-1.8568776845932,-2.06518268585205,12.3088903427124,0.68474167585373,-9.80216121673584,-4.50109910964966,-5.93791961669922,-3.98634576797485,-3.55790829658508,-1.93545019626617,1.09077620506287,-6.65617990493774,-14.3128366470337,-20.107105255127,4.92540645599365,6.61139440536499,5.26504755020142,-0.36086863279343,0.82970774173737,3.45887184143066,-10.616189956665,-0.75656771659851,26.4161243438721,12.5866174697876,2.6240451335907,-20.9163436889648,3.39923596382141,-2.71613597869873,-3.90854501724243,28.6738567352295,5.90200662612915,-0.17477671802044,-2.11664795875549,-4.83377647399902,-4.72504281997681,-2.19224262237549,-2.50500559806824,-1.27411222457886,10.4677486419678,-10.858003616333,-15.7233209609985,-4.85065269470215,2.39659595489502,15.0505504608154,-3.23353886604309,0.58131462335587,4.54888439178467,-15.42165184021,-17.0497093200684,-10.0846767425537,7.1129150390625,5.43853330612183,1.77883958816528,2.42406606674194,3.35991168022156,2.75515508651733,2.46602773666382,25.8510932922363,37.1137161254883,-5.24360084533691,-19.0512619018555,-22.8341007232666,-1.1590404510498,-3.54263663291931,-3.62449264526367,7.16614484786987,2.5282769203186,3.86184740066528,SHAKE
-0.18020524084568,3.42328882217407,4.85760021209717,-0.74082684516907,-0.4751004576683,0.83825981616974,-17.5429153442383,-10.6353435516357,1.28329205513,16.4942531585693,8.88518142700195,-1.79086291790009,9.19390392303467,3.1047990322113,-1.9189567565918,27.8478584289551,25.4249248504639,9.3735990524292,-1.97065126895905,-1.64872527122498,-2.09343528747559,-0.39019018411636,-1.16782164573669,-1.57465791702271,23.935432434082,11.2745952606201,0.22744916379452,-2.74614930152893,-3.68707060813904,-3.2585084438324,-6.10460567474365,-5.65134334564209,-3.70879197120667,0.40940847992897,-7.86285781860352,-20.2220268249512,5.51733493804932,6.25159502029419,4.72443199157715,0.22861631214619,0.81321436166763,1.29763054847717,-12.9768724441528,0.11013327538967,29.2556476593018,5.60033702850342,-6.62505531311035,-21.4358863830566,3.72665977478027,-2.17490935325623,-4.21886444091797,25.3171863555908,7.78145456314087,1.46525144577026,-2.3469443321228,-1.5234979391098,-1.76295709609985,-0.39568796753883,-1.04870295524597,-1.20630609989166,9.92905330657959,-0.83797061443329,-10.4916915893555,-0.63206923007965,-2.47081613540649,-0.85233581066132,-2.76011824607849,1.06511986255646,4.4059419631958,-17.8469772338867,-18.7591686248779,-14.667179107666,6.02740716934204,6.08421802520752,3.38236093521118,-0.66385781764984,-0.6644686460495,-1.37001800537109,3.28484463691711,18.7759284973145,34.2643165588379,-1.41976165771484,-15.1558952331543,-23.581090927124,0.63690340518951,-2.94276690483093,-4.65502214431763,15.0720977783203,8.67449188232422,4.54658889770508,SHAKE
0.90408056974411,-0.32009339332581,-0.68477994203568,1.82053112983704,0.40271291136742,0.40637809038162,21.716007232666,36.1584320068359,31.8701171875,-13.6831617355347,-5.85412263870239,-5.18374586105347,-2.21644806861877,-4.24024486541748,-5.44975805282593,9.73991203308106,5.11670827865601,1.49877023696899,-1.57542145252228,-2.20888876914978,-3.04394149780273,-1.67850494384766,-2.14337348937988,-2.43842124938965,0.25617957115173,-7.28824901580811,-12.7326641082764,-4.14915132522583,-3.71580100059509,-0.91219085454941,-3.77293276786804,-1.71737122535706,1.04190707206726,-10.0176391601563,-16.218921661377,-17.4950294494629,2.36099410057068,5.14165258407593,5.87957811355591,-0.15012013912201,1.27686107158661,3.07524824142456,-11.3440265655518,-3.74213719367981,19.6498126983643,14.4277591705322,6.92672491073608,-15.4455938339233,8.43032264709473,-0.00145080499351,-5.33552598953247,33.996166229248,20.7511444091797,2.61446833610535,-2.49843883514404,-2.44834780693054,-2.61389231681824,0.31535917520523,-0.37064248323441,-0.50869804620743,3.32554626464844,-4.93474912643433,-12.2370643615723,-2.92810869216919,-2.56179571151733,-1.58496153354645,-6.57802581787109,-4.49619722366333,-1.30076122283936,-6.83574533462524,-12.4070520401001,-15.5557270050049,3.91503524780273,5.86613893508911,6.32673120498657,-0.21303924918175,1.48638784885406,2.41184878349304,-17.4926357269287,-14.5474691390991,-7.62343740463257,13.8268136978149,5.96904420852661,-2.01831197738647,10.3270587921143,8.18231105804443,-1.7479145526886,6.65617990493774,21.0192947387695,21.0192947387695,SHAKE
3.91503524780273,5.86613893508911,6.32673120498657,-0.21303924918175,1.48638784885406,2.41184878349304,-17.4926357269287,-14.5474691390991,-7.62343740463257,13.8268136978149,5.96904420852661,-2.01831197738647,10.3270587921143,8.18231105804443,-1.7479145526886,6.65617990493774,21.0192947387695,21.0192947387695,-1.02747535705566,-1.01647973060608,-1.2712105512619,0.25121831893921,0.17058411240578,-0.26984971761703,-3.96958637237549,-12.9098348617554,-20.3872261047363,-0.62728083133698,-1.63763391971588,2.6623523235321,-4.59454679489136,-0.53473615646362,3.22086334228516,-18.6131229400635,-18.4048271179199,-14.1643962860107,5.16181135177612,4.30476760864258,2.69025063514709,1.56824374198914,2.13451600074768,1.29640877246857,-9.2323408126831,2.99993467330933,29.0234107971191,-1.72861361503601,-8.45901393890381,-13.3503675460815,5.52993392944336,0.53061282634735,-2.80104613304138,24.694694519043,17.2651863098145,5.87567043304443,-2.37687659263611,-2.00608158111572,-2.19850397109985,0.68187832832336,0.34529158473015,0.22983804345131,16.1614608764648,6.38324117660522,-2.44687414169312,0.85473001003265,-1.84114110469818,-2.37983655929565,-6.10338354110718,-5.90851783752441,-4.06126117706299,-2.04943656921387,-7.498939037323,-15.5820636749268,1.12277030944824,3.56500959396362,4.55888748168945,-0.34865134954453,0.13576480746269,0.46502116322517,-16.4272155761719,-14.1236953735352,-9.98412036895752,11.1022129058838,7.01770448684692,2.65756392478943,5.78466463088989,7.22080898284912,7.82312202453613,-9.83807373046875,-5.95707321166992,3.35667085647583,SHAKE
0.67378437519073,0.70982539653778,0.36529740691185,-1.95034003257751,-0.60826909542084,0.26099216938019,5.13107347488403,24.852710723877,41.6938247680664,2.8012158870697,5.20050525665283,3.97437477111816,-4.60859632492065,-6.59696292877197,-6.51877212524414,21.5196838378906,2.28167414665222,0.56263738870621,0.30665436387062,1.56198239326477,1.75501585006714,1.00380432605743,0.2328923791647,-0.67974030971527,-1.71664261817932,-10.0463695526123,-17.590799331665,3.05978965759277,0.37349545955658,-1.51074123382568,-4.97328281402588,0.06269004940987,5.43036317825317,-28.7887783050537,-32.2484016418457,-25.3171863555908,0.34941491484642,-0.08796459436417,-0.65606927871704,0.19685132801533,0.06185010448098,-0.34437528252602,-10.6185836791992,-5.69610500335693,1.63523972034454,0.13407529890537,-0.35194763541222,3.59848523139954,10.477331161499,-1.03808915615082,-8.33670711517334,60.7450866699219,50.4185943603516,7.54203462600708,1.44836151599884,0.9395107626915,0.42760565876961,-0.12873984873295,0.05635231733322,-0.09941831976175,4.41730213165283,-3.11006808280945,-3.11006808280945,1.01274728775024,-1.15161097049713,-1.15161097049713,-7.7808198928833,-4.19137573242188,1.38582420349121,-19.2954692840576,-32.6242904663086,-34.1924934387207,-0.49235737323761,-0.64263021945953,-1.29992127418518,-0.30772337317467,-0.00473420554772,0.5022839307785,-11.3224792480469,-8.35366916656494,-4.13957452774048,1.76931500434875,1.79086291790009,5.48062705993652,11.8169593811035,2.37603664398193,-7.02823352813721,45.5583648681641,57.0652008056641,27.6778697967529,SHAKE
-0.64263021945953,-1.29992127418518,-1.54182386398315,-0.00473420554772,0.5022839307785,1.93354117870331,-8.35366916656494,-4.13957452774048,19.8461360931396,1.79086291790009,5.48062705993652,11.4397945404053,2.37603664398193,-7.02823352813721,-9.0740213394165,57.0652008056641,27.6778697967529,3.03824186325073,3.7036759853363,3.03844380378723,1.8301522731781,-0.409737855196,-1.08474397659302,-1.57587957382202,-1.89381349086761,-9.01446914672852,-14.0327157974243,-0.83557641506195,-2.72938990592957,-4.75727891921997,-3.10159182548523,2.04922389984131,6.61177635192871,-32.7631530761719,-31.0058097839355,-23.7630500793457,-2.73056769371033,-2.31273579597473,-0.57665681838989,-0.26557365059853,-1.15438258647919,-0.99189245700836,-7.23557662963867,-4.50109910964966,21.7399501800537,2.67671751976013,8.43267726898193,13.1013708114624,3.99849486351013,-6.53221130371094,-9.12350177764893,59.0475997924805,28.5158405303955,3.91691398620605,1.75135064125061,1.06473815441132,0.12217304855585,-0.51663929224014,-0.50258940458298,-0.67974030971527,-2.0326771736145,-7.37204647064209,-13.6041536331177,-1.07499659061432,-2.46363353729248,-2.71741890907288,-4.5737771987915,0.74869173765182,6.11086702346802,-31.2715663909912,-35.2701835632324,-25.6212501525879,-0.59620445966721,-1.14048540592194,-1.01953411102295,0.43569964170456,0.53832501173019,0.40759983658791,-4.10844993591309,11.5882358551025,39.4097557067871,0.92176765203476,2.75333189964294,4.67348194122314,-3.76010465621948,-7.76860237121582,-7.56518411636353,40.9588050842285,5.51175165176392,-1.03668928146362,SHAKE
-0.10567969083786,0.15638150274754,0.64263021945953,0.41126501560211,0.35323283076286,-0.36392298340797,0.0981622710824,16.4798889160156,44.5264663696289,3.49553442001343,3.12443327903748,0.4525041282177,-1.01854145526886,-6.75273370742798,-7.36726379394531,36.941333770752,7.45823764801025,-0.91937345266342,0.48014008998871,-0.28344148397446,-0.10079276561737,0.3642283976078,0.13209961354733,-0.55939984321594,-2.60249733924866,-9.6704797744751,-16.3649673461914,-3.0550012588501,-2.26730895042419,0.57700258493423,-4.52796220779419,-0.26534458994865,4.6826639175415,-21.6705188751221,-27.8023681640625,-23.8660011291504,0.85582220554352,0.63896507024765,0.30848693847656,0.44058656692505,0.31474831700325,0.60185497999191,-12.6584434509277,-5.31303262710571,9.34247398376465,-1.33835875988007,0.38546648621559,-2.29125094413757,11.0124492645264,-0.03871358558536,-8.21148014068604,60.4218711853027,50.0451011657715,9.57471179962158,2.06411361694336,1.53754782676697,0.59315013885498,0.24388794600964,-0.31688633561134,-1.01510536670685,4.939537525177,-4.95390272140503,-12.7757596969604,-1.61129772663116,-4.83389329910278,-4.503493309021,-6.69958829879761,-4.58965969085693,-0.52374058961868,-13.8890628814697,-13.8890628814697,-28.3721885681152,-0.43004912137985,-0.2138028293848,-0.51679199934006,0.05879577994347,-0.21670444309711,0.19990564882755,-13.939341545105,-7.74075317382813,3.30399823188782,1.40300214290619,0.82121115922928,2.06140756607056,10.4809970855713,5.83170127868652,-2.24943494796753,23.7606563568115,43.0752792358398,30.9268016815186,SHAKE
0.30482175946236,-0.7916813492775,-0.07330382615328,-0.17088955640793,0.49434268474579,0.51389038562775,44.1119689941406,34.4082679748535,19.7312145233154,-2.1475989818573,2.11647439002991,2.00394678115845,-5.94150447845459,-5.6971583366394,-5.49496173858643,-3.83311700820923,-2.99035787582397,-1.70467162132263,-1.24616515636444,-1.08795094490051,-0.62858033180237,-0.22892175614834,-0.51114147901535,-0.62109726667404,-10.9489831924438,-14.751275062561,-15.5509386062622,-0.9528923034668,0.73501992225647,1.85790050029755,-0.35697436332703,3.04371237754822,6.27702236175537,-18.3306064605713,-18.0337257385254,-15.8071184158325,0.8662069439888,1.28281700611115,0.74281215667725,-0.85750210285187,-0.76342886686325,-0.05726861581206,-5.1861400604248,4.12042093276978,20.8732490539551,2.14281058311462,1.1755530834198,-1.1180921792984,7.65574502944946,-0.25007295608521,-6.25487852096558,40.5422134399414,33.0935554504395,9.33529186248779,1.67254900932312,1.09283792972565,0.14660765230656,0.38805213570595,0.64583730697632,0.89079421758652,8.42788887023926,-0.19153612852097,-6.99136829376221,-0.06464344263077,-2.94965648651123,-3.7349545955658,-6.79854822158813,-5.80161619186401,-3.46139144897461,-6.30902051925659,-13.0582752227783,-19.0656261444092,-0.03481931984425,-0.27855455875397,-0.50946164131165,-0.64492100477219,-0.48976120352745,-0.32543846964836,-17.0975933074951,-14.7776117324829,-11.8779335021973,-0.38307225704193,-0.0454898327589,2.80839848518372,9.73879528045654,11.9018697738647,13.3178548812866,-8.76068305969238,-1.21625447273254,29.483097076416,SHAKE
-0.04092797264457,-0.91446524858475,0.29626965522766,0.32391130924225,0.08200865983963,0.45402559638023,41.2365341186523,38.5622100830078,22.7311496734619,-0.8164227604866,6.09354257583618,7.43668985366821,-7.94392061233521,-7.76066112518311,-7.20355224609375,-1.40779054164886,-3.9073371887207,-3.80199241638184,-0.47097709774971,-0.18387043476105,0.13133603334427,0.72708237171173,0.21273382008076,-0.64797532558441,-12.6632318496704,-17.3992614746094,-18.0840034484863,-0.89543145895004,0.09097966551781,-0.63446342945099,0.09384417533875,3.91786050796509,7.20981359481812,-21.3113880157471,-17.8613433837891,-12.6464729309082,-0.14538592100143,1.27731919288635,2.90099906921387,-0.19165897369385,-0.70234233140945,-1.09879386425018,-6.29226112365723,3.004723072052,19.1685771942139,5.91397762298584,3.98155736923218,-7.38641166687012,7.57388925552368,-3.63304471969604,-8.50835990905762,56.4427070617676,36.6564254760742,6.83813953399658,1.2834278345108,0.54794609546661,-0.37751471996307,-0.42684209346771,-0.06093380972743,0.24022275209427,6.22282934188843,-2.9855694770813,-8.78462505340576,0.57700258493423,-2.00155258178711,-3.80438661575317,-7.05389022827148,-5.72831249237061,-2.76500511169434,-8.88039302825928,-15.5365734100342,-22.1134452819824,-1.07267940044403,-0.27183502912521,0.23579397797585,-0.32116240262985,-0.36147952079773,-0.01817324012518,-16.0561141967773,-14.2434053421021,-10.5802764892578,3.26090264320374,3.32554626464844,2.17872357368469,13.0460195541382,14.0472278594971,7.83106327056885,-0.7781155705452,34.0632057189941,60.6181945800781,SHAKE
-3.16000580787659,-4.00727605819702,-2.82586264610291,1.94698023796082,1.13147509098053,1.14796853065491,2.35828876495361,36.4936180114746,35.5550918579102,-2.7126305103302,4.86262369155884,14.8949270248413,-7.92498397827148,-9.11739253997803,-8.55906200408936,15.8166952133179,2.12365698814392,-2.35828876495361,2.56380152702332,0.90774577856064,-0.51740288734436,-0.82085019350052,-1.5178474187851,-2.04258060455322,-8.42310047149658,-15.0697040557861,-18.5245380401611,-7.37204647064209,-6.81659173965454,-4.37181234359741,-2.26714992523193,2.29845690727234,5.44868898391724,-25.712230682373,-25.077766418457,-19.4822177886963,-0.14844025671482,-0.05436700582504,-0.56505036354065,-0.52030450105667,0.31413745880127,0.91034191846848,-5.85172843933105,0.85233581066132,20.8564891815186,4.44842672348022,2.10929179191589,1.46046304702759,7.31549310684204,-3.50109767913818,-8.85899639129639,56.1170959472656,32.9068069458008,5.286696434021,1.3078625202179,1.39949226379395,1.23639130592346,0.49984049797058,0.29397889971733,-0.1244637966156,1.52510643005371,-6.85011053085327,-13.4724721908569,1.66875863075256,-0.34715923666954,-2.54264211654663,-6.23044347763062,-2.92199754714966,1.14147806167603,-18.6777667999268,-23.6816482543945,-24.457368850708,0.16982053220272,-0.04337143152952,-0.42577308416367,-0.18188512325287,0.31780263781548,1.02090859413147,-11.0710878372192,-7.68329238891602,-3.42849683761597,0.67755907773972,0.87867200374603,0.60094463825226,13.3093032836914,11.4589920043945,0.93805992603302,12.10777759552,48.6229438781738,55.0205497741699,SHAKE
-1.59496915340424,-2.02868342399597,-1.21745443344116,2.15956139564514,1.42469048500061,-0.37369680404663,3.35188245773315,31.8772983551025,33.8381500244141,-0.19393034279346,1.68312382698059,8.34169769287109,-8.2988338470459,-10.3458433151245,-10.1686916351318,23.5140533447266,3.58412003517151,0.01436521019787,3.00057005882263,2.12520027160645,0.55588740110397,-0.53374350070953,-0.81840670108795,-0.69806623458862,-12.9194116592407,-19.1853370666504,-21.2084369659424,-2.30322194099426,-4.89135408401489,-3.86424160003662,-1.01731967926025,4.1780891418457,7.9727840423584,-31.1087608337402,-23.6864356994629,-15.3210954666138,-1.33962750434875,-2.16063046455383,-2.95903134346008,0.60185497999191,1.42285788059235,1.97446918487549,-7.00094509124756,-3.10767388343811,15.8310604095459,0.14365209639072,1.74776721000671,3.32075786590576,7.70889043807983,-3.48338270187378,-8.91580772399902,59.650936126709,37.5614318847656,7.05361747741699,2.33228349685669,2.72445893287659,1.70736837387085,0.28787025809288,-0.35292738676071,-0.56428676843643,4.01028776168823,-12.1389017105103,-16.8797206878662,4.89374828338623,-2.47560453414917,-3.84987640380859,-4.36669397354126,0.82627159357071,6.02229118347168,-28.8965187072754,-31.2811431884766,-25.2525424957275,-1.3390166759491,-1.22967171669006,-0.20830504596233,0.28176158666611,0.34162637591362,-0.35720345377922,-9.07192993164062,-6.88841772079468,-2.66714072227478,0.7972691655159,3.47638082504272,1.1755530834198,11.949517250061,4.0980658531189,-6.56764125823975,53.4161376953125,58.542423248291,22.5994682312012,SHAKE
-0.55771994590759,-0.39217549562454,0.19608774781227,-0.42317688465118,-0.16722436249256,-0.08903361111879,-7.18290424346924,-3.97916316986084,0.94570964574814,2.15956997871399,3.43807363510132,3.16034626960754,11.9030914306641,0.54221928119659,-9.90663051605225,54.2184944152832,57.5368576049805,3.66312861442566,0.88086766004562,0.56566119194031,-0.0824668109417,0.12965615093708,0.16447547078133,-0.04627304151654,-2.9161376953125,-10.1086187362671,-15.0266084671021,-1.05823719501495,-1.45806884765625,-3.80917501449585,-5.69043874740601,-1.24028551578522,3.9703950881958,-26.0689659118652,-31.510986328125,-27.9532032012939,-0.50762903690338,-0.15943582355976,0.40194934606552,-0.13057245314121,0.37888917326927,0.12232576310635,-10.4462013244629,-6.53886413574219,7.77187776565552,4.22337198257446,4.37181234359741,-1.57059633731842,10.075382232666,-2.2524893283844,-8.41428661346436,63.2949104309082,43.8366355895996,9.8093433380127,0.64996063709259,0.62247169017792,0.5717698931694,-0.2429716438055,-0.07192938029766,0.10338894277811,3.15555787086487,-3.5960910320282,-8.59069538116455,1.70946002006531,1.3215993642807,0.13886369764805,-7.19561100006104,-5.15226650238037,-0.81451243162155,-12.4740905761719,-23.8468475341797,-30.8501873016357,-0.95294976234436,-0.76663589477539,-0.69577550888062,-0.22708915174007,-0.40851613879204,-0.15561792254448,-11.3152961730957,-6.93869590759277,-3.10767388343811,-0.05985504388809,1.49158763885498,2.23379015922546,13.886570930481,6.24464654922485,-5.75457954406738,31.6522445678711,63.129711151123,35.8256378173828,SHAKE
-0.77885317802429,-0.17592918872833,0.6023131608963,0.08811730891466,0.48212540149689,0.19685132801533,-9.32810878753662,0.05027823522687,25.4512615203857,5.91876602172852,7.0033392906189,2.61925673484802,4.74558305740356,-5.21213150024414,-7.93903398513794,54.5417098999023,26.116849899292,4.29998636245728,0.90041536092758,0.31031954288483,-0.03298672288656,-0.5911648273468,0.27443119883537,0.89079421758652,-0.10055647045374,-7.55400562286377,-14.3798742294312,1.0414776802063,1.03668928146362,-0.88585460186005,-6.63239288330078,-1.98370850086212,4.392502784729,-22.9801464080811,-34.3148956298828,-32.4183883666992,-0.74403387308121,-1.12277030944824,-1.17163956165314,0.57925295829773,0.77595156431198,0.05696318298578,-9.86201572418213,-5.77990198135376,7.29064321517944,-0.32800564169884,-0.41180267930031,-4.95390272140503,7.90619993209839,-1.67338895797729,-8.51874446868896,61.2550506591797,42.1247825622559,9.44063663482666,2.59190130233765,2.48744320869446,1.34084916114807,0.43203443288803,0.00320704258047,-0.25396722555161,1.58735573291779,-8.05678844451904,-14.6983032226563,1.47482824325562,-3.87621259689331,-5.93552541732788,-6.61834335327148,-2.12359666824341,2.5256986618042,-24.3999080657959,-28.4104957580566,-25.8774299621582,-2.18567585945129,-2.54303193092346,-2.20278000831604,-1.1311696767807,-0.45982882380486,-0.51908272504807,-8.03524017333984,-3.2776620388031,0.65361708402634,1.02950668334961,4.25449657440186,4.73812532424927,12.3160362243652,2.1958315372467,-7.09054183959961,51.1177024841309,52.9396896362305,18.6562175750732,SHAKE
-1.90651047229767,-2.15574336051941,-1.65605568885803,-0.65347307920456,-0.01206458825618,0.15164729952812,-9.84525680541992,-5.43753147125244,9.74470043182373,0.67516487836838,4.49391651153564,4.70939493179321,9.51033210754394,-4.03988075256348,-10.1546421051025,68.1099472045898,43.6858024597168,8.49971485137939,3.1557297706604,2.45995426177979,0.84482663869858,-0.71394872665405,-0.00045814894838,0.33979380130768,-4.33111095428467,-14.2529821395874,-20.5069370269775,0.85951840877533,-4.67348194122314,-6.00735139846802,-3.33555340766907,1.90200531482697,6.55618762969971,-31.6378784179688,-28.66188621521,-24.1724586486816,-1.21012401580811,-0.08491026610136,0.34208452701569,-0.83734351396561,-0.77931135892868,-0.69317930936813,-8.70801067352295,-8.21001720428467,20.3848323822021,5.2364182472229,3.78523278236389,-4.95869112014771,5.41020441055298,-7.04594898223877,-9.88402843475342,72.5631637573242,35.6604385375977,5.79426717758179,1.97737073898315,1.5357152223587,0.5717698931694,0.05329799279571,0.59208112955093,0.8278751373291,-2.5091233253479,-10.4102878570557,-16.405668258667,1.09415018558502,-1.76931500434875,-3.95522117614746,-6.49250507354736,-2.47056818008423,3.57027816772461,-27.2588844299316,-33.9051895141602,-32.2938919067383,-1.17408299446106,-0.93523466587067,-0.38851028680801,-0.6834055185318,-0.19898934662342,0.27382034063339,-8.66252136230469,-6.3880295753479,9.97454357147217,2.08774399757385,4.91559553146362,0.07661445438862,8.75346946716309,-3.87433648109436,-9.4747486114502,65.5792770385742,41.9500045776367,8.45901393890381,SHAKE
-2.13191962242126,-2.34877681732178,-1.52960658073425,-0.17088955640793,-0.23564127087593,-0.85628038644791,-11.0112333297729,-7.77187776565552,1.61608612537384,-0.51954174041748,4.5226469039917,4.50109910964966,10.7131252288818,-1.65994989871979,-9.05569553375244,66.1850128173828,51.1679801940918,10.1158018112183,2.30784893035889,2.44529366493225,1.5167783498764,0.02031126990914,0.0068722339347,0.12721268832684,2.53785371780396,-5.32260942459106,-12.4238119125366,2.65995812416077,-2.19069457054138,-4.63278007507324,-7.6183295249939,-3.6336555480957,2.15673613548279,-20.1190757751465,-32.0855941772461,-33.9171600341797,-0.76846849918365,-0.88086766004562,-0.63346725702286,-0.05910121276975,0.33979380130768,0.15286903083324,-10.1469259262085,-6.48619174957275,3.86184740066528,0.84275901317596,1.99197578430176,-0.80445176362991,9.00575733184814,-4.05576324462891,-10.4099836349487,64.9184799194336,50.4688758850098,7.50372743606567,2.48988676071167,2.84479951858521,1.92605817317963,0.18646661937237,0.256716132164,0.38988474011421,-0.12210428714752,-9.35683917999268,-14.4325475692749,5.14543867111206,-1.88184249401093,-4.00549936294556,-6.80832242965698,-1.71492779254913,3.83600473403931,-28.0441818237305,-32.9499015808105,-28.740894317627,-2.01219010353088,-2.89000344276428,-2.56319046020508,-0.15989397466183,0.17608191072941,-0.42317688465118,-9.8093433380127,-6.71603488922119,3.40694904327393,-2.63601613044739,2.83234071731567,6.1007251739502,10.5066528320313,-1.80472505092621,-9.14243793487549,62.7059364318848,47.9238357543945,12.3807163238525,SHAKE
-2.06472444534302,-1.57603228092194,-0.19730947911739,-0.93813627958298,-1.23318421840668,-0.81046545505524,-6.60111331939697,-3.81635761260986,12.1819972991943,1.51552963256836,7.50133323669434,7.19008684158325,6.6795825958252,-4.84133625030518,-9.4674186706543,60.7091751098633,41.9021224975586,8.63857936859131,2.07083320617676,2.15818691253662,1.60291039943695,0.49067750573158,0.66843926906586,0.92866790294647,0.62728083133698,-7.62104320526123,-14.2721357345581,2.86346530914307,-0.22266076505184,-2.53545951843262,-7.56823873519897,-2.66665577888489,3.70955562591553,-25.3602828979492,-25.3602828979492,-32.1191139221191,-1.31213855743408,-2.38787221908569,-2.74522852897644,0.76006907224655,0.32696563005447,-0.29733866453171,-7.53006362915039,-2.36547136306763,22.8364944458008,-4.78361511230469,-1.73100781440735,3.98634576797485,5.28742027282715,-6.00198030471802,-9.42404747009277,59.0811157226563,26.2940216064453,-5.2555718421936,1.76540052890778,-0.44409903883934,-1.58030843734741,-0.76281797885895,-0.2283108830452,-0.07864890247583,-14.2505874633789,-17.8541603088379,-17.8541603088379,-8.03045177459717,-6.31380939483643,-6.31380939483643,4.16342830657959,8.30081844329834,11.8035202026367,-25.5182991027832,-17.7344512939453,-6.3880295753479,-0.5717698931694,1.21928703784943,0.37507125735283,-2.01264834403992,-2.07678914070129,-0.37308594584465,-2.37744235992432,24.3639945983887,33.5867576599121,6.24437713623047,3.50271701812744,-0.13407529890537,-5.77718162536621,-9.27377414703369,-9.75635814666748,28.6092147827148,8.7391357421875,0.95528650283813,SHAKE
-1.47646129131317,-1.09589219093323,-0.18020524084568,-0.00595593592152,-0.73777252435684,-1.17881715297699,-7.19726943969727,-3.75171399116516,25.0610065460205,1.28808057308197,2.23139595985413,0.99598789215088,1.18057346343994,-8.60426616668701,-10.4600744247437,57.5224914550781,22.6305923461914,7.4103536605835,1.70736837387085,1.21134579181671,-0.04703662544489,-0.49525898694992,0.30497446656227,1.29030013084412,-6.41675996780396,-14.7105741500854,-19.3241996765137,0.5147533416748,-2.26012635231018,-5.00178670883179,-4.69045257568359,1.98080694675446,7.9972186088562,-34.3532028198242,-37.142448425293,-27.0912895202637,-1.52716314792633,-0.82650065422058,-0.18875735998154,-0.36880987882614,-0.88010412454605,-1.44637620449066,-8.54759979248047,-10.6592855453491,12.2897367477417,1.78607451915741,1.24737906455994,-3.26090264320374,7.42850303649902,-6.27076101303101,-11.0135183334351,65.0717086791992,34.0033493041992,0.87867200374603,1.31824719905853,0.30665436387062,-0.78129667043686,0.40943244099617,1.1155925989151,1.55358302593231,-11.281777381897,-15.4599590301514,-19.5277080535889,-1.70227742195129,-4.26407337188721,-2.03985977172852,0.75357866287231,7.28556060791016,11.5683364868164,-40.6020698547363,-27.100866317749,-27.100866317749,0.15210545063019,0.26022860407829,-2.5057692527771,-0.34559699892998,-1.16049122810364,0.11743884533644,-6.57956552505493,18.6897373199463,20.899585723877,-1.58974993228912,-8.11903762817383,8.5811185836792,-10.2878103256226,-10.7013664245605,-10.4564094543457,6.91235971450806,-0.10773907601833,-7.94904899597168,SHAKE
-0.1667662113905,-0.04092797264457,0.15210545063019,0.0777326002717,0.2328923791647,-0.34559699892998,-11.188404083252,-11.188404083252,-6.57956552505493,-0.19153612852097,-0.19153612852097,-1.58974993228912,13.4791231155396,-7.51753664016724,-10.2878103256226,48.2350845336914,27.0841083526611,6.91235971450806,1.20645880699158,1.40315747261047,0.4459316432476,0.0080939643085,0.19318613409996,0.39843684434891,-4.42687892913818,-12.4980325698853,-16.2620162963867,2.39659595489502,-1.89620769023895,-5.19811105728149,-3.33433151245117,2.84090518951416,7.78585910797119,-36.2254676818848,-33.2467842102051,-23.8037509918213,-1.16186571121216,-0.49663344025612,0.96944314241409,-0.04016438871622,-0.45921793580055,-1.37185060977936,-8.26747798919678,-8.39676475524902,6.19888734817505,2.60489153862,3.75171399116516,-1.97521638870239,10.0216264724731,-0.61109429597855,-8.38801956176758,57.6206550598145,49.5973854064941,16.6091766357422,-0.07024950534105,1.44164192676544,1.54671084880829,0.37033706903458,-0.45616361498833,-0.45188757777214,2.95444488525391,-5.92116022109985,-12.1365079879761,6.35690498352051,2.34631776809692,-0.96246910095215,-8.9359655380249,-5.09423446655273,1.1255955696106,-20.5500316619873,-34.8200721740723,-37.3938407897949,-1.78067219257355,-2.0201313495636,-1.71225523948669,-0.53252178430557,-0.35537084937096,-0.90514957904816,-10.2833957672119,-7.42711305618286,-7.93228960037232,-0.13886369764805,2.99514627456665,6.14382076263428,14.4161911010742,4.36318159103394,-5.33063936233521,50.9932060241699,56.8569030761719,27.5246410369873,SHAKE
-2.59190130233765,-2.17101502418518,-0.97127574682236,2.12596368789673,1.00746953487396,-1.02060306072235,-5.55724143981934,-4.08690214157104,-2.02788877487183,-0.70628952980042,2.27688574790955,-0.50757074356079,12.1700391769409,3.07669925689697,-6.81687450408936,47.011646270752,51.6109085083008,22.0344371795654,0.71471232175827,2.28280353546143,-0.25839599967003,1.01907598972321,-0.39568796753883,-0.25152376294136,8.13100814819336,-2.03507137298584,-14.8829565048218,6.42154836654663,-1.72861361503601,-4.1659107208252,-5.41982555389404,1.73218476772308,7.79013538360596,-39.4169387817383,-39.3020172119141,-25.082555770874,-1.18813288211823,-0.78435099124908,-0.02443460933864,-0.40240746736526,-1.55205583572388,-2.62717866897583,-8.22917079925537,-6.83095693588257,13.6017589569092,0.91697925329208,0.19393034279346,-2.94726228713989,4.49268484115601,-6.08139276504517,-8.91519641876221,57.0699882507324,31.0105991363525,7.11826086044312,1.78555905818939,1.37872290611267,0.70188415050507,-0.42745295166969,-0.38408151268959,0.321467846632,0.84275901317596,-5.41837787628174,-9.99848556518555,1.54665434360504,0.44053310155869,1.84592950344086,-9.92495632171631,-5.98609781265259,0.75052428245544,-17.7727584838867,-37.9373245239258,-40.4847526550293,0.35552358627319,-0.49357911944389,-1.19057631492615,0.21395555138588,0.99341958761215,1.01357817649841,-12.2801599502563,-8.48534965515137,-3.3231520652771,-2.6431987285614,-2.06619596481323,-4.33589935302734,13.089391708374,5.0937762260437,-0.45288023352623,41.7536811828613,35.3970756530762,14.391845703125,SHAKE
2.86862325668335,6.57596445083618,6.08055257797241,2.53585433959961,3.53645157814026,3.54683637619019,-29.9044761657715,-22.6114387512207,-7.37683486938477,20.5763683319092,4.33111095428467,-4.49391651153564,10.2006092071533,4.91479253768921,-1.71004092693329,20.7343845367432,18.9147911071777,5.60033702850342,-2.23026895523071,-4.50329875946045,-7.77814722061157,0.35628715157509,-0.05115996301174,-0.13240504264832,29.3945121765137,11.0423574447632,-6.42633676528931,-9.74470043182373,-13.6855564117432,-12.8811044692993,-4.1449499130249,1.70103061199188,4.74985885620117,-6.32099199295044,-18.5867862701416,-11.4757080078125,8.76041889190674,8.75430965423584,5.92966890335083,-3.4145839214325,-2.71941924095154,0.01420261710882,-16.6714248657227,3.43807363510132,45.6876525878906,-0.56263738870621,-5.01375770568848,-4.69742393493652,3.23980021476746,-2.09366416931152,-5.27016353607178,18.0313320159912,11.7079458236694,7.07516527175903,-4.15693807601929,-6.04328966140747,-5.75251817703247,1.21516370773315,1.460120677948,1.55175042152405,4.61841487884521,-18.7304382324219,-36.2829284667969,-8.18128681182861,-5.05685329437256,6.67533349990845,-0.20853412151337,3.54095673561096,6.16095781326294,-24.5366764068604,-17.0137958526611,-6.14382076263428,4.61325454711914,2.59556651115417,0.79901176691055,-2.12810182571411,-1.18920195102692,0.65133506059647,3.84987640380859,41.6387596130371,51.4193725585938,-5.5931544303894,0.7781155705452,2.92810869216919,-0.40767619013786,-4.47420597076416,-6.2603759765625,21.6441822052002,9.0575647354126,5.29148483276367,SHAKE
5.8759126663208,4.91013479232788,2.72629165649414,-1.12872624397278,-1.03037691116333,0.04596760869026,-12.9194116592407,2.96881008148193,30.4695091247559,0.01915361359715,-3.8690299987793,-2.48518133163452,3.23430228233337,-0.27878361940384,-3.65137052536011,16.1111812591553,10.0583410263062,6.53646993637085,-2.62549877166748,-5.9272255897522,-8.13305950164795,-0.83123487234116,-0.55023688077927,0.3208569586277,16.4439754486084,-0.31842881441116,-19.3481426239014,-7.41753625869751,-6.18452215194702,-0.46447512507439,-4.64708089828491,-2.61778664588928,1.29847037792206,-10.8125143051147,-21.804594039917,-15.4072866439819,8.68283843994141,6.93087720870972,3.10624980926514,-1.51845824718475,-0.98700553178787,-0.29489520192146,-16.0154132843018,-1.72382521629334,29.3394451141357,0.43574470281601,-7.13980865478516,-7.78145456314087,5.02108335494995,1.32595932483673,-2.75339865684509,15.6658601760864,11.7318878173828,9.45739555358887,-3.19238185882568,-4.91563272476196,-5.16242218017578,-0.23014348745346,0.19746218621731,1.18645298480988,14.5139503479004,-3.66312861442566,-21.1366119384766,-2.07577276229858,0.29448682069778,7.69286918640137,-3.22620844841003,-0.23113614320755,2.06999325752258,-12.7206926345825,-16.1830081939697,-9.96257209777832,5.75923776626587,3.869220495224,2.11725902557373,-0.73532903194427,-0.93263852596283,-0.04382958263159,-5.98580360412598,10.2163581848145,36.433765411377,-2.24097275733948,-3.38540124893188,3.21780705451965,2.24347901344299,-1.24639415740967,-4.19076442718506,10.4102878570557,5.86609363555908,2.12365698814392,SHAKE
4.8594331741333,4.06225395202637,2.23759937286377,-0.29000827670097,-0.17150041460991,0.65133506059647,-9.85483360290527,2.55221891403198,23.4398326873779,3.41892004013062,-2.07098436355591,-2.80361008644104,3.28133893013,0.44753515720367,-2.72652077674866,8.54520511627197,5.87567043304443,2.88740730285645,-2.13314151763916,-4.27300262451172,-5.40982246398926,-1.75852835178375,-1.37490499019623,0.07956519722939,16.6139640808105,0.98162269592285,-14.5307092666626,-5.46865606307983,-0.3016694188118,9.01925754547119,-1.27938091754913,-0.27389669418335,1.89711833000183,-8.85166263580322,-13.4389533996582,-10.0248222351074,5.38905334472656,4.12639474868774,2.07266569137573,-0.74388116598129,-0.60154956579208,0.37033706903458,-6.78786087036133,7.78145456314087,31.0560874938965,-0.14844051003456,-4.26407337188721,-2.67192912101746,2.83723998069763,-0.22075143456459,-3.21399116516113,10.601824760437,7.03446388244629,4.48194551467896,-3.05860233306885,-5.01703643798828,-5.25405216217041,-1.80373239517212,-1.03831815719604,0.40454551577568,12.6201362609863,-3.45243883132935,-19.1015396118164,-4.35744714736938,3.51468801498413,12.8667392730713,-1.78029036521912,2.22332048416138,4.17503499984741,-10.0990419387817,-9.26825428009033,-4.21379518508911,3.17833185195923,1.4679092168808,0.88208943605423,0.23716843128204,1.37337779998779,1.19072902202606,14.5809879302979,35.6843795776367,38.9620399475098,-5.34415769577026,-4.57531929016113,-8.04960536956787,-1.366734623909,-3.59211683273315,-4.05270910263062,4.49152231216431,2.58334374427795,0.75656771659851,SHAKE
5.2192325592041,3.75987553596497,1.29136908054352,-0.2087631970644,0.38988474011421,1.26953065395355,-6.67054510116577,7.73835897445679,26.5310459136963,1.46285724639893,-5.19571685791016,-5.50696325302124,3.07914257049561,0.40966150164604,-2.17185497283936,7.71441698074341,5.71525859832764,3.9767689704895,-3.90709400177002,-5.71464443206787,-5.7995548248291,-1.29304897785187,-0.64980792999268,0.47112983465195,13.175591468811,-0.72065472602844,-17.0497093200684,-3.97437477111816,2.54743051528931,11.3272676467896,-2.59884977340698,-1.05519330501556,1.66315698623657,-9.15812110900879,-15.2516632080078,-12.433388710022,5.88813018798828,3.90403985977173,1.73302471637726,-1.0700831413269,-0.34009921550751,1.08077335357666,-7.1805100440979,9.29458999633789,35.2606048583984,0.05027823522687,-4.78122091293335,-2.79642748832703,1.95820486545563,-0.82489717006683,-3.51453685760498,12.2226991653442,7.93707799911499,4.44124412536621,-3.22597932815552,-4.97671937942505,-5.56986951828003,-1.51845824718475,-0.68523806333542,0.40454551577568,12.9074401855469,-1.61848032474518,-16.4511585235596,-3.19386506080627,1.66636443138123,10.8508214950562,-2.26409578323364,-0.49564078450203,2.13779926300049,-10.2833957672119,-15.2947587966919,-11.1740388870239,4.94189977645874,4.35974502563477,2.71957206726074,-1.11773073673248,-1.08352220058441,-0.07070764899254,-4.6830587387085,12.158055305481,35.9668960571289,2.2170307636261,-3.15555787086487,-1.68312382698059,0.66989010572433,-0.80962550640106,-2.58846521377563,7.10150146484375,4.3646297454834,3.80199241638184,SHAKE
-5.55887365341187,-2.37321138381958,2.75866746902466,1.45645546913147,0.92133748531342,-0.66996645927429,-20.9043731689453,-22.3145580291748,-19.9562702178955,12.4836673736572,17.7009315490723,13.5395097732544,3.62892127037048,4.74985885620117,3.91175198554993,-5.83736324310303,5.01136350631714,13.2665710449219,0.92729341983795,-0.71349060535431,-3.04394149780273,0.99769568443298,-0.13545936346054,-0.77014833688736,36.7905006408691,28.88694190979,15.6012172698975,-5.19332265853882,-6.83335113525391,-5.36091709136963,-3.97146391868591,-1.79922723770142,0.61979913711548,-0.105344876647,-13.7214689254761,-15.0505504608154,4.12272930145264,5.11843967437744,4.02254772186279,-0.9167560338974,-1.73898065090179,-1.09757208824158,-14.3487501144409,-1.79086291790009,17.1718139648438,7.4103536605835,2.6431987285614,-0.9528923034668,2.94230890274048,0.50495648384094,-1.81633150577545,15.0912523269653,11.2003746032715,6.78307247161865,-1.97370564937592,-4.84660482406616,-6.50204944610596,-0.23869559168816,-0.33887749910355,0.6244570016861,20.0496444702148,4.10366153717041,-12.0718641281128,-7.93947219848633,-3.65355181694031,5.40161848068237,-1.94705665111542,0.00526871252805,2.40902352333069,-10.5587291717529,-15.6945905685425,-10.2762126922607,5.49045705795288,4.54239416122437,2.68047666549683,-1.89963817596436,-1.28938376903534,0.07223481684923,-5.22205305099487,11.0926361083984,34.2714996337891,3.66073441505432,-0.65840548276901,-0.32800564169884,0.74258303642273,-1.35207390785217,-3.59089493751526,10.9154644012451,8.19565200805664,5.07121849060059,SHAKE
4.72748613357544,5.34507083892822,3.95290899276733,-1.15621519088745,-1.47691941261292,-1.10245907306671,-16.6139640808105,-4.83389329910278,12.2586116790771,7.54921722412109,1.45088624954224,-1.38384854793549,3.72238373756409,1.11154568195343,-1.83221399784088,13.8627271652222,13.924976348877,8.98094940185547,-1.98164689540863,-3.87288570404053,-5.7824501991272,-0.40607267618179,-0.5477933883667,0.12721268832684,23.1956253051758,7.40556526184082,-8.77025985717773,-5.24599504470825,-2.75333189964294,4.94193172454834,-2.94521045684814,-1.37345409393311,1.07611548900604,-6.49337434768677,-14.3248081207275,-12.6799917221069,5.68898820877075,4.79101610183716,2.61389231681824,-1.07619190216064,-1.0645854473114,-0.38591411709785,-11.3081140518188,2.71502470970154,24.7018775939941,2.29125094413757,-2.42532634735107,-1.64960491657257,3.49330925941467,0.33941200375557,-2.72346639633179,16.4966487884521,11.9330005645752,8.34888076782227,-2.76660871505737,-5.08789682388306,-6.44035243988037,-0.64614272117615,-0.41645738482475,0.60368758440018,15.5126314163208,2.17393517494202,-12.7422409057617,-3.91212558746338,-1.86268889904022,5.73680639266968,-3.24453449249268,-1.28487873077393,1.95209622383118,-8.43986034393311,-17.5884037017822,-13.2115039825439,5.91989517211914,3.03111338615417,1.77395272254944,-1.42255246639252,-0.27107146382332,1.30373919010162,-9.50528049468994,28.9946804046631,36.783317565918,2.51870012283325,0.31364041566849,-0.92655605077744,-0.65935266017914,-2.7503445148468,-4.45160388946533,10.5635175704956,6.13184976577759,2.23379015922546,SHAKE
6.67125940322876,5.59002780914307,3.59982895851135,-1.28388607501984,-0.80618941783905,-0.05849034711719,-10.6281604766846,2.79882168769836,25.0418529510498,2.3319525718689,-2.90416669845581,-2.54743051528931,2.72117567062378,-0.13217596709728,-2.82609176635742,14.8326778411865,8.72477054595947,4.12760353088379,-0.84604835510254,-4.08119058609009,-6.41286325454712,-1.19958662986755,-1.26617097854614,-0.11530081182718,17.4639053344727,4.85304689407349,-8.39676475524902,-8.57633018493652,-4.771644115448,3.83551120758057,-1.5078444480896,-0.03504839166999,2.24347901344299,-7.4295072555542,-14.806342124939,-10.7239284515381,5.55276489257813,5.14165258407593,3.10869312286377,-1.53983855247498,-1.28144252300262,0.35017850995064,-6.792649269104,6.74237108230591,30.96510887146,3.45004463195801,-1.01274728775024,-3.98395156860352,2.22209858894348,-0.16027577221394,-2.14986395835876,12.0335569381714,6.41915416717529,4.69024133682251,-5.96448802947998,-7.81052303314209,-6.25342750549316,-0.94363409280777,-0.0193949714303,1.55113959312439,11.0519342422485,-7.37683486938477,-22.9418392181396,-5.60751962661743,5.76074838638306,17.4399642944336,-1.87436366081238,0.41882449388504,2.45728182792664,-13.9944086074829,-11.8037137985229,-6.55801773071289,5.51489162445068,3.45261025428772,1.57358884811401,-0.70112055540085,0.25366178154945,1.21882891654968,3.34948825836182,24.6923007965088,38.5310859680176,-1.68551802635193,-3.15076947212219,-4.3143515586853,-0.40156754851341,-3.1113657951355,-4.43266725540161,8.33930397033691,4.09887313842773,1.85790050029755,SHAKE
7.12574291229248,5.51489162445068,3.45261025428772,-1.76830220222473,-0.70112055540085,0.25366178154945,-10.5276041030884,3.34948825836182,24.6923007965088,4.48194551467896,-1.68551802635193,-3.15076947212219,2.90076994895935,-0.40156754851341,-3.1113657951355,14.3295965194702,8.33930397033691,4.09887313842773,-2.13925004005432,-5.06834888458252,-6.65782022476196,-1.55449938774109,-1.48058462142944,-0.15256360173225,14.0901765823364,-0.55066639184952,-17.7057209014893,-7.33613348007202,-1.55862534046173,9.91229438781738,-1.6245197057724,0.98815089464188,3.6802339553833,-12.4190235137939,-14.8566198348999,-7.05122327804565,4.56438493728638,2.86190366744995,1.12399208545685,-1.37551581859589,-0.81779587268829,0.28237244486809,-1.27610945701599,18.2085018157959,38.3395500183105,0.86909520626068,-0.76135611534119,0.23702596127987,1.33756577968597,-1.32030892372131,-3.28851675987244,11.4254293441772,8.75350093841553,6.17015695571899,-6.64682483673096,-6.05672883987427,-2.66398334503174,0.33429601788521,1.72034919261932,1.9268217086792,0.96965169906616,-15.9699239730835,-24.265832901001,2.45405673980713,9.21079349517822,16.0082302093506,-1.56709837913513,1.57946848869324,4.46947193145752,-16.0345668792725,-13.4389533996582,-6.09593677520752,4.59004163742065,3.26751828193665,3.16855812072754,-0.24236078560352,0.11866057664156,1.23471140861511,6.08635997772217,31.5564765930176,36.6683959960938,-1.17076468467712,3.04303026199341,2.27209734916687,-1.97698903083801,-4.81934499740601,-6.23838472366333,9.75667095184326,4.00549936294556,1.05584299564362,SHAKE
3.27484846115112,3.8313467502594,3.81057739257813,-1.65223777294159,-2.24966406822205,-2.07434558868408,-11.9641256332397,1.76213240623474,21.9195156097412,4.25928497314453,2.17632937431335,3.92170238494873,2.02234578132629,-0.99044162034988,-2.97208857536316,17.803882598877,10.489296913147,5.18853425979614,-1.0800096988678,-4.16060304641724,-6.25464916229248,0.91217452287674,0.57314431667328,0.85108798742294,17.0568923950195,4.2066125869751,-8.41352367401123,-10.3935289382935,-9.23712921142578,-4.54658889770508,-2.58663249015808,-0.91897040605545,2.15673613548279,-11.6433019638062,-21.8548717498779,-16.8174705505371,5.1813588142395,5.33224248886108,3.98284149169922,-3.38892769813538,-3.76277709007263,-2.81654691696167,-10.5228157043457,4.03662395477295,30.0433406829834,1.28568625450134,-1.0989385843277,1.24737906455994,2.03150868415833,-0.43088907003403,-2.97575378417969,18.02414894104,12.363956451416,8.46380233764648,-2.81792140007019,-4.13067102432251,-4.34691715240479,0.65561109781265,0.33490687608719,0.68859785795212,12.2729768753052,-1.31441676616669,-12.2322759628296,-4.4723687171936,-3.21780705451965,2.05422496795654,-2.92932796478271,-0.43455424904823,2.36076498031616,-14.3104429244995,-20.6362228393555,-14.1093301773071,6.02496385574341,5.25160837173462,3.18321871757507,-2.79027962684631,-2.41398668289185,-1.3089314699173,-3.49792861938477,14.9883012771606,36.4505233764649,0.11971008777618,-4.41251373291016,1.46525144577026,-0.14500413835049,-2.23416328430176,-4.25490570068359,11.3823337554932,6.85489892959595,-3.52187061309814,SHAKE
-3.26751828193665,0.07880161702633,4.5246787071228,0.1308778822422,-0.40668353438377,-0.69745540618896,-18.163013458252,-18.950704574585,-15.0792808532715,9.26346588134766,13.9273710250854,8.5188684463501,5.31002235412598,4.18236541748047,0.56970822811127,-3.56975483894348,17.3633499145508,13.6903448104858,-0.99204516410828,-2.44468259811401,-4.24856758117676,0.85414230823517,0.65866547822952,0.50717085599899,33.3018493652344,19.4032096862793,5.22205305099487,0.66319388151169,-2.78685069084167,-3.84029960632324,-4.4625997543335,-3.70085072517395,-2.34411907196045,-0.47884035110474,-4.78600931167603,-12.6512613296509,1.46180057525635,6.28580331802368,4.95350646972656,-0.42134431004524,-0.51908272504807,0.29275718331337,-21.6824893951416,-16.2763824462891,22.8604354858398,17.4495410919189,7.05840587615967,-10.3312797546387,4.73642015457153,0.19280433654785,-3.13457870483398,20.5883388519287,12.5387334823608,8.80138492584229,-1.75196146965027,-3.86799883842468,-5.42448329925537,0.07040221989155,-0.3236058652401,-0.27351492643356,14.5115556716919,-0.44053310155869,-13.3838863372803,-4.85304689407349,-4.18985319137573,-0.42377370595932,-3.8358519077301,-1.32947182655334,3.49575281143188,-10.434229850769,-20.9043731689453,-16.8031063079834,6.87589931488037,5.42448329925537,1.71653139591217,-0.1458440721035,0.04352414980531,0.30925053358078,-9.83568000793457,9.41429996490478,34.8559837341309,0.63446342945099,-8.11664295196533,-0.91697925329208,0.12438743561506,-2.30624532699585,-4.20481443405151,13.8651208877563,9.29219627380371,5.64103841781616,SHAKE
4.42938375473022,6.87589931488037,5.42448329925537,0.11743884533644,-0.1458440721035,0.04352414980531,-20.2746982574463,-9.83568000793457,9.41429996490478,12.7446346282959,0.63446342945099,-8.11664295196533,5.03696584701538,0.12438743561506,-2.30624532699585,23.2123832702637,13.8651208877563,9.29219627380371,-0.15454891324043,-2.37443327903748,-4.50513124465942,1.19744861125946,0.55665093660355,-0.0267253536731,20.7679042816162,7.46302604675293,-3.11246228218079,-4.05098915100098,-5.99059200286865,-3.79480957984924,-4.40212392807007,-3.90426874160767,-1.9256763458252,-3.81156921386719,-11.2578353881836,-18.7591686248779,4.02132606506348,6.55397319793701,5.43303537368774,-0.86361074447632,-0.56978458166122,0.38805213570595,-16.6139640808105,-10.5323925018311,1.36708915233612,12.3663511276245,3.33991146087646,-4.37899494171143,3.08158612251282,-1.07168674468994,-3.75094175338745,16.7001552581787,9.37599277496338,5.7128643989563,-1.08245325088501,-3.74277138710022,-5.68959903717041,0.1082758679986,-0.40912699699402,-0.2930625975132,11.4014873504639,-0.23463176190853,-11.4158525466919,-5.96904420852661,-4.57771348953247,-0.49081134796143,-3.02034687995911,-0.90858566761017,2.58617448806763,-9.91229438781738,-16.6546649932861,-14.0758113861084,5.44647455215454,2.30601620674133,-0.14294247329235,0.89873546361923,0.61346143484116,1.30068480968475,4.4340615272522,31.3673343658447,34.0248985290527,-4.2449197769165,-3.24414324760437,3.3231520652771,-2.14497685432434,-3.63304471969604,-5.14615774154663,4.93714332580566,3.30639243125916,-2.13083958625793,SHAKE
