gyro_x_0,gyro_y_0,gyro_z_0,acc_x_0,acc_y_0,acc_z_0,gyro_x_1,gyro_y_1,gyro_z_1,acc_x_1,acc_y_1,acc_z_1,gyro_x_2,gyro_y_2,gyro_z_2,acc_x_2,acc_y_2,acc_z_2,gyro_x_3,gyro_y_3,gyro_z_3,acc_x_3,acc_y_3,acc_z_3,gyro_x_4,gyro_y_4,gyro_z_4,acc_x_4,acc_y_4,acc_z_4,gyro_x_5,gyro_y_5,gyro_z_5,acc_x_5,acc_y_5,acc_z_5,gyro_x_6,gyro_y_6,gyro_z_6,acc_x_6,acc_y_6,acc_z_6,gyro_x_7,gyro_y_7,gyro_z_7,acc_x_7,acc_y_7,acc_z_7,gyro_x_8,gyro_y_8,gyro_z_8,acc_x_8,acc_y_8,acc_z_8,gyro_x_9,gyro_y_9,gyro_z_9,acc_x_9,acc_y_9,acc_z_9,gyro_x_10,gyro_y_10,gyro_z_10,acc_x_10,acc_y_10,acc_z_10,gyro_x_11,gyro_y_11,gyro_z_11,acc_x_11,acc_y_11,acc_z_11,gyro_x_12,gyro_y_12,gyro_z_12,acc_x_12,acc_y_12,acc_z_12,gyro_x_13,gyro_y_13,gyro_z_13,acc_x_13,acc_y_13,acc_z_13,gyro_x_14,gyro_y_14,gyro_z_14,acc_x_14,acc_y_14,acc_z_14,motion_type
-0.44398748874664,-0.93761247396469,-1.83191251754761,-0.00453749997541,-0.30676248669624,-0.81661248207092,-4.12695026397705,-7.76595020294189,-10.1800508499146,0.64200001955032,-4.49100017547607,-11.0790004730225,-3.25379991531372,-9.79632472991943,-16.7270126342773,29.4049510955811,51.8140525817871,34.1550025939941,-4.27322483062744,-4.36507511138916,-2.46743750572205,4.99977493286133,6.49852514266968,8.08156204223633,31.4980506896973,11.731050491333,3.49500012397766,-4.98900032043457,11.2530002593994,11.2530002593994,-36.3206253051758,-34.011589050293,-22.9774875640869,-0.20595000684261,-6.29700040817261,-24.4159507751465,-2.11296248435974,-2.30023741722107,-5.10922479629517,3.90225005149841,3.19219994544983,5.14524984359741,-10.8310508728027,-10.7160005569458,-7.19205045700073,-14.0670003890991,-14.0670003890991,-6.06105041503906,-19.0625877380371,-18.4188117980957,-18.0589752197266,52.2739524841309,42.1230010986328,18.3720016479492,-12.8900747299194,-14.9270000457764,-12.9960870742798,11.0019245147705,8.94148731231689,9.68811225891113,18.2430000305176,1.96305012702942,-1.86705005168915,-4.22205018997192,6.3880500793457,3.85905027389526,-20.2597999572754,-20.4122867584229,-20.2170372009277,-3.53895020484924,-11.0470504760742,-13.8049507141113,-9.73238754272461,-8.08101272583008,-8.9673376083374,3.02637505531311,5.17371225357056,2.90922498703003,-6.38700008392334,-4.43295001983643,-0.7180500626564,-5.56305027008057,-4.2610502243042,-1.1580001115799,-16.4256114959717,-15.8272123336792,-15.2277126312256,47.2560005187988,34.9210510253906,17.9509506225586,SHAKE
-5.45091247558594,-3.76131248474121,-1.88443744182587,5.07333755493164,3.57940006256104,1.62442493438721,-5.6980504989624,-6.11895036697388,-3.66705012321472,-12.7650003433228,-12.7650003433228,2.6340000629425,-16.2322883605957,-17.1236991882324,-17.2035865783691,33.5800514221191,32.0479507446289,18.1039505004883,2.0376124382019,-2.64604997634888,-5.7101001739502,3.23056244850159,10.8612623214722,13.6415128707886,21.1930503845215,7.17300033569336,2.6140501499176,0.52695000171661,7.3840503692627,-0.85095006227493,10.6152753829956,12.7220497131348,13.3658246994019,-2.42805004119873,-14.2260007858276,-19.3980007171631,-7.76503753662109,-6.5107626914978,-0.4838624894619,9.47732448577881,4.52856254577637,-0.80726248025894,-5.58300018310547,-4.89300012588501,-2.86305022239685,-10.1980504989624,-6.71205043792725,-5.02695035934448,-16.2885246276855,-17.4011745452881,-18.0926628112793,44.1139526367188,35.3800506591797,20.1340503692627,-1.23227500915527,-1.87769997119904,-3.32186245918274,-2.62872505187988,8.38158702850342,14.2627372741699,17.3239517211914,4.98900032043457,2.26905012130737,-2.42204999923706,0.14400000870228,0.14400000870228,7.85537481307983,9.91306209564209,11.4611749649048,-0.70395004749298,-9.82095050811768,-21.7350006103516,-4.35118770599365,-8.63926219940186,-7.16155004501343,11.2652378082275,3.89358758926392,-5.72714996337891,-3.13095021247864,-4.9699501991272,-4.81695032119751,-7.78500032424927,-7.78500032424927,-7.01895046234131,-16.7868251800537,-18.5184993743896,-19.1177253723145,36.7210502624512,42.3139533996582,37.3720512390137,SHAKE
-3.14654994010925,-3.09608745574951,-1.16311252117157,16.5276374816895,13.6929378509521,4.65038728713989,4.1850004196167,4.30005025863647,4.49100017547607,-1.57905006408691,-1.57905006408691,-2.68995022773743,-3.05772495269775,0.92482501268387,2.19408750534058,15.3070507049561,21.4369506835938,16.2270011901855,-5.0168251991272,-4.68737506866455,-3.70755004882813,-21.4820365905762,-20.1920127868652,-17.294750213623,10.6200008392334,8.0149507522583,4.56795024871826,-8.05305004119873,-4.79700040817261,-1.08105003833771,11.224949836731,8.68738746643066,7.4204626083374,-6.29700040817261,-20.0490016937256,-36.0619506835938,-0.15702499449253,-0.27967500686646,0.68213748931885,-0.00041249999776,-2.13124990463257,-14.0606126785278,-16.078950881958,-21.1350002288818,-19.7179508209229,-17.4000015258789,-9.62400054931641,-1.6560001373291,-3.1547999382019,-6.62461233139038,-7.64362478256226,53.3850021362305,28.7149505615234,25.8420009613037,6.00352478027344,6.3223876953125,6.88324975967407,-15.9824495315552,-14.5381498336792,0.4629625082016,10.006950378418,6.44505023956299,0.66000002622604,-7.55505037307739,-6.25305032730103,4.54905033111572,-20.7854633331299,-20.0177993774414,-19.4304008483887,0.94200003147125,-4.87905025482178,-10.7400007247925,2.13152503967285,-0.97666251659393,-6.07598733901978,-0.18259999155998,0.77824997901917,0.00453749997541,2.65200018882751,-0.90900003910065,-2.17305016517639,-7.74705028533936,-8.13000011444092,-8.13000011444092,-8.398362159729,-18.9283866882324,-19.4029006958008,-2.96400022506714,43.5780029296875,47.6389541625977,SHAKE
-6.07598733901978,-7.18739986419678,-8.84729957580566,0.00453749997541,-0.76752501726151,2.71301245689392,-2.17305016517639,-2.21205019950867,-5.92695045471191,-8.13000011444092,1.02495002746582,2.94000005722046,-19.4029006958008,-19.2688369750977,-18.8585376739502,47.6389541625977,37.1809501647949,26.4550514221191,7.13129997253418,8.0407247543335,9.9345121383667,11.6081628799438,8.323974609375,7.45483732223511,1.69500005245209,-1.25400006771088,-1.78995013237,-8.62800025939941,-0.00900000054389,-0.00900000054389,-14.4236125946045,-13.841025352478,-14.1788625717163,-6.41205024719238,-31.8090019226074,-30.5449523925781,2.21429991722107,-3.61968755722046,-13.6173124313354,0.22055000066757,-2.10003757476807,-14.6810121536255,-3.8970000743866,-6.80805015563965,-7.61295032501221,-10.4280004501343,-5.33295011520386,3.36105012893677,15.594012260437,15.2752876281738,14.8506870269775,54.1510543823242,44.4210014343262,30.3619518280029,-8.89817523956299,-1.52391254901886,6.23810005187988,-12.6312999725342,-13.1774501800537,-6.44297504425049,7.32600021362305,0.81405001878738,-2.67105007171631,-11.731050491333,-5.33295011520386,0.22005000710487,-19.9927749633789,-20.0235748291016,-19.5527744293213,-2.46600008010864,-15.7200012207031,-26.9830513000488,3.33836245536804,-1.1837375164032,-14.1486120223999,-3.19274997711182,-3.60497498512268,-11.6122875213623,1.35000002384186,-3.1690502166748,-5.889000415802,-11.5009508132935,-11.5009508132935,0.7180500626564,11.5967502593994,11.2789878845215,11.1013374328613,36.4909515380859,45.0720024108887,39.8239517211914,SHAKE
-5.6050500869751,-6.99132490158081,-7.54613733291626,-17.9407253265381,-24.1356506347656,-25.2040252685547,5.14200019836426,5.29605007171631,7.21095037460327,-4.41405010223389,-4.60605001449585,-2.15400004386902,5.08062505722046,5.30337476730347,7.91862487792969,23.4289512634277,18.295051574707,14.9239511489868,5.15927505493164,1.88718748092651,1.50741243362427,-20.8951873779297,-4.72161245346069,-3.8150749206543,9.28005027770996,6.67500019073486,6.02295017242432,-4.18395042419434,-2.19195008277893,-1.54095005989075,17.4792747497559,16.9460506439209,8.61190032958984,-2.0830500125885,-4.84095001220703,-25.6800003051758,-1.75174999237061,-1.27820003032684,-0.77756249904633,0.77192497253418,-0.49816250801086,-1.27476251125336,1.38795006275177,-4.89300012588501,-10.4089508056641,-4.10805034637451,-9.31695079803467,-9.31695079803467,-14.1382999420166,-15.9204378128052,-16.8297252655029,54.9550514221191,44.1529502868652,29.3659515380859,-0.72682499885559,0.5682874917984,2.38864994049072,9.69223785400391,21.6350746154785,20.8223133087158,12.8040008544922,2.42295002937317,0.20100000500679,0.64200001955032,-1.54095005989075,-2.07705020904541,-16.8559875488281,-15.2022752761841,-13.1276750564575,4.00695037841797,-6.02895021438599,-20.1259517669678,4.13902521133423,1.97642493247986,-0.57062500715256,12.9460372924805,5.47882509231567,-0.00467499997467,4.68300008773804,1.50300002098084,-1.25400006771088,-3.22605013847351,-7.66995048522949,-7.66995048522949,0.86721247434616,-0.21615000069141,-0.54917502403259,17.1079502105713,48.8650512695313,54.8410530090332,SHAKE
2.06992506980896,1.05462503433228,-0.24543750286102,-3.18051242828369,-3.92246246337891,-1.43439996242523,1.27305006980896,-2.21205019950867,-5.6980504989624,-6.06105041503906,-6.06105041503906,-7.0570502281189,-16.4566879272461,-19.5868740081787,-19.9196243286133,38.827953338623,31.128002166748,14.6560506820679,-5.49147510528564,-3.91311240196228,-2.49947500228882,19.9354381561279,25.7380752563477,20.9913005828857,14.56605052948,7.74705028533936,-0.44895002245903,16.1560516357422,16.1560516357422,12.5929508209229,-7.54366254806519,-6.04642486572266,-5.40732479095459,-10.9699506759644,-16.3720512390137,-23.6880016326904,1.35134994983673,-0.27939999103546,-0.31845000386238,14.9433622360229,14.930025100708,16.4823989868164,-7.45995044708252,-9.375,-9.49005031585693,-13.8379507064819,-13.8379507064819,-7.93800020217896,-7.18354988098145,-8.13793754577637,-8.38667488098145,44.0380516052246,33.120002746582,12.5490007400513,0.78691250085831,0.96332502365112,1.10109996795654,18.95973777771,19.8225498199463,21.4674625396729,11.8840503692627,6.67500019073486,1.1580001115799,0.48795002698898,1.86705005168915,0.98595005273819,-11.3657503128052,-11.4838628768921,-11.8628120422363,-4.38105010986328,-8.47994995117188,-12.8470506668091,2.99378752708435,5.08131265640259,7.09431266784668,15.0104627609253,11.1929121017456,12.0304250717163,1.88595008850098,2.6140501499176,2.95905017852783,-7.47900056838989,-7.47900056838989,-6.36795043945313,-15.7957248687744,-16.5599498748779,-15.8526496887207,8.44995021820068,28.5229511260986,19.4059505462646,SHAKE
4.15951251983643,4.99069976806641,7.68418741226196,15.1764249801636,9.20259952545166,5.56861257553101,-2.59500002861023,-4.12695026397705,-3.13095021247864,-11.5009508132935,-11.5009508132935,0.37305000424385,-20.5022125244141,-20.9191131591797,-20.8792381286621,48.4050025939941,39.8620529174805,24.961051940918,8.91192531585693,10.7951250076294,6.4867000579834,5.66953754425049,23.8574867248535,17.8561630249023,15.4090509414673,1.12005007266998,-0.60300004482269,-1.19595003128052,-0.5830500125885,-1.69395005702972,-2.86797499656677,-1.16764998435974,-0.4808374941349,-5.49195003509521,-11.2770004272461,-32.077953338623,5.50013732910156,6.9889874458313,-3.06212496757507,19.6948127746582,8.57779979705811,-9.50895023345947,-3.62895011901855,-6.54000043869019,-8.30205059051514,-18.856050491333,-18.856050491333,-9.08700084686279,2.74738740921021,2.71878743171692,2.69609999656677,50.6650505065918,25.6500015258789,13.0470008850098,-0.81647497415543,-0.86680001020432,-1.14730000495911,-19.686149597168,-10.4417495727539,8.0634126663208,14.4889507293701,5.48700046539307,3.57195019721985,-16.135950088501,-5.21805047988892,-3.41805005073547,-4.58328723907471,-5.6336498260498,-7.2450122833252,-4.80300045013428,-6.45000028610229,-8.09700012207031,-1.17425000667572,-2.61497497558594,-2.31247496604919,12.2476749420166,4.92511224746704,-6.16330003738403,2.11605000495911,2.49900007247925,2.19300007820129,-3.03495025634766,-3.18795013427734,-3.53295016288757,0.14506250619888,0.34911251068115,0.84782499074936,1.74705004692078,15.9199504852295,23.7349510192871,SHAKE
-1.82544994354248,-2.03321242332459,-2.1146125793457,-16.6108245849609,-18.1427116394043,-18.6403255462646,-2.78595018386841,-0.10500000417233,10.5820503234863,-5.83095026016235,-0.77505004405975,-0.77505004405975,1.33484995365143,-2.18267488479614,-1.13671255111694,24.5400009155273,25.7269515991211,10.135950088501,-0.00041249999776,-0.18878750503063,-0.14946250617504,17.2266864776611,20.4752616882324,22.4109878540039,9.47100067138672,5.75505018234253,0.81405001878738,-3.11205005645752,-0.73605000972748,-0.73605000972748,-2.17758750915527,-2.79565000534058,-4.31956243515015,-7.94400024414063,-13.1149501800537,-25.8720016479492,2.70654988288879,4.52691268920898,4.37580013275146,4.53227519989014,10.8780374526978,11.5504121780396,-7.23000049591064,-10.5240001678467,-9.8730001449585,-15.178050994873,-15.178050994873,-11.002950668335,-18.2194366455078,-18.4018993377686,-18.4584121704102,62.7319526672363,22.6240501403809,9.86805057525635,3.54653739929199,0.00536249997094,-1.23103749752045,14.1341753005981,14.260537147522,15.3872127532959,9.24105072021484,3.18900012969971,-1.29195010662079,-5.33295011520386,0.18195000290871,-0.66000002622604,-7.4689998626709,-7.85977506637573,-8.25976276397705,-12.2340002059937,-25.3350009918213,-29.9710521697998,2.7945499420166,9.18857479095459,10.7409496307373,13.3816375732422,19.0289001464844,13.3098621368408,-10.2559509277344,-10.1410503387451,-2.32695007324219,-11.6539506912231,-4.91205024719238,2.59500002861023,-22.4735507965088,-21.5840625762939,-21.4202995300293,49.0939521789551,19.560001373291,15.1930503845215,SHAKE
3.57582497596741,1.12035000324249,0.6873624920845,6.55283737182617,-3.19508743286133,-15.7771625518799,-3.39900016784668,-6.73200035095215,-7.9960503578186,-13.3780508041382,-11.2710008621216,0.52695000171661,-4.67651224136353,-4.17312479019165,-4.12115001678467,50.1670532226563,25.4590511322021,17.3380508422852,-0.72874999046326,-1.34186244010925,-0.30387499928474,-15.5974502563477,-8.4512996673584,14.8831377029419,8.51294994354248,3.11205005645752,-0.22005000710487,-9.81495094299316,-1.92405009269714,-1.19595003128052,-5.07416248321533,-5.38339996337891,-5.85461235046387,-8.59500026702881,-28.8600006103516,-36.5209503173828,1.00072503089905,-1.81142497062683,-1.80743753910065,10.8040628433228,-1.10605001449585,-14.0445251464844,-7.30605030059814,-14.086950302124,-18.3010501861572,-9.89205074310303,-7.44000053405762,-4.7590503692627,-1.44924998283386,-1.49022495746613,-1.49613749980927,50.9329528808594,36.7210502624512,20.5939502716064,-0.90090000629425,2.02743744850159,0.71733748912811,-16.0465240478516,-9.62279987335205,13.2265377044678,10.9270505905151,3.03495025634766,0.92895007133484,-22.6480503082275,-9.20205020904541,1.56105005741119,0.90241247415543,1.3301750421524,1.19679999351501,-7.67595052719116,-18.4399509429932,-28.0549507141113,-8.02147483825684,-4.14507484436035,-4.60556268692017,13.7365245819092,8.88841247558594,1.14867496490479,-1.98195004463196,-4.51005029678345,-6.65505027770996,-7.13400030136108,-4.10805034637451,-2.6140501499176,-9.83207511901856,-12.4646501541138,-11.9640121459961,27.681001663208,41.3950538635254,26.3020515441895,SHAKE
-8.02147483825684,-4.14507484436035,-4.60556268692017,13.7365245819092,8.88841247558594,1.14867496490479,-1.98195004463196,-4.51005029678345,-6.65505027770996,-7.13400030136108,-4.10805034637451,-2.6140501499176,-9.83207511901856,-12.4646501541138,-11.9640121459961,27.681001663208,41.3950538635254,26.3020515441895,6.40681266784668,2.04091238975525,7.08908748626709,-12.3413124084473,-8.05474948883057,8.56515026092529,14.451000213623,5.06595039367676,2.11605000495911,-16.135950088501,-14.7190504074097,1.1010000705719,-15.5486373901367,-16.0753993988037,-15.8079624176025,-7.94400024414063,-16.2569999694824,-23.4580516815186,8.81251239776611,4.19677495956421,-6.28512477874756,8.47976207733154,-0.30373749136925,-13.141975402832,-1.17705011367798,-3.01605010032654,-4.58700037002563,-5.29500007629395,-5.29500007629395,-4.83495044708252,0.6485875248909,1.29566252231598,0.78141248226166,43.7700004577637,39.211051940918,19.0999507904053,-14.6973752975464,-9.88418769836426,4.14796257019043,-18.9235744476318,-12.2161874771118,12.1996870040894,13.1490001678467,6.63600015640259,1.35000002384186,-8.0910005569458,-8.0910005569458,-0.46800002455711,-10.3838624954224,-10.0060129165649,-10.0045003890991,-9.7829999923706,-19.2060012817383,-28.8979511260986,5.26322507858276,4.79957485198975,4.03892517089844,13.3673372268677,3.73051238059998,0.35749998688698,-4.08900022506714,-7.45995044708252,-7.80405044555664,-6.82695055007935,-6.82695055007935,-4.03095006942749,-16.6436882019043,-17.145975112915,-17.1565628051758,39.901050567627,34.6140022277832,18.2190017700195,SHAKE
-4.21946239471436,-5.31891250610352,-7.01593732833862,-2.34753751754761,-4.81717491149902,-11.2842121124268,-6.42495012283325,-8.95395088195801,-9.528000831604,-8.97300052642822,-5.52495002746582,-2.88195013999939,1.95112502574921,0.66054999828339,-0.58258748054504,49.8610534667969,44.8420524597168,30.5920505523682,3.73615002632141,9.68976211547852,14.7186870574951,-17.7388744354248,-3.1351375579834,3.64952492713928,19.85205078125,1.732950091362,0.16200000047684,-7.70805025100708,-6.09900045394897,-2.07705020904541,-14.0292625427246,-13.4208250045776,-12.7412996292114,-2.73405003547669,-12.8089504241943,-37.1340026855469,9.38685035705566,18.0993995666504,13.0315628051758,6.57827472686768,0.44412499666214,-1.51607501506805,-3.85905027389526,-9.14505004882812,-14.4700508117676,-15.5230503082275,-15.5230503082275,-6.40605020523071,-6.267662525177,-6.37367486953735,-6.50608730316162,64.876953125,46.336051940918,26.8380012512207,13.6655750274658,2.54154992103577,4.37731266021729,-13.5585994720459,-13.8943748474121,-8.83533763885498,12.8040008544922,1.732950091362,-2.09700012207031,-12.9559507369995,-7.0570502281189,-0.08505000174046,-19.5926494598389,-19.9900245666504,-19.7771739959717,1.90005004405975,-3.42405009269714,-17.67405128479,-0.2926000058651,-2.86852502822876,-8.55414962768555,-0.84177500009537,-2.9690375328064,0.80231249332428,4.49100017547607,2.65200018882751,-8.14905071258545,-7.5930004119873,-19.2010517120361,-19.2010517120361,11.6863994598389,13.1529750823975,13.5821123123169,43.4629516601563,48.6730537414551,33.0049514770508,SHAKE
1.70445001125336,1.34543752670288,1.2141250371933,7.62134981155396,13.7676000595093,12.479362487793,-8.53200054168701,-9.75795078277588,-10.2940502166748,-5.25705003738403,2.6340000629425,7.3840503692627,-22.2175254821777,-22.2344379425049,-24.7865753173828,47.3710517883301,31.128002166748,19.291051864624,4.5885124206543,8.28451251983643,9.54153728485107,14.3512878417969,1.70445001125336,2.00612497329712,-0.64095002412796,-1.59900009632111,-2.09700012207031,-2.3449501991272,0.83295005559921,0.83295005559921,-19.1948623657227,-18.3987369537354,-16.0832366943359,-11.392050743103,-29.8560009002686,-41.6929512023926,1.57093751430511,-12.0718126296997,-12.5127744674683,-3.50679993629456,-4.49542474746704,-11.8548374176025,-6.88500022888184,-16.0020008087158,-15.5040006637573,-13.723051071167,-1.80900013446808,-1.80900013446808,13.8100872039795,13.7959251403809,11.9828500747681,62.464054107666,35.3419532775879,13.0090503692627,-4.46242475509644,0.00192499998957,2.92311239242554,-6.18722486495972,-2.44928741455078,4.41581249237061,4.3759503364563,2.6140501499176,3.03495025634766,-0.04695000126958,5.39205026626587,5.39205026626587,-14.3906126022339,-14.1156120300293,-13.5668497085571,-18.9379501342773,-26.4850521087646,-22.0410003662109,0.28201249241829,-3.10199999809265,-6.83842515945435,3.48988747596741,3.30797505378723,1.73208749294281,-5.73600006103516,-6.73200035095215,-3.55200028419495,-2.26905012130737,-0.00900000054389,0.94800007343292,-21.3118114471436,-21.6145877838135,-22.9714374542236,47.7919540405273,44.344051361084,21.3220500946045,SHAKE
-3.10199999809265,-6.83842515945435,-8.94629955291748,3.30797505378723,1.73208749294281,1.42628753185272,-6.73200035095215,-3.55200028419495,0.77505004405975,-0.00900000054389,0.94800007343292,4.31895017623901,-21.6145877838135,-22.9714374542236,-28.3255500793457,44.344051361084,21.3220500946045,17.3760013580322,-1.38723754882813,3.5396625995636,8.97379970550537,11.8819246292114,9.6294002532959,10.3003997802734,1.732950091362,1.19700002670288,2.38394999504089,-3.41805005073547,-2.00100016593933,-1.23405003547668,-17.656099319458,-16.8815631866455,-14.2790994644165,-14.4949502944946,-25.8720016479492,-25.3740005493164,-1.32274997234344,-4.56376266479492,-6.14693737030029,-5.83494997024536,-18.4086380004883,-22.7474498748779,-4.77795028686523,-6.69405031204224,-6.08100032806396,-6.32895040512085,-3.49500012397766,0.75705003738403,3.89056253433228,3.00959992408752,1.90973746776581,49.7070007324219,24.0799503326416,15.7669506072998,-0.31432500481606,2.50029993057251,6.90346240997314,-13.9320497512817,-2.11474990844727,12.9839878082275,5.83200025558472,2.53695011138916,1.92495012283325,-16.8259506225586,-1.54095005989075,-1.57905006408691,-16.2318744659424,-16.3227615356445,-15.9421625137329,-4.45800018310547,-10.7020502090454,-19.3980007171631,5.65826225280762,1.93063747882843,-2.3396999835968,1.47303748130798,-2.74958753585815,-5.76647520065308,-0.02805000171065,-1.29195010662079,-3.09300017356873,-8.7810001373291,-4.87395000457764,-2.46000003814697,-10.7813749313354,-13.1696128845215,-13.5878877639771,25.1520004272461,39.6709518432617,25.3060512542725,SHAKE
-5.87578725814819,-7.95066261291504,-7.13528728485107,-4.57105016708374,-7.34194993972778,-6.79456233978271,-1.36905002593994,6.06195020675659,11.0800504684448,2.82495021820068,1.52295005321503,-9.93000030517578,-14.0094623565674,-14.1114873886108,-18.4164752960205,16.0740013122559,14.7330007553101,7.53105020523071,6.89218759536743,8.519775390625,8.59471225738525,18.2455615997314,19.5881118774414,19.5662498474121,1.77105009555817,2.07795000076294,2.03895020484924,-1.80900013446808,-0.39195001125336,0.60300004482269,-10.0458869934082,-1.82998752593994,0.17146250605583,-9.97395038604736,-13.5370502471924,-15.7200012207031,-5.00238752365112,-11.4823503494263,-11.0108623504639,-5.10743761062622,-1.37953746318817,-1.24231255054474,1.69500005245209,-4.31895017623901,-4.54800033569336,-8.13000011444092,-6.78900051116943,-4.64400005340576,-17.7978630065918,-18.8124752044678,-19.3367614746094,58.3260040283203,46.1449508666992,16.8780002593994,-5.00458765029907,-0.4476999938488,2.60095000267029,13.2880001068115,13.7835502624512,18.0254249572754,3.80205011367798,1.84800004959106,1.04295003414154,-2.68995022773743,1.59900009632111,1.86705005168915,-9.95321273803711,-9.63352489471436,-9.76442527770996,-13.077000617981,-20.1259517669678,-25.5270004272461,2.35922503471375,0.36616250872612,-5.05298757553101,15.0379619598389,8.0335750579834,11.8002500534058,-2.55600023269653,-6.42495012283325,-7.00005054473877,-1.96200013160706,-5.64000034332275,-1.42605006694794,-16.2608871459961,-16.6769618988037,-17.1444625854492,50.2050018310547,55.9900512695313,13.85205078125,SHAKE
0.00109999999404,-1.1779625415802,-1.72782504558563,8.15347480773926,6.01053762435913,5.3663501739502,-3.3229501247406,-1.06200003623962,3.91695022583008,-2.49900007247925,-2.49900007247925,-6.36795043945313,-22.694787979126,-21.9693374633789,-27.1877365112305,13.4689502716064,13.9279508590698,12.2050504684448,-2.589674949646,2.65677499771118,3.37864995002747,18.8251247406006,18.7631130218506,19.0914630889893,4.49100017547607,3.95505023002625,3.64800024032593,-1.19595003128052,-1.8469500541687,-0.5830500125885,-11.7005624771118,-11.8240375518799,-3.86773753166199,-5.72205018997192,-7.29300022125244,-13.8430509567261,-0.4493499994278,-1.37568747997284,-4.205162525177,-0.70578747987747,-0.00206249998882,4.4299750328064,1.84800004959106,0.16200000047684,-2.40300011634827,-2.07705020904541,-5.10300016403198,-7.47900056838989,-16.5235118865967,-17.0414752960205,-17.0469741821289,50.1289520263672,34.9969520568848,15.9589509963989,-5.60367488861084,-6.26518726348877,-3.01991248130798,10.9888620376587,19.1343631744385,19.378288269043,18.6649513244629,3.91695022583008,0.50700002908707,2.09700012207031,2.7480001449585,-0.77505004405975,-9.05630016326904,-8.25990009307861,-7.94681262969971,-5.60700035095215,-15.0690002441406,-28.0549507141113,0.38692501187325,1.61947500705719,1.72315001487732,17.6313495635986,10.8270254135132,7.81797504425049,-3.62895011901855,-4.39499998092651,-4.89300012588501,-7.36395025253296,-7.36395025253296,-4.29900026321411,-17.6636619567871,-18.0430240631104,-18.0537490844727,46.7190017700195,36.7210502624512,21.1300506591797,SHAKE
1.88594996929169,2.43911242485046,2.8223249912262,13.0592002868652,7.77645015716553,-1.00278747081757,-1.48395001888275,0.8520000576973,8.13000011444092,-8.16795063018799,-8.16795063018799,-5.67795038223267,9.85132503509522,10.2531003952026,10.9986248016357,39.1729507446289,28.5619506835938,17.8740005493164,1.77608752250671,1.21398746967316,0.50888746976852,-18.9047374725342,-24.4351253509521,-21.9107627868652,10.8120002746582,5.02695035934448,3.7630500793457,-11.002950668335,-7.0570502281189,-3.49500012397766,19.5593757629395,18.9803619384766,18.7391872406006,-9.13199996948242,-16.9849510192871,-21.6199512481689,-4.36864995956421,-4.62659978866577,-2.92118740081787,-11.5876750946045,-6.95419979095459,-15.2297744750977,-4.16505002975464,-5.58300018310547,-5.62095022201538,-3.57105016708374,-5.9850001335144,-5.9850001335144,-1.13382494449615,-2.56643748283386,-3.46609997749329,50.7030029296875,43.2330017089844,26.2249507904053,2.2257125377655,2.93961238861084,1.94754993915558,-20.4613742828369,-4.29907512664795,10.8077745437622,17.0560512542725,2.95905017852783,1.84800004959106,-6.9810004234314,-2.72805023193359,-2.72805023193359,-15.3535251617432,-14.5622119903564,-13.7798376083374,-5.37705039978027,-13.1920509338379,-25.5270004272461,0.92358750104904,0.56856250762939,0.15977500379086,12.1816749572754,2.7114999294281,-3.64980006217957,-1.48395001888275,-3.43695020675659,-4.20405006408691,-4.60605001449585,-4.60605001449585,-2.3449501991272,-4.94408750534058,-5.21661233901978,-5.20547485351563,42.35205078125,40.2070503234863,26.685001373291,SHAKE
2.58142495155334,0.90007501840591,0.47685000300407,6.4822998046875,-0.73039996623993,-18.5832614898682,-3.20805025100708,-2.71005010604858,7.01895046234131,-5.94600009918213,-3.99300026893616,-1.73205006122589,-2.02482509613037,-2.22461247444153,-2.01574993133545,39.5940017700195,40.0920028686523,22.3180503845215,-1.42463743686676,-0.87161248922348,-1.70939993858337,-1.94631254673004,3.41976237297058,16.9487991333008,5.18100023269653,2.26905012130737,1.12005007266998,0.91005003452301,-0.5830500125885,-2.3449501991272,-2.70187497138977,-1.81953752040863,-2.57977509498596,-10.7790002822876,-20.4700508117676,-18.2490005493164,1.27847504615784,1.01516246795654,0.56182497739792,12.0210752487183,2.20041251182556,10.1772003173828,-2.21205019950867,-1.82895004749298,5.21895027160645,-3.80100011825562,-0.12405000627041,1.98195004463196,-19.8936367034912,-19.9894752502441,-19.8294258117676,42.8890533447266,32.3160018920898,18.2190017700195,-2.02936244010925,-3.92864990234375,-2.07625007629395,13.5269746780396,14.0556621551514,8.92251205444336,7.40205049514771,5.37195014953613,4.79805040359497,-4.56704998016357,-4.56704998016357,-5.10300016403198,8.22992515563965,8.5340747833252,8.25522518157959,1.05705010890961,-3.19395017623901,-5.37705039978027,-0.77880001068115,0.5986750125885,0.28833749890327,7.58848762512207,-0.32051250338554,-4.84398746490479,3.49500012397766,3.34200024604797,3.37995004653931,0.22005000710487,0.25905001163483,-1.00499999523163,-1.3194500207901,2.47692489624023,1.66306245326996,-5.83695030212402,-1.85295009613037,16.7250003814697,SHAKE
-0.43546250462532,1.23007500171661,1.22636246681213,-11.6912126541138,-21.4248371124268,-22.9556255340576,3.15000009536743,3.61005020141602,4.87395000457764,-3.3030002117157,-3.3030002117157,-1.73205006122589,1.15225005149841,1.730299949646,4.00853729248047,41.4330024719238,27.2980518341064,14.3880004882813,3.08316254615784,-0.45581248402596,-0.00261249998584,-19.7190132141113,-8.9832878112793,-7.05072498321533,12.6889505386353,3.37995004653931,1.61805009841919,-0.85095006227493,-0.39195001125336,-3.3030002117157,16.2688617706299,16.4227256774902,12.249737739563,-5.83695030212402,-12.0049505233765,-20.5849514007568,-0.98780000209808,-0.57873749732971,-0.91684997081757,1.34062504768372,-0.59042501449585,-10.6346626281738,-2.28795003890991,-2.28795003890991,1.04295003414154,-4.64400005340576,-4.64400005340576,-0.27705001831055,-3.93346238136292,-4.34981250762939,-4.26964998245239,44.9959526062012,34.6140022277832,18.4099502563477,3.7844123840332,1.96061253547668,0.20212499797344,-19.7063617706299,0.00494999997318,16.1829242706299,14.7190504074097,5.33400011062622,4.41495037078857,-5.56305027008057,-2.2300500869751,-2.99700021743774,1.75656247138977,2.55268740653992,2.13111257553101,-2.581050157547,-6.64200019836426,-13.7670001983643,-0.65078747272491,1.46712493896484,0.92193746566772,17.6082496643066,5.17453765869141,-0.82362496852875,1.732950091362,1.00499999523163,2.30805015563965,-0.5830500125885,-0.966000020504,-1.61805009841919,-16.7048740386963,-18.2487239837646,-18.5597496032715,16.9930515289307,38.0239524841309,40.1310005187988,SHAKE
-0.61105000972748,-1.03496253490448,-1.06122493743896,8.3920373916626,7.56373739242554,7.43682479858398,5.14200019836426,6.67500019073486,9.43305015563965,0.06705000251532,0.06705000251532,-7.21005010604858,-18.1814880371094,-8.69715023040771,2.85766243934631,28.0249519348145,12.3199510574341,9.29295063018799,0.00123749999329,0.73589998483658,1.00388753414154,-10.9055376052856,-9.86397457122803,-9.25815010070801,4.49100017547607,3.7630500793457,2.88195013999939,-3.03495025634766,-1.69395005702972,0.45000001788139,17.8886127471924,14.7756128311157,4.09612512588501,-14.7630004882813,-17.3680515289307,-13.1920509338379,-0.84507501125336,-3.23014998435974,-3.71593737602234,-2.57702493667603,5.93078756332397,4.95687484741211,1.42695009708405,3.95505023002625,7.74705028533936,-1.57905006408691,-1.23405003547668,-1.31100010871887,-18.9374618530273,-18.1728248596191,-12.6845121383667,42.8119506835938,13.9669504165649,13.0860004425049,-3.48397493362427,-2.34176254272461,-0.5543999671936,2.56299996376038,-6.05577516555786,-3.88767504692078,6.86595010757446,5.25705003738403,3.7630500793457,-3.45600008964539,-3.37995004653931,-1.1580001115799,16.3015880584717,15.9457378387451,13.7400999069214,-6.60300016403198,-10.1659507751465,-12.2730007171631,0.36066249012947,0.67608749866486,-0.97157502174377,-0.86033749580383,-0.73919999599457,10.0132999420166,0.92895007133484,1.00499999523163,1.27305006980896,-1.34895002841949,-4.60605001449585,-4.60605001449585,-17.0512371063232,-18.4901752471924,-18.0877132415771,21.8580017089844,30.2860507965088,19.560001373291,SHAKE
-2.52546238899231,-1.9794499874115,-1.48981249332428,3.18752503395081,3.54818749427795,4.51824998855591,7.97700023651123,10.16100025177,12.6889505386353,-0.77505004405975,-0.77505004405975,-5.02695035934448,-0.86061251163483,8.5340747833252,14.9243869781494,15.1540508270264,11.2849502563477,8.98695087432861,0.66852498054504,1.89681243896484,2.03321242332459,-8.04526233673096,-7.16182518005371,-7.77686262130737,6.71295022964478,5.21895027160645,4.72095012664795,-3.03495025634766,0.25905001163483,1.48395001888275,11.0423498153687,1.9930624961853,-1.83259999752045,-6.33495044708252,-14.8780508041382,-14.2260007858276,-0.56306248903275,-0.39063748717308,-2.64302492141724,-0.73108750581741,6.34315013885498,10.5019750595093,-0.10500000417233,-2.55600023269653,-4.4719500541687,-3.53295016288757,-3.91605019569397,-4.49100017547607,-15.6015748977661,-16.0143489837646,-15.4657249450684,37.8700523376465,24.8839511871338,17.4139499664307,-1.18153750896454,8.65507507324219,13.4055624008179,23.0452747344971,20.5752258300781,19.8195247650146,5.75505018234253,2.15400004386902,2.19300007820129,-11.8069505691528,-0.04695000126958,0.02895000204444,-13.1015501022339,-12.2088994979858,-11.5392751693726,-10.6260004043579,-26.2930507659912,-20.0110511779785,3.57967495918274,-2.92586255073547,-8.34501266479492,0.78746247291565,-4.0689001083374,-10.1857252120972,-4.66305017471313,-5.73600006103516,-4.70205020904541,-6.09900045394897,-4.3759503364563,1.14000010490417,-6.35978746414185,-7.01084995269775,-8.1373872756958,34.3840522766113,23.7349510192871,19.1770515441895,SHAKE
-11.3607997894287,-10.4307498931885,-8.21878719329834,-25.1725368499756,-25.0721626281738,-24.1161251068115,-0.52605003118515,4.06995010375977,12.0379505157471,-4.14600038528442,-5.02695035934448,-10.1220006942749,1.24808752536774,-1.20848751068115,-9.34752464294434,19.560001373291,13.7749509811401,10.5960006713867,1.74432504177094,2.66323757171631,3.78056240081787,17.7302131652832,18.9457130432129,19.1717624664307,4.1850004196167,3.8779501914978,3.61005020141602,-0.69795000553131,-1.00499999523163,0.33495002985001,-7.390625,-7.91271257400513,-4.13311243057251,-12.4260005950928,-17.2140007019043,-19.1680507659912,2.66708755493164,0.00591249996796,-0.84438747167587,7.56676244735718,10.886287689209,10.5670127868652,-2.17305016517639,-5.35305023193359,-7.15305042266846,-5.37195014953613,-5.41005039215088,-2.53695011138916,-18.9851741790771,-19.099437713623,-18.3151378631592,51.8910026550293,27.3360004425049,13.5840005874634,-0.18191249668598,0.56086248159409,8.19939994812012,14.1362371444702,15.501612663269,18.5992126464844,8.51294994354248,5.33400011062622,3.6870002746582,-6.75105047225952,-3.45600008964539,-1.80900013446808,-11.7753620147705,-11.8749122619629,-11.8403997421265,-1.58505010604858,-4.91805028915405,-8.21205043792725,8.81553745269775,4.49487495422363,1.91317498683929,5.88128757476807,-1.39108753204346,-3.30316257476807,4.33800029754639,1.77105009555817,-0.41100001335144,0.18195000290871,-3.49500012397766,-5.10300016403198,-12.3495626449585,-16.9004001617432,-17.5902366638184,-5.53095006942749,35.2660522460938,42.0840034484863,SHAKE
-4.56032514572144,-5.11568737030029,-4.05171251296997,5.26748752593994,6.55105018615723,7.31238746643066,1.00499999523163,0.77505004405975,2.46105003356934,-4.3759503364563,-4.72005033493042,-4.95000028610229,-15.9614124298096,-15.1498870849609,-12.4370126724243,37.8319511413574,22.7389507293701,15.9199504852295,-1.96377503871918,3.16538739204407,4.04029989242554,18.1333618164063,21.5764999389648,22.1150875091553,6.2920503616333,1.96305012702942,1.69500005245209,-1.8469500541687,-2.53695011138916,-2.53695011138916,-3.82194995880127,-3.73518753051758,-5.66238737106323,-9.66795063018799,-17.7889499664307,-26.2170009613037,2.3200376033783,0.94118750095367,0.44178751111031,3.79183745384216,-1.07799994945526,-8.00841236114502,-3.62895011901855,-7.72800016403198,-8.1109504699707,-6.5590500831604,-3.72405028343201,2.78700017929077,-10.0805377960205,-10.428825378418,-10.679349899292,47.3710517883301,47.1409530639649,26.9530506134033,0.59345000982285,4.32547473907471,6.39594984054565,-9.6098747253418,9.34945011138916,12.643949508667,9.12600040435791,2.95905017852783,2.92095017433167,-15.4849510192871,-4.68195009231567,0.29700002074242,-14.1586503982544,-14.2235498428345,-13.9281997680664,0.25304999947548,-4.07505035400391,-5.64600038528442,12.9151000976563,7.47821235656738,3.96151256561279,9.75644969940186,-1.81692504882813,-4.69383764266968,4.98900032043457,5.86995029449463,6.13800048828125,-0.12405000627041,-0.39195001125336,-2.49900007247925,-13.0472373962402,-15.2007627487183,-15.8354625701904,2.74305009841919,7.03305053710938,5.99895048141479,SHAKE
0.49169999361038,0.73809999227524,2.15627503395081,-3.46912503242493,-4.18343734741211,-3.42457509040833,-3.47595024108887,0.00900000054389,7.21095037460327,5.73600006103516,-6.5590500831604,-11.6920509338379,-18.4177131652832,-17.229850769043,2.09412503242493,16.2649517059326,14.1199502944946,8.48895072937012,-5.32014989852905,-5.02287483215332,-5.06605005264282,16.8126754760742,17.4190502166748,17.3643245697021,3.99300026893616,3.7630500793457,3.49500012397766,-0.08505000174046,-1.12005007266998,-1.12005007266998,3.97237491607666,3.29807496070862,-3.67510008811951,-14.8390502929688,-16.9849510192871,-13.7670001983643,0.50393748283386,-0.31556248664856,-0.00659999996424,-0.45045000314713,-2.10925006866455,-2.37104988098145,-2.71005010604858,-5.27595043182373,-5.77395009994507,-5.29500007629395,0.52695000171661,6.61800050735474,-17.0428504943848,-17.0612754821777,-14.3646249771118,54.2280044555664,41.6629524230957,17.6830501556396,6.05976247787476,-0.48633748292923,-0.41497498750687,11.682412147522,18.1884994506836,19.7811622619629,2.57595014572144,0.96705007553101,2.23095011711121,-4.4520001411438,-0.16200000047684,2.44200015068054,4.66496229171753,4.60349988937378,3.67276239395142,-24.4930515289307,-20.623950958252,-16.6009502410889,-8.79642486572266,1.54591250419617,0.65326249599457,10.7243127822876,-3.45936250686646,-5.97176265716553,-2.59500002861023,-10.4479503631592,-12.8989505767822,-3.57105016708374,-3.3030002117157,-0.81300002336502,-17.9561252593994,-17.8847618103027,-17.5062255859375,40.0540504455566,27.9109516143799,19.6360511779785,SHAKE
1.54591250419617,0.65326249599457,0.90433746576309,-3.45936250686646,-5.97176265716553,-6.65885019302368,-10.4479503631592,-12.8989505767822,-7.45995044708252,-3.3030002117157,-0.81300002336502,-6.4830002784729,-17.8847618103027,-17.5062255859375,-12.535325050354,27.9109516143799,19.6360511779785,16.3800010681152,4.30292510986328,4.64708757400513,3.67138743400574,16.2167491912842,20.3702125549316,21.5594501495361,0.3160500228405,1.35000002384186,4.14600038528442,-1.46400010585785,2.02095007896423,0.06705000251532,0.74827498197556,0.27665001153946,1.80152499675751,-17.67405128479,-21.0070514678955,-14.2260007858276,-3.26040005683899,-2.9577624797821,-3.98763751983643,-1.31340003013611,-1.4719375371933,-2.61772489547729,-0.44895002245903,-1.94295012950897,-5.92695045471191,-1.31100010871887,1.25505006313324,2.47995018959045,-18.67799949646,-18.6966991424561,-17.8714256286621,50.9710540771484,20.8999519348145,15.3840007781982,5.59006261825562,2.45863747596741,5.83825016021729,14.3324499130249,15.3173627853394,17.038724899292,4.1850004196167,1.96305012702942,1.84800004959106,-5.71605014801025,0.29700002074242,3.93600010871887,-2.1012749671936,-1.94315004348755,-2.27040004730225,-7.40805053710938,-18.4789505004883,-22.0030517578125,-2.72126245498657,-2.43911242485046,-1.77058744430542,-1.24341249465942,-1.12969994544983,-1.55993747711182,0.77505004405975,1.12005007266998,3.80205011367798,-11.6920509338379,-5.06505012512207,1.02495002746582,-18.315824508667,-18.1102619171143,-16.1485500335693,38.0620536804199,14.5800008773804,12.4339504241943,SHAKE
7.52042484283447,7.75857496261597,6.0971622467041,8.04594993591309,12.628137588501,12.3015747070313,2.95905017852783,-0.75600004196167,5.9850001335144,-6.63600015640259,-6.63600015640259,-4.10805034637451,-15.7650623321533,-14.9120121002197,-12.8728876113892,34.5760498046875,19.6360511779785,12.0510005950928,1.27682495117188,2.72071242332459,2.97467494010925,18.9656505584717,19.5161991119385,20.7091503143311,9.66300010681152,3.8779501914978,2.30805015563965,6.31095027923584,6.31095027923584,4.66395044326782,-1.26431250572205,-2.41587495803833,-4.52471256256104,-10.9699506759644,-19.5510005950928,-18.8620510101318,5.96873760223389,3.71511244773865,2.60177493095398,16.1607875823975,14.3415250778198,18.518087387085,-4.05000019073486,-4.51005029678345,2.30805015563965,-9.2790002822876,-8.62800025939941,-0.16200000047684,-12.1687498092651,-12.1837377548218,-12.0445871353149,45.5700035095215,34.5760498046875,15.7669506072998,0.47409999370575,-0.5681499838829,0.8288499712944,18.848087310791,21.3439865112305,20.8352375030518,9.89205074310303,5.7940502166748,3.53295016288757,2.6340000629425,2.6340000629425,0.83295005559921,-7.80367517471313,-7.68872499465942,-7.72914981842041,0.06105000153184,-5.18595027923584,-9.32295036315918,3.61762499809265,6.30368757247925,8.65974998474121,18.3789367675781,12.0861120223999,11.6018371582031,1.42695009708405,0.27705001831055,0.54495000839233,-1.04295003414154,-6.02295017242432,-6.13800048828125,-14.1722621917725,-16.2546997070313,-16.4825382232666,11.5530004501343,34.078052520752,37.2960014343262,SHAKE
8.53833770751953,8.96513748168945,7.81384992599487,12.3613872528076,14.186149597168,11.4764375686646,4.56795024871826,4.49100017547607,9.16499996185303,-4.49100017547607,-5.79300022125244,-6.25305032730103,-15.3375749588013,-14.7413749694824,-13.0748748779297,27.5269508361816,18.564001083374,15.0010509490967,-0.69121247529984,2.88502502441406,3.77382493019104,8.56762504577637,18.1625118255615,21.4310245513916,9.24105072021484,5.18100023269653,3.53295016288757,2.71005010604858,2.71005010604858,-0.88995003700256,1.18497502803802,0.89677500724792,-1.07360005378723,-8.59500026702881,-22.8070507049561,-26.2930507659912,7.62024974822998,8.84963703155518,10.2782621383667,19.4743995666504,15.262225151062,14.6284875869751,-6.80805015563965,-9.98805046081543,-8.18805027008057,-15.292950630188,-9.70005035400391,0.7180500626564,-17.0020122528076,-17.5307006835938,-17.5947742462158,56.4490509033203,35.9170532226563,21.2070007324219,11.3785371780396,6.20743751525879,4.33771228790283,17.1776008605957,10.2610750198364,11.7412624359131,8.16900062561035,3.22695016860962,2.69100022315979,-6.6739501953125,-0.39195001125336,-0.39195001125336,-8.29510021209717,-14.0969123840332,-14.1032371520996,-2.0830500125885,-6.48795032501221,-8.13600063323975,9.90852451324463,7.7846999168396,11.7162370681763,8.44964981079102,2.80390000343323,2.16122508049011,1.08195006847382,0.81405001878738,-0.02805000171065,-0.50700002908707,-5.41005039215088,-6.32895040512085,-18.1574249267578,-15.5511121749878,-15.4972124099731,15.3460502624512,39.3259506225586,37.1430015563965,SHAKE
3.81617498397827,5.85502481460571,4.36383724212646,1.23612499237061,6.50498723983765,2.5367374420166,-1.56000006198883,-1.63695013523102,-1.17705011367798,-6.86595010757446,-5.64000034332275,-2.3449501991272,-17.7259502410889,-18.493200302124,-18.7880001068115,33.9250526428223,19.3680000305176,14.5410003662109,5.77953767776489,3.1959125995636,5.26831245422363,6.94498729705811,15.4796123504639,20.0084495544434,12.72705078125,4.87395000457764,3.26505017280579,-2.07705020904541,-1.04295003414154,-1.80900013446808,-6.15119981765747,-6.0080623626709,-6.50938749313354,-5.22405004501343,-10.0890007019043,-22.8460502624512,8.99016284942627,8.49846267700195,9.41503715515137,16.0243873596191,7.1805248260498,10.6495122909546,-2.32695007324219,-2.36505007743835,-2.51805019378662,-8.0910005569458,-8.0910005569458,-3.41805005073547,-19.0642375946045,-19.3608245849609,-19.428337097168,43.9999504089355,30.6690006256104,15.421950340271,7.6840500831604,3.35458755493164,3.41934990882874,6.55902481079102,16.9039745330811,15.4558248519897,15.8680505752563,7.78605031967163,5.9089503288269,-12.1140003204346,-0.5830500125885,-0.5830500125885,-9.29486274719238,-8.65658760070801,-9.10868740081787,-0.43605002760887,-3.1560001373291,-5.83695030212402,7.21366262435913,9.43057537078857,7.59893751144409,19.8107242584229,12.6846494674683,6.59119987487793,0.81405001878738,1.08195006847382,0.77505004405975,0.56505000591278,0.56505000591278,-8.13000011444092,-11.5429878234863,-14.5425500869751,-15.7141876220703,4.39005041122437,33.6949501037598,42.7350006103516,SHAKE
4.72271251678467,2.62652492523193,1.78626251220703,7.87421226501465,6.99599981307983,6.43678760528564,-1.33095002174377,2.26905012130737,9.58605003356934,-9.16394996643066,-4.56704998016357,2.94000005722046,-16.0892868041992,-14.052225112915,-11.0566501617432,32.1630020141602,15.5760011672974,12.2430009841919,1.35506248474121,5.13672494888306,8.21370029449463,18.6422500610352,21.2628631591797,24.2466125488281,5.10405015945435,2.88195013999939,1.42695009708405,0.83295005559921,-1.92405009269714,-2.38394999504089,-5.03222513198853,-5.49532508850098,-7.21132516860962,-16.8310508728027,-21.9259510040283,-20.9680519104004,10.9364748001099,9.82794952392578,9.06372451782227,12.370325088501,10.5018377304077,7.64912509918213,-4.35705041885376,-2.55600023269653,3.57195019721985,-3.03495025634766,-2.15400004386902,-2.15400004386902,-18.8913993835449,-18.9354000091553,-18.5222129821777,42.8500518798828,14.9629507064819,11.860050201416,5.08268737792969,2.94786238670349,6.21788740158081,14.1960496902466,13.5096502304077,19.5325622558594,7.86195039749146,5.02695035934448,2.76705002784729,-3.57105016708374,-1.46400010585785,-1.34895002841949,-9.78312492370606,-10.1644124984741,-10.026912689209,-4.80300045013428,-7.82895040512085,-16.4479503631592,8.77139949798584,8.24890041351318,7.73657512664795,6.37766265869141,5.24865007400513,8.82557487487793,-1.29195010662079,-2.32695007324219,-3.13095021247864,-8.24505043029785,-8.51294994354248,-3.15000009536743,-17.4601631164551,-18.28076171875,-18.3492374420166,41.9310035705566,25.5739517211914,9.25500011444092,SHAKE
11.0642127990723,10.5417127609253,9.72358703613281,20.9730129241943,17.0549507141113,13.4921875,-3.62895011901855,-3.05400013923645,14.9490003585815,-6.6739501953125,0.22005000710487,1.71405005455017,-18.889612197876,-17.9757881164551,-15.8241872787476,28.7920513153076,17.0310001373291,15.4990510940552,2.8851625919342,3.59658741950989,5.16271257400513,16.5021991729736,18.8566131591797,20.2934875488281,3.57195019721985,1.732950091362,1.31205010414124,-5.25705003738403,-2.6140501499176,-1.46400010585785,-6.42166233062744,-6.06869983673096,-6.48559999465942,-7.94400024414063,-18.4789505004883,-20.3940010070801,3.95381236076355,0.45759999752045,-6.82453727722168,1.09669995307922,-4.72326231002808,-23.3204116821289,-0.37305000424385,-0.98595005273819,7.32600021362305,-3.72405028343201,-3.72405028343201,-1.04295003414154,0.26386249065399,0.00357499998063,-0.00096249999478,44.6119537353516,27.6420021057129,13.3150510787964,-6.14982509613037,-3.16194987297058,-4.46187496185303,-17.0215377807617,-5.88994979858398,0.3619000017643,8.7049503326416,5.29605007171631,2.6140501499176,-2.92005014419556,-1.96200013160706,-1.96200013160706,13.8971252441406,14.2616376876831,13.5848627090454,-2.65800023078919,-8.40405082702637,-10.510950088501,-2.3813624382019,-1.00746250152588,6.84859991073608,2.29404997825623,-1.2196249961853,11.1941499710083,2.49900007247925,2.11605000495911,1.50300002098084,-1.77105009555817,-2.76705002784729,-4.98900032043457,-17.9254627227783,-19.003324508667,-19.1346378326416,2.35995006561279,26.3020515441895,41.6629524230957,SHAKE
5.99445009231567,4.72931241989136,5.03084993362427,12.0120000839233,13.5228500366211,12.8359003067017,-4.12695026397705,-2.67105007171631,0.92895007133484,-6.75105047225952,-6.44400024414063,1.86705005168915,-21.2353630065918,-21.0321369171143,-20.4866752624512,46.2210006713867,17.4529514312744,15.7669506072998,1.455437541008,-0.31762498617172,-0.00109999999404,14.6617622375488,18.1203002929688,19.1728630065918,7.93905019760132,2.6140501499176,1.38795006275177,-11.6539506912231,-4.10805034637451,-1.38795006275177,-7.384850025177,-7.60099983215332,-7.59481239318848,-5.49195003509521,-12.2730007171631,-22.3090515136719,4.24737501144409,2.80802488327026,-1.01901245117188,8.57408714294434,0.23856249451637,-15.0356245040894,-1.59900009632111,-1.06200003623962,0.04800000041723,-5.83095026016235,-5.86995029449463,-5.86995029449463,-1.08336246013641,-0.85483747720718,-0.68145000934601,51.6229515075684,33.4270515441895,16.2270011901855,-3.11932492256165,1.42656254768372,1.98646247386932,-21.8739128112793,4.93954992294312,17.4912376403809,14.9110507965088,6.10005044937134,3.57195019721985,-14.0670003890991,-3.18795013427734,-2.42204999923706,1.27641248703003,1.67694997787476,0.94063746929169,-0.51195001602173,-7.44600057601929,-15.949951171875,4.97626256942749,7.75142478942871,5.57177495956421,21.097038269043,11.9655246734619,4.96251249313354,0.12405000627041,-0.33495002985001,0.46905001997948,0.02895000204444,-0.46800002455711,-2.57505011558533,-19.6125869750977,-20.6857757568359,-20.6215629577637,30.5149517059326,44.7270011901855,31.5880508422852,SHAKE
5.57177495956421,6.78259992599487,6.02401256561279,4.96251249313354,9.85586261749268,8.78996276855469,0.46905001997948,5.7940502166748,11.002950668335,-2.57505011558533,-2.42204999923706,-1.80900013446808,-20.6215629577637,-20.2444000244141,-15.0618877410889,31.5880508422852,15.3070507049561,9.25500011444092,-2.00516247749329,-2.52986240386963,-2.43883752822876,2.82617497444153,2.24166250228882,3.88286256790161,7.47900056838989,4.49100017547607,3.49500012397766,-3.03495025634766,-2.99700021743774,-2.99700021743774,13.1246500015259,12.57932472229,10.9186000823975,-10.5490503311157,-15.2610006332397,-17.9040012359619,1.25427496433258,7.91903734207153,8.13876247406006,3.05841255187988,13.5144624710083,11.7237997055054,-1.13895010948181,-0.75600004196167,2.6140501499176,-2.26905012130737,-4.87395000457764,-3.03495025634766,-19.0764751434326,-19.6007633209229,-18.8439617156982,51.9289512634277,44.344051361084,10.5190505981445,3.88877487182617,1.18854999542236,2.02647495269775,14.2924375534058,14.7168998718262,17.2077121734619,12.6889505386353,4.7590503692627,2.26905012130737,0.25905001163483,3.43800020217896,3.43800020217896,-4.15222501754761,-4.1383376121521,-4.59456253051758,-10.3570508956909,-14.6860504150391,-17.4060001373291,4.72601270675659,5.32193756103516,3.30343747138977,20.3460121154785,11.3598375320435,12.9221124649048,-0.37305000424385,-0.06599999964237,0.81405001878738,-0.46800002455711,-4.18395042419434,-4.18395042419434,-16.2087745666504,-16.5840129852295,-15.5295248031616,43.501953125,46.3750534057617,11.017050743103,SHAKE
7.49237489700317,6.90786266326904,5.83055019378662,12.654125213623,12.0782747268677,11.3282127380371,-4.16505002975464,4.87395000457764,14.0299510955811,-4.10805034637451,-2.99700021743774,-2.99700021743774,-17.8433742523193,-14.2564125061035,-6.89782476425171,25.8040504455566,11.8980007171631,11.3239507675171,0.78361248970032,0.77660000324249,0.76614999771118,18.6542129516602,19.9295253753662,20.5711002349854,3.49500012397766,0.69900006055832,-0.94695001840591,3.74400019645691,1.82895004749298,-0.46800002455711,-3.33561253547669,-3.80132508277893,-4.76244974136353,-8.90205001831055,-16.4479503631592,-23.074951171875,2.90262508392334,3.61377501487732,2.2864875793457,6.2346625328064,11.1878252029419,15.9343252182007,-1.98195004463196,-0.41100001335144,2.34600019454956,-6.09900045394897,-2.92005014419556,0.48795002698898,-13.6563625335693,-13.0013122558594,-12.4931125640869,49.1710510253906,22.3939514160156,11.5530004501343,-0.90846252441406,-3.8538498878479,-1.12199997901917,15.1316003799438,17.3049240112305,22.323263168335,15.4849510192871,5.52495002746582,2.00100016593933,-0.16200000047684,-0.16200000047684,-2.57505011558533,4.95096254348755,4.98575019836426,4.64997482299805,-4.65000009536743,-9.0169506072998,-14.8780508041382,1.13231253623962,3.09319996833801,2.03802490234375,19.301700592041,7.67676258087158,1.08735001087189,-2.28795003890991,-2.55600023269653,-2.02005004882813,-1.54095005989075,-3.57105016708374,-4.49100017547607,-11.5175495147705,-13.8800745010376,-13.7953748703003,-0.39705002307892,47.8300514221191,45.2250022888184,SHAKE
3.10708737373352,3.87859988212585,3.46376252174377,-1.79506254196167,-2.72291254997253,-3.10433745384216,-0.67905002832413,8.97300052642822,14.451000213623,-4.49100017547607,-1.19595003128052,-2.99700021743774,-13.4781627655029,-12.504937171936,-3.6342625617981,17.9119510650635,9.60000038146973,8.75699996948242,0.20157499611378,-0.20308749377728,-0.48069998621941,19.0961380004883,19.8481254577637,19.9523506164551,3.61005020141602,2.34600019454956,2.03895020484924,-0.04695000126958,-2.30700016021729,-2.30700016021729,0.58382499217987,-0.53721249103546,-3.3764500617981,-10.7790002822876,-15.7200012207031,-18.4020004272461,0.91423749923706,-2.95803737640381,-2.53302502632141,0.84136247634888,-17.1742992401123,-18.8149490356445,-0.02805000171065,0.46905001997948,5.86995029449463,-2.42204999923706,-4.64400005340576,-1.88595008850098,-7.48536252975464,-7.34786224365234,-4.68393754959106,47.1409530639649,32.6220016479492,10.3279504776001,-4.13490009307861,4.33551263809204,4.55248737335205,-12.3120250701904,14.3723249435425,18.5794124603271,9.81600093841553,5.29605007171631,3.26505017280579,-5.71605014801025,0.98595005273819,0.98595005273819,5.90177488327026,5.93821239471436,5.22348737716675,-5.07105016708374,-7.75200033187866,-11.238000869751,3.36242508888245,-4.2598876953125,-3.96921253204346,15.8589744567871,-8.50189971923828,-15.3120002746582,0.3160500228405,0.88995003700256,2.11605000495911,-2.30700016021729,-4.98900032043457,-4.7590503692627,-2.55543756484985,-3.787024974823,-3.71538758277893,17.0310001373291,31.6650009155273,25.0380020141602,SHAKE
2.70448756217957,1.39782500267029,-1.798912525177,4.02682495117188,0.17008750140667,-9.85105037689209,3.61005020141602,6.44505023956299,9.58605003356934,-2.3449501991272,-3.26505017280579,-4.10805034637451,0.47409999370575,0.31858751177788,1.52638745307922,27.6040515899658,15.1540508270264,4.12200021743774,-3.29780006408691,-3.70026254653931,-3.28061246871948,-19.330436706543,-20.7383003234863,-17.4762496948242,11.2720508575439,2.80605006217957,0.73695003986359,-1.00499999523163,1.40805006027222,0.45000001788139,11.2799501419067,12.4903621673584,8.77016258239746,-9.55305004119873,-12.502950668335,-17.3290500640869,-2.49892497062683,-2.64522504806519,-0.50146251916885,-3.3188374042511,0.49101248383522,10.6005620956421,-4.31895017623901,-3.39900016784668,-2.21205019950867,-8.55105018615723,-8.39805030822754,-6.40605020523071,-15.3044376373291,-15.2831249237061,-14.5226125717163,51.8140525817871,41.8930511474609,18.1420516967773,0.00398749997839,-2.81627488136292,-4.08594989776611,7.79267501831055,10.0748996734619,14.9769124984741,20.9629516601563,7.05795049667358,3.8779501914978,-3.11205005645752,6.84705018997192,3.59100008010864,-2.17855000495911,-1.92046248912811,-2.39071249961853,0.25304999947548,-1.77705013751984,-6.71805047988892,-2.56616258621216,0.31239998340607,3.52178740501404,17.5698871612549,15.4130620956421,9.83248710632324,0.77505004405975,1.12005007266998,0.92895007133484,-0.69795000553131,-0.69795000553131,-3.18795013427734,-10.1497001647949,-12.7736120223999,-13.4370498657227,-12.961950302124,-2.0830500125885,30.0559520721436,SHAKE
8.90243721008301,8.0629997253418,7.43476247787476,-6.62942504882813,-8.06698703765869,-8.82818698883057,5.94705009460449,15.2550010681152,29.0460014343262,-2.99700021743774,-2.42204999923706,-2.42204999923706,-7.65558767318726,-5.86231231689453,-2.83717489242554,11.3620510101318,6.11400032043457,2.39805006980896,-2.72373747825623,-2.77502489089966,-2.39016246795654,16.3774871826172,17.8289375305176,19.1272125244141,1.1580001115799,-0.48795002698898,-3.20805025100708,3.74400019645691,-0.16200000047684,-2.53695011138916,-4.29549980163574,-5.86753749847412,-6.10293769836426,-18.1720504760742,-22.1560516357422,-18.9000015258789,7.25422477722168,8.06231212615967,8.15760040283203,17.9713878631592,17.1177883148193,16.8090991973877,-5.50605010986328,1.6560001373291,12.6889505386353,-8.81895065307617,-1.69395005702972,5.00895023345947,-17.5382633209229,-15.9990873336792,-13.2026128768921,46.9879531860351,8.18205070495605,8.14395046234131,-2.01891255378723,-3.3324499130249,-3.60153746604919,12.0975246429443,16.195987701416,18.4824752807617,5.29605007171631,1.38795006275177,-2.17305016517639,5.50695037841797,5.50695037841797,-1.31100010871887,-4.61876249313354,-4.91204977035522,-5.55568742752075,-13.4599504470825,-17.2909507751465,-17.4060001373291,6.29131269454956,6.06897497177124,6.66242504119873,17.9969615936279,18.934850692749,18.005350112915,-1.52205002307892,0.04800000041723,4.2610502243042,-7.21005010604858,-2.95800018310547,-0.966000020504,-16.0319499969482,-14.883412361145,-13.7722749710083,39.4410018920898,16.840051651001,10.0980005264282,SHAKE
0.00453749997541,3.16855001449585,4.48579978942871,-13.297212600708,-18.235387802124,-20.4216365814209,-5.42895030975342,-4.27995014190674,21.6139507293701,-12.2290506362915,-9.35595035552978,1.90605008602142,-1.55113744735718,-1.59843754768372,-1.27421247959137,22.6620006561279,13.123950958252,11.7070503234863,-0.94655001163483,-2.56313753128052,-2.96394991874695,10.5436372756958,15.8390369415283,17.8385620117188,3.84000015258789,0.81405001878738,-0.90900003910065,4.2810001373291,0.14400000870228,-1.1580001115799,-3.34509992599487,-3.51285004615784,-4.5578498840332,-9.32295036315918,-23.074951171875,-21.8500518798828,4.46723747253418,6.70656251907349,6.03294992446899,10.8865623474121,13.6670875549316,15.2774877548218,-4.27995014190674,-4.24200010299683,10.1989507675171,-10.7730007171631,-9.08700084686279,2.67195010185242,-17.5313873291016,-17.272611618042,-16.9962368011475,41.3560523986816,32.9290504455566,16.1890506744385,-2.13812494277954,-2.90303754806519,-2.72084999084473,17.624475479126,18.5464115142822,21.2939376831055,12.72705078125,5.18100023269653,3.15000009536743,3.59100008010864,3.59100008010864,-0.16200000047684,-0.74332499504089,-0.98326247930527,-1.29030001163483,0.02295000106096,-6.37305021286011,-11.9280004501343,-0.19359999895096,3.57981252670288,-0.0015124999918,19.1993999481201,9.14980030059814,-12.2820501327515,-1.06200003623962,-2.05800008773804,-1.36905002593994,-2.38394999504089,-8.35995006561279,-9.04905033111572,-4.90201234817505,-6.35717487335205,-6.58514976501465,4.62000036239624,27.1440010070801,38.0620536804199,SHAKE
10.1242628097534,12.0921621322632,11.568699836731,18.546688079834,20.4382743835449,15.0382375717163,3.03495025634766,2.92095017433167,11.2330503463745,-8.43600082397461,-9.66195011138916,-0.04695000126958,-12.0584745407104,-11.8701000213623,-10.9359245300293,31.128002166748,16.5330009460449,7.45395040512085,-0.55921250581741,-1.63116252422333,-1.94026243686676,7.51079988479614,13.1833620071411,16.1405754089355,10.6200008392334,5.75505018234253,2.26905012130737,3.16995024681091,4.70205020904541,4.70205020904541,1.85941243171692,0.87683749198914,-0.94448751211166,-12.38805103302,-15.6820507049561,-12.6559505462646,6.95034980773926,7.56360006332397,7.60952472686768,28.3920993804932,25.390474319458,21.9074630737305,-5.20005035400391,-5.00805044174194,4.60605001449585,-9.77700042724609,-8.85795021057129,-4.79700040817261,-13.8643999099731,-14.0061626434326,-13.6061744689941,43.3099517822266,34.8439521789551,21.4369506835938,2.65636253356934,0.63511252403259,-0.00508749997243,11.954662322998,15.6190376281738,17.6903381347656,11.002950668335,6.33000040054321,2.69100022315979,-3.45600008964539,-1.57905006408691,-1.57905006408691,-3.8808000087738,-2.05163741111755,-2.08821249008179,1.01895010471344,-6.41205024719238,-9.40005016326904,-16.007474899292,-16.2333869934082,-14.9729251861572,4.93680000305176,-2.31948757171631,-12.0251998901367,1.23495006561279,1.04295003414154,0.23895001411438,-1.88595008850098,-4.95000028610229,-6.82695055007935,1.82558751106262,-0.00494999997318,-0.7209125161171,0.86595004796982,24.2329502105713,37.4490013122559,SHAKE
1.32027494907379,2.08642506599426,-1.22265005111694,3.40202498435974,7.11548757553101,17.3097381591797,-3.97395014762878,-1.36905002593994,5.41095018386841,-6.90405035018921,-0.92805004119873,2.6340000629425,-17.5843257904053,-17.8402118682861,-17.3673496246338,25.7269515991211,15.3460502624512,12.7789506912231,-4.86488723754883,-4.95082473754883,-4.17724990844727,25.6889877319336,19.3263130187988,16.6259498596191,8.32200050354004,4.03095006942749,3.30405020713806,-1.00499999523163,-1.46400010585785,-2.19195008277893,-1.73497498035431,-1.17603754997253,-1.48816251754761,-7.48395013809204,-13.8820505142212,-17.7510013580322,3.94418740272522,5.89421224594116,6.04601240158081,7.71154975891113,5.62141227722168,12.4415502548218,-3.13095021247864,-5.889000415802,-7.57500028610229,-9.50895023345947,-9.50895023345947,-5.25705003738403,-19.9396991729736,-20.3688373565674,-20.5216007232666,45.1870536804199,39.4789505004883,23.4289512634277,-0.37193748354912,-3.7089250087738,-12.7153120040894,11.5413370132446,21.8608493804932,16.1232490539551,16.443000793457,4.41495037078857,2.11605000495911,0.45000001788139,-4.87395000457764,1.21605002880096,-0.2239875048399,0.66412502527237,1.26348745822906,2.35995006561279,-2.50395011901855,-21.8110504150391,-18.2338752746582,-22.5046253204346,-13.6842746734619,12.0979375839233,1.84786248207092,-3.39803743362427,1.6560001373291,-2.51805019378662,-6.50205039978027,-7.13400030136108,-12.457950592041,-12.457950592041,-17.9826622009277,-20.3587989807129,-21.1033630371094,8.44995021820068,25.9189510345459,35.0740509033203,SHAKE
-23.8310871124268,-13.5840377807617,-11.2964496612549,-6.27068758010864,-8.28891277313232,2.9664249420166,-8.49405002593994,-7.61295032501221,-4.66305017471313,-9.54705047607422,-5.44800043106079,-3.45600008964539,-18.1249752044678,-19.7297382354736,-20.5085372924805,45.7620010375977,25.8799514770508,15.7669506072998,1.59486246109009,5.10523748397827,10.4702119827271,13.4462623596191,22.2913627624512,14.3265371322632,11.4630002975464,5.33400011062622,0.8520000576973,-6.44400024414063,-6.44400024414063,-1.34895002841949,-14.1646995544434,-13.6167621612549,-12.8816871643066,-8.09700012207031,-21.082950592041,-33.8010025024414,2.81847500801086,1.86917495727539,-0.77013748884201,2.3588125705719,-2.81462502479553,-10.6302623748779,-5.85105037689209,-12.2100009918213,-12.8989505767822,-17.6680507659912,-7.5930004119873,-1.77105009555817,-4.01431226730347,-5.02397489547729,-5.94508743286133,54.8410530090332,25.6120510101318,15.1540508270264,5.03373765945435,6.74973726272583,4.13943767547607,-15.886474609375,-10.5393753051758,7.22672510147095,15.1789503097534,6.4830002784729,3.57195019721985,-12.7650003433228,-11.1940507888794,1.86705005168915,-16.6447868347168,-16.6434116363525,-15.977499961853,0.09900000691414,-3.42405009269714,-6.60300016403198,-0.83311247825623,-2.48489999771118,-4.38088750839233,2.94566249847412,-1.78763747215271,-3.7679123878479,1.08195006847382,-2.28795003890991,-5.46795034408569,-8.70405006408691,-13.8379507064819,-13.8379507064819,-6.23383760452271,-17.8578128814697,-19.2883625030518,-2.81100010871887,45.3790512084961,46.3750534057617,SHAKE
0.00261249998584,0.35832500457764,-2.07886242866516,-0.41827499866486,-18.7470245361328,-21.0839748382568,-7.9960503578186,-4.16505002975464,0.58395004272461,-5.9850001335144,-2.46000003814697,4.31895017623901,-1.1530749797821,-1.99402499198914,-4.00069999694824,40.8970527648926,22.3180503845215,13.6600503921509,5.82271242141724,2.62185001373291,-0.46805000305176,-3.51422500610352,10.324049949646,15.1743621826172,6.40605020523071,3.30405020713806,2.80605006217957,-0.88995003700256,4.20405006408691,4.20405006408691,-9.12119960784912,-9.00459957122803,-8.50437450408936,-24.2629508972168,-32.7289505004883,-27.4420509338379,-1.82063746452332,-1.90011250972748,-1.95593750476837,8.07386207580566,8.50217533111572,7.57487487792969,-7.9960503578186,-15.8490009307861,-15.9259510040283,-15.6379508972168,-2.99700021743774,-2.2300500869751,-19.6948127746582,-20.1881618499756,-21.5616493225098,51.6990013122559,29.2900505065918,15.9199504852295,0.00054999999702,-0.3979249894619,3.95491242408752,10.6980495452881,11.3310995101929,2.00694990158081,11.998950958252,4.45305013656616,1.96305012702942,-6.75105047225952,-0.77505004405975,2.86305022239685,-19.6406364440918,-19.4183006286621,-18.6547622680664,-11.4679508209229,-26.6380519866943,-29.2050018310547,0.92372500896454,-4.34816265106201,-4.16941261291504,-0.35475000739098,-4.49927520751953,0.35543748736382,-4.89300012588501,-11.0220003128052,-6.96195030212402,-17.2470016479492,1.675950050354,1.675950050354,-20.8218994140625,-21.2995758056641,-22.2961750030518,39.1729507446289,23.8120517730713,14.1970510482788,SHAKE
0.92372500896454,-4.34816265106201,-4.16941261291504,-0.35475000739098,-4.49927520751953,0.35543748736382,-4.89300012588501,-11.0220003128052,-6.96195030212402,-17.2470016479492,1.675950050354,1.675950050354,-20.8218994140625,-21.2995758056641,-22.2961750030518,39.1729507446289,23.8120517730713,14.1970510482788,3.60167503356934,11.257399559021,11.0757627487183,3.81590008735657,2.59957504272461,1.4803249835968,9.39405059814453,4.72095012664795,2.46105003356934,-5.94600009918213,-0.31500002741814,3.51495027542114,-22.4324378967285,-22.1337871551514,-21.9386749267578,-4.65000009536743,-12.8860502243042,-25.3350009918213,6.95722484588623,-4.21973752975464,-5.21757507324219,-4.50408744812012,-3.7173125743866,-1.6521999835968,-0.83295005559921,-7.00005054473877,-9.60495090484619,-12.7650003433228,-3.41805005073547,0.37305000424385,-17.2668380737305,-18.5869750976563,-19.1368370056152,57.2920532226563,53.6149520874023,22.0879516601563,0.51480001211166,8.21026229858398,11.3489751815796,4.53364992141724,0.14176249504089,0.3271124958992,14.2980003356934,8.47500038146973,1.31205010414124,-7.51695013046265,-5.94600009918213,2.47995018959045,-22.9832630157471,-22.3781242370605,-22.2681255340576,-3.80700016021729,-8.02095031738281,-15.4140005111694,10.5969877243042,-11.2144994735718,-11.973087310791,-4.88399982452393,-4.41704988479614,-1.0920250415802,4.06995010375977,-2.44095015525818,-3.78195023536682,-2.2300500869751,-12.6880502700806,-6.02295017242432,-13.5867872238159,-14.7251501083374,-14.2789621353149,5.99895048141479,23.8500003814697,39.5560531616211,SHAKE
-11.973087310791,-16.0179252624512,-16.6518001556396,-1.0920250415802,7.37701225280762,8.64792537689209,-3.78195023536682,-2.21205019950867,0.58395004272461,-6.02295017242432,-3.26505017280579,-1.34895002841949,-14.2789621353149,-13.9503374099731,-17.819450378418,39.5560531616211,29.7880516052246,17.989049911499,-5.29416227340698,-1.98385000228882,-8.81553745269775,24.7400989532471,19.9830131530762,17.9948997497559,9.12600040435791,1.46505010128021,0.43095001578331,-0.50700002908707,4.7790002822876,4.70205020904541,-6.42523765563965,-6.44311237335205,-4.39284992218018,-4.53495025634766,-13.2300004959106,-31.0429515838623,4.31296253204346,4.61848735809326,6.28787517547607,9.60795021057129,7.51616239547729,11.6920375823975,-8.22600078582764,-10.1410503387451,-11.9029502868652,-13.5690002441406,-5.60100030899048,-3.53295016288757,-13.8884620666504,-14.7278995513916,-15.4835996627808,59.3989524841309,58.6710014343262,27.1830005645752,1.18607497215271,4.41691255569458,5.84814977645874,16.3604373931885,22.3216133117676,13.0483369827271,9.66300010681152,4.10805034637451,1.1580001115799,-15.5610008239746,-5.41005039215088,1.59900009632111,-17.7385997772217,-17.9533748626709,-17.7425880432129,3.54705023765564,-0.05295000225306,-9.05505084991455,14.945837020874,9.47897529602051,-2.37380003929138,-0.16926249861717,-5.59831237792969,-10.1668872833252,3.37995004653931,4.91295003890991,3.07395005226135,-1.96200013160706,-3.07305026054382,-8.39805030822754,-9.88432502746582,-15.4261245727539,-15.6487369537354,-7.52295017242432,0.25304999947548,23.6580009460449,SHAKE
9.3270378112793,13.1491250991821,13.2473001480103,6.61924982070923,12.0067749023438,11.2682628631592,-6.84705018997192,-9.49005031585693,-11.7499504089355,-6.21405029296875,-2.42204999923706,1.75200009346008,-17.7747631072998,-18.3422241210938,-18.7210369110107,47.1790504455566,32.7370529174805,23.6200504302979,15.9264869689941,17.9117126464844,23.9383373260498,15.3175001144409,7.22933769226074,6.00682497024536,5.9089503288269,-1.06200003623962,-2.86305022239685,-2.6140501499176,4.9699501991272,4.9699501991272,-16.3541126251221,-15.7244997024536,-14.1829872131348,-2.81100010871887,-9.70605087280273,-42.2670021057129,4.92483758926392,-0.00343749998137,-13.210862159729,-3.37273740768433,-3.6460874080658,4.80562496185303,-3.59100008010864,-8.80005073547363,-10.6390504837036,-23.568000793457,-9.12600040435791,-1.00499999523163,15.9431247711182,16.3373374938965,16.2416381835938,58.2499542236328,50.9710540771484,31.4730014801025,-10.7512626647949,-0.56072497367859,2.96422505378723,4.83463764190674,15.8973369598389,17.330774307251,15.5239505767822,3.6870002746582,1.69500005245209,-9.47100067138672,0.18195000290871,3.78300023078919,-10.800350189209,-10.3492126464844,-12.3058376312256,-1.54695010185242,-5.68395042419434,-11.1619501113892,2.16356253623962,0.32986250519753,2.52202486991882,14.8927621841431,6.44819974899292,4.04497480392456,3.15000009536743,1.00499999523163,-0.83295005559921,-0.43005001544952,-2.88195013999939,-7.90005016326904,-21.6523990631104,-24.6173114776611,-24.6130504608154,4.04505014419556,25.6120510101318,41.2410011291504,SHAKE
12.7077503204346,22.6714115142822,21.0023002624512,11.7913122177124,11.8826122283936,12.0256128311157,-2.25,0.04800000041723,5.9850001335144,-5.52495002746582,-0.88995003700256,3.09300017356873,-22.3027744293213,-19.4755001068115,-12.7509250640869,33.5419502258301,15.3460502624512,13.1620502471924,2.25073742866516,3.61033749580383,3.89028739929199,17.159725189209,19.7206630706787,20.4272747039795,5.7940502166748,3.80205011367798,2.6140501499176,1.25505006313324,1.25505006313324,-0.19995000958443,-2.91087508201599,-3.44148755073547,-4.89101266860962,-10.3189506530762,-20.2410011291504,-26.4079513549805,6.79855012893677,8.93805027008057,8.36054992675781,5.95911264419556,12.2104120254517,12.6290998458862,-6.04200029373169,-8.14905071258545,-10.2559509277344,-9.85395050048828,-3.57105016708374,-1.1580001115799,-18.0621376037598,-19.2069625854492,-19.4247627258301,46.2600021362305,40.0920028686523,23.5440006256104,7.2155876159668,6.90071249008179,6.6470251083374,12.3043251037598,14.0815124511719,12.8236627578735,13.4929504394531,10.3519506454468,0.46905001997948,-7.24905014038086,-3.15000009536743,4.24200010299683,-16.2742252349854,-16.3499870300293,-16.0063743591309,0.82695001363754,-3.00195002555847,-5.60700035095215,6.87884998321533,0.76958751678467,-0.7039999961853,3.66671252250671,-3.63715004920959,-5.8049750328064,3.6870002746582,4.95105028152466,0.96705007553101,-1.50300002098084,-8.85795021057129,-8.85795021057129,-6.23548746109009,-19.0137748718262,-19.308162689209,-9.89805030822754,22.3939514160156,38.6370010375977,SHAKE
-8.49887466430664,-7.25642490386963,-3.79334998130798,1.50590002536774,1.70252501964569,2.59283757209778,-0.02805000171065,6.33000040054321,9.04995059967041,-1.73205006122589,2.97795009613037,2.97795009613037,-20.0501117706299,-17.301212310791,-8.70017528533936,28.3320007324219,12.3960008621216,5.80695009231567,2.56080007553101,3.8344624042511,5.58965015411377,18.3422241210938,20.2395877838135,20.9886875152588,4.2610502243042,4.06995010375977,4.3759503364563,-0.92805004119873,-1.23405003547668,-2.84295010566711,-2.16837501525879,-3.57774996757507,-5.70982503890991,-14.4949502944946,-17.4439506530762,-15.9889507293701,9.5199499130249,8.68449974060059,7.96372509002686,12.7470750808716,10.4982624053955,9.22391223907471,-3.47595024108887,-5.85105037689209,-0.98595005273819,-3.34095025062561,-1.61805009841919,0.33495002985001,-20.1550254821777,-19.5553874969482,-17.6045379638672,42.5820007324219,16.6480503082275,13.5450010299683,1.22017502784729,3.47613739967346,4.72889995574951,9.18252468109131,15.1890745162964,18.0459117889404,8.20695018768311,6.10005044937134,4.60605001449585,-8.20604991912842,-6.09900045394897,-3.95400023460388,-6.04711246490479,-6.27577495574951,-6.59862518310547,-8.32695007324219,-12.1200008392334,-15.2220010757446,-1.12915003299713,-5.14442491531372,-5.51553726196289,-3.99932503700256,-14.4157752990723,-18.5820255279541,0.23895001411438,-0.90900003910065,-1.48395001888275,-5.37195014953613,-4.2610502243042,-3.18795013427734,0.00219999998808,-0.32312500476837,-0.00646249996498,37.4110527038574,13.6600503921509,11.3620510101318,SHAKE
-3.06047487258911,-2.95212507247925,-1.39026248455048,-16.6856250762939,-19.4235248565674,-20.3431243896484,-17.1510009765625,-16.8070507049561,-2.28795003890991,-4.79700040817261,-6.36795043945313,-10.1980504989624,-7.08771228790283,-7.9303126335144,-12.6183748245239,21.4369506835938,18.1039505004883,13.6219511032104,8.04361248016357,17.8336124420166,18.8879623413086,9.68096256256104,4.61862516403198,4.26910018920898,0.73695003986359,0.50700002908707,1.1580001115799,0.91005003452301,2.40405011177063,2.40405011177063,-18.1442241668701,-16.2278881072998,-13.3207244873047,-4.34295034408569,-18.9379501342773,-33.1879501342773,1.3333375453949,-4.20571231842041,-8.63568782806396,-9.09521198272705,-6.82068729400635,4.32891225814819,2.07795000076294,-9.45195007324219,-14.086950302124,-15.2550010681152,-7.32495021820068,1.71405005455017,-16.8342628479004,-17.2255878448486,-18.249137878418,59.859001159668,38.943000793457,22.3180503845215,8.19252490997314,7.39034986495972,3.18642497062683,13.7685623168945,17.5953254699707,13.6515502929688,8.09205055236816,3.91695022583008,2.00100016593933,-15.7530012130737,-2.95800018310547,3.74400019645691,-3.72501254081726,-0.74676251411438,-1.11045002937317,2.85795021057129,-3.38505005836487,-5.41605043411255,-10.2288999557495,-9.48626232147217,-7.19661235809326,13.9504747390747,9.12188720703125,1.48678743839264,4.49100017547607,5.9089503288269,2.92095017433167,-2.46000003814697,-3.57105016708374,-8.43600082397461,-8.21837520599365,-12.2512502670288,-13.2287378311157,-6.94800043106079,2.81895017623901,19.9429512023926,SHAKE
-2.70187497138977,-2.17744994163513,-2.54099988937378,-6.69363737106323,-7.9641375541687,-7.96427488327026,0.27705001831055,-1.78995013237,-0.98595005273819,-5.52495002746582,-2.68995022773743,1.06305003166199,-11.5858879089355,-8.12941265106201,-4.54877519607544,31.8559513092041,22.5859508514404,17.0700016021729,-1.18332505226135,4.83216238021851,5.86753749847412,6.43252515792847,17.2713756561279,18.2208118438721,10.735050201416,4.83600044250488,4.33800029754639,-5.17995023727417,1.40805006027222,0.25905001163483,0.34471249580383,0.35007500648499,-2.83387494087219,-15.5670003890991,-23.2669506072998,-20.7390003204346,4.34775018692017,-4.26277494430542,-4.84591245651245,4.66578769683838,-11.6839246749878,-16.7176628112793,-5.889000415802,-8.14905071258545,-9.25995063781738,-5.25705003738403,-4.72005033493042,-4.3759503364563,-10.2524127960205,-10.8117628097534,-10.897837638855,45.1489524841309,34.0009498596191,19.6740016937256,-1.42532503604889,8.38199996948242,7.38691234588623,-16.3186378479004,9.36746215820312,13.2314872741699,18.2820014953613,8.16900062561035,4.10805034637451,-6.17595052719116,-1.96200013160706,1.02495002746582,-10.5925874710083,-8.07331275939941,-7.91683769226074,8.44995021820068,5.3860502243042,0.44400003552437,-10.5877752304077,-14.2625999450684,-23.6176872253418,11.3745498657227,4.53681230545044,-4.2728123664856,2.76705002784729,3.45705008506775,8.78205013275146,-2.07705020904541,-2.07705020904541,-5.10300016403198,2.04132509231567,0.37372499704361,3.37136244773865,-23.4199504852295,-16.1419506072998,-8.71005058288574,SHAKE
-4.41925001144409,-3.57885003089905,-1.42532503604889,-18.9545116424561,-18.3544616699219,-16.3186378479004,-0.7180500626564,8.20695018768311,18.2820014953613,-1.27305006980896,-3.26505017280579,-6.17595052719116,-11.5960626602173,-10.8642873764038,-10.5925874710083,11.6680507659912,10.8259506225586,8.44995021820068,-3.70342493057251,-7.27017498016357,-10.5877752304077,15.3822622299194,14.3812627792358,11.3745498657227,3.57195019721985,2.88195013999939,2.76705002784729,-0.43005001544952,-2.68995022773743,-2.07705020904541,-6.77104997634888,-1.65426254272461,2.04132509231567,-6.18195009231567,-23.1900005340576,-23.4199504852295,-18.3339748382568,-21.7744998931885,-20.7303256988525,-13.3548250198364,-25.5081748962402,-27.7578125,-7.38300037384033,-13.8949508666992,-18.9139499664307,-13.3009510040283,-7.93800020217896,-6.17595052719116,-1.94837498664856,-4.96705007553101,-5.77816247940063,62.310001373291,30.7450523376465,20.7469501495361,0.57296252250671,7.70756244659424,2.84102487564087,-13.80348777771,10.609637260437,16.5358867645264,9.62400054931641,3.57195019721985,0.62205004692078,-7.01895046234131,-4.2610502243042,0.87105005979538,-0.72187501192093,-0.36877501010895,-0.83682501316071,-0.20595000684261,-10.8550500869751,-31.2349510192871,-7.9018497467041,-3.22519993782043,-3.48094987869263,15.1852245330811,11.4375247955322,5.79974985122681,-1.52205002307892,-6.46395015716553,-10.9069509506226,-14.4499502182007,-11.1940507888794,-6.02295017242432,-14.9569749832153,-15.5046377182007,-15.3785495758057,49.5919532775879,48.1750526428223,28.0249519348145,SHAKE
8.249587059021,8.42764949798584,8.98246288299561,-11.1293878555298,-11.8996620178223,-11.8626747131348,-16.4620513916016,-13.1290502548218,-5.23800039291382,-5.71605014801025,-5.71605014801025,-9.81495094299316,-14.3167753219604,-10.6778373718262,-12.1247501373291,17.7210006713867,13.8900003433228,14.848051071167,17.3852252960205,18.3858127593994,17.2177505493164,-2.1125500202179,-1.15403747558594,-1.32123744487762,1.1580001115799,-0.44895002245903,1.69500005245209,0.48795002698898,3.132000207901,1.36905002593994,-19.9970378875732,-20.1352252960205,-18.5399494171143,-13.3450508117676,-29.473051071167,-32.5759506225586,17.7999248504639,9.65524959564209,9.44817447662354,3.4288375377655,-5.68163728713989,-11.2051496505737,-9.79605007171631,-12.0570001602173,-12.8989505767822,-4.06905031204224,-4.03095006942749,-4.03095006942749,-17.1928615570068,-16.775411605835,-14.822361946106,56.5639533996582,23.2369518280029,15.6520509719849,0.59619998931885,2.41505002975464,3.31732487678528,-6.87211227416992,-2.28071260452271,16.0825500488281,14.6040010452271,5.9089503288269,1.69500005245209,-8.05305004119873,-7.47900056838989,1.63800013065338,-3.97650003433228,-4.18536233901978,-4.86502504348755,-3.3469500541687,-18.7470016479492,-31.8480014801025,-6.70697498321533,-5.97588729858398,-6.11283731460571,9.33982467651367,6.4079122543335,1.44044995307922,-8.22600078582764,-12.1330509185791,-12.363000869751,-5.71605014801025,-4.3759503364563,-4.18395042419434,-14.8719997406006,-16.671049118042,-15.5236120223999,42.1609535217285,23.8879508972168,16.0740013122559,SHAKE
-6.11283731460571,5.66967487335205,7.02803754806519,1.44044995307922,-7.97183752059937,-9.7336254119873,-12.363000869751,-10.7160005569458,-4.66305017471313,-4.18395042419434,-4.18395042419434,-6.02295017242432,-15.5236120223999,-12.9365501403809,-12.1188373565674,16.0740013122559,11.4769506454468,15.0390005111694,0.96112501621246,-2.31536245346069,-3.17377495765686,16.8052501678467,21.3074131011963,22.1797122955322,0.69900006055832,1.35000002384186,1.57995009422302,1.02495002746582,1.48395001888275,1.48395001888275,-1.92774999141693,-3.34482502937317,-1.97738754749298,-0.66600000858307,-24.1099510192871,-30.9670505523682,-2.34767508506775,10.9813003540039,9.78408718109131,9.21360015869141,2.76691246032715,-8.44470024108887,-1.17705011367798,-7.49805021286011,-12.8989505767822,-16.4419498443604,-11.3860502243042,-3.15000009536743,-13.4560251235962,-13.6166248321533,-13.3991003036499,50.5500030517578,40.3990516662598,23.0070018768311,5.91552495956421,7.49732494354248,8.56226253509521,-7.05924987792969,-0.38830000162125,9.88501262664795,15.8680505752563,12.8040008544922,7.82400035858154,-6.36795043945313,-4.98900032043457,0.06705000251532,-3.16140007972717,-1.70871245861053,-2.34987497329712,6.57300043106079,3.54705023765564,1.97700011730194,-6.96258735656738,-10.3631000518799,-10.7505750656128,18.4610252380371,13.0729503631592,5.53135013580322,3.95505023002625,3.80205011367798,5.94705009460449,-1.08105003833771,-2.26905012130737,-5.33295011520386,-7.7673749923706,-8.14921283721924,-8.8782377243042,-16.5250511169434,-11.3149509429932,-4.95600032806396,SHAKE
-3.10048747062683,-1.90203750133514,-0.1710499972105,0.2773374915123,0.00591249996796,0.17984999716282,-1.56000006198883,-0.18105000257492,0.16200000047684,2.7480001449585,2.7480001449585,3.01695013046265,-12.6571502685547,-7.28942489624023,-4.5751748085022,17.9119510650635,9.9060001373291,8.75699996948242,3.51023745536804,-3.54474997520447,-11.9189128875732,15.9201622009277,15.9862995147705,15.3529748916626,2.00100016593933,2.49900007247925,3.03495025634766,6.77100038528442,0.29700002074242,-3.07305026054382,-2.2239248752594,-5.22114992141724,-6.74093723297119,-6.60300016403198,-11.2770004272461,-20.2020015716553,-18.3866367340088,-11.188099861145,-7.78758764266968,3.10983753204346,9.14814949035644,10.1212377548218,-1.86705005168915,-5.39100027084351,-8.72399997711182,-12.4200010299683,-7.5930004119873,-5.14200019836426,-14.9225997924805,-13.4322376251221,-12.8262748718262,57.1390533447266,25.689001083374,7.26300048828125,6.72553730010986,4.20612478256226,1.31780004501343,13.9022121429443,11.8832998275757,15.5028495788574,15.2170505523682,13.8000001907349,5.14200019836426,-5.25705003738403,-3.72405028343201,5.46795034408569,-1.79176247119904,-1.99086248874664,-2.79083752632141,-4.91805028915405,-6.22005033493042,-7.59900045394897,-7.35528755187988,-10.0346126556396,-9.96063709259033,6.75757503509521,-6.59436225891113,-12.1567878723145,0.96705007553101,-0.06599999964237,-2.09700012207031,-2.38394999504089,-4.22205018997192,-7.86195039749146,-14.1267499923706,-16.2801380157471,-15.8977499008179,-10.5490503311157,37.5640525817871,46.2979507446289,SHAKE
-6.98733758926392,-4.7283501625061,-0.75913751125336,-10.7716121673584,-8.57202529907227,-0.00041249999776,4.7590503692627,11.8840503692627,23.6830520629883,-2.57505011558533,-6.78900051116943,-7.51695013046265,-6.42386245727539,-3.37012505531311,-1.61424994468689,4.92600011825562,5.99895048141479,2.89605021476746,-2.71493744850159,-4.84577512741089,-5.95842504501343,16.0353870391846,15.3327627182007,14.0417747497559,7.78605031967163,5.10405015945435,3.95505023002625,1.98195004463196,-0.54495000839233,-0.54495000839233,-2.98278737068176,-4.67211246490479,-6.42468738555908,-5.14800024032593,-8.25,-20.2789516448975,-5.11362504959106,-4.77180004119873,-4.27583742141724,-2.33612489700317,-1.14097499847412,-0.00453749997541,-3.706050157547,-5.16105031967163,-5.96595048904419,-9.58500003814697,-9.58500003814697,-8.5890007019043,-11.332200050354,-11.4067249298096,-11.1726999282837,54.726001739502,28.677001953125,7.53105020523071,-0.43381249904633,-1.68904995918274,-4.07660007476807,6.43857479095459,12.602837562561,16.5319004058838,21.6139507293701,5.75505018234253,2.57595014572144,1.90605008602142,6.08100032806396,5.31495046615601,-0.98092502355576,0.00109999999404,0.00371249997988,-4.07505035400391,-5.37705039978027,-11.4679508209229,-15.4710874557495,-16.0080242156982,-12.0557250976563,5.25085020065308,-1.38352501392365,-7.93732500076294,-0.06599999964237,-1.25400006771088,-0.7180500626564,-2.92005014419556,-4.06905031204224,-5.17995023727417,-14.0351753234863,-14.660249710083,-14.3496370315552,24.3100509643555,41.2800025939941,34.9969520568848,SHAKE
-6.72031259536743,-4.48937511444092,-2.28745007514954,-9.38973712921143,-8.37979984283447,-6.4942626953125,3.64800024032593,7.59405040740967,12.72705078125,-2.53695011138916,0.25905001163483,1.86705005168915,-13.4040498733521,-6.27742481231689,0.58093750476837,23.2369518280029,12.7789506912231,14.7709503173828,-2.55970001220703,-5.91909980773926,-8.359450340271,13.1741495132446,12.256199836731,11.4028749465942,3.03495025634766,2.34600019454956,1.42695009708405,2.6340000629425,2.1739501953125,0.22005000710487,8.59622478485107,6.97922515869141,2.23629999160767,-8.09700012207031,-19.3210506439209,-29.5110015869141,-0.70757502317429,-3.39941239356995,-1.15458750724792,1.1368499994278,-2.93301248550415,-1.97175002098084,-6.31095027923584,-8.34105014801025,-11.6350507736206,-11.7690010070801,-8.0149507522583,-0.92805004119873,-16.8649253845215,-17.9169368743896,-17.3328380584717,63.4980049133301,31.6260013580322,12.6640510559082,6.33971261978149,11.0232372283936,3.91888737678528,6.5592999458313,16.1071624755859,21.5990505218506,10.5049505233765,5.52495002746582,0.20100000500679,-5.52495002746582,0.48795002698898,4.4719500541687,1.43110001087189,1.58743751049042,1.34323751926422,-3.61500024795532,-8.36505031585693,-19.090950012207,-8.98796272277832,-10.4660873413086,-10.4574251174927,9.71506214141846,4.64296245574951,0.87408751249313,0.8520000576973,-0.83295005559921,-0.25800001621246,-8.74305057525635,-7.70805025100708,-3.07305026054382,-18.5765247344971,-19.3150367736816,-18.5293617248535,22.5090007781982,32.9290504455566,21.0150012969971,SHAKE
-10.4574251174927,-7.54902505874634,-4.75997495651245,0.87408751249313,0.65793746709824,1.23144996166229,-0.25800001621246,2.00100016593933,10.8499507904053,-3.07305026054382,1.79100012779236,2.47995018959045,-18.5293617248535,-16.8209247589111,-12.4294500350952,21.0150012969971,13.9669504165649,11.8219509124756,1.15211248397827,-2.99186253547669,-5.55293750762939,15.3115873336792,13.9182996749878,12.8414001464844,4.45305013656616,3.6870002746582,3.30405020713806,-0.50700002908707,-0.85095006227493,-1.61805009841919,10.4882249832153,8.40166282653809,4.07082509994507,-4.18994998931885,-13.1920509338379,-18.5170516967773,-14.7559499740601,-11.1915378570557,-6.39526224136353,-6.93536233901978,-6.15119981765747,-3.17253756523132,4.1850004196167,0.27705001831055,-14.9680509567261,-7.13400030136108,-7.13400030136108,3.36105012893677,-14.3925371170044,-15.2426996231079,-16.0584869384766,62.1960029602051,53.4229507446289,27.7960510253906,7.48068761825562,7.94997501373291,2.11447501182556,5.56325006484985,9.66432476043701,17.4615383148193,3.8779501914978,4.14600038528442,4.83600044250488,-17.8210506439209,-8.70405006408691,-0.88995003700256,-1.40868747234344,-0.67925000190735,-1.02808749675751,-2.46600008010864,-10.0890007019043,-16.7550010681152,-3.20814990997314,-6.60866260528564,-0.84603750705719,18.0798740386963,12.5871620178223,-3.24884986877441,1.50300002098084,-0.41100001335144,-0.29595002532005,-4.52895021438599,-9.85395050048828,0.75705003738403,-16.9567756652832,-18.3394756317139,-18.325174331665,32.3539505004883,32.661003112793,23.4289512634277,SHAKE
-5.40677499771118,-3.94308757781982,-0.6540874838829,0.2216500043869,1.00416254997253,3.38937497138977,-1.78995013237,-0.44895002245903,0.92895007133484,-2.68995022773743,-0.23805001378059,5.81295013427734,-13.1960124969482,-7.79831266403198,-0.33398750424385,17.8740005493164,9.56100082397461,6.19005012512207,4.91328763961792,2.4421374797821,0.64487498998642,13.645637512207,12.5571870803833,11.2210998535156,3.03495025634766,2.65200018882751,2.46105003356934,2.32695007324219,2.36505007743835,2.32695007324219,11.8112497329712,1.31353747844696,-2.26283740997314,-0.85695004463196,-10.9320001602173,-18.5550003051758,-4.11180019378662,-3.06047487258911,-2.66516256332397,1.54577493667603,1.32178747653961,2.36692500114441,1.77105009555817,1.54095005989075,1.54095005989075,-11.577000617981,-11.577000617981,1.56105005741119,-15.7364625930786,-16.325511932373,-15.5594997406006,48.9409523010254,33.2740516662598,17.29905128479,4.47809982299805,5.23943758010864,4.59593725204468,11.6821374893188,16.6134376525879,17.5766258239746,9.70095062255859,4.10805034637451,1.57995009422302,-0.27705001831055,3.74400019645691,3.74400019645691,8.16103744506836,10.4614124298096,9.11514949798584,-4.91805028915405,-8.44200038909912,-5.87505006790161,-7.34002494812012,-7.8368124961853,-0.30676248669624,9.25168704986572,1.89337503910065,-5.36456251144409,0.69900006055832,1.19700002670288,15.0640506744385,-9.04905033111572,-2.26905012130737,-0.00900000054389,-12.1779623031616,-11.4344997406006,-9.87263774871826,16.6099510192871,16.7250003814697,20.5170001983643,SHAKE
4.26717519760132,2.59242486953735,1.16820001602173,16.5725994110107,14.300687789917,11.9073619842529,1.35000002384186,5.02695035934448,6.75105047225952,2.40405011177063,2.40405011177063,-2.72805023193359,-9.50125026702881,-2.33901238441467,11.6157245635986,16.57200050354,15.1159505844116,11.9359502792358,-3.38167500495911,-1.96019995212555,-1.0202499628067,-6.87128734588623,-7.1003623008728,-7.10998725891113,1.31205010414124,1.81005012989044,3.57195019721985,-6.29100036621094,-4.06905031204224,-3.11205005645752,16.8812866210938,15.5024375915527,0.00316249998286,-17.9809513092041,-18.8230514526367,-17.4829502105713,-1.91647493839264,-1.54027497768402,-2.60809993743896,-13.7836875915527,-19.5713367462158,-21.5921745300293,3.34200024604797,0.73695003986359,-3.24600005149841,-0.43005001544952,0.87105005979538,2.0590500831604,5.83605003356934,5.80744981765747,6.14171266555786,46.7959518432617,28.2169513702393,12.3960008621216,-0.57887500524521,5.37652492523193,6.23177480697632,-13.3649997711182,14.7647495269775,16.2355880737305,9.70095062255859,3.95505023002625,3.49500012397766,-12.3049507141113,-3.57105016708374,0.83295005559921,0.25052499771118,1.45337498188019,0.43628749251366,-0.51195001602173,-2.88705015182495,-11.2770004272461,3.81631255149841,-0.64583748579025,-0.22605000436306,8.51798725128174,-0.19703750312328,1.26527500152588,4.60605001449585,3.03495025634766,1.92495012283325,-3.07305026054382,-4.10805034637451,-4.10805034637451,-20.4821376800537,-24.9147243499756,-25.0898990631104,17.3380508422852,38.7510032653809,44.0380516052246,SHAKE
2.47898745536804,1.9074000120163,1.3309999704361,-9.05671215057373,-11.0785121917725,-12.3063879013062,7.21095037460327,6.63600015640259,7.28805017471313,-4.3759503364563,-4.14600038528442,-4.14600038528442,13.9331502914429,11.5736503601074,8.66992473602295,2.66595005989075,9.06300067901611,10.9399509429932,-2.43746256828308,-2.38094997406006,-2.43251252174377,-5.11376237869263,-4.5248498916626,-3.91091251373291,10.9650001525879,11.2720508575439,8.39805030822754,-0.00900000054389,-2.03895020484924,-2.76705002784729,0.76408749818802,0.73397499322891,0.60926252603531,-5.53095006942749,-17.8660507202148,-20.7390003204346,-2.28250002861023,-3.5949375629425,-3.28239989280701,-1.46410000324249,-7.11713743209839,-11.8152370452881,-2.86305022239685,-3.43695020675659,-2.44095015525818,-5.67795038223267,-0.54495000839233,-0.46800002455711,-3.17377495765686,-6.53826236724854,-7.03504991531372,33.120002746582,28.4850006103516,21.552001953125,5.81776237487793,10.5672874450684,27.1712379455566,-7.73904991149902,2.17799997329712,10.2068996429443,8.39805030822754,11.2720508575439,5.67900037765503,-2.53695011138916,-4.06905031204224,0.37305000424385,-9.57536220550537,-8.38640022277832,-7.99699974060059,5.5770001411438,4.84995031356812,4.15995025634766,20.6981506347656,17.3138618469238,5.45613765716553,-0.2073500007391,-1.84882497787476,-0.19208750128746,5.37195014953613,5.48700046539307,5.9850001335144,0.06705000251532,-0.00900000054389,-0.92805004119873,-5.19887495040894,-5.42698764801025,-5.96296262741089,-8.55705070495605,-10.510950088501,-2.92605018615723,SHAKE
-0.62273746728897,0.23045000433922,0.97198748588562,0.23911249637604,1.53931248188019,2.39085006713867,-1.48395001888275,-2.13495016098022,-1.94295012950897,-8.85795021057129,-1.92405009269714,0.06705000251532,-10.2005748748779,-9.35233783721924,-6.02401256561279,23.965051651001,24.8460006713867,25.4590511322021,8.92045021057129,-5.14414978027344,-7.34951257705688,13.9708251953125,14.502537727356,14.4216871261597,4.03095006942749,-2.47995018959045,-3.05400013923645,7.49895048141479,9.22200012207031,9.22200012207031,3.45674991607666,3.82731246948242,-5.68480014801025,-10.3570508956909,-19.2060012817383,-28.47705078125,-29.1827239990234,-22.4716243743896,-15.9512376785278,3.1217999458313,3.89482498168945,7.76104974746704,-3.62895011901855,-4.43295001983643,-2.7480001449585,-18.9319515228271,-13.6080007553101,-8.70405006408691,-7.9547872543335,-7.37440013885498,-4.45609998703003,52.4650535583496,44.9959526062012,26.8759517669678,4.7858247756958,5.36112499237061,6.0971622467041,23.5779495239258,30.2860240936279,26.610237121582,20.6569519042969,5.75505018234253,2.03895020484924,-1.23405003547668,1.1779500246048,4.01295042037964,-2.91362500190735,-3.51711249351501,-5.58841228485107,-7.90605020523071,-17.2530002593994,-23.8800010681152,1.88787496089935,8.14398765563965,8.39410018920898,14.8865747451782,20.8506374359131,20.1463623046875,-4.20405006408691,-6.11895036697388,-5.16105031967163,-10.1599502563477,-7.86195039749146,-2.2300500869751,-19.0115756988525,-18.8687114715576,-18.3920001983643,50.5879516601563,33.5419502258301,12.5110502243042,SHAKE
-25.5419998168945,-19.9222373962402,-14.6034622192383,26.6741752624512,19.9329624176025,14.8211250305176,18.8179512023926,23.53005027771,23.836051940918,0.10500000417233,3.93600010871887,6.54105043411255,-1.44526255130768,4.10616254806519,5.70858764648438,10.4419507980347,8.41200065612793,5.76900005340576,-9.08861255645752,-9.34463787078857,-8.3760871887207,1.7135249376297,0.75212502479553,-0.85676246881485,5.94705009460449,3.34200024604797,1.04295003414154,3.97395014762878,2.02095007896423,-0.43005001544952,3.23881244659424,1.65604996681213,0.67704999446869,-25.3350009918213,-34.4910011291504,-33.1500015258789,-0.50077497959137,6.94237518310547,12.0529747009277,4.92153739929199,2.81806254386902,2.88969993591309,-20.0239505767822,-16.1940002441406,-11.6740503311157,-11.3860502243042,-6.78900051116943,-5.56305027008057,-12.932562828064,-18.5824375152588,-20.9635257720947,51.0480041503906,24.4249515533447,14.7709503173828,6.57854986190796,3.64966249465942,-7.5014500617981,4.40206241607666,7.93512487411499,11.7004251480103,7.32600021362305,3.03495025634766,1.69500005245209,7.3840503692627,7.42200040817261,3.66795015335083,-14.9660501480103,-12.9377870559692,-10.3602123260498,-3.38505005836487,-5.03295040130615,-5.41605043411255,-1.19858753681183,-0.29851248860359,1.730024933815,7.25106239318848,5.69401264190674,8.12460041046143,2.46105003356934,3.45705008506775,3.95505023002625,-1.77105009555817,-3.3030002117157,-5.67795038223267,-1.9404000043869,-3.92424988746643,-3.39968752861023,-11.7750005722046,0.98100006580353,28.7149505615234,SHAKE
9.53754997253418,9.77597522735596,10.7152376174927,17.5217628479004,17.0792865753174,16.1770114898682,4.06995010375977,3.61005020141602,9.01095008850098,-10.581000328064,-6.71205043792725,3.09300017356873,-9.20149993896484,-7.76943731307983,-5.28783750534058,24.3859519958496,12.127950668335,7.99095058441162,3.05690002441406,5.37432479858398,8.02890014648438,8.77470016479492,13.6662626266479,17.723611831665,7.24905014038086,5.41095018386841,4.83600044250488,-0.16200000047684,-0.16200000047684,-1.31100010871887,2.74449992179871,0.88838750123978,-1.16586244106293,-7.71405029296875,-12.2340002059937,-10.242000579834,19.3589000701904,19.1783618927002,14.5146369934082,25.2246494293213,21.1396617889404,12.534912109375,1.08195006847382,1.12005007266998,4.30005025863647,-5.21805047988892,-3.41805005073547,-1.42605006694794,-11.4665374755859,-11.487850189209,-11.4105749130249,30.0169506072998,25.8420009613037,18.0270004272461,3.2357873916626,5.43496227264404,5.56820011138916,7.82883739471436,15.8417873382568,18.213249206543,11.5009508132935,9.04995059967041,7.28805017471313,-2.99700021743774,0.7950000166893,0.87105005979538,0.61984997987747,1.08790004253387,-0.15784999728203,5.04105043411255,-1.54695010185242,-3.92205023765564,4.119225025177,2.93851256370544,0.81152498722076,15.3935375213623,6.34411239624023,1.54728746414185,4.56795024871826,3.95505023002625,1.23495006561279,-1.96200013160706,-3.95400023460388,-7.13400030136108,-5.17591238021851,-8.3817253112793,-11.0071496963501,-12.1960506439209,-3.30900025367737,22.1640014648438,SHAKE
1.70500004291534,2.48709988594055,3.35417509078979,2.00804996490479,1.31312501430511,0.83270001411438,-0.33495002985001,-3.09300017356873,-3.62895011901855,-8.20604991912842,-8.20604991912842,-6.21405029296875,-12.7477626800537,-12.4334373474121,-11.7936496734619,55.8750038146973,36.8359527587891,17.0700016021729,4.62879991531372,4.58342504501343,3.68802499771118,3.67963743209839,15.842887878418,17.4794120788574,8.51294994354248,-2.02005004882813,-0.79395002126694,3.40005016326904,3.40005016326904,3.16995024681091,-5.83852481842041,-5.42231225967407,-5.62361240386963,-21.8880004882813,-25.6800003051758,-20.623950958252,0.98601251840591,0.71445000171661,-0.58025002479553,13.7132873535156,18.1582508087158,21.0014743804932,1.42695009708405,-0.7180500626564,-3.706050157547,-6.63600015640259,-6.63600015640259,-4.91205024719238,-2.8165500164032,-2.60369992256165,-1.79822504520416,60.7399520874023,33.3120002746582,9.06300067901611,5.22609996795654,5.81680011749268,7.40011262893677,21.6724758148193,15.1307744979858,17.3683128356934,11.8840503692627,3.72495007514954,2.30805015563965,-3.11205005645752,3.66795015335083,3.3229501247406,2.27713751792908,2.13661241531372,1.35396254062653,-6.75600051879883,-10.7400007247925,-16.9849510192871,-10.1274251937866,-12.0016870498657,-12.2834253311157,8.43095016479492,3.04603743553162,-2.11997509002686,1.08195006847382,1.77105009555817,2.19300007820129,-3.95400023460388,-4.68195009231567,-4.95000028610229,-13.2199373245239,-13.7857503890991,-14.3345127105713,15.9970502853394,42.0079536437988,36.8359527587891,SHAKE
0.4295499920845,2.48833751678467,3.60855007171631,1.78447496891022,2.58321237564087,2.82356238365173,5.9089503288269,7.78605031967163,10.5049505233765,-5.79300022125244,-5.79300022125244,-5.14200019836426,-8.17850017547607,-6.48821258544922,-3.63233757019043,22.969051361084,10.9020004272461,3.77700018882751,2.0596125125885,-0.79791247844696,-2.13592505455017,1.64037501811981,2.82411241531372,2.72827506065369,14.0299510955811,4.68300008773804,2.69100022315979,3.20805025100708,4.31895017623901,4.31895017623901,8.10892486572266,7.71072483062744,2.55928754806519,-13.0390510559082,-17.7889499664307,-15.1069507598877,-5.95622491836548,-6.04724979400635,-5.73141241073608,0.49197500944138,0.94627499580383,2.26902508735657,-4.12695026397705,-4.62495040893555,-5.16105031967163,-10.6579504013062,-8.5890007019043,-5.37195014953613,-12.9332494735718,-12.5771245956421,-9.64163780212402,44.8810539245605,43.3099517822266,31.0129508972168,9.87277507781982,11.9121751785278,13.0950870513916,11.6766376495361,17.5463752746582,18.5743255615234,17.0560512542725,15.0259504318237,12.0760507583618,-0.08505000174046,3.74400019645691,6.96195030212402,-4.54093742370605,-5.0436372756958,-10.9531126022339,1.59300005435944,0.90405005216599,-1.04895007610321,7.11686229705811,8.1609001159668,8.65658760070801,16.1167869567871,14.5954875946045,14.3802995681763,4.41495037078857,3.99300026893616,3.03495025634766,2.90205025672913,2.1739501953125,-1.1580001115799,-5.07980012893677,-4.01582479476929,-3.39350008964539,-5.45400047302246,-1.27905011177063,5.23305034637451,SHAKE
1.99979996681213,2.67437505722046,4.6704626083374,17.3555240631104,14.407112121582,12.4997119903564,4.2610502243042,11.4630002975464,19.1629505157471,-8.7810001373291,-4.83495044708252,6.77100038528442,-0.64322501420975,0.69341248273849,0.95864999294281,4.39005041122437,-0.32100000977516,-1.58505010604858,11.0389127731323,16.237512588501,15.7283496856689,18.3522624969482,23.7828254699707,25.8131504058838,1.00499999523163,-0.48795002698898,-1.06200003623962,10.0270500183105,8.07299995422363,-0.966000020504,-6.51956224441528,-7.39585018157959,-7.61749982833862,-12.3490505218506,-10.9320001602173,-7.59900045394897,8.15031242370605,-0.65986251831055,0.93802499771118,23.4445743560791,17.411075592041,16.9492130279541,-2.78595018386841,5.25705003738403,7.01895046234131,-9.24105072021484,-0.12405000627041,4.31895017623901,-6.78287506103516,-5.90974998474121,-3.64196252822876,45.5320510864258,32.2780532836914,13.8900003433228,4.85581254959106,4.92346239089966,3.28047490119934,21.6533622741699,21.5615119934082,20.3763999938965,2.11605000495911,-0.75600004196167,-1.02404999732971,-2.65200018882751,-2.65200018882751,-0.12405000627041,-1.8133499622345,-2.44447493553162,-3.11093759536743,-20.0490016937256,-28.5919513702393,-25.4500503540039,-1.44581246376038,-4.80823755264282,-4.39298725128174,5.24521255493164,-12.4708375930786,-14.80943775177,-2.59500002861023,1.88595008850098,6.90405035018921,-11.2710008621216,0.06705000251532,2.13600015640259,-13.7363872528076,-13.5574998855591,-10.7256870269775,45.0340538024902,35.4949531555176,12.4339504241943,SHAKE
-6.34383726119995,-6.7285623550415,-7.10627508163452,-10.9770374298096,-14.09375,-14.7936248779297,4.1850004196167,5.21895027160645,7.93905019760132,-4.56704998016357,-1.57905006408691,-1.1580001115799,-10.1051502227783,-7.65407514572144,-1.41872501373291,35.6490020751953,16.6870498657227,13.6219511032104,1.90987503528595,3.90458750724792,6.13346242904663,5.00238752365112,11.1571626663208,13.8943748474121,4.87395000457764,3.37995004653931,1.77105009555817,-0.27705001831055,-0.16200000047684,-0.23805001378059,11.8036870956421,10.8557624816895,6.96946239471436,-8.28900051116943,-19.7430000305176,-23.2290019989014,-3.97031259536743,-7.88383722305298,-7.19977474212646,-2.0488874912262,-8.97998714447021,-11.3826627731323,-0.98595005273819,-1.56000006198883,-0.44895002245903,-8.32095050811768,-7.55505037307739,-1.31100010871887,-14.8237371444702,-15.3844623565674,-14.3895120620728,39.6330032348633,27.2209510803223,16.5330009460449,1.4195499420166,4.25562477111816,5.51883745193481,-3.78193736076355,6.29048728942871,16.5548629760742,9.81600093841553,5.52495002746582,2.23095011711121,-4.18395042419434,-1.19595003128052,0.18195000290871,3.81012487411499,3.94102501869202,3.54763746261597,-4.84095001220703,-11.8129501342773,-16.4099998474121,-2.15338754653931,-4.70758724212646,-7.59522485733032,7.19399976730347,-0.36217498779297,-7.12813758850098,0.3160500228405,0.04800000041723,-0.14295001327991,-2.88195013999939,-7.13400030136108,-7.13400030136108,-12.844425201416,-14.8660869598389,-14.918475151062,12.2809505462646,35.3040008544922,24.4249515533447,SHAKE
-4.07426261901855,-6.58295011520386,-11.8053379058838,3.34963750839233,4.07302474975586,3.90610003471375,-3.24600005149841,-7.9960503578186,0.39195001125336,-9.31695079803467,-9.31695079803467,-3.07305026054382,-15.8720378875732,-14.2653503417969,-12.6424369812012,35.22705078125,12.3960008621216,5.15595006942749,-18.1124629974365,-9.95706272125244,-7.00012493133545,8.60983753204346,10.4970245361328,12.0527000427246,8.09205055236816,2.84400010108948,-0.67905002832413,14.4700508117676,14.4700508117676,11.5590009689331,-25.0549755096436,-23.5065879821777,-21.781925201416,-8.02095031738281,-18.7470016479492,-25.756950378418,6.58198738098145,-1.21000003814697,-7.08193731307983,16.3260631561279,17.1850242614746,18.9381504058838,-3.24600005149841,-3.01605010032654,-10.7160005569458,-19.0860004425049,-19.0860004425049,-10.5430507659912,3.23097491264343,4.26552486419678,4.92813730239868,71.5420532226563,56.1430511474609,22.1640014648438,-16.0890121459961,-16.0355243682861,-14.9258995056152,13.2940502166748,12.725212097168,13.4813251495361,16.3660507202148,9.01095008850098,4.56795024871826,-6.78900051116943,-1.77105009555817,-0.27705001831055,-11.3096494674683,-13.1400499343872,-12.4916000366211,-4.84095001220703,-12.4639501571655,-13.3450508117676,-9.38354969024658,-7.99370002746582,-6.06058740615845,8.09696292877197,4.38226270675659,-4.62233734130859,1.84800004959106,0.23895001411438,-0.64095002412796,-1.61805009841919,0.10500000417233,-1.38795006275177,-9.77597522735596,-10.5525751113892,-11.3084125518799,6.72705030441284,33.0049514770508,53.3850021362305,SHAKE
0.20157499611378,-0.37221249938011,-1.17837500572205,-1.91427493095398,-1.73153746128082,-1.42752504348755,-13.5120010375977,-8.57100009918213,8.55195045471191,-5.21805047988892,-5.21805047988892,-15.7150506973267,-15.6259126663208,-9.33679962158203,-6.96767473220825,26.1480007171631,12.856050491333,11.3620510101318,7.55053758621216,8.06561279296875,9.91457462310791,17.8496990203857,19.0415496826172,20.0783004760742,3.91695022583008,2.53695011138916,0.46905001997948,5.16195011138916,5.16195011138916,2.6340000629425,-1.79162502288818,-3.67729997634888,-8.79738712310791,-9.16995048522949,-16.1419506072998,-22.1940002441406,-14.2130994796753,-15.9916620254517,-16.1587257385254,-2.99598741531372,-1.91345000267029,1.17754995822906,-0.10500000417233,-1.29195010662079,-2.7480001449585,-9.35595035552978,-7.24905014038086,-6.44400024414063,-19.3045883178711,-18.3964004516602,-16.6673374176025,57.8670043945313,24.693000793457,5.69205045700073,4.37373733520508,9.60836219787598,9.66803741455078,10.1105127334595,17.428674697876,18.1146621704102,15.4849510192871,9.12600040435791,2.69100022315979,0.7180500626564,4.24200010299683,5.46795034408569,6.90854978561401,6.96258735656738,6.96684980392456,-5.64600038528442,-7.82895040512085,-9.16995048522949,-10.6783876419067,-10.0649995803833,-10.0036745071411,7.08372497558594,1.20449995994568,-1.3946624994278,2.00100016593933,2.65200018882751,2.99700021743774,-3.99300026893616,-4.3759503364563,-6.25305032730103,-12.0437622070313,-14.7083749771118,-14.4072494506836,-8.1739501953125,32.9290504455566,41.6629524230957,SHAKE
-6.09056234359741,-3.11643743515015,-1.60806250572205,2.73652505874634,4.88028764724731,5.30089998245239,1.81005012989044,7.90005016326904,16.40505027771,-2.99700021743774,-10.006950378418,-10.006950378418,-9.72468757629394,3.63756251335144,9.04804992675781,12.3960008621216,5.80695009231567,4.58100032806396,6.98885011672974,6.37821245193481,1.73126244544983,10.4557752609253,10.4948253631592,9.17716217041016,5.7940502166748,4.79805040359497,3.57195019721985,5.31495046615601,2.5570502281189,-2.49900007247925,8.347900390625,3.3958375453949,-1.30652499198914,-7.10100030899048,-10.4340009689331,-14.0730009078979,-5.0257625579834,-3.1099750995636,-0.99893748760223,-0.00687499996275,0.28159999847412,1.40332496166229,2.92095017433167,0.3160500228405,-0.64095002412796,-5.79300022125244,-5.79300022125244,-4.64400005340576,-12.6150751113892,-11.2679872512817,-8.45831203460693,42.7350006103516,16.9159507751465,9.02505016326904,6.61388731002808,5.14359998703003,1.93201243877411,3.90926241874695,6.53386259078979,8.31228733062744,13.5319509506226,8.20695018768311,3.80205011367798,7.72800016403198,10.0270500183105,6.92400026321411,11.3686370849609,11.7259998321533,10.4524745941162,-8.28900051116943,-12.502950668335,-16.2180004119873,-9.77281284332275,-9.5243501663208,-8.67941284179688,5.01586246490479,3.3264000415802,3.93140006065369,2.57595014572144,-3.36105012893677,-9.56700038909912,-10.3900508880615,-10.3900508880615,-9.04905033111572,-10.0423126220703,-12.1910247802734,-11.8348999023438,41.6250038146973,33.9630012512207,20.1720008850098,SHAKE
-9.5243501663208,-8.67941284179688,-6.87211227416992,3.3264000415802,3.93140006065369,5.80208730697632,-3.36105012893677,-9.56700038909912,-11.2140007019043,-10.3900508880615,-9.04905033111572,-3.37995004653931,-12.1910247802734,-11.8348999023438,-9.59640026092529,33.9630012512207,20.1720008850098,11.6680507659912,11.0504627227783,12.3649625778198,12.500675201416,15.143424987793,19.3591747283936,18.5491619110107,10.4670009613037,2.80605006217957,2.72895002365112,-2.07705020904541,2.86305022239685,2.86305022239685,1.79795002937317,1.94768750667572,-2.60246253013611,-0.85695004463196,-7.90605020523071,-31.3500022888184,-1.9325624704361,-4.31640005111694,-8.46889972686768,6.79167509078979,2.09096240997314,-2.99378752708435,0.3160500228405,-3.20805025100708,-7.30605030059814,-10.2370500564575,-7.28700017929077,-3.83895015716553,-17.9018115997314,-18.3431873321533,-18.3595504760742,60.4330520629883,54.610954284668,34.1929512023926,-5.47552490234375,5.55747509002686,7.0717625617981,-5.43179988861084,10.8779001235962,18.8031253814697,10.5820503234863,1.92495012283325,0.69900006055832,-23.29905128479,-12.1140003204346,-3.8779501914978,-3.54034996032715,-2.57193756103516,-1.6414749622345,2.55105018615723,-2.23605012893677,-10.2040500640869,3.9397873878479,-2.59270000457764,-3.56248736381531,16.4338626861572,8.96761226654053,0.24846249818802,3.18900012969971,3.37995004653931,0.43095001578331,3.05505013465881,-2.49900007247925,-9.35595035552978,-9.45119953155518,-10.5106372833252,-10.4926252365112,-9.55305004119873,14.0820007324219,51.355052947998,SHAKE
-8.12556266784668,-11.9233121871948,-14.369987487793,-7.42829990386963,-10.9466495513916,-10.7437000274658,-5.31495046615601,-9.1069507598877,-11.5969505310059,-9.70005035400391,-8.81895065307617,-5.21805047988892,-11.5424375534058,-11.9281253814697,-12.3644123077393,66.7540512084961,38.4450035095215,22.9309501647949,-0.52346247434616,9.40912532806396,10.4699373245239,-1.0839124917984,18.0268001556396,19.221399307251,9.54795074462891,-1.44495010375977,-1.78995013237,-17.9749507904053,-5.67795038223267,1.40805006027222,-5.30488729476929,-5.31904983520508,-5.24108743667603,-10.3570508956909,-18.4789505004883,-40.735050201416,-1.82517504692078,-5.1709623336792,-5.15789985656738,11.3209247589111,1.26046252250671,-10.9313879013062,-1.59900009632111,-8.80005073547363,-16.7680511474609,-14.3359508514404,-14.3359508514404,-10.9650001525879,-4.69452476501465,-5.06206226348877,-5.0404748916626,73.4959564208984,44.6119537353516,22.969051361084,-6.16687488555908,1.95236253738403,6.72072505950928,-13.0212497711182,0.95700001716614,12.9375123977661,12.1140003204346,7.05795049667358,5.9850001335144,-18.7030506134033,-6.40605020523071,-2.3449501991272,-0.15510000288486,-0.48276248574257,-1.53559994697571,-11.5450506210327,-21.1219501495361,-29.2050018310547,-3.28831243515015,-7.06351232528687,-7.57116222381592,7.62258768081665,-0.22027499973774,-7.00974988937378,-8.57100009918213,-10.1800508499146,-7.45995044708252,-14.3359508514404,-10.1599502563477,-4.98900032043457,-5.48680019378662,-5.88458728790283,-5.93821239471436,51.8910026550293,45.6079521179199,25.4590511322021,SHAKE
7.83516263961792,2.61470007896423,-12.8127994537354,13.8830995559692,15.7063503265381,17.1356620788574,-6.65505027770996,5.9089503288269,15.6000003814697,-9.47100067138672,-3.80100011825562,-0.62205004692078,-19.0177631378174,-20.3352870941162,-19.7782745361328,29.7109508514404,10.0590000152588,0.71205002069473,-30.668550491333,-22.2045993804932,-7.93058729171753,16.1833381652832,20.9731502532959,21.7729873657227,6.7900505065918,2.46105003356934,-0.44895002245903,6.19605016708374,3.85905027389526,2.47995018959045,-19.7326240539551,-18.202938079834,-17.0120506286621,-13.1539506912231,-17.2140007019043,-15.7590007781982,11.5953750610352,-2.77337503433228,-9.29541206359863,22.3324756622314,17.3866004943848,16.8649253845215,-4.27995014190674,3.49500012397766,14.56605052948,-12.9180002212524,-3.61005020141602,-1.42605006694794,-13.2775497436523,-13.7022876739502,-14.9903869628906,38.7900009155273,17.9119510650635,-1.77705013751984,-28.9115753173828,-30.2790126800537,-27.4080123901367,8.16763782501221,6.20248746871948,2.80156254768372,12.1909503936768,6.59805011749268,2.99700021743774,4.81695032119751,4.81695032119751,3.43800020217896,1.81128752231598,2.93851256370544,4.47397518157959,-5.10900020599365,-7.82895040512085,-13.2690010070801,-10.6783876419067,-5.494225025177,-7.90157508850098,4.10918760299683,5.85777473449707,10.3714876174927,-7.19205045700073,-4.01205015182495,-2.9389500617981,-6.40605020523071,-10.8109502792358,-9.77700042724609,-7.26096248626709,-8.58068752288818,-9.40431213378906,5.04105043411255,30.9750022888184,7.99095058441162,SHAKE
-5.73897504806519,-9.98002529144287,-17.2055130004883,4.98767518997192,9.26846218109131,11.3580503463745,-4.54800033569336,2.76705002784729,25.0240516662598,-10.8109502792358,-8.43600082397461,2.90205025672913,-14.3101749420166,-14.8341875076294,-15.2792749404907,14.5410003662109,-4.15200042724609,-5.68395042419434,-27.8631381988525,-21.4502754211426,-19.5593757629395,7.41069984436035,4.3173623085022,3.29683756828308,6.33000040054321,0.12405000627041,-1.98195004463196,5.65995025634766,4.39604997634888,-1.69395005702972,-0.00522499997169,1.3142249584198,1.94713747501373,-7.29300022125244,-12.8089504241943,-15.4140005111694,-8.39066219329834,-6.1220498085022,-15.9769496917725,4.62481260299683,6.0468373298645,11.7492370605469,-6.04200029373169,-2.40300011634827,15.6390008926392,-11.6160001754761,-10.4670009613037,0.94800007343292,-13.7768125534058,-14.0794496536255,-14.4079370498657,41.6250038146973,17.8740005493164,-3.61500024795532,-24.6995372772217,-26.512336730957,-19.8499126434326,7.27883768081665,5.42038726806641,2.97962498664856,10.3140001296997,3.64800024032593,-0.33495002985001,4.8550500869751,6.65595054626465,4.7790002822876,1.0975250005722,2.43086242675781,3.00368738174438,-6.2590503692627,-14.4949502944946,-17.941951751709,-13.510199546814,-9.65964984893799,-15.9392747879028,4.66647481918335,5.42588758468628,12.725212097168,-6.92295026779175,-3.47595024108887,8.93505001068115,-12.6120004653931,-12.6120004653931,-3.03495025634766,-5.53671264648438,-5.99431228637695,-6.17484998703003,36.6829528808594,34.4610023498535,8.79495048522949,SHAKE
-9.65964984893799,-15.9392747879028,-17.0916633605957,5.42588758468628,12.725212097168,14.2463750839233,-3.47595024108887,8.93505001068115,22.3420505523682,-12.6120004653931,-3.03495025634766,2.7480001449585,-5.99431228637695,-6.17484998703003,-6.53743743896484,34.4610023498535,8.79495048522949,-2.35095000267029,-25.1794128417969,-21.1230239868164,-18.6264381408691,12.195837020874,8.84647464752197,7.00713729858398,7.36395025253296,2.26905012130737,-1.1010000705719,4.16595029830933,4.16595029830933,2.0590500831604,1.51621246337891,1.53670001029968,1.4748250246048,-10.8940505981445,-14.6089506149292,-15.949951171875,-10.2273874282837,-13.5110244750977,-17.5648002624512,5.69002485275269,10.4194746017456,12.2721500396729,-4.93095016479492,0.16200000047684,8.0149507522583,-12.4969501495361,-9.54705047607422,-3.72405028343201,-11.2176628112793,-11.3396253585815,-11.2943878173828,43.5400505065918,28.7530517578125,-5.37705039978027,-23.8211879730225,-24.5174865722656,-17.5903739929199,10.8179502487183,8.68367481231689,5.63199996948242,15.1789503097534,8.35995006561279,4.33800029754639,3.93600010871887,6.8860502243042,6.8860502243042,2.15764999389648,2.39621257781982,2.86948752403259,-3.11700010299683,-4.26705026626587,-6.71805047988892,-14.0955371856689,-7.37440013885498,-4.95371246337891,4.81016254425049,4.40976238250732,5.88665008544922,-3.8209502696991,-3.13095021247864,-1.21605002880096,-3.68595027923584,-11.6160001754761,-15.178050994873,-6.34012508392334,-10.2137746810913,-13.6537494659424,-6.22005033493042,21.3220500946045,19.981050491333,SHAKE
-4.95371246337891,-4.35269975662231,-13.6945877075195,5.88665008544922,9.27066230773926,12.4841747283936,-1.21605002880096,-1.21605002880096,2.84400010108948,-15.178050994873,-15.178050994873,-0.5830500125885,-13.6537494659424,-14.2779998779297,-14.7362871170044,19.981050491333,-1.20195007324219,-4.84095001220703,-24.2163619995117,-26.0305366516113,-16.2603378295898,10.6424999237061,6.54816246032715,4.0689001083374,15.9450006484985,2.84400010108948,-0.79395002126694,4.39604997634888,8.99295043945313,1.36905002593994,3.77753758430481,4.3935375213623,5.32908725738525,-6.67995023727417,-12.1200008392334,-17.5969505310059,-10.2795000076294,-8.01267528533936,-9.13742542266846,4.99083757400513,6.05054998397827,10.9250621795654,-6.34905052185059,-4.74000024795532,-0.7180500626564,-13.5690002441406,-13.4929504394531,-7.74705028533936,-10.4944124221802,-10.9729127883911,-11.539137840271,36.8359527587891,13.3920001983643,-2.46600008010864,-21.4190616607666,-29.6196994781494,-22.5961990356445,11.0698499679565,8.56102466583252,4.15841245651245,23.4150009155273,6.4830002784729,1.46505010128021,6.65595054626465,9.33705043792725,6.3880500793457,2.44241237640381,3.63343739509583,4.94202518463135,-2.88705015182495,-4.34295034408569,-10.663950920105,-13.3876876831055,-7.65778732299805,-3.99547505378723,5.02053737640381,4.65382480621338,5.01792478561401,-4.27995014190674,-4.54800033569336,-2.51805019378662,-7.55505037307739,-9.43200016021728,-9.43200016021728,-10.7284374237061,-12.2036752700806,-12.6176872253418,7.87605047225952,24.5779514312744,25.2670516967773,SHAKE
-18.9162864685059,-19.6865615844727,-19.2732372283936,16.4378490447998,19.3499622344971,20.3699378967285,2.42295002937317,8.55195045471191,29.1229515075684,-11.3089504241943,-0.54495000839233,12.0949506759644,-2.64261245727539,-2.15187501907349,-0.37729999423027,-3.80700016021729,-7.44600057601929,-2.23605012893677,-11.7676620483398,-12.8698625564575,-13.5104751586914,8.10122489929199,6.15656232833862,5.57053756713867,0.66000002622604,-2.25,-4.35705041885376,10.525050163269,2.09700012207031,-0.27705001831055,4.46971225738525,4.37882518768311,2.95941257476807,-5.91405010223389,-17.2140007019043,-19.0150508880615,-8.68807506561279,-10.9014120101929,-17.3943004608154,7.85317516326904,11.4298248291016,15.1783494949341,-6.96195030212402,-5.81295013427734,10.8880500793457,-16.4040012359619,-14.0670003890991,0.56505000591278,0.24736249446869,-0.23141250014305,-0.99192500114441,39.2490005493164,21.7810516357422,2.70405006408691,-18.3177490234375,-16.9890880584717,-17.0070991516113,7.99466228485107,6.35772514343262,4.5025749206543,16.5199508666992,9.08805084228516,3.7630500793457,4.24200010299683,7.26900053024292,7.26900053024292,4.78018760681152,4.96705007553101,5.18911266326904,-1.43205010890961,-3.38505005836487,-3.88305020332336,-13.8367624282837,-10.1282501220703,-0.99659997224808,4.48579978942871,4.34555006027222,6.03102493286133,0.04800000041723,0.00900000054389,0.39195001125336,-4.22205018997192,-4.22205018997192,-5.44800043106079,-4.9469747543335,-6.45782518386841,-6.16935014724731,-12.6940507888794,-6.91005039215088,6.30495023727417,SHAKE
-1.2227874994278,-1.5665374994278,-3.55341243743896,10.5529870986938,15.768500328064,17.8567123413086,0.81405001878738,1.35000002384186,4.91295003890991,-10.3129501342773,-9.12600040435791,-4.14600038528442,-8.44153785705566,-12.7397871017456,-14.1453123092651,46.7190017700195,20.3260517120361,1.8229501247406,-25.0120754241943,-26.6703243255615,-27.8561248779297,12.3325128555298,8.4823751449585,5.95760011672974,12.6120004653931,3.18900012969971,0.69900006055832,-1.23405003547668,4.7790002822876,4.39604997634888,4.5871376991272,7.70921230316162,7.41702508926392,-9.66795063018799,-14.6089506149292,-17.1760501861572,-8.66731262207031,-7.94956254959106,-8.10809993743896,7.3874626159668,5.5618748664856,8.82419967651367,-2.97795009613037,-0.33495002985001,2.6140501499176,-11.731050491333,-9.31695079803467,-5.41005039215088,-16.3942623138428,-16.4789619445801,-16.7183494567871,45.9150009155273,31.5880508422852,3.50895023345947,-29.0641994476318,-31.3009128570557,-25.8614120483398,10.5440502166748,11.1040878295898,7.68941259384155,16.9409999847412,5.75505018234253,2.76705002784729,-2.57505011558533,2.25,2.25,2.94263744354248,4.21698760986328,6.19726228713989,-5.87505006790161,-10.0129508972168,-16.6399517059326,-9.09356212615967,-6.8278374671936,-4.48373746871948,5.40196228027344,4.29879999160767,4.52567481994629,-3.93495011329651,-2.7480001449585,0.54495000839233,-10.006950378418,-10.5430507659912,-8.55105018615723,-10.1386995315552,-10.8256502151489,-11.4912872314453,35.3040008544922,40.1689529418945,9.52305030822754,SHAKE
