gyro_x_0,gyro_y_0,gyro_z_0,acc_x_0,acc_y_0,acc_z_0,gyro_x_1,gyro_y_1,gyro_z_1,acc_x_1,acc_y_1,acc_z_1,gyro_x_2,gyro_y_2,gyro_z_2,acc_x_2,acc_y_2,acc_z_2,gyro_x_3,gyro_y_3,gyro_z_3,acc_x_3,acc_y_3,acc_z_3,gyro_x_4,gyro_y_4,gyro_z_4,acc_x_4,acc_y_4,acc_z_4,gyro_x_5,gyro_y_5,gyro_z_5,acc_x_5,acc_y_5,acc_z_5,gyro_x_6,gyro_y_6,gyro_z_6,acc_x_6,acc_y_6,acc_z_6,gyro_x_7,gyro_y_7,gyro_z_7,acc_x_7,acc_y_7,acc_z_7,gyro_x_8,gyro_y_8,gyro_z_8,acc_x_8,acc_y_8,acc_z_8,gyro_x_9,gyro_y_9,gyro_z_9,acc_x_9,acc_y_9,acc_z_9,gyro_x_10,gyro_y_10,gyro_z_10,acc_x_10,acc_y_10,acc_z_10,gyro_x_11,gyro_y_11,gyro_z_11,acc_x_11,acc_y_11,acc_z_11,gyro_x_12,gyro_y_12,gyro_z_12,acc_x_12,acc_y_12,acc_z_12,gyro_x_13,gyro_y_13,gyro_z_13,acc_x_13,acc_y_13,acc_z_13,gyro_x_14,gyro_y_14,gyro_z_14,acc_x_14,acc_y_14,acc_z_14,motion_type
1.73992502689362,1.93338751792908,2.35234999656677,-7.95900058746338,-7.21005010604858,-3.42900013923645,-0.06723749637604,0.1024374961853,0.0961124971509,1.21811246871948,2.63257503509521,3.01578760147095,9.07905006408691,6.8860502243042,5.08095026016235,1.01295006275177,0.1489500105381,-1.57095003128052,5.70638751983643,4.87533760070801,2.5309624671936,0.95400005578995,4.71495008468628,12.9709510803223,15.8897752761841,15.3976621627808,11.1200370788574,11.7992877960205,9.39881229400635,9.74930000305176,-30.6019515991211,-36.1360511779785,-31.9050006866455,-10.3489503860474,7.80600023269653,21.1350002288818,10.8495750427246,9.47251224517822,9.74311256408691,9.63105010986328,-35.4460525512695,-62.4439544677734,1.5801500082016,12.3013000488281,12.3256378173828,8.58082485198975,15.1890745162964,12.7374496459961,24.9970512390137,19.9879512786865,11.5219507217407,23.0650520324707,40.2150001525879,17.5750503540039,9.40183734893799,6.97056245803833,4.88234996795654,-0.21405000984669,1.00905001163483,5.07705020904541,8.64957523345947,9.60478782653809,10.3727245330811,0.93816250562668,-1.96185004711151,-16.6846618652344,3.18900012969971,3.94395017623901,4.61400032043457,-1.70100009441376,0.89595001935959,1.30605006217957,-4.2358250617981,-3.73793745040894,-3.72679996490479,0.03195000067353,-3.3139500617981,-7.57395029067993,8.85348701477051,5.29223728179932,3.69971251487732,14.2301502227783,17.4751491546631,14.9628877639771,10.6999502182007,10.782000541687,10.6930503845215,-0.00300000002608,1.60200011730194,1.77705013751984,SHAKE
-0.01319999992847,-0.00893750041723,0.01237499993294,-2.4019501209259,-2.52705001831055,-2.49795007705688,-0.02708750031888,-0.03176249936223,-0.06792499870062,-0.07150000333786,-0.01086249947548,0.54422497749329,9.62805080413818,10.195050239563,14.2800006866455,2.44800019264221,2.32305002212524,3.25200009346008,-0.14478750526905,-0.92193746566772,-1.56983745098114,-11.4400501251221,-18.4530010223389,-18.9270000457764,-0.40438750386238,-0.38651248812675,-0.41414999961853,1.810187458992,1.78145003318787,1.68162500858307,16.2100505828857,11.2249507904053,3.9100501537323,2.3730001449585,2.32305002212524,2.12205004692078,-2.54966259002686,-5.1727499961853,-16.4155750274658,-6.51495027542114,22.0399513244629,60.0880546569824,-20.1063499450684,-14.7159376144409,-12.4363250732422,-18.804500579834,-15.9384498596191,-11.6379995346069,-39.6510009765625,-45.949951171875,-30.6000022888184,-0.56100004911423,1.41600000858307,-14.5480508804321,-2.54333758354187,-0.50104999542236,-4.33798742294312,-56.2060508728027,-62.3020515441895,-48.3720016479492,7.98874998092651,8.39753723144531,7.91587495803833,9.00267505645752,5.98262500762939,3.40697503089905,20.1840000152588,9.0600004196167,3.53895020484924,33.8629531860352,9.11100006103516,-8.2300500869751,3.97663736343384,3.35046243667603,3.37466239929199,2.95500016212463,7.99995040893555,9.3390007019043,8.24724960327148,-1.25743746757507,-1.44869995117188,-5.36978769302368,-27.6550998687744,-14.8306121826172,1.72200012207031,2.83500003814697,6.64005041122437,4.01100015640259,4.2049503326416,0.74100005626678,SHAKE
-1.71201252937317,-3.50734996795654,-2.58596253395081,26.8650016784668,45.7750511169434,5.83800029754639,-14.3433122634888,-11.7376871109009,0.74909996986389,-6.41960000991821,2.54209995269775,11.2956247329712,-3.8580002784729,52.4260520935059,48.7840538024902,-6.13995027542114,22.0140018463135,28.6750507354736,14.9188871383667,13.2750749588013,10.2711124420166,-20.9029502868652,-12.373950958252,-12.2779502868652,3.61047506332397,2.83373737335205,2.44516253471375,2.12753748893738,1.4221625328064,2.71452498435974,-13.4620504379272,-23.5800018310547,-31.9770011901855,-10.7440509796143,-16.2340507507324,-13.3990507125854,-16.644100189209,-11.708399772644,-9.29046249389648,33.2719497680664,-14.1630010604858,-45.9330024719238,-4.92813730239868,5.58827495574951,5.56874990463257,1.35465002059937,0.92166250944138,-0.15015000104904,51.400951385498,28.8199520111084,13.6090507507324,18.0580501556396,19.3300514221191,12.5989503860474,11.4060373306274,6.64620018005371,4.42694997787476,-11.7610502243042,10.7869501113892,32.5890007019043,-11.8545627593994,-8.68133735656738,-7.10682487487793,-1.51566255092621,-5.32674980163574,-2.90317487716675,-27.082950592041,-19.7419509887695,1.80795013904572,-12.2910003662109,-5.46000003814697,-3.99000024795532,-8.90106201171875,-5.9278998374939,15.9132871627808,-45.058952331543,-66.8800506591797,-47.0869522094727,7.47711229324341,5.7546501159668,4.90943765640259,1.98467493057251,0.24681249260902,-0.02186249941587,26.601001739502,-3.20505023002625,-18.3580513000488,14.2990503311157,-0.05805000290275,-10.945050239563,SHAKE
-18.0882625579834,-15.3796501159668,-9.57742500305176,38.4820518493652,9.28305053710938,-26.4619522094727,-5.00802516937256,-3.74838757514954,9.2056245803833,-0.92771250009537,8.89033699035645,2.85051250457764,45.8820037841797,53.053050994873,36.376953125,22.525951385498,27.9040508270264,14.7880506515503,12.8315000534058,9.77611255645752,7.57308769226074,-9.80505084991455,-9.39795017242432,-2.12895011901855,2.62129998207092,-11.8518123626709,-8.41857528686523,6.26133728027344,-2.79606246948242,-4.04029989242554,-32.7120018005371,-29.4679508209229,-31.3609523773193,-16.5400505065918,-12.6330003738403,-9.01500034332275,-13.0388498306274,-10.1219253540039,-7.88259983062744,-9.9660005569458,-25.4850006103516,-63.376953125,-3.3379499912262,5.91222476959229,5.14305019378662,5.38298749923706,-0.767662525177,-1.27929997444153,54.4180526733398,21.3810005187988,-9.15000057220459,33.0160522460938,11.1919507980347,-4.79400014877319,7.70618724822998,-0.91684997081757,-17.4366493225098,-1.95195007324219,50.226001739502,38.2450523376465,-8.97503757476807,-5.56696224212646,-1.72933745384216,-5.72247505187988,0.01113750040531,8.05337524414063,-30.9019508361816,17.0719509124756,52.2720031738281,-7.1569504737854,3.20400023460388,29.7570018768311,14.683762550354,12.061637878418,6.46964979171753,-29.802001953125,-10.546950340271,4.93800020217896,3.83404994010925,-11.4670877456665,-8.57944965362549,0.98793751001358,-8.15608787536621,-3.75938749313354,-32.8990516662598,-32.4990005493164,-21.3940505981445,-24.1759510040283,-8.18895053863525,-4.59794998168945,SHAKE
4.9398250579834,-0.16032500565052,-15.7363252639771,7.90005016326904,30.7770023345947,27.0660018920898,-4.61051225662231,-3.91957497596741,-3.95807504653931,-0.45210000872612,0.53872501850128,3.23138737678528,-6.84900045394897,28.4350509643555,52.8690032958984,-9.13304996490478,6.82200050354004,33.8200531005859,14.9962997436523,13.4516248703003,9.56422519683838,-17.6989517211914,-5.55300045013428,-8.2900505065918,3.76804995536804,3.17033743858337,-11.681037902832,-1.45089995861053,0.07122500240803,-6.3918251991272,-21.8080501556396,-31.7590522766113,-30.552001953125,-19.0980014801025,-23.1150016784668,-10.7059507369995,-11.657112121582,-9.06248760223389,-7.09637498855591,-10.8130502700806,-23.1630020141602,-60.8869514465332,-0.74497497081757,6.09482479095459,5.69304990768433,7.08152484893799,-1.09037494659424,-1.34667503833771,53.2950019836426,20.650951385498,5.7199501991272,36.6280517578125,9.49200057983398,2.07705020904541,10.2315120697021,7.86733722686768,5.45957517623901,-9.5080509185791,-2.91195011138916,15.1039505004883,3.07628750801086,-9.808424949646,-7.14257478713989,4.97310018539429,-6.10829973220825,-1.35286247730255,-30.5809516906738,-30.8010005950928,-17.69700050354,-21.65505027771,-8.83605003356934,-7.68600034713745,-9.87181282043457,-7.93265008926392,14.9868125915527,-17.965051651001,-61.2799530029297,-32.9910011291504,5.75162506103516,4.85209989547729,4.76836252212524,-1.68712496757507,-2.67148756980896,-2.67960000038147,20.3040008544922,5.30400037765503,-10.2679500579834,19.0660514831543,8.50305080413818,-5.01405000686646,SHAKE
0.77756249904633,-16.2057495117188,-12.7312622070313,43.6849517822266,9.68595027923584,-7.18800020217896,-5.65482473373413,-4.72697496414185,6.30836248397827,0.91767501831055,1.25537502765656,-0.00522499997169,7.74795055389404,47.0500526428223,38.0340003967285,-1.95900011062622,17.6470508575439,26.5939521789551,13.9867753982544,11.6619253158569,10.5741624832153,-0.60600000619888,-9.58305072784424,-10.9860000610352,3.8596248626709,-2.44860005378723,-12.1743869781494,-1.69303750991821,5.96777486801147,-7.04591226577759,-32.2690505981445,-27.8659515380859,-29.7240009307861,-25.3560009002686,-18.9250507354736,-12.7480506896973,-10.4064121246338,-8.45913791656494,-7.36807489395142,-6.23505020141602,-17.0599498748779,-64.324951171875,-1.62236249446869,7.36243724822998,6.83402490615845,11.3269748687744,-0.518649995327,-1.3639999628067,49.0660514831543,20.6269512176514,7.33200025558472,32.3119506835938,15.528000831604,6.36495018005371,9.80815029144287,4.98148727416992,-17.5755252838135,-10.9950008392334,16.3750514984131,36.6310501098633,-10.4429874420166,-7.8234748840332,-6.08300018310547,-4.80301237106323,-0.96538752317429,0.73589998483658,-27.9330005645752,-18.4680004119873,2.02305006980896,-7.13595056533813,-3.84600019454956,-0.85995006561279,-8.03811264038086,-3.77822494506836,14.8152122497559,-46.6650009155273,-76.5030059814453,-44.2780532836914,5.68218755722046,5.12902498245239,4.44124984741211,-1.11746251583099,-1.37087500095367,-1.25207495689392,10.4230508804321,-0.20205001533031,-7.07895040512085,6.63795042037964,-1.61400008201599,-8.46000003814697,SHAKE
19.3056869506836,16.4256114959717,14.0126247406006,34.2700500488281,22.8829517364502,-5.8690505027771,2.70531249046326,1.70046246051788,10.4856128692627,5.80758762359619,5.68466234207153,3.76846241950989,-3.82200026512146,42.5040016174316,54.7980041503906,1.84395003318787,13.1569509506226,24.7579517364502,20.1137752532959,17.267936706543,14.5129871368408,-4.89195013046265,-8.87100028991699,-7.53300046920776,5.36552476882935,4.15951251983643,-12.1192502975464,-0.00591249996796,3.94363737106323,-1.2199000120163,-27.6379508972168,-33.4180526733398,-28.9429512023926,-15.5730009078979,-17.4139499664307,-11.9550008773804,-16.4749755859375,-10.2416877746582,-7.37330007553101,30.0420017242432,-20.4090003967285,-48.5449523925781,-2.04531240463257,6.27577495574951,5.95388746261597,2.58788752555847,-0.40810000896454,-1.06040000915527,51.786003112793,27.6330013275146,12.5659503936768,37.9000511169434,25.0429515838623,13.4089508056641,10.8091497421265,9.05052471160889,6.88462495803833,-10.8510007858276,-11.1270008087158,-4.28894996643066,3.6536500453949,-5.10427474975586,-9.59722518920898,-0.00357499998063,3.69256258010864,-5.26308727264404,-34.2589530944824,-28.1749515533447,-31.123950958252,-21.82200050354,-21.9870014190674,-13.8349504470825,-9.11583709716797,-8.04594993591309,-3.94638752937317,-10.5190505981445,-32.650951385498,-74.4460525512695,6.42537498474121,6.75881242752075,6.8558874130249,1.30253744125366,-0.68309998512268,-1.46739995479584,36.7189521789551,21.4150505065918,10.1980504989624,30.1039505004883,20.6710510253906,9.93900012969971,SHAKE
-8.95358753204346,-12.8985996246338,-9.11583709716797,51.1140022277832,4.67700004577637,-10.5190505981445,-6.32513761520386,-5.05945014953613,6.42537498474121,0.50256252288818,2.93424987792969,1.30253744125366,5.00205039978027,40.1329536437988,36.7189521789551,4.69800043106079,23.0389518737793,30.1039505004883,12.9815120697021,11.2825622558594,9.34353733062744,-9.18000030517578,-9.87195014953613,-10.1449508666992,4.90269994735718,4.11221265792847,-3.79266238212585,-1.91124999523163,-1.27888751029968,8.77442455291748,-18.7440013885498,-26.7570018768311,-24.576000213623,-15.106050491333,-21.6070518493652,-19.6080017089844,-15.4068746566772,-11.1681623458862,-8.53558731079102,37.1719512939453,-7.0009503364563,-21.0870018005371,-4.39944982528687,8.18179988861084,8.35642528533936,6.5517373085022,1.32605004310608,0.23952500522137,42.2740516662598,24.0100517272949,15.0150003433228,35.7400512695313,15.9199504852295,9.08895015716553,9.45339965820312,6.55407476425171,6.72127485275269,-6.7020001411438,-2.65305018424988,-3.42000007629395,3.88822507858276,4.0689001083374,-12.776912689209,0.42446249723434,10.4114999771118,4.09667491912842,-16.123950958252,-30.1090507507324,-21.7099514007568,-13.2910509109497,-22.3300514221191,-20.0239505767822,-18.4551124572754,-15.7084121704102,-8.33882522583008,35.9220008850098,1.42095005512238,-50.7949523925781,-3.98516249656677,6.46621227264404,5.30364990234375,2.59902501106262,3.98420000076294,-0.59661251306534,38.1820526123047,38.566951751709,18.0919513702393,32.1300010681152,27.4219512939453,14.8429508209229,SHAKE
-19.1698379516602,-15.6807746887207,-9.09796237945557,16.8730506896973,-4.96200037002563,-30.2689514160156,5.78792476654053,4.85746240615845,4.44991254806519,1.14427495002747,0.779212474823,0.53253751993179,37.0020027160645,25.8469505310059,15.4360504150391,11.2369508743286,10.701000213623,8.65095043182373,8.7023754119873,5.79507493972778,5.08777475357056,-4.85100030899048,0.55605000257492,4.86405038833618,-0.59399998188019,-9.35343742370606,-8.24793720245361,9.3226375579834,2.39208745956421,-1.66952502727509,-24.5880012512207,-18.2260513305664,-19.5270004272461,-17.7900009155273,-12.4650001525879,-6.13995027542114,-15.6974124908447,-12.5333995819092,-9.59103775024414,6.93195009231567,-12.7410001754761,-39.2809524536133,-3.66464996337891,6.82041263580322,3.38923740386963,1.11388754844666,-1.34516251087189,-2.98856258392334,37.5550498962402,24.3240013122559,10.0200004577637,22.6750507354736,26.2300510406494,14.4330005645752,10.5969877243042,7.00589990615845,3.25160002708435,-6.61800050735474,0.24705001711845,6.12495040893555,6.4528751373291,-13.4051494598389,-7.60086250305176,-3.87914991378784,-5.76248741149902,-0.24378749728203,-18.8819999694824,-18.0919513702393,-6.71895027160645,-19.8090000152588,-7.26300048828125,0.94905006885529,-8.19445037841797,21.106388092041,14.7441253662109,-24.5560512542725,-44.4979515075684,-5.34000015258789,7.34978723526001,5.54812479019165,4.48745012283325,-1.43838751316071,-2.10333752632141,-2.89588737487793,11.1070508956909,3.07005023956299,-10.5960006713867,12.9270009994507,2.50500011444092,-10.3219509124756,SHAKE
-5.27505016326904,7.69161224365234,14.7452249526978,13.3180503845215,23.1510009765625,19.1980514526367,5.04129981994629,2.23245000839233,-6.52038764953613,1.38916254043579,1.45447504520416,-1.81967496871948,-7.94100046157837,35.0170516967773,31.3609523773193,-0.01695000007749,3.60900020599365,6.68805027008057,-15.1368246078491,-11.6617870330811,-8.98810005187988,-2.66295003890991,-2.9239501953125,-6.24495029449463,-3.44574999809265,-3.56235003471375,-3.94790005683899,-2.79056239128113,-2.10361242294312,-5.46782493591309,-2.88900017738342,-10.5670509338379,-15.0300006866455,-2.18204998970032,-3.70905017852783,-3.43695020675659,20.5391998291016,13.773099899292,11.1593627929688,26.5489521026611,17.6419506072998,1.34895002841949,3.87502503395081,-6.18241262435913,-4.8775372505188,2.7644374370575,-4.16171264648438,-4.46971225738525,37.2940521240234,32.8549499511719,22.2409515380859,5.89995050430298,8.30400085449219,7.91595029830933,-9.29500007629394,-7.32558727264404,-5.48611259460449,-4.03695011138916,0.93195003271103,10.5169506072998,12.7576627731323,9.527099609375,6.68896245956421,5.47923755645752,3.33396244049072,2.36225008964539,-15.9060010910034,-16.9360504150391,-10.1959505081177,-8.30400085449219,-5.48805046081543,1.05195009708405,10.8850498199463,-18.7482624053955,-15.0580377578735,-38.3140525817871,-28.4899520874023,-12.0220508575439,-5.61453723907471,-4.33578729629517,-3.37919998168945,-3.44671249389648,-3.33135008811951,-3.27236247062683,5.91900014877319,-2.56995010375977,-11.7709503173828,4.27905035018921,-2.7610502243042,-9.48405075073242,SHAKE
-5.48611259460449,14.29518699646,15.8331251144409,10.5169506072998,33.7819519042969,17.2350006103516,6.68896245956421,2.81710004806519,-11.1615619659424,2.36225008964539,2.34808754920959,-4.77785015106201,-10.1959505081177,30.5830516815186,30.7290019989014,1.05195009708405,12.2160005569458,14.3620510101318,-15.0580377578735,-8.60901260375977,-6.68456268310547,-12.0220508575439,-5.36400032043457,-1.78200006484985,-3.37919998168945,-2.81173753738403,-0.88508749008179,-3.27236247062683,-2.96738743782043,7.88438749313354,-11.7709503173828,-18.7099514007568,-13.5889511108398,-9.48405075073242,-15.6780004501343,-11.5030508041382,2.32471251487732,12.3183498382568,10.4909753799438,32.3790016174316,7.66305017471313,-36.7410011291504,7.5376124382019,-9.86273765563965,-7.49292516708374,-0.73919999599457,-4.62467479705811,-3.79953742027283,37.1119499206543,26.7370510101318,17.5939502716064,10.4710502624512,9.38895034790039,6.64500045776367,-5.25813770294189,-2.40322494506836,-1.61411249637604,-3.882000207901,11.2320003509521,22.7700004577637,9.3333625793457,5.84732484817505,2.28827500343323,4.82776260375977,4.72504997253418,4.00675010681152,-17.7810001373291,-13.9410009384155,27.5560512542725,-2.37105011940002,-1.33395004272461,2.8090500831604,-23.7749881744385,-18.2081623077393,-10.479700088501,-38.5219535827637,-15.8389511108398,-8.85195064544678,-4.88674974441528,-4.01348733901978,-1.68946254253387,-1.70114994049072,-1.87948751449585,-0.15180000662804,0.78600001335144,-7.74195051193237,-25.4809513092041,-0.97500002384186,-7.27500057220459,-19.8589515686035,SHAKE
-3.97017502784729,16.4206619262695,15.7613496780396,27.1810512542725,18.2190017700195,0.34305000305176,2.92558741569519,-0.89141249656677,-10.8748750686646,3.05057501792908,2.53453755378723,-2.37421250343323,43.1290512084961,47.6470527648926,37.6960525512695,12.4699506759644,15.8460006713867,13.5210008621216,-9.19600009918213,-6.9328875541687,-5.26968765258789,-5.10795021057129,-5.51700019836426,-1.83900010585785,-4.3720874786377,14.3105878829956,6.98334980010986,-0.62603747844696,8.14481258392334,0.94448751211166,-12.3820505142212,-16.0429515838623,-20.5660514831543,-11.5099506378174,-12.0180006027222,-8.66595077514648,14.0801372528076,12.5019121170044,11.0642127990723,8.31105041503906,-4.39905023574829,-55.6150512695313,5.47401237487793,9.37007522583008,8.28079986572266,8.87534999847412,1.56172502040863,1.03551244735718,43.6860008239746,22.746000289917,12.3979501724243,22.969051361084,9.80505084991455,5.21805047988892,15.8596620559692,12.9856376647949,10.7293996810913,-6.89100027084351,-4.00605010986328,0.52305001020432,4.74842500686646,18.0448131561279,-7.28144979476929,13.9968128204346,16.4899616241455,-4.64804983139038,-20.0599517822266,-20.5060501098633,-18.3460502624512,-17.8380012512207,-10.252950668335,-0.65205001831055,-14.6178998947144,-11.5871248245239,-7.86004972457886,-10.3300504684448,-37.7230529785156,-51.693000793457,5.52942514419556,5.24053764343262,4.35888767242432,2.27782487869263,-1.41033744812012,-2.4814624786377,33.6420021057129,25.7479515075684,9.65595054626465,20.2399501800537,23.5200004577637,14.1169509887695,SHAKE
-14.6178998947144,-11.5871248245239,-7.86004972457886,-10.3300504684448,-37.7230529785156,-51.693000793457,5.52942514419556,5.24053764343262,4.35888767242432,2.27782487869263,-1.41033744812012,-2.4814624786377,33.6420021057129,25.7479515075684,9.65595054626465,20.2399501800537,23.5200004577637,14.1169509887695,9.47072505950928,5.32716226577759,2.7308874130249,-5.03295040130615,-0.22305001318455,3.60900020599365,3.98158740997315,10.6144495010376,12.800012588501,-3.58063745498657,18.1718616485596,16.9280376434326,-3.41805005073547,-7.09995031356812,-10.6819505691528,-9.40995025634766,-11.1960000991821,-10.8589506149292,11.840537071228,12.295937538147,11.0211753845215,15.8460006713867,0.91500002145767,-38.9290504455566,0.89168751239777,-9.7714376449585,-6.32884979248047,11.7808628082275,-7.11466264724731,-4.8093376159668,37.85205078125,23.2870502471924,3.79995012283325,16.3699512481689,8.70405006408691,4.17405033111572,-4.75584983825684,-3.59727501869202,13.3623876571655,-3.34095025062561,27.0130519866943,27.2239513397217,9.99899959564209,4.98657512664795,2.79853749275208,7.75527477264404,4.96196269989014,4.05446243286133,-19.6770000457764,17.7319507598877,28.6290016174316,-4.54305028915405,10.1520004272461,17.8570499420166,26.8893623352051,-19.8867626190186,-14.5029497146606,-33.72705078125,-18.2040004730225,-7.67700052261353,-10.3426122665405,-7.23181247711182,-6.16137504577637,-4.07962512969971,-2.72318744659424,-1.91014993190765,11.3250007629395,2.97900009155273,1.69500005245209,8.73000049591064,-2.76600003242493,-6.42495012283325,SHAKE
-14.5029497146606,-10.4919376373291,-5.34806251525879,-7.67700052261353,-3.52995014190674,-0.79095005989075,-6.16137504577637,-0.69918751716614,2.13276243209839,-1.91014993190765,6.69652509689331,8.19692516326904,1.69500005245209,5.65305042266846,8.23200035095215,-6.42495012283325,-2.6340000629425,1.22400009632111,1.30817496776581,1.20147502422333,1.05146253108978,-0.75195002555847,-0.68295001983643,4.69800043106079,0.01196249946952,1.26101243495941,5.25951242446899,5.2613000869751,5.79837512969971,4.45266246795654,-3.02295017242432,-6.9330005645752,-8.03894996643066,-7.63800048828125,-11.9839506149292,-11.0410509109497,9.88212490081787,9.32332515716553,7.72942495346069,-5.49105024337769,-26.7810020446777,-38.953052520752,-6.99063730239868,-9.40775012969971,-7.96386241912842,-12.9013500213623,-12.8506126403809,-10.6708250045776,28.8280506134033,28.0830020904541,21.5659503936768,23.7400512695313,17.97705078125,10.8610506057739,-6.08904981613159,-4.31117486953735,-2.85876250267029,-8.64600086212158,-7.53495025634766,-7.12605047225952,-3.55080008506775,-2.61703753471375,-1.80056250095367,-4.39834976196289,-2.60067486763,0.00962499994785,2.27700018882751,-0.9709500670433,-3.47505021095276,-3.19695019721985,-6.02505016326904,-7.83195018768311,-1.28260004520416,-3.57101249694824,0.22632500529289,7.33200025558472,15.7150506973267,24.6859512329102,10.9870748519897,7.39158725738525,4.80590009689331,10.4418878555298,9.14402484893799,7.8011999130249,-10.5670509338379,-12.7939510345459,-11.803050994873,-10.617000579834,-6.71205043792725,-2.95305013656616,SHAKE
-6.08904981613159,-4.31117486953735,-2.85876250267029,-8.64600086212158,-7.53495025634766,-7.12605047225952,-3.55080008506775,-2.61703753471375,-1.80056250095367,-4.39834976196289,-2.60067486763,0.00962499994785,2.27700018882751,-0.9709500670433,-3.47505021095276,-3.19695019721985,-6.02505016326904,-7.83195018768311,-1.28260004520416,-3.57101249694824,0.22632500529289,7.33200025558472,15.7150506973267,24.6859512329102,10.9870748519897,7.39158725738525,4.80590009689331,10.4418878555298,9.14402484893799,7.8011999130249,-10.5670509338379,-12.7939510345459,-11.803050994873,-10.617000579834,-6.71205043792725,-2.95305013656616,11.2714252471924,10.7199125289917,12.5672245025635,-5.90205049514771,-26.3470516204834,-41.7900009155273,-12.7417125701904,-9.46192455291748,-8.49241256713867,-15.3984870910645,-7.6911997795105,-6.70862483978271,28.7220020294189,20.416051864624,13.3750505447388,24.5209503173828,6.95595026016235,3.29805016517639,-5.86657476425171,-3.73559999465942,-2.62858748435974,-6.26205015182495,-5.3779501914978,-3.86505007743835,-2.80568742752075,2.53261256217957,9.68123722076416,-0.74401247501373,6.84708738327026,12.5217123031616,-6.10905027389526,-13.2580509185791,-8.94900035858154,-7.36605024337768,-16.5169506072998,-17.8120517730713,10.2470502853394,12.8118371963501,13.2954244613647,26.7469520568848,13.7779502868652,0.64200001955032,2.26476240158081,1.15128743648529,-0.51397502422333,8.11483764648438,7.10201263427734,7.22590017318726,-1.89495003223419,15.1990509033203,23.6220016479492,4.66200017929077,12.5299501419067,20.3640003204346,SHAKE
-20.144437789917,-10.3299627304077,-7.41001224517822,-34.7749519348145,-13.4970006942749,-6.45795011520386,-7.53018760681152,-6.10885000228882,-4.96443748474121,-4.50353765487671,-3.63233757019043,-2.36610007286072,8.42295074462891,5.53305006027222,4.26000022888184,3.00600004196167,-0.54704999923706,-2.47200012207031,-1.77691245079041,-0.79557502269745,-0.69519996643066,-3.03195023536682,-0.78405004739761,1.64595007896423,1.77883744239807,6.62447500228882,9.78752517700195,8.11800003051758,9.91993713378906,10.5831003189087,-5.19405031204224,-7.20600032806396,-7.75605058670044,-11.2180509567261,-10.3339500427246,-8.80500030517578,6.43706226348877,11.7998371124268,10.9799251556396,24.8130016326904,4.29900026321411,-16.3060512542725,-3.99148750305176,-11.2264623641968,-10.363787651062,13.3656873703003,-18.1846504211426,-9.65194988250732,29.6800518035889,31.7749519348145,24.0030002593994,21.0750007629395,16.114049911499,10.2220506668091,-9.16327476501465,-6.78988742828369,-5.04473733901978,-9.17505073547363,-9.20205020904541,-8.51700019836426,-4.74732494354248,-3.68444991111755,-2.6003999710083,-3.82084989547729,-2.35523748397827,0.08799999952316,-3.23805022239685,-7.04295015335083,-10.2820501327515,-6.77205038070679,-9.05805015563965,-9.62595081329346,-6.89039993286133,-11.3210620880127,15.3991746902466,16.1980514526367,32.5819511413574,31.0759506225586,4.58053731918335,2.77378749847412,1.77443754673004,9.08022499084473,7.98311233520508,7.13638734817505,-15.6190509796143,-7.64400053024292,13.1640005111694,-1.40595006942749,3.19695019721985,11.6080503463745,SHAKE
10.797737121582,11.0090751647949,22.4285869598389,-33.9130516052246,-55.6870536804199,-44.191951751709,13.7977123260498,12.2743501663208,10.5712747573853,10.9616374969482,8.01679992675781,6.19080018997192,30.2140522003174,19.7080516815186,12.4650001525879,11.5440006256104,6.61395025253296,4.06605005264282,12.0946378707886,10.981162071228,10.3576002120972,-3.81195020675659,-0.44100001454353,5.29905033111572,4.46971225738525,15.1984252929688,10.3162126541138,8.70979976654053,11.8394374847412,9.9286003112793,-14.4990005493164,-17.2969512939453,-22.2510013580322,-15.1849508285522,-9.03000068664551,-3.79800009727478,16.4656257629395,15.6693620681763,14.368200302124,4.08105039596558,-14.6869506835938,-41.0460014343262,2.61772489547729,10.5159997940063,12.55113697052,7.86953735351563,13.7655372619629,8.11332511901855,29.5840511322021,36.1950035095215,31.3699512481689,21.1729507446289,17.026050567627,6.51795053482056,19.6708869934082,16.9521007537842,14.5457124710083,-13.0230007171631,-7.90395021438599,-5.74695014953613,6.58556222915649,4.2433876991272,3.23688745498657,3.89124989509583,4.84302520751953,7.74606227874756,1.80795013904572,-3.08700013160706,-3.66195011138916,-3.79995012283325,-7.50000047683716,-6.84600019454956,6.2115626335144,8.14082527160645,17.1125621795654,7.28700017929077,9.6109504699707,15.7290010452271,7.91271257400513,4.74044990539551,3.01221251487732,8.63018703460693,8.52032470703125,7.8692626953125,-9.76500034332275,-10.336950302124,-14.4340505599976,-6.83595037460327,-5.89095020294189,-4.39394998550415,SHAKE
22.3898124694824,19.6708869934082,16.9521007537842,-24.5280017852783,-13.0230007171631,-7.90395021438599,7.88851261138916,6.58556222915649,4.2433876991272,4.58150005340576,3.89124989509583,4.84302520751953,6.5440502166748,1.80795013904572,-3.08700013160706,-0.54195004701614,-3.79995012283325,-7.50000047683716,8.56212520599365,6.2115626335144,8.14082527160645,6.00105047225952,7.28700017929077,9.6109504699707,12.1336870193481,7.91271257400513,4.74044990539551,10.0128870010376,8.63018703460693,8.52032470703125,-9.75795078277588,-9.76500034332275,-10.336950302124,-6.86805009841919,-6.83595037460327,-5.89095020294189,12.6181001663208,11.1528997421265,10.4354248046875,14.6010007858276,0.98700004816055,-25.5760517120361,0.72008746862411,7.92701244354248,12.2123374938965,6.01617479324341,13.9709625244141,9.67202472686768,26.2200012207031,32.086051940918,37.0489501953125,26.332950592041,20.3089504241943,5.72805023193359,21.1891632080078,18.6463756561279,16.3920631408691,-2.29005002975464,2.18400001525879,-1.33200001716614,5.91882514953613,4.34775018692017,7.68006229400635,4.18577480316162,5.12187480926514,12.1070127487183,0.89595001935959,-3.90105009078979,-14.1469507217407,-8.30400085449219,-9.57300090789795,-11.6059503555298,14.5473623275757,22.2862739562988,19.409912109375,23.0310020446777,26.6110515594482,18.5350513458252,3.88781237602234,2.85945010185242,2.54870009422302,5.68947505950928,5.53547477722168,5.5827751159668,-15.292950630188,-1.99995005130768,27.9559516906738,2.94600009918213,10.5240001678467,21.1210517883301,SHAKE
14.2496747970581,13.2239246368408,11.4167623519897,19.1220016479492,4.54800033569336,-37.9519500732422,1.71311247348785,12.453649520874,11.0492248535156,3.77657508850098,2.99722504615784,2.17813754081726,37.5619506835938,29.2470016479492,18.1420516967773,19.0090503692627,11.7930002212524,7.40100049972534,15.9851999282837,13.1957378387451,11.9389877319336,-6.7020001411438,-5.34000015258789,-0.7950000166893,6.15560007095337,4.95371246337891,16.2315998077393,0.91519999504089,2.64316248893738,15.0354871749878,-11.0200500488281,-17.1589508056641,-16.6650009155273,-11.2320003509521,-18.1810512542725,-9.85995006561279,18.019100189209,16.2700996398926,14.739312171936,12.8680505752563,-13.9830007553101,-33.2880020141602,3.02912497520447,-16.952787399292,-13.1621875762939,9.92763710021973,-15.1331119537354,-9.132887840271,38.0770530700684,36.9390029907227,27.316951751709,27.7500019073486,20.0380516052246,9.77700042724609,-11.1306247711182,-8.06052494049072,-6.22806262969971,-7.95195055007935,-9.49605083465576,-7.38000011444092,-3.18518757820129,-0.29727500677109,11.9447622299194,-0.81152498722076,4.66179990768433,10.4457378387451,-13.7130002975464,-20.6640014648438,-19.0020008087158,-15.892050743103,-20.203950881958,-15.7069511413574,7.93540000915527,14.7917003631592,15.6015748977661,22.7299518585205,4.0090503692627,-7.26195049285889,2.9690375328064,1.93159997463226,-15.5408000946045,7.25106239318848,6.76252508163452,-12.793137550354,21.5539512634277,39.517951965332,38.0910034179688,11.6149501800537,19.5360012054443,18.6859512329102,SHAKE
-6.69006252288818,7.93540000915527,14.7917003631592,32.1010513305664,22.7299518585205,4.0090503692627,4.95494985580444,2.9690375328064,1.93159997463226,7.86596250534058,7.25106239318848,6.76252508163452,-3.93300008773804,21.5539512634277,39.517951965332,3.93000030517578,11.6149501800537,19.5360012054443,-20.4459743499756,-14.5758247375488,-9.31232452392578,-47.6710510253906,-19.4209518432617,-8.09805011749268,-7.63894987106323,-4.64227485656738,-2.42618751525879,-2.48393750190735,-2.14225006103516,0.04248749837279,7.87005043029785,-8.66100025177002,-21.1350002288818,4.94505023956299,-6.89895009994507,-15.3030004501343,10.3820753097534,12.7736120223999,11.7642250061035,35.8669509887695,21.1140003204346,-10.6840505599976,3.79293751716614,-9.44680023193359,-11.0254373550415,2.400475025177,-5.76235008239746,-5.70363759994507,42.669002532959,41.2129516601563,29.1289520263672,16.1329498291016,15.528000831604,12.2950506210327,-9.31480026245117,-6.55861234664917,-4.90201234817505,-7.72005033493042,-7.59000015258789,-5.05305004119873,-5.03607511520386,-3.9840624332428,-2.77145004272461,-3.88575005531311,-3.43488740921021,-1.96404993534088,-9.64995002746582,-16.2660007476807,-20.7019500732422,-6.67605018615723,-13.4250001907349,-17.7060012817383,16.9464626312256,14.7544374465942,11.6514749526978,30.363000869751,6.88005018234253,-22.9399509429932,3.26466250419617,-10.5747127532959,-8.80151271820068,3.62257504463196,-2.51267504692078,-2.53151249885559,44.7930030822754,30.8890514373779,16.498950958252,12.0730504989624,15.373950958252,14.4570007324219,SHAKE
-21.576774597168,-18.3849868774414,-12.6908378601074,35.2180519104004,7.48095035552979,-19.2649517059326,-8.64820003509521,6.17196226119995,5.89627504348755,-3.10983753204346,1.77966248989105,0.43724998831749,40.9260025024414,31.5469512939453,19.2360000610352,18.9060001373291,10.3440008163452,7.9980001449585,10.6790752410889,8.75160026550293,6.72471237182617,-4.54995012283325,-3.5110502243042,1.18605005741119,3.96783757209778,2.89726257324219,19.3819999694824,-0.79942500591278,0.37578749656677,13.3927745819092,-15.1930503845215,-19.8570003509521,-16.1940002441406,-10.6840505599976,-15.6160507202148,-12.3720006942749,21.3969249725342,18.2209491729736,15.424750328064,16.8450012207031,-1.60500001907349,-14.4289503097534,-1.13135004043579,-7.2294750213623,-5.84567499160767,-0.72847497463226,-2.17951250076294,-1.83342504501343,43.8400535583496,21.2020511627197,9.96105003356934,10.1050500869751,1.81800007820129,1.95000004768372,-5.68507480621338,-3.86512494087219,5.07856225967407,-0.33600002527237,21.6499519348145,31.5859508514404,5.57108736038208,1.79629993438721,1.32123744487762,4.57682514190674,3.55093741416931,2.91665005683899,-16.4089508056641,12.7519502639771,40.2600021362305,-2.51700019836426,1.86795008182526,12.106050491333,-27.5358867645264,-18.2689380645752,-10.8772125244141,-35.6920509338379,-12.0319509506226,-5.69895029067993,-2.45451259613037,-0.50572502613068,10.1895751953125,-0.58904999494553,0.55508750677109,5.31506252288818,-16.7299499511719,-22.6030502319336,-19.3210506439209,-10.945050239563,-13.5619506835938,-5.69400024414063,SHAKE
-8.7465124130249,-5.68507480621338,-3.86512494087219,-5.69400024414063,-0.33600002527237,21.6499519348145,17.2173366546631,5.57108736038208,1.79629993438721,7.2378625869751,4.57682514190674,3.55093741416931,-19.1989517211914,-16.4089508056641,12.7519502639771,-11.7210006713867,-2.51700019836426,1.86795008182526,9.62926292419434,-27.5358867645264,-18.2689380645752,-41.9560508728027,-35.6920509338379,-12.0319509506226,-4.68297481536865,-2.45451259613037,-0.50572502613068,-0.78196251392365,-0.58904999494553,0.55508750677109,1.61595010757446,-16.7299499511719,-22.6030502319336,-0.30195000767708,-10.945050239563,-13.5619506835938,17.3578624725342,14.9162750244141,12.2523498535156,21.5659503936768,-5.03805017471313,-18.5680503845215,-3.96783757209778,-8.90023708343506,-7.18561267852783,-2.32402491569519,-3.8451874256134,-2.69073748588562,43.324951171875,34.1430015563965,20.8020000457764,9.66195011138916,1.72005009651184,1.86600005626678,-10.1165628433228,-7.8541374206543,-5.69841241836548,-6.53895044326782,-4.04700040817261,17.9629516601563,1.76962494850159,7.46542501449585,4.1753249168396,2.91733741760254,4.97653770446777,4.29536247253418,-20.2999515533447,-18.2550010681152,-11.3050508499146,-15.5040006637573,-2.46900010108948,-0.72600001096725,14.3497753143311,11.3242244720459,-20.0325126647949,-6.39300012588501,-28.7269515991211,-47.4120025634766,-8.6044750213623,-5.00582504272461,-3.22959995269775,-3.16731238365173,-1.78172504901886,-1.58496248722076,29.6080513000488,5.44995021820068,-12.2719507217407,2.38800001144409,4.65795040130615,-8.73705005645752,SHAKE
-3.44176244735718,19.0715255737305,17.0637493133545,16.6870498657227,27.7840518951416,-0.49395000934601,1.44388747215271,1.61686253547668,-10.4117746353149,2.80156254768372,1.20642495155334,-4.32272481918335,4.53495025634766,43.0999526977539,41.2129516601563,-0.28305000066757,15.7339506149292,7.62195014953613,-15.5649995803833,-8.73922538757324,-6.0659499168396,-16.8730506896973,-6.0799503326416,4.66695022583008,-1.28823745250702,13.4088621139526,6.4835376739502,0.6572499871254,5.62113761901855,4.30512475967407,-18.8730010986328,-19.0140018463135,-17.9749507904053,-18.1399517059326,-7.81305027008057,-1.00604999065399,17.5436248779297,14.837212562561,11.8618497848511,3.25005006790161,-4.588050365448,-30.2050514221191,1.34598743915558,-13.1055374145508,-9.23174953460693,3.92493748664856,-4.81126260757446,-2.39483737945557,47.7109527587891,42.4129524230957,28.9260005950928,19.6000518798828,6.85305023193359,-2.92200016975403,-11.9908246994019,-9.73472499847412,-8.39795017242432,-5.6650505065918,-0.16800001263618,14.8549509048462,4.07852506637573,14.0413627624512,9.61950016021728,3.84353756904602,4.90228748321533,4.15016269683838,-21.8470516204834,-19.0290012359619,-18.4830017089844,-18.457950592041,-10.9590005874634,-4.2960000038147,17.8587741851807,15.1135873794556,9.55570030212402,2.27295017242432,-0.64500004053116,-54.8320541381836,-12.5978870391846,-9.20040035247803,-6.66943740844727,-5.86162519454956,-1.09422504901886,0.10738749802113,40.7490005493164,32.2350006103516,19.7290515899658,7.91100025177002,-6.18795013427734,-5.42895030975342,SHAKE
-3.33423757553101,19.601037979126,15.596625328064,18.5419502258301,15.4270505905151,-1.21395003795624,-0.45223748683929,-2.96573758125305,-8.51070022583008,3.81754994392395,9.38258743286133,0.69410002231598,11.8540506362915,41.8309516906738,24.7279510498047,1.71705007553101,18.3649501800537,4.34895038604736,-13.5368747711182,-8.61258792877197,-7.10971260070801,-5.09295034408569,-3.41505026817322,3.73095011711121,-2.24729990959167,5.16738748550415,14.8824501037598,0.6318125128746,7.24157476425171,4.52155017852783,-17.5660514831543,-19.9000511169434,-18.8680515289307,-17.4529514312744,-22.1410503387451,-14.5240507125854,18.0655746459961,18.3049621582031,14.6119871139526,7.86600017547607,0.29100000858307,-5.42100048065186,-4.83518743515015,-7.94612503051758,-6.05137491226196,3.29216241836548,4.08168745040894,4.47658729553223,43.9590034484863,40.1520004272461,25.090051651001,18.0300006866455,6.1560001373291,-2.29695010185242,-14.2280874252319,-9.05891227722168,-7.56580018997192,-6.13005018234253,-1.38000011444092,4.77705001831055,10.7658376693726,4.97186231613159,2.44461250305176,8.4855375289917,1.2890625,1.48720002174377,-20.2500019073486,-18.1470012664795,-11.9610004425049,-18.351001739502,-4.01805019378662,-1.68600010871887,11.9560375213623,12.3620748519897,-22.3645114898682,-35.0940017700195,-60.7390518188477,-46.5049514770508,-4.81442499160767,-2.80719995498657,-1.85996246337891,1.70032501220703,0.50792497396469,0.46694999933243,13.7290506362915,-4.68000030517578,-11.5489501953125,-0.95805007219315,-2.18204998970032,-9.63105010986328,SHAKE
19.8362998962402,13.0602998733521,9.07032489776611,4.40205001831055,-18.2160015106201,-43.2870025634766,-7.03601264953613,-5.13205003738403,-3.90211248397827,2.92545008659363,2.37682509422302,1.65838754177094,32.1580505371094,17.9599514007568,6.43395042419434,-3.45795011520386,-0.48900002241135,4.13595008850098,-8.70292472839355,-7.28805017471313,-5.86753749847412,-2.01195001602173,6.63105010986328,19.2390003204346,5.8348126411438,12.3631753921509,5.00115013122559,5.55637502670288,3.13981246948242,0.96057498455048,-17.2140007019043,-16.7899513244629,-13.1629505157471,-17.2470016479492,-9.8700008392334,-3.82395029067993,17.7735252380371,14.5231628417969,10.6448373794556,2.66595005989075,-4.54995012283325,-30.1849517822266,1.80537497997284,-6.63643741607666,-3.47654986381531,-0.36519998311996,1.1504625082016,0.34347498416901,40.8900032043457,28.2270011901855,6.37605047225952,12.9829502105713,-8.28000068664551,1.76805007457733,-7.60141229629517,-3.83102488517761,-1.66141247749329,-2.56695008277893,14.7280502319336,21.0900001525879,9.07596206665039,3.61322498321533,1.76728749275208,0.99646252393723,1.46107494831085,2.06346249580383,-15.7000503540039,-13.8930006027222,-9.20205020904541,-8.44995021820068,-2.41695022583008,-1.63605010509491,13.6228122711182,10.51256275177,6.95241260528564,0.27600002288818,-13.4899501800537,-38.5290031433105,2.21457505226135,-7.65105009078979,-4.27363729476929,1.71338748931885,0.47368749976158,-0.11247500032187,36.2400016784668,32.8570518493652,12.0649509429932,12.8719501495361,0.01005000062287,3.88905024528503,SHAKE
16.4771747589111,13.6228122711182,10.51256275177,5.7810001373291,0.27600002288818,-13.4899501800537,2.21457505226135,2.21457505226135,-7.65105009078979,1.71338748931885,1.71338748931885,0.47368749976158,36.2400016784668,36.2400016784668,32.8570518493652,12.8719501495361,12.8719501495361,0.01005000062287,-10.944037437439,-8.63046264648438,-7.08839988708496,-3.74295020103455,-4.0489501953125,-0.74805003404617,-1.80454993247986,-0.08978749811649,8.41252517700195,-0.09322500228882,1.92142498493195,5.97671270370483,-7.31100034713745,-12.1710004806519,-13.6200008392334,-10.9950008392334,-16.1050510406494,-13.581000328064,12.4948997497559,15.3393621444702,13.0908250808716,18.340950012207,4.90694999694824,-1.67895007133484,3.29491257667542,-8.01638698577881,-5.80731248855591,1.66003751754761,-2.30725002288818,-1.92719995975494,36.6760520935059,29.3710517883301,19.0759506225586,15.1540508270264,-1.23600006103516,-1.2190500497818,-7.51822519302368,-6.22297477722168,-4.61202478408813,-4.32000017166138,-0.03900000080466,8.46195030212402,11.4514122009277,3.91063737869263,2.31618738174438,6.26436233520508,2.56107497215271,2.41669988632202,-15.3439502716064,-8.94105052947998,2.32500004768372,-11.7229509353638,-4.07595014572144,-1.99500012397766,6.3549747467041,-16.2728500366211,-12.9677619934082,-35.0359535217285,-21.1009502410889,-5.3299503326416,-4.5471248626709,-3.51889991760254,0.24722500145435,-1.77925002574921,-1.64903748035431,2.19862508773804,2.68395018577576,-3.71205019950867,-13.5790510177612,0.73605000972748,-5.09595012664795,-16.135950088501,SHAKE
-7.51822519302368,-6.22297477722168,-4.61202478408813,-4.32000017166138,-0.03900000080466,8.46195030212402,11.4514122009277,3.91063737869263,2.31618738174438,6.26436233520508,2.56107497215271,2.41669988632202,-15.3439502716064,-8.94105052947998,2.32500004768372,-11.7229509353638,-4.07595014572144,-1.99500012397766,6.3549747467041,-16.2728500366211,-12.9677619934082,-35.0359535217285,-21.1009502410889,-5.3299503326416,-4.5471248626709,-3.51889991760254,0.24722500145435,-1.77925002574921,-1.64903748035431,2.19862508773804,2.68395018577576,-3.71205019950867,-13.5790510177612,0.73605000972748,-5.09595012664795,-16.135950088501,15.8343620300293,18.2863998413086,14.2154378890991,17.521951675415,7.84695053100586,-4.95900011062622,-1.11883747577667,-8.86366271972656,-5.34448766708374,-0.61256247758865,0.20460000634193,0.23003749549389,38.9740524291992,37.1310005187988,16.8370513916016,14.6779508590698,4.72695016860962,-0.38595002889633,-7.32737493515015,-5.61934995651245,-0.21285000443459,-1.11600005626678,1.51395010948181,7.27500057220459,3.74989986419678,9.75809955596924,9.37103748321533,6.02799987792969,5.25057506561279,3.26287508010864,-2.50800013542175,-2.52900004386902,-1.99095010757446,-6.66600036621094,-5.1340503692627,-3.59205007553101,8.33208751678467,5.81185007095337,-2.17153739929199,9.7170000076294,5.80695009231567,-11.0020503997803,-2.22378754615784,-3.52481245994568,-3.24279999732971,3.26067495346069,-1.56406247615814,-2.12066245079041,15.6520509719849,14.8999509811401,12.8500509262085,-2.03295016288757,-3.09705018997192,-2.1889500617981,SHAKE
-0.86198747158051,0.5986750125885,1.00471246242523,2.08395004272461,2.65395021438599,2.30400013923645,-1.35478746891022,-1.1617374420166,-0.96263748407364,0.95727497339249,1.17878746986389,1.1368499994278,10.4029502868652,10.6210508346558,11.1120004653931,-0.74505001306534,-1.15200006961823,-1.40400004386902,-0.26097500324249,-0.71499997377396,-1.24643754959106,-0.7950000166893,-1.75995004177094,-3.22605013847351,1.26362502574921,7.13019990921021,4.7163872718811,-0.69244998693466,0.36781248450279,-1.08597505092621,-1.98600006103516,-21.2260513305664,-26.8309516906738,-7.75605058670044,-11.8189506530762,0.01305000018328,16.8785381317139,15.8886747360229,14.5226125717163,6.78105020523071,-17.7400512695313,-47.8480529785156,-0.50393748283386,7.62877511978149,8.95716285705566,5.88775014877319,12.2912626266479,9.01669979095459,31.3579521179199,39.2500534057617,20.3110504150391,23.5009517669678,18.2550010681152,2.68200016021729,17.350025177002,13.1859750747681,9.14663791656494,-7.56705045700073,-2.63205003738403,-0.28500002622604,3.56496238708496,11.4072751998901,8.29069995880127,8.60035037994385,13.5995750427246,10.9751129150391,-5.53005027770996,-15.8940010070801,-18.4369506835938,-6.30195045471191,-6.10095024108887,-1.81095004081726,15.5428628921509,12.6990871429443,11.4599370956421,5.07405042648315,-25.9090518951416,-41.6179504394531,12.4642372131348,9.63379955291748,8.61616230010986,9.58911228179932,6.21843767166138,4.79352474212646,37.5859527587891,17.4000015258789,10.6260004043579,2.74005007743835,5.36100006103516,5.00505018234253,SHAKE
1.09298753738403,17.6093502044678,15.5428628921509,22.5100517272949,23.5129508972168,5.07405042648315,2.98993754386902,2.48792505264282,12.4642372131348,7.73286247253418,7.31788730621338,9.58911228179932,10.10205078125,29.5510520935059,37.5859527587891,6.81195020675659,11.2390508651733,2.74005007743835,19.3289241790771,16.2893505096436,13.6354627609253,-8.34000015258789,-6.5779504776001,-5.38800048828125,4.96869993209839,3.51243758201599,6.34878730773926,2.53206253051758,2.75165009498596,11.543399810791,-2.16795015335083,-4.04700040817261,-9.88005065917969,-6.43695020675659,-6.93000030517578,-5.67000007629395,21.4238758087158,17.8615245819092,13.5089626312256,31.1359519958496,27.2530517578125,-5.09805011749268,1.29291248321533,6.19217491149902,9.63916206359863,5.98028755187988,11.7237997055054,5.49903726577759,30.5350513458252,40.3200035095215,23.0020503997803,22.3180503845215,15.6070508956909,-6.40800046920776,14.5491495132446,13.331862449646,9.27355003356934,-5.95800018310547,-4.07805013656616,4.49700021743774,2.91431260108948,-7.07011222839355,-8.95991230010986,5.61343765258789,6.77104997634888,-4.04896259307861,-12.0400505065918,-15.7819509506226,-16.2390003204346,-7.45695018768311,-10.1170501708984,-11.0050506591797,-16.8658866882324,-14.6657495498657,-12.0202503204346,25.0950012207031,15.5130004882813,4.84905004501343,-2.79193758964539,-1.01406252384186,8.34982490539551,-0.83916246891022,1.88581252098084,2.87072491645813,-5.12505006790161,28.2120018005371,34.6050033569336,1.84005010128021,15.1450510025024,7.83000040054321,SHAKE
-12.0202503204346,-9.3711748123169,-3.60882496833801,4.84905004501343,-9.4750509262085,-45.6720008850098,8.34982490539551,5.55940008163452,4.30498743057251,2.87072491645813,0.92468750476837,1.06149995326996,34.6050033569336,31.8799514770508,21.8119506835938,7.83000040054321,0.30705001950264,0.52995002269745,11.7658748626709,10.1668872833252,8.85445022583008,-3.22800016403198,-2.40405011177063,-0.03405000269413,0.01594999991357,1.59280002117157,12.0458250045776,0.82238751649857,5.07471227645874,9.3449125289917,-2.02905011177063,-3.45795011520386,-4.85700035095215,-5.81205034255981,-6.03405046463013,-6.36195039749146,15.2378873825073,13.791937828064,10.8796873092651,23.3479518890381,18.5899505615234,-3.4459502696991,0.63359999656677,13.4479122161865,6.57456254959106,5.45627498626709,11.7338371276855,9.4459753036499,24.4170017242432,25.0039520263672,20.4450016021729,17.5459499359131,-5.59395027160645,-18.1350002288818,18.1834125518799,15.166111946106,10.967137336731,-9.80805015563965,-6.6540002822876,0.19695000350475,2.34066247940063,5.04693746566772,7.17364978790283,7.35776233673096,9.99693775177002,8.27089977264404,-7.19595050811768,-14.0839509963989,-17.1229515075684,-10.2270002365112,-18.1729507446289,-0.79305005073547,16.4819869995117,14.6547498703003,23.3149127960205,-11.7640504837036,-30.0990009307861,-42.4900512695313,-11.0988626480103,-7.54503726959229,-5.22211265563965,-6.82756233215332,-4.56720018386841,-3.52907490730286,29.1049518585205,19.4230518341064,11.9959506988525,-9.3190507888794,-6.43395042419434,-1.79205012321472,SHAKE
11.8882503509521,10.5012874603271,20.2401371002197,-12.5749502182007,-32.0170516967773,-44.4979515075684,-8.79972457885742,-5.26349973678589,-4.22620010375977,-5.86932516098022,-3.39116239547729,-2.89286255836487,25.4010009765625,11.392050743103,8.49495029449463,-2.69400024414063,4.54500007629395,4.30305004119873,-2.66282486915588,-1.27902495861053,-0.69244998693466,-1.65705013275146,1.44195008277893,3.47700023651123,4.45376253128052,8.97751235961914,8.97668743133545,6.61416244506836,7.38897514343262,6.95708751678467,-1.51695013046265,-4.014000415802,-7.28700017929077,-5.03805017471313,-5.12400007247925,-7.31505012512207,11.0613250732422,10.3061752319336,8.93117523193359,21.1519508361816,11.6830501556396,-33.3940505981445,-1.36234998703003,-11.8061628341675,-8.56487464904785,2.50552487373352,-11.6765003204346,-5.44885015487671,25.4040012359619,28.2769508361816,18.3960018157959,22.7179508209229,15.5680503845215,-1.25505006313324,-11.6281003952026,-6.51021242141724,-4.5075249671936,-2.86395025253296,-5.29395008087158,-2.40000009536743,2.38768744468689,9.77377510070801,6.75812482833862,3.34523749351501,5.86189985275269,5.79699993133545,-14.5270509719849,-13.7610006332397,-16.8810005187988,-15.6760511398315,-8.60295009613037,-5.54805040359497,11.073974609375,9.49396228790283,22.7488250732422,-20.1270008087158,-49.324951171875,-52.3489532470703,-8.72286224365234,-5.98729991912842,-4.87561225891113,-2.94744992256165,-2.03843760490417,-1.78172504901886,21.0510005950928,3.62505006790161,-2.29200005531311,3.13995003700256,5.34705018997192,1.35300004482269,SHAKE
11.3763370513916,10.4645748138428,7.43173742294312,8.41695022583008,1.53600001335144,-20.4529514312744,-9.41256237030029,-6.49055004119873,-3.5986499786377,-2.77612495422363,-3.39432501792908,-2.32773756980896,32.8140029907227,27.6379508972168,13.8940505981445,2.44995021820068,0.18300001323223,1.8469500541687,-7.10022497177124,-5.50233745574951,-3.76928758621216,-4.72005033493042,-3.84795022010803,-0.71895003318787,-0.1530375033617,2.36183738708496,9.37241268157959,1.724249958992,3.85109996795654,3.51064991950989,-2.10300016403198,-3.60900020599365,-7.84695053100586,-5.47200012207031,-4.875,-4.546950340271,11.2235746383667,9.72647476196289,7.58353757858276,17.4340515136719,11.90505027771,-22.9000511169434,2.82864999771118,7.95533752441406,6.6719126701355,11.3528251647949,7.19716262817383,3.5813250541687,33.0100517272949,35.6110534667969,14.8830003738403,8.20604991912842,6.75705051422119,7.93995046615601,15.9429874420166,11.9414625167847,11.1768245697021,-6.66105031967163,1.43700003623962,5.47695016860962,2.24743747711182,7.36862516403198,10.809287071228,1.06081247329712,10.4248371124268,7.17969989776611,-7.39200019836426,-10.4790000915527,-11.6830501556396,-9.70500087738037,-10.3630504608154,-3.34995007514954,14.9287872314453,12.9860496520996,11.250524520874,6.22395038604736,-7.06395053863525,-45.0109519958496,-9.86287498474121,-8.57326221466064,-7.04522514343262,-11.0232372283936,-5.41681241989136,-3.60373759269714,29.086051940918,27.7360515594482,19.4280014038086,9.60900020599365,8.05500030517578,8.78505039215088,SHAKE
-27.5840129852295,-18.7999629974365,-13.8177871704102,-36.4080009460449,-20.484001159668,-11.6010007858276,-4.95935010910034,-4.40673732757568,-4.05858755111694,-2.45574998855591,-2.16108751296997,-1.7829624414444,9.20400047302246,5.29395008087158,1.97100007534027,7.72200059890747,4.41300010681152,0.85095006227493,-1.75161254405975,-1.00471246242523,1.53161251544952,1.71495008468628,4.03800010681152,4.91895008087158,9.43566226959228,15.4732875823975,7.14394998550415,9.42713737487793,5.66898727416992,5.10716247558594,-7.97400045394897,-10.7280006408691,-9.50205039978027,-6.91500043869019,-7.83195018768311,-6.82005023956299,9.62417507171631,8.55607509613037,7.53018760681152,11.131950378418,-2.58405017852783,-41.8909530639649,1.66622495651245,-7.65696239471436,-9.67037487030029,1.28232502937317,-11.2870998382568,-8.5830249786377,17.1049499511719,21.0960006713867,29.4049510955811,18.1609516143799,19.9999504089355,18.7140007019043,-13.1441745758057,-7.48591232299805,-5.21056270599365,-8.93805027008057,-8.91000080108643,-2.34705018997192,-5.39852476119995,-5.05862474441528,-1.03908753395081,-3.18449997901917,-1.55086255073547,3.63549995422363,-0.74100005626678,-2.52900004386902,-7.66305017471313,-1.300950050354,-5.27505016326904,-12.2860507965088,10.9756622314453,10.3258371353149,8.79257488250732,23.3310012817383,14.1490507125854,0.94200003147125,3.36242508888245,-7.07616233825684,-8.5925121307373,3.62120008468628,-15.4395999908447,-6.23012495040894,4.59705018997192,27.5509510040283,25.7149505615234,3.36900019645691,17.0770511627197,2.36400008201599,SHAKE
10.9756622314453,10.3258371353149,8.79257488250732,23.3310012817383,14.1490507125854,0.94200003147125,3.36242508888245,-7.07616233825684,-8.5925121307373,3.62120008468628,-15.4395999908447,-6.23012495040894,4.59705018997192,27.5509510040283,25.7149505615234,3.36900019645691,17.0770511627197,2.36400008201599,-7.48701238632202,-4.22042512893677,-3.01688742637634,-13.6740007400513,-6.57000017166138,-3.06795024871826,-2.16122508049011,7.65778732299805,7.03477478027344,0.11632499843836,9.37282466888428,5.44403743743896,-10.7200508117676,-18.4420509338379,-27.199951171875,-8.7180004119873,-21.1930503845215,-5.83305025100708,18.6059494018555,15.1097373962402,13.4595994949341,14.8840503692627,-21.2040004730225,-51.3390007019043,0.21340000629425,10.5800752639771,10.5619249343872,5.63887500762939,9.06949996948242,2.81503748893738,35.1870002746582,37.0570526123047,15.1230010986328,20.377950668335,22.0620002746582,17.2180500030518,14.5506620407104,12.2882375717163,8.04539966583252,-2.35695004463196,2.75895023345947,15.892050743103,-19.6784496307373,-15.1673498153687,-9.82973766326904,-21.9080123901367,-10.5881872177124,-2.5471875667572,-15.5520009994507,-15.0949506759644,-9.84600067138672,-15.2190008163452,-8.28299999237061,-0.95100003480911,-6.66256237030029,-5.43867492675781,18.50612449646,-6.22305011749268,-27.2640018463135,-40.7749519348145,8.70732498168945,7.47147512435913,4.92951250076294,3.11327505111694,2.06731247901917,0.35983750224113,18.8959503173828,11.3899507522583,-1.58400011062622,11.260950088501,8.84505081176758,-3.50805020332336,SHAKE
11.608437538147,11.2535495758057,10.5624752044678,23.6950511932373,16.0500011444092,5.12700033187866,1.93448746204376,1.92197501659393,-16.207950592041,3.95037508010864,4.79379987716675,-3.95106244087219,16.381950378418,32.2200012207031,38.0220031738281,8.87400054931641,7.90395021438599,1.6840500831604,-17.812162399292,-13.956937789917,-8.51963710784912,-30.1420516967773,-12.6739501953125,-2.41605019569397,-2.75632500648499,-0.54944998025894,8.86256217956543,-1.40841245651245,0.96043747663498,4.68971252441406,-4.86195039749146,-16.5289516448975,-16.8780002593994,-3.0130500793457,-16.5790500640869,-7.42095041275024,16.2623996734619,12.5505876541138,9.76291275024414,9.37395000457764,-3.67605018615723,-27.1039505004883,2.12575006484985,-8.36934947967529,-5.51897478103638,1.81445002555847,-2.1455500125885,-1.38187503814697,40.0849533081055,39.5680503845215,15.7159509658813,6.61605024337769,0.28095000982285,0.30495002865791,-7.45346260070801,-6.05068731307983,3.2522873878479,0.37200000882149,5.94795036315918,22.0210514068604,11.2144994735718,5.29718732833862,3.18779993057251,4.10492515563965,3.06212496757507,3.10048747062683,-15.0730504989624,-15.0370502471924,-12.0010509490967,-9.20205020904541,-1.07100009918213,3.46800017356873,12.3762378692627,10.2679500579834,7.65105009078979,-1.95405006408691,-13.9540510177612,-37.7920532226563,-8.73152542114258,-4.87506246566772,-3.91654992103577,-1.72493743896484,-0.82582497596741,-0.84026247262955,31.8589515686035,14.6560506820679,8.64405059814453,1.60005009174347,6.08700037002563,5.02905035018921,SHAKE
11.1720123291016,12.9607496261597,12.2650003433228,21.1710014343262,18.8059501647949,9.87195014953613,3.31264996528625,2.16177487373352,-0.7177500128746,3.5561625957489,3.24348759651184,6.41960000991821,-2.44800019264221,31.3870506286621,36.9109535217285,-0.94395005702972,7.0090503692627,6.7020001411438,-17.2756366729736,-10.6320495605469,-6.80267477035522,-29.3260517120361,-4.72005033493042,-0.4120500087738,-2.6420624256134,11.5445003509521,10.0445127487183,-2.67354989051819,6.30698728561401,3.75251245498657,-7.78995037078857,-13.9740009307861,-14.451000213623,-8.425950050354,-14.3209505081177,-8.69700050354004,13.9037246704102,13.2441377639771,7.01291227340698,12.0580501556396,2.74695014953613,-32.0580024719238,6.85506248474121,-9.79027462005615,-8.35491275787354,-1.02478754520416,-5.89201259613037,-5.71092510223389,35.1220512390137,34.1689529418945,25.7629508972168,9.68100070953369,7.62600040435791,5.7330002784729,-7.35666227340698,-5.89655017852783,-2.57537508010864,-6.30195045471191,-3.550950050354,7.76100015640259,10.7413625717163,12.2628002166748,4.88784980773926,8.06671237945557,4.51247501373291,4.20172500610352,-13.8400506973267,-14.9149503707886,-11.1109504699707,-11.026050567627,-8.4330005645752,0.68505001068115,10.0592250823975,7.34112501144409,-17.3720245361328,-18.9349517822266,-42.9370536804199,-20.3299503326416,-4.86089992523193,-3.97278738021851,-2.53632497787476,-2.13702487945557,-2.05603742599487,-0.74360001087189,13.1640005111694,6.19905042648315,-3.19995021820068,4.91895008087158,4.26495027542114,-3.16800022125244,SHAKE
1.30460000038147,1.63941252231598,1.37472498416901,3.6780002117157,2.58900022506714,2.65395021438599,1.16132497787476,0.29370000958443,-0.25905001163483,-0.02337500080466,-0.08951249718666,0.03918749839067,9.58500003814697,10.7389507293701,10.5090007781982,-1.04895007610321,0.26595002412796,0.2710500061512,-0.56512498855591,-0.54367500543594,-0.54546248912811,2.47695016860962,2.54595017433167,1.357950091362,-0.4794625043869,-0.32587498426437,1.05118751525879,0.28558748960495,0.13282500207424,-0.18218749761581,10.8460502624512,7.28400039672852,-15.4110012054443,-0.42900002002716,-1.27695000171661,-20.002950668335,7.70481252670288,14.1248245239258,14.3389120101929,38.3880004882813,0.8479500412941,-32.719051361084,0.12677499651909,8.81787490844727,7.44631242752075,9.35192489624023,8.30348777770996,6.54169988632202,34.8439521789551,23.8669509887695,13.8750009536743,27.4200019836426,10.0279502868652,12.0679502487183,14.2340002059937,9.82877540588379,1.78461253643036,-3.84300017356873,5.58195018768311,25.7179508209229,-11.768762588501,-9.78958702087402,-8.59732532501221,-8.32218742370605,-6.89012479782104,-4.45142507553101,-17.355001449585,-16.2610511779785,-9.21405029296875,-10.0420503616333,-9.40095043182373,-6.13200044631958,-5.89242506027222,18.5734996795654,16.6881008148193,-37.3110008239746,-30.3670520782471,-9.92700004577637,5.65262508392334,4.09048748016357,2.93493747711182,1.04678750038147,0.84383749961853,1.35616254806519,8.94495010375977,-1.07100009918213,-3.41295027732849,2.9719500541687,-2.52405023574829,-5.38800048828125,SHAKE
-12.1526622772217,-10.3666753768921,-8.50354957580566,23.7430515289307,10.0740003585815,-1.34400010108948,-6.47900009155273,8.88167476654053,7.53307485580444,-1.85033750534058,4.89128732681274,2.9027624130249,29.7210006713867,35.3260498046875,24.3210010528564,18.211950302124,10.0110006332397,3.62595009803772,12.34255027771,8.87232494354248,9.14155006408691,-3.70005011558533,0.3790500164032,4.23405027389526,9.72675037384033,14.6368751525879,11.1086254119873,10.1627626419067,9.91787528991699,5.55953741073608,-5.49795007705688,-7.49295043945313,-8.44095039367676,-8.48099994659424,-7.62900018692017,-5.67795038223267,15.3278121948242,10.7783498764038,9.11776256561279,21.6640510559082,10.4710502624512,-1.04700005054474,1.3894374370575,-6.94636249542236,-5.29856252670288,5.11059999465942,-5.03318738937378,-4.36081266403198,29.7850513458252,27.939001083374,19.1929512023926,10.3540506362915,4.02300024032593,5.66805028915405,-7.57074975967407,-2.87856245040894,0.6543624997139,-2.32500004768372,0.68295001983643,4.2199501991272,-1.03537499904633,11.5277252197266,7.59481239318848,7.57528734207153,1.11457502841949,0.00288749998435,-3.4459502696991,-7.46895027160645,-6.57600021362305,-7.73205041885376,-7.71705055236816,-5.09295034408569,10.3493499755859,9.19476222991943,3.6596999168396,8.53905010223389,3.65700006484985,-30.316951751709,-5.91580009460449,-4.31860017776489,-3.37452507019043,-2.30353736877441,-3.36503744125366,-3.22588753700256,30.5989513397217,23.0569515228271,11.3490009307861,2.53605008125305,4.03005027770996,6.02700042724609,SHAKE
9.2780876159668,1.3836624622345,-18.7299747467041,0.61095005273819,-35.8860015869141,-33.1660499572754,-6.44654989242554,-5.06866264343262,-3.76585006713867,-4.1530499458313,-3.82800006866455,-3.12193751335144,27.3790512084961,20.3590507507324,11.0310001373291,2.02095007896423,3.64200019836426,5.40900039672852,-5.3179497718811,-2.87196254730225,-1.14977502822876,-2.06895017623901,-1.86795008182526,0.37395000457764,-2.71644997596741,0.61902499198914,10.2730379104614,3.98791241645813,5.14676237106323,2.12657499313354,-0.52095001935959,-1.91400003433228,-6.53805017471313,-4.85595035552979,-5.21295022964478,-6.07695007324219,11.2453002929688,10.2759246826172,6.86894989013672,12.6310510635376,6.47505044937134,-17.7660007476807,2.42508745193481,-4.20488739013672,-4.01224994659424,0.60321247577667,-1.66567504405975,-4.53048753738403,27.9900016784668,31.5739517211914,20.2870502471924,3.6499502658844,0.69495004415512,1.81800007820129,-6.73928737640381,-5.05931234359741,-0.91299998760223,-2.51700019836426,-2.99295020103455,1.07595002651215,-0.77302497625351,2.82424998283386,5.61508750915527,1.81651246547699,3.62037491798401,2.53041243553162,-0.94905006885529,-2.24895000457764,-4.71495008468628,-2.92905020713806,-2.14800000190735,-0.54900002479553,12.1313495635986,10.9796495437622,6.83691263198853,13.6290006637573,11.7970504760742,2.05305004119873,1.26568746566772,-2.05699992179871,-2.3724250793457,1.58372497558594,-1.6912499666214,-4.13338756561279,27.400951385498,29.4310512542725,18.4030513763428,-2.70105004310608,-2.63895010948181,0.97500002384186,SHAKE
9.29348754882812,7.482337474823,5.55733728408813,9.03000068664551,5.95500040054321,1.07595002651215,0.55206251144409,-1.14578747749329,-1.75037503242493,2.08656239509583,-0.13034999370575,-3.07284998893738,18.6690006256104,24.3930015563965,18.3330001831055,-1.91595005989075,-3.28800010681152,0.28095000982285,-7.8857626914978,-5.13315010070801,-0.9706124663353,-2.33700013160706,-0.78405004739761,2.92695021629334,-1.644087433815,1.98096251487732,5.66774988174438,0.67058748006821,3.05469989776611,2.21003746986389,1.68795013427734,-6.37905025482178,-8.38800048828125,-2.86395025253296,-4.91595029830933,-5.30895042419434,12.4834871292114,12.5376625061035,9.82423782348633,17.7880516052246,8.56500053405762,-14.4259510040283,1.6660875082016,-5.58029985427856,-3.63797497749329,0.1220999956131,-4.77069997787476,-4.00647497177124,26.3899517059326,28.8970508575439,15.8170509338379,7.64100027084351,2.86695003509521,3.62595009803772,-7.48453760147095,-3.52467489242554,-1.28149998188019,-2.22495007514954,1.25805008411407,3.94695019721985,-2.25775003433228,-1.43687498569489,5.81336259841919,1.09532499313354,3.47105002403259,4.2937126159668,0.5100000500679,-0.63105005025864,-2.98695015907288,-3.32205009460449,-3.46305012702942,-1.73205006122589,11.1612873077393,10.6171998977661,9.62884998321533,13.3680009841919,11.568000793457,7.68900012969971,0.97212499380112,0.85016250610352,-3.71456241607666,2.0074999332428,2.31701254844666,-5.57218742370605,10.3630504608154,15.7519512176514,21.8910007476807,1.86795008182526,2.47200012207031,-8.18400001525879,SHAKE
10.1971378326416,19.7747001647949,19.5816497802734,10.2790508270264,31.6870517730713,-0.09600000083447,7.80628728866577,4.90531253814697,0.7537750005722,7.37357473373413,5.33692502975464,5.95732498168945,-3.66705012321472,30.492000579834,36.472053527832,-1.00604999065399,11.9959506988525,13.4089508056641,-18.1528873443604,-13.5185871124268,-7.27746248245239,-32.7779998779297,-8.97000026702881,-5.91405010223389,-4.89114999771118,-3.34496259689331,6.47625017166138,-1.14221251010895,-0.19676250219345,7.38705015182495,2.79195022583008,-6.2839503288269,-15.6259508132935,1.20300006866455,-7.35105037689209,-12.1470003128052,14.9472122192383,12.932562828064,9.35715007781982,23.5390510559082,2.57505011558533,-19.560001373291,2.67492508888245,-8.90518760681152,-5.19887495040894,4.54190015792847,-1.22650003433228,0.19359999895096,38.1340522766113,28.6290016174316,9.48405075073242,13.2199506759644,-1.09995007514954,4.89000034332275,-6.82989978790283,-3.25751256942749,0.80808746814728,-3.65205025672913,9.49905014038086,15.7030506134033,10.7740879058838,5.04597520828247,3.17954993247986,2.59820008277893,2.35468745231628,2.87209987640381,-15.0250511169434,-5.05800008773804,13.7719507217407,-8.09805011749268,6.76500034332275,15.1399507522583,3.55946254730225,-19.3909378051758,-15.2388496398926,-51.376953125,-19.8850517272949,-3.53205013275146,-6.24442481994629,-3.29216241836548,-1.80991244316101,-0.72146248817444,-0.36822500824928,0.4131875038147,12.7570505142212,-1.72695004940033,-7.04295015335083,3.79995012283325,-3.38100004196167,-12.6469507217407,SHAKE
-15.0555620193481,-9.034987449646,-5.96832513809204,-6.78600025177002,-4.84200000762939,7.03995037078857,-0.25148749351501,13.3007869720459,2.81407499313354,1.85927498340607,3.91778755187988,1.70032501220703,-15.0559511184692,-16.5169506072998,-1.19595003128052,-20.6490001678467,-7.46805047988892,2.65605020523071,13.5843124389648,-12.6637496948242,-13.0948123931885,-10.1599502563477,-48.6840019226074,-0.46005001664162,-5.22046232223511,-2.83318758010864,-1.22567498683929,-1.39851248264313,-1.73249995708466,-0.00879999995232,7.32405042648315,-8.45100021362305,-14.5939502716064,4.57095003128052,-10.3939504623413,-19.8780002593994,4.63966226577759,23.6406497955322,18.5792751312256,19.5019512176514,3.31695008277893,-9.02700042724609,15.4031620025635,-8.23281288146973,-6.25542497634888,-2.04861259460449,0.45980000495911,0.62672501802444,41.6680526733398,20.7799510955811,11.0089502334595,20.3449516296387,-1.14300000667572,0.97500002384186,-5.81239986419678,-1.05503749847412,1.85267496109009,0.01005000062287,9.96795082092285,14.6920509338379,14.8847875595093,12.1871747970581,-6.90112495422363,7.70907497406006,5.18223762512207,10.1974124908447,-10.0759506225586,-2.37600016593933,29.6610012054443,-6.97305011749268,0.62595003843307,20.2870502471924,11.1644496917725,-6.39292478561401,-5.06549978256226,-41.7280502319336,-38.7090034484863,-18.6040515899658,-7.22755002975464,-2.97137498855591,-1.47523748874664,-8.34088706970215,-6.03308725357056,-4.51577520370483,14.0479507446289,1.25505006313324,-4.0639500617981,-4.97100019454956,-3.43200016021729,-6.46500015258789,SHAKE
5.19543743133545,5.1727499961853,-5.63241243362427,-0.75195002555847,11.6389503479004,15.5710506439209,10.3221244812012,7.35405015945435,-0.10711249709129,14.908299446106,9.05657482147217,6.80253744125366,-7.06395053863525,9.16605091094971,29.6320514678955,-6.77700042724609,1.08495008945465,7.27005052566528,12.1787872314453,6.13153743743896,4.80727481842041,-27.7770004272461,-3.62595009803772,-1.357950091362,-4.24036264419556,-3.05882501602173,-0.66439998149872,-7.39901256561279,-7.24872493743896,-12.7612371444702,0.60405004024506,-4.60995006561279,-6.14205026626587,-0.46305000782013,-11.7300004959106,-13.1740503311157,11.4351873397827,8.30802536010742,6.83540010452271,11.5200004577637,4.17900037765503,-0.98505002260208,-3.79706239700317,4.58150005340576,4.33496236801147,-5.54675006866455,15.252875328064,11.8666620254517,30.9030017852783,29.0209522247314,20.7900009155273,12.3499507904053,-1.84200012683868,-2.71800017356873,-6.80982494354248,-4.52168750762939,-2.28456258773804,-4.06605005264282,1.80600011348724,4.50900030136108,12.2806749343872,5.24590015411377,3.79940009117126,0.4268000125885,-8.24505043029785,-1.38737499713898,-11.4120006561279,-11.8530006408691,-8.37405014038086,-9.16605091094971,-6.13200044631958,0.0409500002861,9.06578731536865,6.18268728256226,-16.6016120910645,-13.6500005722046,-33.0660018920898,-23.5080013275146,-4.10052490234375,-3.71250009536743,-2.07047510147095,5.1976375579834,6.30368757247925,4.89032506942749,14.15505027771,7.10700035095215,-4.72005033493042,1.77705013751984,1.88700008392334,-5.63205003738403,SHAKE
-4.52168750762939,-2.28456258773804,4.90311241149902,1.80600011348724,4.50900030136108,14.4049510955811,5.24590015411377,3.79940009117126,3.38841247558594,-8.24505043029785,-1.38737499713898,0.38692501187325,-11.8530006408691,-8.37405014038086,20.2459506988525,-6.13200044631958,0.0409500002861,3.70905017852783,6.18268728256226,-16.6016120910645,-11.1123371124268,-33.0660018920898,-23.5080013275146,-4.7989501953125,-3.71250009536743,-2.07047510147095,3.87433743476868,6.30368757247925,4.89032506942749,3.27483749389648,7.10700035095215,-4.72005033493042,-12.5470504760742,1.88700008392334,-5.63205003738403,-9.29100036621094,20.3072376251221,14.2004499435425,11.4082374572754,22.7700004577637,4.21695041656494,-3.9340500831604,-1.07428753376007,-4.83986234664917,-3.65158748626709,-2.0596125125885,1.13506245613098,4.37483739852905,35.5339508056641,28.0849514007568,17.7640514373779,10.6699504852295,-1.21200001239777,-0.77595001459122,-8.16227531433105,-5.32097482681274,-2.98856258392334,-2.05200004577637,13.6099510192871,28.1700019836426,2.67630004882813,4.40714979171753,3.88409996032715,-3.00396251678467,-1.70334994792938,-1.78172504901886,-19.534049987793,6.8580002784729,31.8420009613037,-5.13600015640259,1.96395003795624,13.2000007629395,-20.1118507385254,-15.3819875717163,-9.07843780517578,-33.6450004577637,-14.5669507980347,-3.47505021095276,-4.05707502365112,-2.45478749275208,6.55462503433228,2.69293737411499,2.60053753852844,2.06607508659363,-2.0460000038147,-5.50995016098022,-15.9300003051758,-3.56595015525818,-5.59395027160645,-7.3080005645752,SHAKE
-8.16227531433105,-5.32097482681274,-2.98856258392334,-2.05200004577637,13.6099510192871,28.1700019836426,2.67630004882813,4.40714979171753,3.88409996032715,-3.00396251678467,-1.70334994792938,-1.78172504901886,-19.534049987793,6.8580002784729,31.8420009613037,-5.13600015640259,1.96395003795624,13.2000007629395,-20.1118507385254,-15.3819875717163,-9.07843780517578,-33.6450004577637,-14.5669507980347,-3.47505021095276,-4.05707502365112,-2.45478749275208,6.55462503433228,2.69293737411499,2.60053753852844,2.06607508659363,-2.0460000038147,-5.50995016098022,-15.9300003051758,-3.56595015525818,-5.59395027160645,-7.3080005645752,15.6762371063232,13.9577627182007,8.53311252593994,19.4040012359619,3.99900007247925,-21.385950088501,-11.9821624755859,-9.88831233978272,-4.01747512817383,-8.31448745727539,-7.5420126914978,0.48881250619888,42.316951751709,30.6349506378174,3.01500010490417,-0.23295001685619,-25.6750507354736,-6.52995014190674,-9.62362480163574,-6.24992513656616,7.44507503509521,-1.56405007839203,18.7240505218506,18.6190509796143,8.0029125213623,4.07096242904663,2.08890008926392,7.51616239547729,6.72347497940063,7.48976230621338,-14.3640003204346,5.04495000839233,43.0500030517578,-0.04395000264049,-0.00300000002608,15.7120504379272,-10.5558748245239,-9.72496223449707,-8.43809986114502,-7.389000415802,-2.38500022888184,-3.94905018806458,-7.47601222991943,-2.49631237983704,1.7632999420166,4.13008737564087,3.42003750801086,2.52614998817444,-1.60800004005432,-22.123950958252,-18.2070007324219,-2.33805012702942,-2.47200012207031,-3.63300013542175,SHAKE
-9.72496223449707,-8.43809986114502,-7.0112624168396,-2.38500022888184,-3.94905018806458,-1.53495001792908,-2.49631237983704,1.7632999420166,2.18006253242493,3.42003750801086,2.52614998817444,3.08068752288818,-22.123950958252,-18.2070007324219,-11.5800008773804,-2.47200012207031,-3.63300013542175,-3.09705018997192,11.4701128005981,-9.68673706054688,-7.54641246795654,-17.8429508209229,-39.0510025024414,-12.7810506820679,-6.97784996032715,-6.10939979553223,-0.32216250896454,2.45203757286072,5.36415004730225,3.78757500648499,7.17795038223267,-3.29100012779236,-21.211950302124,-4.15005016326904,-2.22705006599426,-2.55105018615723,2.44557499885559,11.1287002563477,9.12491226196289,16.0279502868652,5.3779501914978,-13.0639505386353,-14.484112739563,-10.6288871765137,-10.1314125061035,-23.5188255310059,-16.7729377746582,-3.25352501869202,42.9319534301758,33.4750518798828,10.3290004730225,-1.21005010604858,-18.2639999389648,-2.32605004310608,-6.10321235656738,-4.82748746871948,5.58717489242554,4.83195018768311,13.2240009307861,23.3760013580322,7.67428731918335,5.63199996948242,4.46283769607544,9.81516265869141,8.75586223602295,7.02075004577637,-16.7440509796143,-8.42700004577637,7.63995027542114,-1.60695004463196,-2.97000002861023,-2.40900015830994,6.26835012435913,-8.62248706817627,-7.78277492523193,-37.3230018615723,-33.6910514831543,-0.84600001573563,-7.7325873374939,-6.05866241455078,-3.01289987564087,1.95566248893738,2.67176246643066,4.61106252670288,5.06400012969971,3.00495004653931,2.69595003128052,0.30000001192093,-0.79995006322861,-2.42895007133484,SHAKE
14.1477870941162,11.269362449646,8.41513729095459,-0.02505000121891,-8.44799995422363,-28.1809520721436,1.25386250019073,-11.6010122299194,-8.94410037994385,0.82087498903275,-9.33267498016357,-5.89324998855591,37.5040512084961,33.6229515075684,25.2150020599365,11.3160009384155,-3.25005006790161,-8.5890007019043,-8.62977504730225,-7.20101261138916,-3.39391255378723,-4.57395029067993,-1.97100007534027,14.1850509643555,4.12417507171631,10.0869998931885,5.06467485427856,4.39890003204346,2.08587503433228,2.35028743743896,-17.1540012359619,-16.8709506988525,-14.4460506439209,-12.4150505065918,-9.50400066375732,-4.69395017623901,13.7718620300293,11.0521125793457,8.53489971160889,1.12395000457764,-7.62900018692017,-33.0060005187988,1.98137497901917,-11.8258247375488,-9.40788745880127,-1.07373750209808,-10.0946998596191,-5.75932502746582,41.9790000915527,35.9910011291504,24.7840518951416,13.4920501708984,-7.26000022888184,-10.6720504760742,-10.8070878982544,-9.1623125076294,-7.70714998245239,-5.4810004234314,-4.84905004501343,0.85605001449585,-3.86251258850098,0.21257500350475,9.90123748779297,2.94456243515015,4.02930021286011,6.25941228866577,-11.1420001983643,-16.9429512023926,-17.9299507141113,-10.7770509719849,-16.3390502929688,-12.492000579834,17.0783252716064,17.5740127563477,11.6406126022339,16.1909999847412,7.2199501991272,-10.4640007019043,2.77777504920959,7.92549991607666,-13.2182874679565,3.54200005531311,10.5320873260498,-11.3441619873047,31.8559513092041,37.1449508666992,34.5469512939453,13.1430006027222,9.20700073242188,-5.24895048141479,SHAKE
6.70821237564087,-15.5113744735718,-14.4340620040894,-13.8060007095337,-36.4200019836426,-21.9540004730225,-5.09533739089966,-3.94487500190735,-2.79124999046326,2.32306241989136,4.8717622756958,4.87960004806519,21.2689514160156,12.8719501495361,-0.10905000567436,-8.20604991912842,-1.79895007610321,-2.17500019073486,-5.12531232833862,-3.68389987945557,-1.5251499414444,2.99100017547607,10.4329500198364,20.7660007476807,15.675274848938,2.82314991950989,2.0286750793457,8.26883792877197,1.03826248645782,2.27686238288879,-16.1550006866455,-16.006950378418,-12.0870008468628,-11.8240509033203,-3.79305028915405,-0.78405004739761,13.6277627944946,11.485237121582,10.0120620727539,-8.02605056762695,-17.6629505157471,-42.577953338623,-13.6193752288818,-9.1495246887207,-7.8590874671936,-14.5122995376587,-1.95291244983673,2.79991245269775,38.7540016174316,21.9180011749268,12.8070001602173,11.8309507369995,-4.47300004959106,3.1800000667572,-8.3991870880127,-5.12558746337891,-2.73501253128052,-3.92505025863647,3.27900004386902,7.12905025482178,0.63414996862411,9.41682529449463,1.40758752822876,2.32154989242554,-0.86185002326965,-5.14566230773926,-9.36495018005371,-11.4580507278442,-12.0420007705688,-13.1449508666992,-14.3740510940552,-9.93900012969971,16.7939758300781,13.6433000564575,11.4555377960205,10.0590000152588,-0.76695001125336,-9.68100070953369,2.70462489128113,-9.10167503356934,-9.15241241455078,-2.16961240768433,-9.13687515258789,-4.64309978485107,22.8439502716064,38.2470016479492,30.8239517211914,6.44595050811768,3.9060001373291,-9.32400035858154,SHAKE
13.6433000564575,11.4555377960205,9.73348712921143,-0.76695001125336,-9.68100070953369,-21.8050518035889,-9.10167503356934,-9.15241241455078,-8.48264980316162,-9.13687515258789,-4.64309978485107,3.14503741264343,38.2470016479492,30.8239517211914,20.3680515289307,3.9060001373291,-9.32400035858154,-4.07100009918213,-10.4260749816895,-8.01542472839355,-6.39704990386963,-5.80200004577637,-2.00205016136169,2.25104999542236,-3.48988747596741,-0.8094624876976,15.5303497314453,5.63213729858398,4.7519998550415,8.95413780212402,-5.09595012664795,-8.625,-13.042950630188,-5.90295028686523,-11.8480501174927,-15.8749504089355,22.6847496032715,18.1506881713867,14.6576375961304,12.2620506286621,2.44500017166138,-3.39795017242432,0.96648746728897,-11.4633750915527,-7.49196243286133,-1.01639997959137,-8.92856216430664,0.50050002336502,39.9799537658691,33.0889511108398,14.4760503768921,27.3820514678955,6.07005023956299,-10.6390504837036,-6.52258729934692,-5.69346237182617,-1.17672502994537,-1.43205010890961,1.24095010757446,15.7429504394531,4.9282751083374,3.47998738288879,2.36940002441406,1.59967494010925,2.17428755760193,1.36771249771118,-13.6410007476807,-9.65700054168701,30.1440010070801,-6.77205038070679,-2.43795013427734,16.8109512329102,8.38584995269775,-14.1314249038696,-12.1045370101929,-46.9650039672851,-33.6240005493164,-7.77195024490356,-8.0144624710083,-6.09991264343262,-4.09722518920898,-1.27407503128052,2.3782000541687,1.64065003395081,13.981050491333,-2.22300004959106,-7.72695016860962,1.35105001926422,-4.83705043792725,-14.7040510177612,SHAKE
11.3152875900269,9.43194961547852,5.01943731307983,5.80005025863647,-0.99195003509521,-29.5440006256104,-10.7153749465942,-7.34057474136353,-3.82827496528625,-0.39393749833107,1.34942495822906,4.06161260604858,30.492000579834,23.0839519500732,11.1390008926392,0.78405004739761,-2.17500019073486,6.53205013275146,-4.37538766860962,-1.79203748703003,0.19786250591278,-4.875,1.1910001039505,5.43600034713745,5.6611499786377,9.32566261291504,7.23689985275268,-2.93974995613098,-1.61424994468689,0.83146250247955,-3.82995009422302,-7.213050365448,-8.45805072784424,-6.07695007324219,-9.39105033874512,-4.2460503578186,7.96083736419678,5.84993743896484,5.49615001678467,0.53205001354218,-16.336950302124,-30.9370517730713,-14.7082376480103,-11.8079500198364,-7.85427474975586,-4.87011241912842,-2.27631258964539,3.54213738441467,31.7250022888184,30.2640018463135,17.0860500335693,12.892050743103,3.88905024528503,3.14205026626587,-6.26436233520508,-3.42265009880066,-1.07414996623993,-4.98105001449585,-4.9830002784729,-1.08300006389618,-0.02199999988079,8.5256872177124,8.64696216583252,0.38183748722076,-0.52538752555847,-1.1336874961853,-0.73605000972748,-7.28505039215088,-7.69905042648315,-6.50805044174194,-6.69300031661987,-5.68995046615601,13.5569496154785,8.21975040435791,6.26422500610352,10.0380001068115,-0.34305000305176,-19.7730007171631,-3.90046238899231,-11.4113998413086,-10.3131875991821,-13.7373495101929,-1.99801254272461,0.88247501850128,24.07200050354,25.9930515289307,20.9790000915527,14.0359506607056,15.7309503555298,2.15805006027222,SHAKE
8.00882530212402,6.06292486190796,3.76021242141724,3.81705021858215,-9.43905067443848,-23.9910011291504,-10.2929744720459,-6.96616268157959,-6.10417509078979,-0.20336249470711,3.94872498512268,5.19227504730225,31.3699512481689,18.8410511016846,13.7770509719849,9.78405094146728,3.76500010490417,7.20705032348633,-3.03531241416931,-2.47101259231567,-1.5576000213623,-5.89995050430298,-1.79100012779236,3.19695019721985,2.3095874786377,11.8629503250122,9.63943767547607,0.45746248960495,0.18232500553131,-2.4534125328064,-6.80295038223267,-11.6470508575439,-16.6750507354736,-12.8359508514404,-14.5440006256104,-12.4170007705688,12.1730127334595,8.07427501678467,6.76170015335083,12.2980508804321,-9.6540002822876,-41.8290023803711,-18.5865631103516,-11.8263750076294,-9.77886199951172,-11.1762752532959,0.50104999542236,4.83133745193481,39.2119522094727,22.1809501647949,14.0479507446289,11.5290002822876,-1.2720000743866,4.47600030899048,-6.54582500457764,-2.61153745651245,-0.37578749656677,-2.11500000953674,2.78295016288757,4.49700021743774,8.38791275024414,6.80184984207153,5.76331233978271,-3.02005004882813,-6.60549974441528,-4.97928762435913,-3.24105024337769,-6.1210503578186,-8.61600017547607,-7.21200037002563,-9.18000030517578,-12.3480005264282,11.7425003051758,7.18382501602173,6.50526237487793,18.1930503845215,1.0639500617981,-8.91495037078857,4.44716262817383,-18.1343250274658,-10.3567752838135,0.51314997673035,-1.66141247749329,-0.54422497749329,25.4320507049561,38.0119514465332,31.4659519195557,13.303050994873,20.2060508728027,0.89595001935959,SHAKE
1.79066252708435,6.90277481079102,11.7375497817993,7.21200037002563,11.8410005569458,14.0310010910034,6.75262498855591,5.39013767242432,-11.0448246002197,2.4429624080658,2.14541244506836,-1.26816248893738,-3.89895009994507,12.1440010070801,40.911003112793,-2.72805023193359,0.73605000972748,22.4569511413574,-15.0913124084473,-11.9125871658325,-10.551474571228,-42.5230522155762,-15.7429504394531,-5.77605009078979,-4.94422483444214,-3.03682494163513,-0.11288750171661,-0.88714998960495,-0.49156248569489,1.1418000459671,-5.30205011367798,-16.1790008544922,-25.8790512084961,-4.28894996643066,-10.8109502792358,-20.8930511474609,7.16058731079102,13.1502246856689,11.2685375213623,34.9210510253906,-5.9239501953125,-12.0319509506226,5.3356876373291,-11.7085371017456,-9.71162509918213,0.78031247854233,-6.06746244430542,-4.16006231307983,43.737003326416,22.4850006103516,10.4610004425049,27.445951461792,-1.04895007610321,6.20700025558472,-4.18673753738403,-3.23771238327026,-1.19748747348785,2.4019501209259,7.67205047607422,13.5960006713867,11.7115621566772,10.6863622665405,8.93846225738525,4.62536239624023,3.86209988594055,3.27277493476868,-16.1909999847412,-11.2590007781982,-1.58100008964539,-18.2140502929688,-3.08700013160706,0.59700000286102,6.29997491836548,-11.2870998382568,-8.77071285247803,-37.6339530944824,-27.4080009460449,-8.83995056152344,-6.81628751754761,-2.80981254577637,-0.06544999778271,-1.09037494659424,1.19886255264282,3.29697489738464,3.27300024032593,-7.61505031585693,-13.7080507278442,1.9980001449585,-6.93000030517578,-15.9990005493164,SHAKE
-2.71851253509521,12.3542375564575,17.2555618286133,10.5450000762939,29.8240509033203,11.812050819397,8.18028736114502,6.67246246337891,5.50742483139038,3.40339994430542,2.84336256980896,2.11983752250671,-0.45405003428459,23.5339508056641,41.2369537353516,-1.58295011520386,15.5520009994507,27.0780010223389,8.32163715362549,-14.5821495056152,-7.78579998016357,-57.4180526733398,-16.5450000762939,-9.46005058288574,-7.53527498245239,-5.78366231918335,-3.29216241836548,-0.99426251649857,-0.55879998207092,0.90639996528625,-3.50895023345947,-15.7669506072998,-26.4580516815186,-3.77400016784668,-16.8589515686035,-27.8920516967773,15.9966125488281,15.4404249191284,9.19228744506836,13.4419507980347,2.50800013542175,-34.1340026855469,6.27096223831177,-12.7881870269775,-8.96596240997314,2.56643748283386,-10.7354497909546,-2.43416237831116,45.6330032348633,45.3720016479492,15.178050994873,28.5960006713867,3.02205014228821,-1.76805007457733,-6.97620010375977,-5.68507480621338,-4.72147512435913,-7.15005016326904,-0.29505002498627,11.3590507507324,-1.25496244430542,11.7468996047974,11.9827127456665,1.8683500289917,5.37941265106201,5.23957490921021,-24.1039505004883,-24.2380504608154,-23.9149513244629,-22.1650505065918,-18.6739501953125,-10.7509508132935,14.9800748825073,12.1941871643066,9.78573703765869,5.3449501991272,-1.5090000629425,-23.9239501953125,5.74364995956421,-15.9236001968384,-14.0087747573853,3.39501237869263,-12.3193120956421,-6.66696262359619,47.7949523925781,49.8610534667969,36.2190017700195,32.1799507141113,11.8909502029419,-6.47205018997192,SHAKE
8.75256252288818,6.79827499389648,10.960675239563,-6.93195009231567,-33.961051940918,-58.933952331543,-16.1360378265381,-12.9855003356934,-8.38557529449463,-7.71127510070801,-4.90077495574951,-1.29387497901917,37.2049522399902,26.2030506134033,2.63895010948181,2.21805000305176,-13.4730005264282,-1.19805002212524,-5.84361267089844,-5.16546249389648,-4.04676246643066,0.46305000782013,10.0710000991821,15.9540004730225,8.95496273040771,12.242862701416,9.91608715057373,5.30447483062744,5.17398738861084,5.666100025177,-18.4039516448975,-16.7400016784668,-16.0570507049561,-23.0599517822266,-18.316951751709,-9.6040506362915,11.1358499526978,9.33047485351562,7.97060012817383,-0.49605002999306,-3.25395011901855,-26.4310512542725,5.46823740005493,-15.2517747879028,-12.7325000762939,2.26476240158081,-11.0178747177124,-6.93494987487793,38.4360008239746,38.8309516906738,31.0020008087158,24.6139507293701,0.48195001482964,-16.6720504760742,-8.12748718261719,-6.08272504806519,-4.93473768234253,-6.97005033493042,-7.11195039749146,-4.09200000762939,-3.16002488136292,8.30527496337891,10.5047245025635,1.884850025177,5.34613752365112,4.84522485733032,-6.9060001373291,-12.7890005111694,-12.3990001678467,-9.42900085449219,-15.0510005950928,-9.99705028533936,14.2929878234863,8.409912109375,7.19056224822998,8.79495048522949,-6.08205032348633,-29.7640514373779,-22.322437286377,-14.2470626831055,-10.0178375244141,-17.6837368011475,-11.8749122619629,-8.89776229858398,31.9639511108398,29.3449516296387,22.9450511932373,19.7059516906738,-4.88505029678345,-16.3200016021729,SHAKE
5.91882514953613,6.02964973449707,5.56572484970093,3.08700013160706,-5.11995029449463,-22.6699504852295,-14.018949508667,-10.439962387085,-8.49598789215088,-15.7591495513916,-10.9406003952026,-7.22672510147095,35.0719528198242,27.4680004119873,16.7790012359619,-5.40900039672852,-10.453950881958,-4.68600034713745,-2.43595004081726,-2.07734990119934,-2.09879994392395,-3.1560001373291,-2.81400012969971,0.95400005578995,-3.3796124458313,10.2295875549316,11.6102247238159,1.55141246318817,9.21195030212402,9.21662521362305,-10.8379507064819,-14.4529504776001,-13.407000541687,-11.2320003509521,-10.53600025177,-4.15005016326904,7.47051239013672,6.82989978790283,5.44046258926392,1.72905004024506,-3.76200008392334,-17.3110504150391,5.61068725585938,-17.8259124755859,-12.1548624038696,6.42207479476929,-21.1631755828857,-11.290675163269,34.078052520752,35.7900009155273,29.3950519561768,20.098051071167,5.43105030059814,-4.91895008087158,-4.00812482833862,-3.12991237640381,-2.12451243400574,-5.43300008773804,-4.10400009155273,-2.97705006599426,-4.86667490005493,-2.67588758468628,10.563850402832,0.91588747501373,3.25091242790222,7.10269975662231,-3.79605007171631,-7.48305034637451,-11.9149503707886,-9.63300037384033,-13.0380010604858,-4.34205007553101,9.49492454528809,9.48970031738281,7.16306257247925,7.85400056838989,-0.33300000429153,-19.1909999847412,4.83573770523071,-13.7328128814697,-10.3365621566772,6.81408739089966,-12.1789245605469,-8.53696250915527,35.5200004577637,35.3500518798828,28.3180522918701,9.44099998474121,-1.03005003929138,-7.68405055999756,SHAKE
8.62345027923584,6.01163768768311,-13.0395374298096,-14.7850503921509,-29.8170013427734,-20.8050003051758,-9.70296287536621,-6.36061239242554,-5.33197498321533,-12.2938747406006,-5.50151252746582,-3.79403758049011,20.1079502105713,10.1449508666992,7.41795015335083,-5.15100002288818,2.12700009346008,1.41105008125305,-4.08443737030029,-2.55378746986389,-1.14977502822876,-1.98495006561279,0.98205006122589,2.88105010986328,3.36008739471436,8.86036205291748,7.50323724746704,2.40872502326965,4.94862508773804,5.75946235656738,-9.97995090484619,-9.97995090484619,-10.9840507507324,-8.19600009918213,-3.26895022392273,0.26205000281334,10.2378377914429,8.08376216888428,5.84705018997192,-1.57605004310608,-13.7680501937866,-27.7600517272949,-13.5664377212524,-8.30060005187988,-6.99819993972778,-11.6385498046875,-5.19420003890991,-2.36541247367859,32.4930000305176,19.6480503082275,13.6360502243042,10.2289505004883,-1.64805006980896,1.97595012187958,-5.07058763504028,-3.98007488250732,-2.8920373916626,-3.84105014801025,-5.01405000686646,-3.25005006790161,-2.07473754882813,-0.69767498970032,6.1562876701355,1.15458750724792,0.38843750953674,2.64893746376038,1.59195005893707,0.1540500074625,-0.65505003929138,-6.14400005340576,-5.85705041885376,-2.47200012207031,8.88703727722168,8.69563770294189,7.8706374168396,7.86600017547607,4.9549503326416,2.95800018310547,3.81053757667542,0.24818749725819,-6.12617492675781,4.85498762130737,2.35262489318848,-2.83964991569519,2.30805015563965,14.6530504226685,20.1510009765625,-2.58405017852783,2.68005013465881,8.43600082397461,SHAKE
0.69808751344681,9.81021213531494,11.1817750930786,14.7160511016846,18.7669506072998,2.60805010795593,7.72791242599487,6.50374984741211,-18.4574489593506,4.31722497940063,4.08223724365234,-17.145975112915,0.55305004119873,22.9780502319336,40.381950378418,2.95305013656616,11.4480009078979,9.93495082855225,-7.23414993286133,5.0792498588562,4.88345003128052,-18.7309513092041,-4.3289999961853,-3.61605024337769,4.45761251449585,5.55665016174316,8.56680011749268,-10.1253623962402,-6.05852508544922,-3.89647507667542,-9.79605007171631,-13.7040004730225,-15.6670503616333,-12.1350002288818,-16.0999507904053,-14.2870502471924,21.8429756164551,14.9015626907349,11.6898374557495,6.6589503288269,-5.54295015335083,-29.742000579834,3.46994996070862,-10.4468374252319,-6.86688756942749,8.43191242218018,-0.4808374941349,-0.62150001525879,38.8669509887695,35.2800025939941,24.2089519500732,19.7779502868652,-2.61795020103455,-9.45600032806396,-9.4491376876831,-6.18791246414185,-3.23661255836487,-3.60900020599365,3.65895009040833,8.41200065612793,10.4427127838135,7.74578762054443,5.61797475814819,-1.78859996795654,-0.6708624958992,0.52085000276566,-13.2370510101318,-12.6739501953125,-9.58500003814697,-12.4990501403809,-4.12095022201538,0.8770500421524,10.8211126327515,-16.8870620727539,-17.3360004425049,-9.28605079650879,-48.5970039367676,-24.9990005493164,-3.99176239967346,-2.92888736724854,-2.07501244544983,1.11113750934601,0.3753750026226,0.08071249723434,11.248950958252,3.71400022506714,-1.94295012950897,0.38595002889633,2.45205020904541,-2.32800006866455,SHAKE
18.6371631622314,15.3731870651245,10.6504745483398,12.163950920105,4.01805019378662,-11.5000505447388,-3.96398758888245,-8.2754373550415,-6.08561229705811,4.99523735046387,4.05597496032715,2.74078750610352,40.183952331543,33.1129531860352,22.303050994873,12.7840509414673,-2.16795015335083,-4.60995006561279,-11.2829751968384,-8.82254981994629,-7.24487495422363,-4.03695011138916,-4.07805013656616,-2.19405007362366,-1.60696244239807,3.8480749130249,11.2662000656128,0.57846248149872,2.53013753890991,-2.16507506370544,-3.50895023345947,-11.2090501785278,-13.0759506225586,-6.14400005340576,-14.0050506591797,-12.3820505142212,16.1143131256104,11.6859874725342,9.37928771972656,6.93000030517578,-4.62405014038086,-20.4379501342773,-6.24896240234375,-6.59738731384277,-4.33111238479614,7.14394998550415,2.67836236953735,1.6935875415802,42.6619529724121,30.4480514526367,18.0010509490967,16.1190013885498,-9.84105014801025,-4.16400003433228,-8.22029972076416,-5.90452480316162,-3.38868737220764,-3.67605018615723,12.4300508499146,18.2880001068115,5.35535001754761,2.80651259422302,2.21801257133484,1.32398748397827,1.84621250629425,1.68299996852875,-16.5310516357422,-5.65395021438599,8.52195072174072,-4.33004999160767,-2.9890501499176,-0.91305005550385,9.47649955749512,-23.1621494293213,-17.8430995941162,-48.3820533752441,-33.1930503845215,-13.1119508743286,-3.32846260070801,-2.75343751907349,-1.94452500343323,0.46392500400543,-0.09473749995232,-0.12883749604225,9.6109504699707,2.78700017929077,-1.72995007038116,3.40800023078919,0.18000000715256,-5.29200029373169,SHAKE
14.4278745651245,12.2413501739502,9.92584991455078,5.00205039978027,1.23405003547668,-12.3100509643555,2.68413758277893,-9.94881248474121,-7.3269624710083,2.0656623840332,4.47218751907349,2.13606238365173,38.4169502258301,43.8229522705078,34.7730026245117,15.2089509963989,8.42895030975342,-5.57205009460449,-14.6973752975464,-11.334400177002,-8.2125997543335,-7.94505023956299,-5.76600027084351,-4.05194997787476,-2.34148740768433,1.02478754520416,11.5055875778198,-0.35585001111031,0.7899374961853,0.04509999975562,-4.93305015563965,-18.2190017700195,-20.0050506591797,-3.62595009803772,-17.0599498748779,-15.1540508270264,16.4799251556396,11.4764375686646,9.31040000915527,7.42995023727417,-7.23105049133301,-33.9439506530762,5.56806230545044,-6.22036266326904,-4.29536247253418,5.09121227264404,1.61755001544952,0.61366248130798,44.5650024414063,25.6840515136719,14.6370010375977,11.9149503707886,-4.19295024871826,2.24895000457764,-10.7068500518799,-7.06186246871948,-4.3975248336792,-4.11600017547607,3.32895016670227,9.57300090789795,4.97708749771118,7.44933748245239,3.95064997673035,2.08862495422363,-0.08153750002384,1.10371243953705,-17.1199512481689,-15.3390007019043,1.98795008659363,-16.9930515289307,-3.68805027008057,1.13295006752014,10.6126623153687,-23.876049041748,-18.9730739593506,-19.3920001983643,-40.3729515075684,-16.0590000152588,-5.91882514953613,-3.57156252861023,-0.96745002269745,2.65168738365173,0.64294999837875,0.66068750619888,19.3080005645752,3.98400020599365,-3.67605018615723,0.78405004739761,2.8090500831604,-7.91100025177002,SHAKE
9.52297496795654,7.63413763046265,-18.3822364807129,-11.9820003509521,-33.0799522399902,-21.3720016479492,-6.01191234588623,-3.37892508506775,-2.51501250267029,1.68244993686676,0.00481249997392,-0.32835000753403,23.0959510803223,10.4059505462646,5.81400012969971,2.93100023269653,4.02104997634888,-1.09005010128021,-4.86172485351563,-2.59929990768433,-0.7235249876976,1.84395003318787,4.41105031967163,6.97800016403198,4.84714984893799,10.5544996261597,8.59306240081787,2.08917498588562,0.40507498383522,0.63827496767044,-7.91895055770874,-9.58305072784424,-9.12600040435791,-7.29600048065186,-3.8580002784729,0.08400000631809,12.288649559021,10.4982624053955,7.46075010299683,-1.38000011444092,-11.0929508209229,-29.308952331543,-9.28578758239746,-4.86323738098145,-3.41288757324219,1.92665004730225,-1.28823745250702,-1.83369994163513,33.6469497680664,21.7720508575439,14.7870006561279,4.52595043182373,-3.28995013237,1.69095003604889,-6.02002477645874,-4.34170007705688,-2.2199375629425,-2.89995002746582,-1.44000005722046,0.19005000591278,-0.93582499027252,8.05516242980957,5.9951376914978,0.52758747339249,1.62538754940033,3.05909991264343,-4.19400024414063,-7.22505044937134,-7.45905017852783,-5.89995050430298,-0.07005000114441,1.28205001354218,11.5022878646851,9.2589750289917,6.13648748397827,1.36800003051758,-2.70405006408691,-16.1880016326904,-0.71596246957779,-4.71377515792847,-3.3156750202179,4.61862516403198,-1.77773749828339,-2.06126260757446,28.5690021514893,25.7050514221191,18.681001663208,10.2840003967285,-1.69305002689362,-1.18800008296967,SHAKE
8.19995021820068,5.85406255722046,0.60280001163483,0.4870500266552,-10.3650007247925,-22.6270503997803,-10.0332374572754,-5.94976234436035,-3.07450008392334,2.47747492790222,-0.14547500014305,-0.08607500046492,26.3280010223389,27.7480506896973,23.0910015106201,4.10400009155273,-5.61495018005371,-5.15805006027222,-10.0552377700806,-6.38604974746704,-4.64090013504028,-7.14300012588501,-2.89005017280579,-1.19805002212524,0.00646249996498,-0.00783750042319,4.886887550354,-0.17710000276566,0.75116246938705,-6.31895017623901,-2.50995016098022,-5.74305009841919,-8.00505065917969,-7.13595056533813,-7.89705038070679,-2.29695010185242,17.3034114837646,13.0315628051758,7.70728731155396,9.92805004119873,-3.56595015525818,-21.4960517883301,-1.63913750648499,-1.61699998378754,0.09088750183582,8.43287467956543,4.53529977798462,0.72558748722076,27.5800514221191,23.098051071167,12.8050508499146,8.77605056762695,-2.93100023269653,1.54005002975464,-6.15243768692017,-2.35179996490479,-0.73205000162125,-2.64600014686584,-0.01500000059605,0.7219500541687,0.67031252384186,1.73758745193481,2.25211238861084,-0.40534999966621,1.08955001831055,1.29043745994568,4.58295011520386,4.66695022583008,4.94700002670288,-3.22095012664795,0.62295001745224,1.85595011711121,1.9265124797821,2.62858748435974,1.86161243915558,2.00999999046326,1.24095010757446,0.27600002288818,-1.23873746395111,-0.2072124928236,-0.19676250219345,0.96442496776581,0.76243752241135,0.74978750944138,9.9460506439209,11.6250009536743,17.3539505004883,-1.19505000114441,1.2720000743866,5.76405048370361,SHAKE
2.62858748435974,1.86161243915558,1.19927501678467,1.24095010757446,0.27600002288818,0.56295001506805,-0.2072124928236,-0.19676250219345,-0.62727499008179,0.76243752241135,0.74978750944138,0.63373750448227,11.6250009536743,17.3539505004883,17.3110504150391,1.2720000743866,5.76405048370361,2.66100001335144,-2.70214986801147,-2.37462496757507,-1.8825124502182,-6.39300012588501,-2.09100008010864,0.2119500041008,3.13871240615845,5.56379985809326,2.61387491226196,0.73535001277924,-2.89739990234375,-4.61642503738403,0.69900006055832,-3.64305019378662,-4.58100032806396,-5.36205005645752,-3.3120002746582,-0.32205000519753,13.3275995254517,11.3379745483398,8.36673736572266,3.72900009155273,-1.73400008678436,-10.4830503463745,-2.46083760261536,-1.552374958992,-1.11457502841949,5.48033761978149,2.54760003089905,1.41226243972778,21.8740501403809,18.0169506072998,14.7400503158569,6.83595037460327,3.40995025634766,1.40895009040833,-6.78039979934692,-3.5824248790741,-2.06621241569519,-3.36705017089844,-0.82905006408691,-0.44100001454353,2.62982487678528,3.0416374206543,2.41546249389648,-0.64116251468658,0.13282500207424,0.38252499699593,5.84700012207031,6.04800033569336,6.63705015182495,-2.83605003356934,-0.01005000062287,1.68600010871887,1.29414999485016,0.23636250197887,-0.55879998207092,-0.28305000066757,-3.85305023193359,-5.65095043182373,-1.49751245975494,-0.91657501459122,-0.40039998292923,0.53171247243881,0.44426250457764,0.54780000448227,16.617000579834,17.0740509033203,15.901050567627,1.62900006771088,-0.23505000770092,-1.45605003833771,SHAKE
12.4302749633789,8.34638786315918,-18.5623626708984,-7.22895050048828,-37.9980010986328,-33.552001953125,-0.59193748235703,0.03602499887347,0.54216247797012,2.36829996109009,0.00247499998659,-0.31941249966621,18.8980503082275,7.40295028686523,4.14705038070679,-2.36400008201599,2.52195000648499,-0.57105004787445,-1.21054995059967,0.6846125125885,3.32310009002686,3.3120002746582,4.32000017166138,6.69795036315918,4.30952501296997,2.79097509384155,1.91757500171661,-4.05597496032715,-1.88113749027252,-0.13516250252724,-5.3860502243042,-6.23295021057129,-6.1279501914978,-2.54805016517639,-0.29805001616478,2.33505010604858,10.8996248245239,9.34298706054688,6.17567491531372,-2.3970000743866,-10.1400003433228,-21.4560012817383,-1.9013500213623,-0.94104999303818,-0.02502499893308,6.6554126739502,3.9030749797821,0.95370000600815,40.1719512939453,24.681001663208,6.43905019760132,4.82295036315918,-2.44995021820068,4.86795043945313,-6.94237518310547,-3.54227495193481,0.81262499094009,-1.23600006103516,9.54900074005127,13.1809501647949,2.58637499809265,1.04458749294281,0.48262500762939,-3.8567373752594,-2.159987449646,-0.35007500648499,-12.4129505157471,-10.7490005493164,5.63205003738403,-5.98395013809204,3.30000019073486,-1.81095004081726,8.13353729248047,3.41604995727539,-17.401725769043,-15.3100509643555,-36.1180534362793,-15.4150505065918,1.02478754520416,0.86006247997284,0.69272500276566,3.47957491874695,1.14111244678497,0.78663748502731,18.8359508514404,6.27600049972534,2.47395014762878,-2.20800018310547,1.48500001430511,-1.95195007324219,SHAKE
-3.10804986953735,0.78154999017715,4.14397478103638,5.54595041275024,5.15805006027222,6.42495012283325,-1.91138744354248,-1.76742494106293,-0.73081248998642,-0.57585000991821,0.03932499885559,1.8547375202179,13.6429510116577,24.0220508575439,25.7220020294189,-0.01005000062287,6.48000049591064,-2.67300009727478,-7.10517501831055,-5.95209980010986,-5.08708763122559,-7.54305028915405,-4.59794998168945,-3.79995012283325,0.27706250548363,0.70345002412796,2.51075005531311,0.20913749933243,0.19263750314713,-2.93727493286133,-0.4870500266552,-5.5009503364563,-12.9019508361816,0.2569500207901,-2.007000207901,-2.42895007133484,18.3174743652344,15.3638372421265,10.0072498321533,15.0780010223389,-1.78905010223389,-34.4640007019043,-6.95447492599487,0.48730000853539,1.14207494258881,6.53358745574951,2.41051244735718,-0.04455000162125,37.4370002746582,22.453950881958,5.91195011138916,5.46000003814697,-7.77495050430298,1.84905004501343,-7.02556228637695,-2.27589988708496,3.1768000125885,0.91995006799698,11.3760004043579,14.0740509033203,4.11826229095459,1.4470499753952,0.9147874712944,-3.7338125705719,0.74634999036789,1.27778744697571,-10.2199506759644,-4.28894996643066,5.46195030212402,0.16095000505447,2.69700002670288,1.18800008296967,10.1556119918823,-15.2777624130249,-14.55299949646,-12.5440502166748,-28.5400505065918,-17.4649505615234,0.95342499017715,1.20064997673035,1.89364993572235,1.70114994049072,0.4644750058651,-0.0276375003159,13.2910509109497,8.22900009155273,1.7410501241684,-1.60200011730194,-0.28095000982285,-4.06095027923584,SHAKE
16.6435489654541,14.6597003936768,12.3414497375488,10.9330501556396,3.89205026626587,-3.41700005531311,0.54381251335144,-0.25602498650551,-4.21286249160767,1.07085001468658,2.91995000839233,6.18447494506836,22.6000518798828,34.8370513916016,36.2400016784668,4.87995004653931,17.5819511413574,11.3380508422852,-15.2418746948242,-12.5860624313354,-8.20971202850342,-18.5280017852783,-7.23600053787232,-3.73095011711121,-0.65793746709824,0.35777500271797,6.85465002059937,0.5741999745369,0.69244998693466,-7.63056230545044,-6.92805051803589,-14.3479509353638,-21.0900001525879,-3.91800022125244,-11.1030006408691,-11.4810009002686,17.9086875915527,14.9925870895386,12.3204126358032,-0.81000006198883,-13.453950881958,-39.4320030212402,2.02235007286072,-5.20685005187988,-3.10763740539551,-0.21477499604225,8.54370021820068,5.83687496185303,43.9159507751465,40.1140518188477,26.3449516296387,15.1590003967285,5.20605039596558,0.4650000333786,-9.28262519836426,-5.8469123840332,-4.3396372795105,-4.95195007324219,7.09695053100586,19.5049514770508,12.2859001159668,3.52426242828369,2.30326247215271,-2.05988740921021,-1.44663751125336,-0.81014996767044,-21.2599506378174,-15.5500507354736,-4.1050500869751,-10.9930505752563,0.05100000277162,0.21105000376701,10.7707872390747,22.8397121429443,-19.0942115783691,-46.2919540405273,-45.9210014343262,-10.5949506759644,-1.2531750202179,-0.7540500164032,0.17916250228882,0.68433749675751,0.08758749812841,-0.08621250092983,6.36705017089844,0.76905006170273,-2.61600017547607,3.56595015525818,-0.74805003404617,-4.74900007247925,SHAKE
-1.39122498035431,0.35530000925064,0.83916246891022,-4.0090503692627,-1.24800002574921,3.67095017433167,0.30195000767708,-2.97426247596741,-3.14517498016357,-2.62047505378723,0.52126252651215,1.27613747119904,-27.2860507965088,-31.8859519958496,-25.3690509796143,7.57395029067993,8.72504997253418,8.60295009613037,-4.41677474975586,-3.38085007667542,-2.32512497901917,0.86295002698898,-0.25005000829697,3.18495011329651,-1.44980001449585,-0.96415001153946,-0.62356251478195,0.93279999494553,1.02671253681183,1.13423752784729,-6.08700037002563,-0.10605000704527,6.16095018386841,3.26895022392273,0.33105000853539,-1.14495003223419,5.46273756027222,12.5059003829956,9.38891220092773,2.09805011749268,0.00300000002608,13.6410007476807,5.82106256484985,-13.8793878555298,-9.52847480773926,-7.08716249465942,-3.9250750541687,-3.35898756980896,-44.2600517272949,-31.0000514984131,-16.2319507598877,13.2940502166748,13.1599502563477,-0.57300001382828,-4.34266233444214,-1.16861248016357,-0.66288751363754,-0.84300005435944,-0.03195000067353,-0.34800001978874,-3.48534989356995,-2.30010008811951,18.0434379577637,-0.08524999767542,-0.01457499992102,2.15847492218018,13.2340507507324,15.7950010299683,11.5530004501343,3.19905018806458,0.13199999928474,-5.29200029373169,8.40468788146973,6.55544996261597,17.8162879943848,1.78200006484985,13.5190505981445,11.8210506439209,-18.0448131561279,-11.0591249465942,-7.12676239013672,-0.82142502069473,-2.22612500190735,-1.77306246757507,-34.8090019226074,-18.9469509124756,-7.02105045318604,7.18605041503906,1.8229501247406,-1.12395000457764,SHAKE
0.32518750429153,1.1837375164032,10.5690746307373,-0.94200003147125,-0.78105002641678,-2.33700013160706,17.6156749725342,13.928337097168,11.618200302124,2.6148374080658,-0.30305001139641,-5.60559988021851,2.65305018424988,-29.7550506591797,-38.6950531005859,-4.73895025253296,5.20800018310547,5.02395009994507,-15.7728996276855,-6.365149974823,-3.19440007209778,8.7450008392334,2.79495024681091,-0.93195003271103,-5.97327518463135,-4.90792512893677,-4.06161260604858,-1.32714998722076,-1.01364994049072,-0.78044998645782,0.13199999928474,9.59205055236816,18.2590503692627,-0.8359500169754,1.2150000333786,2.86695003509521,0.35076248645782,10.6059246063232,8.39368724822998,-2.74200010299683,-0.69495004415512,5.98200035095215,13.6508626937866,14.762825012207,-15.4023370742798,-1.41748750209808,-3.23908758163452,-1.94920003414154,-41.5300521850586,-37.6699523925781,-22.0189514160156,7.05195045471191,12.3499507904053,0.99900007247925,-3.76956248283386,-2.22749996185303,-0.60995000600815,-0.63300001621246,0.10905000567436,-0.6730500459671,-6.02703762054443,21.7104244232178,17.6537628173828,0.29507499933243,2.96477508544922,2.14280009269714,17.2819499969482,8.54505062103271,-2.70405006408691,-1.23900008201599,-4.42995023727417,-0.11100000888109,9.83248710632324,24.3670616149902,-7.60347509384155,13.0860004425049,11.6710510253906,2.67495012283325,-13.5178995132446,-11.1566123962402,-7.70728731155396,-2.72112488746643,-1.9736750125885,-0.72833746671677,-16.735050201416,-10.8019504547119,1.46805012226105,-1.16700005531311,-0.97995007038116,-0.32400000095367,SHAKE
5.11211252212524,2.91499996185303,9.29926204681396,2.17500019073486,8.25600051879883,10.2559509277344,-14.3620128631592,-8.11277484893799,-6.25377511978149,-4.07893753051758,-4.6424126625061,-4.17202520370483,-27.6670513153076,-17.3620510101318,-14.0580005645752,6.76905012130737,3.77895021438599,1.34400010108948,-1.23763751983643,-0.41071251034737,0.18246249854565,1.34595000743866,1.43295001983643,1.2150000333786,-1.01928746700287,0.98752498626709,4.78389978408813,-0.81331247091293,-1.0922999382019,-2.11158752441406,2.45400023460388,6.06495046615601,7.47000026702881,2.0310001373291,0.51794999837875,-2.80695009231567,6.23287487030029,1.97601246833801,7.29794979095459,-1.45605003833771,6.96105051040649,10.9309501647949,-14.9844751358032,-11.3383874893188,-8.58055019378662,-4.69163751602173,-4.91534996032715,-4.61339998245239,-29.2590007781982,-23.1160507202148,-17.8530006408691,7.12395048141479,7.71495056152344,4.03500032424927,-2.88296246528625,-1.5081000328064,-0.56017500162125,0.93900007009506,-0.75195002555847,-1.14705002307892,-4.42969989776611,-4.24173736572266,-3.11052489280701,0.09075000137091,0.68529999256134,0.8787624835968,-1.5289500951767,0.05100000277162,1.399050116539,1.23600006103516,1.29405009746552,0.69705003499985,4.00001239776611,12.4112997055054,13.8595876693726,-2.12205004692078,0.18795001506805,0.85095006227493,12.7498245239258,-1.84098744392395,-7.71705007553101,2.03692507743835,-13.8264503479004,-1.43398749828339,-2.17305016517639,-18.4729499816895,-25.2490520477295,1.35600006580353,5.81400012969971,9.32205009460449,SHAKE
12.1804370880127,24.7755756378174,-16.8440246582031,2.33505010604858,5.28705024719238,10.6699504852295,-7.71705007553101,-5.59322500228882,-3.6953125,-1.43398749828339,-2.32498741149902,-2.44406247138977,-25.2490520477295,-26.5800018310547,-18.9610500335693,9.32205009460449,8.7610502243042,2.83995008468628,-3.38126254081726,-2.51789999008179,-0.05197500064969,0.57795000076294,0.08895000070333,-0.32100000977516,-2.74628758430481,-1.62318754196167,0.89471250772476,0.21243749558926,0.72434997558594,-0.3134999871254,-0.77400004863739,9.93705081939697,14.1979503631592,1.66500008106232,0.0409500002861,-2.41200017929077,12.7131128311157,10.1700496673584,7.9316873550415,-0.16095000505447,0.57300001382828,6.65700054168701,16.2031383514404,-16.621000289917,-14.265212059021,-4.3846001625061,0.57722496986389,-3.68706250190735,-35.9010009765625,-36.2700004577637,-29.401050567627,10.4800500869751,12.3049507141113,10.3180503845215,-8.96555042266846,-4.29288768768311,-1.4218875169754,-0.21600000560284,-1.93005013465881,-1.46100008487701,-4.89568758010864,-3.46857500076294,-2.00131249427795,-1.25193750858307,-0.34443750977516,-0.41621249914169,-5.65605020523071,-1.61205005645752,0.05805000290275,2.6340000629425,2.55105018615723,2.29905009269714,0.85194998979568,2.03115010261536,10.9683752059937,-1.399050116539,-3.10095024108887,-1.87995004653931,10.4556369781494,14.8164501190186,-11.4261121749878,5.1027626991272,2.14747500419617,-0.10216250270605,2.85900020599365,-13.2030010223389,-32.3460006713867,-2.18700003623962,1.34100008010864,16.2360000610352,SHAKE
11.9107999801636,9.87043762207031,8.35147476196289,-1.17405009269714,2.33295011520386,7.83705043792725,11.4267997741699,-13.1221752166748,-9.60162448883057,-4.47287511825562,-2.40514993667603,-4.59937477111816,-29.4409523010254,-29.5609512329102,-24.916051864624,8.45505046844482,10.3180503845215,6.76500034332275,-7.99782514572144,-3.98254990577698,-2.18707489967346,0.79605001211166,0.13995000720024,0.11595000326633,-3.60868740081787,-2.17689990997314,-0.32546249032021,-1.37568747997284,-0.2910875082016,-0.63786250352859,-3.02700018882751,5.3730001449585,10.9039506912231,1.7940000295639,0.92205005884171,-1.33905005455017,14.0611619949341,10.1898498535156,7.7325873374939,-3.01695013046265,0.69795000553131,9.97305011749268,13.8010120391846,17.7016124725342,17.3024501800537,-4.77344989776611,4.31956243515015,3.33602499961853,-34.7970008850098,-29.7550506591797,-22.1530513763428,9.31005001068115,10.5430507659912,7.8870005607605,12.5950002670288,10.3529253005981,7.39268732070923,0.78900003433228,-0.73605000972748,-1.31700003147125,6.8144998550415,5.13521242141724,3.69586253166199,-0.68241250514984,-0.8595125079155,-0.21216249465942,-4.51005029678345,-2.07000017166138,2.40900015830994,2.18700003623962,2.58405017852783,0.966000020504,10.033374786377,17.3911380767822,13.1144752502441,-2.05695009231567,-1.45605003833771,2.66805005073547,15.4444122314453,-7.13487482070923,-4.69713735580444,-3.96591258049011,-1.57231247425079,-5.77939987182617,-24.4849510192871,-29.628002166748,-25.6009521484375,8.75400066375732,13.4779510498047,8.93100070953369,SHAKE
-21.4209880828857,-9.55679988861084,-6.39292478561401,15.3750009536743,7.20300054550171,1.78200006484985,-3.30893754959106,-3.06762504577637,-2.84707498550415,-5.00939989089966,-4.0671124458313,-3.19206237792969,-15.4660511016846,-12.3480005264282,-9.38205051422119,-0.59895002841949,-0.36195001006126,1.25805008411407,-1.019700050354,0.17228749394417,0.75253748893738,0.12495000660419,-0.0679500028491,-0.28800001740456,-0.52593749761581,0.16252499818802,6.61705017089844,0.11110000312328,-0.02859999984503,4.00400018692017,3.45300006866455,5.68005037307739,6.58005046844482,-1.66695010662079,-2.85900020599365,-4.23405027389526,13.0277128219604,10.68443775177,9.78546237945557,-0.57795000076294,4.68600034713745,13.8370504379272,-13.1356496810913,-11.2799501419067,-9.48873710632324,-8.26319980621338,-8.32975006103516,-7.28337478637695,-34.6230010986328,-26.4030017852783,-17.7720012664795,21.0250511169434,10.9570503234863,1.95000004768372,-6.07323741912842,-4.5528998374939,-2.22172498703003,-0.51300001144409,-1.23795008659363,-0.72600001096725,-5.5592622756958,-5.31973743438721,15.1824750900269,-1.32178747653961,2.18831253051758,4.11784982681274,4.48995018005371,14.2060508728027,4.73895025253296,0.15900000929832,-3.67095017433167,-3.96600008010864,12.6876745223999,14.2826747894287,23.820499420166,3.14505004882813,16.7629508972168,8.62695026397705,16.1060619354248,12.5753374099731,8.21809959411621,3.54213738441467,1.05228745937347,-0.15180000662804,-20.7550506591797,-10.6680002212524,-3.39105010032654,6.10095024108887,-1.7410501241684,-0.08895000070333,SHAKE
9.85682487487793,22.9559001922607,22.1637630462646,-2.63895010948181,-2.49495005607605,-2.43300008773804,11.5296497344971,11.4255628585815,9.66941261291504,3.11712503433228,1.67653751373291,-5.59679985046387,-8.11500072479248,-22.9099502563477,-33.8730010986328,2.91000008583069,7.48995018005371,10.8130502700806,-14.4766874313354,-7.0806999206543,-5.32399988174438,8.22495079040527,1.09305000305176,-0.11805000901222,-3.60249996185303,-3.74577498435974,-4.62494993209839,-4.39188766479492,-2.4418625831604,-1.20587503910065,-6.49395036697388,2.85705018043518,9.66105079650879,-1.82505011558533,-0.10395000129938,-0.15900000929832,18.292724609375,14.2192878723145,11.8222503662109,-1.5900000333786,2.53605008125305,13.7080507278442,9.73678779602051,-12.9817876815796,-11.2318248748779,2.74408745765686,-7.76517486572266,-7.68171262741089,-34.9219512939453,-31.4290523529053,-23.6539516448975,12.7530002593994,10.8730506896973,6.69495010375977,-9.85448741912842,-5.30983734130859,-3.83789992332459,2.34705018997192,-0.39600002765656,-1.65495002269745,-5.82202482223511,-6.41657495498657,-14.0486497879028,-2.49617505073547,-0.40590000152588,1.24451243877411,3.04605007171631,8.56905078887939,11.0070009231567,-0.93195003271103,-0.57795000076294,-5.30205011367798,-16.478687286377,-10.391975402832,8.40372467041016,-3.11100006103516,9.44595050811768,17.6680507659912,8.36742496490479,9.32635021209717,8.01459980010986,8.67831230163574,3.27731251716614,1.88911247253418,-30.6720008850098,-18.6529502868652,-13.9020004272461,11.9980506896973,2.33295011520386,-1.60005009174347,SHAKE
-0.24584999680519,0.66041249036789,3.45070004463196,-2.10795021057129,-0.89805006980896,-0.75195002555847,15.7264251708984,14.2426624298096,11.3500747680664,2.35551238059998,2.14431238174438,-3.41371250152588,7.66200017929077,-3.3030002117157,-40.0120506286621,-6.00300025939941,-2.48805022239685,12.0060005187988,23.7367630004883,19.0103378295898,12.3855876922607,7.18395042419434,3.42195010185242,-1.94700014591217,10.6070251464844,8.32479953765869,2.27535009384155,0.06971249729395,-0.40796250104904,-0.90818750858307,-5.58000040054321,0.57705003023148,14.8620004653931,-2.80695009231567,-1.99500012397766,-0.53205001354218,11.8522253036499,-12.672137260437,-9.96545028686523,-1.77495002746582,-1.11195003986359,8.99595069885254,-4.29384994506836,7.13982486724854,10.7834377288818,3.86264991760254,8.44250011444092,2.26558756828308,-42.0229530334473,-35.3580017089844,-18.1979999542236,18.1110000610352,17.3380508422852,0.75195002555847,5.36332511901855,4.83312511444092,4.59992504119873,-1.91595005989075,-2.24205017089844,-1.67205011844635,4.11991262435913,-1.65852499008179,-14.618724822998,-0.62163752317429,-0.28338751196861,-5.33018732070923,3.20400023460388,13.3219509124756,13.1929502487183,-0.60195004940033,-0.47505003213882,-4.68900012969971,-12.3483247756958,-2.88474988937378,10.0535879135132,-1.12095010280609,17.4240016937256,14.9220008850098,10.528787612915,9.3361120223999,7.82814979553223,4.40247488021851,0.74181246757507,-0.23581250011921,-26.2690505981445,-12.2380504608154,-6.50400018692017,9.8100004196167,-2.48400020599365,-3.94905018806458,SHAKE
7.31115007400513,7.77672481536865,-11.0374002456665,2.40900015830994,1.29900002479553,1.66995012760162,-12.5387620925903,8.01652526855469,12.0975246429443,0.30676248669624,9.1431999206543,4.08911228179932,-20.0130004882813,-39.4639511108398,-32.1180000305176,1.56900012493134,12.9439506530762,13.0690507888794,4.75392484664917,3.83501243591309,3.06913757324219,0.70500004291534,-0.67605000734329,-4.19295024871826,5.19158744812012,3.21653747558594,-20.4415740966797,-0.95218747854233,-0.67691248655319,-6.82041263580322,5.83305025100708,13.8130502700806,14.5309505462646,-3.76005029678345,-2.40000009536743,-4.13295030593872,-11.5308876037598,-9.8784122467041,-6.53688764572144,0.08700000494719,3.57105016708374,11.5870504379272,-3.37809991836548,8.03728771209717,10.4720001220703,5.81349992752075,6.97097492218018,4.6183500289917,-44.5660514831543,-40.8210029602051,-31.2390022277832,9.23805046081543,15.5779504776001,11.4790506362915,4.87739992141724,3.947350025177,3.5766499042511,1.10205006599426,-1.6189501285553,-4.58295011520386,2.21306252479553,-3.5593249797821,-18.2557373046875,-0.93623751401901,-0.23938749730587,-1.70994997024536,13.2790508270264,15.4870510101318,3.9100501537323,-1.70295011997223,-1.84395003318787,-4.13100004196167,-10.1305875778198,-5.60587501525879,7.49924993515015,6.1230001449585,10.1380500793457,5.22300004959106,11.1010627746582,9.51871204376221,7.95190000534058,0.82981246709824,-0.30346250534058,-0.99274998903275,-18.5089511871338,-12.0640506744385,-7.15995025634766,3.11805009841919,-1.04505002498627,-3.05100011825562,SHAKE
11.1909875869751,-12.3650999069214,-8.14604949951172,1.08300006389618,-0.43605002760887,7.51605033874512,-9.37530040740967,6.24607515335083,11.2039127349854,1.90244996547699,8.88084983825684,5.00321245193481,-34.9290008544922,-37.957950592041,-34.1959533691406,5.84295034408569,12.235050201416,11.6110506057739,3.74769997596741,2.77846240997314,2.73226237297058,0.01005000062287,-1.84905004501343,-1.87500011920929,2.89863753318787,-1.03441250324249,-22.0523872375488,-0.77096247673035,0.53886252641678,-4.32698726654053,1.80795013904572,7.28805017471313,6.4480504989624,-1.5619500875473,-0.09900000691414,-2.29905009269714,-15.424750328064,-9.65511226654053,3.42980003356934,-1.4800500869751,6.24000024795532,11.3569507598877,8.28863716125488,11.1198997497559,9.87373733520508,6.6955623626709,3.46458745002747,1.81665003299713,-37.7449531555176,-26.2519512176514,-18.6049499511719,14.497950553894,8.12205028533936,1.5040500164032,2.69197487831116,2.94236254692078,3.68898749351501,-1.95195007324219,-3.34095025062561,-3.29805016517639,-9.50757503509522,-16.7796745300293,-13.6199245452881,-1.10013747215271,-0.65340000391006,0.29328748583794,12.3499507904053,1.57800006866455,-11.2420501708984,-3.01800012588501,-3.79305028915405,-0.85305005311966,-4.53364992141724,7.75183725357056,4.3089747428894,11.8740005493164,9.421950340271,1.19295001029968,9.33129978179932,5.42189979553223,3.36448740959167,0.14492499828339,-0.9620875120163,-0.75941246747971,-12.1330509185791,-4.91895008087158,-1.20495009422302,-1.70100009441376,-2.31405019760132,-1.50000011920929,SHAKE
