gyro_x_0,gyro_y_0,gyro_z_0,acc_x_0,acc_y_0,acc_z_0,gyro_x_1,gyro_y_1,gyro_z_1,acc_x_1,acc_y_1,acc_z_1,gyro_x_2,gyro_y_2,gyro_z_2,acc_x_2,acc_y_2,acc_z_2,gyro_x_3,gyro_y_3,gyro_z_3,acc_x_3,acc_y_3,acc_z_3,gyro_x_4,gyro_y_4,gyro_z_4,acc_x_4,acc_y_4,acc_z_4,gyro_x_5,gyro_y_5,gyro_z_5,acc_x_5,acc_y_5,acc_z_5,gyro_x_6,gyro_y_6,gyro_z_6,acc_x_6,acc_y_6,acc_z_6,gyro_x_7,gyro_y_7,gyro_z_7,acc_x_7,acc_y_7,acc_z_7,gyro_x_8,gyro_y_8,gyro_z_8,acc_x_8,acc_y_8,acc_z_8,gyro_x_9,gyro_y_9,gyro_z_9,acc_x_9,acc_y_9,acc_z_9,gyro_x_10,gyro_y_10,gyro_z_10,acc_x_10,acc_y_10,acc_z_10,gyro_x_11,gyro_y_11,gyro_z_11,acc_x_11,acc_y_11,acc_z_11,gyro_x_12,gyro_y_12,gyro_z_12,acc_x_12,acc_y_12,acc_z_12,gyro_x_13,gyro_y_13,gyro_z_13,acc_x_13,acc_y_13,acc_z_13,gyro_x_14,gyro_y_14,gyro_z_14,acc_x_14,acc_y_14,acc_z_14,motion_type
0.13626250624657,-0.18218749761581,-0.52085000276566,-2.03087496757507,-2.99172496795654,-4.0644998550415,7.53300046920776,6.39300012588501,5.13105010986328,4.37100028991699,3.49695014953613,2.11005020141602,3.77973747253418,4.99235010147095,5.91002511978149,7.40205049514771,8.21805000305176,7.29600048065186,-2.21443748474121,-2.20659995079041,-1.85267496109009,-6.83402490615845,-4.58658742904663,-1.4693249464035,5.40405035018921,6.45795011520386,6.74295043945313,3.81300020217896,4.77300024032593,5.23605012893677,-0.80561250448227,-2.80816245079041,-4.13008737564087,3.75405025482178,2.25,0.39105001091957,-0.19428749382496,-0.26317501068115,-0.66962498426437,5.19571256637573,3.86677503585815,1.95222496986389,6.87000036239624,7.08105039596558,6.94200038909912,6.29400014877319,7.12500047683716,9.49200057983398,-1.77581250667572,-0.83366250991821,-0.54257500171661,-0.6730500459671,4.44600009918213,6.43395042419434,-2.19408750534058,-2.1487123966217,-1.63006246089935,-1.90657496452332,-1.79190003871918,-1.82242500782013,6.59205007553101,7.0420503616333,5.12400007247925,11.2930507659912,11.2690505981445,9.00795078277588,0.02584999985993,-0.04317500069737,-0.13516250252724,4.96095037460327,3.81405019760132,1.87605011463165,1.0477499961853,1.72617495059967,2.31618738174438,-0.90310001373291,-0.89980000257492,-0.29411250352859,5.36100006103516,6.02505016326904,7.2529501914978,3.29595017433167,2.98695015907288,8.50200080871582,-1.6160374879837,-1.21000003814697,0.54505002498627,-1.17405009269714,-0.24495001137257,2.57595014572144,SWING_LEFT
-0.1568875014782,-0.67856252193451,-1.86078751087189,-2.28951239585876,-0.55935001373291,2.26324987411499,-0.30705001950264,-1.53105008602142,-2.54595017433167,6.13800048828125,7.0339503288269,6.90000009536743,0.66302502155304,0.55137497186661,-0.24928750097752,-6.56505012512207,-7.26900053024292,-6.9529504776001,-7.85936260223389,-6.11476230621338,-4.0092248916626,12.7088499069214,8.15746212005615,4.22152519226074,-13.6230010986328,-14.8759508132935,-17.1409511566162,9.10095024108887,13.2160511016846,17.4910507202148,-2.29789996147156,-1.23172497749329,-0.4628250002861,-23.3160018920898,-23.8399505615234,-17.3140506744385,0.62287497520447,-0.35296249389648,-3.55918741226196,-0.40383750200272,-0.71623748540878,-1.6799750328064,-32.1559524536133,-38.8980026245117,-67.4059524536133,15.0190505981445,12.8490009307861,10.4040002822876,-4.33537483215332,-6.20015001296997,-7.22906255722046,31.3300514221191,47.0299530029297,45.4560012817383,-0.06338749825954,5.39893770217896,9.50069999694824,-13.4971370697021,-18.8584003448486,-20.3733749389648,-11.2279500961304,-6.46005010604858,-3.79905009269714,21.760950088501,15.5890502929688,5.22600030899048,-3.70741248130798,-5.40773725509644,-7.06722497940063,26.7700519561768,21.7980003356934,17.2090511322021,1.96817493438721,-0.73603749275208,-1.51607501506805,-2.97000002861023,-2.64921259880066,-1.58235001564026,1.43805003166199,1.09305000305176,0.8850000500679,6.10695028305054,5.56800031661987,5.91105031967163,-2.154212474823,-0.23278750479221,1.26719999313354,10.5820503234863,9.85395050048828,9.66000080108643,SWING_LEFT
-0.3257375061512,-1.54811251163483,-3.94514989852905,4.28422498703003,6.61705017089844,8.42407512664795,-1.03305006027222,-3.12105011940002,-5.52600049972534,5.92800045013428,7.31895017623901,8.74695014953613,2.04668760299683,0.89306247234344,-0.74580001831055,-5.51100015640259,-6.8449501991272,-8.20800018310547,-6.12933731079102,-3.19055008888245,0.70771247148514,4.51288747787476,3.0639123916626,1.6105375289917,-8.24400043487549,-10.3900508880615,-12.211950302124,15.2830505371094,17.578950881958,17.9460010528564,-2.35262489318848,-1.88209998607636,-1.0784125328064,-11.5920009613037,-11.7259502410889,-13.1160001754761,-2.3174250125885,-5.76881265640259,-6.53235006332397,1.3613874912262,0.91616249084473,0.55825001001358,-22.4580001831055,-53.3520011901855,-72.7990570068359,9.03600025177002,10.0950002670288,10.1980504989624,-4.96512508392334,-7.5580997467041,-7.97857475280762,39.612003326416,57.8670043945313,36.7650032043457,3.62505006790161,7.6128249168396,10.1238498687744,-16.0642623901367,-19.5537376403809,-19.3615131378174,-2.8050000667572,-1.83195006847382,0.20205001533031,17.2560005187988,6.67305040359497,-1.25400006771088,-6.81807518005371,-8.19857501983643,-8.34487533569336,20.545051574707,21.0480003356934,17.6909999847412,0.60403752326965,0.08456250280142,4.43464994430542,-2.25802493095398,-0.79502499103546,3.63618755340576,1.6800000667572,1.54095005989075,0.25500002503395,11.4889507293701,9.77205085754394,9.10095024108887,2.47912502288818,3.25778746604919,3.04287505149841,10.7500505447388,8.49900054931641,7.2529501914978,SWING_LEFT
-2.41092491149902,-5.31753730773926,-6.75881242752075,8.92168712615967,10.2060747146606,9.94358730316162,-4.44795036315918,-3.1279501914978,-2.18505001068115,3.88695025444031,7.01700019836426,10.1119508743286,-0.74937498569489,-1.95346248149872,-2.39085006713867,-6.97200012207031,-7.20000028610229,-8.04495048522949,1.03427493572235,1.86395001411438,1.57217502593994,-0.08689999580383,-0.71362501382828,-0.70620000362396,-6.55500030517578,-8.96700000762939,-14.6629505157471,14.0850009918213,15.4840507507324,15.1699504852295,-2.46028757095337,-2.13262510299683,-1.61163747310638,-13.8889503479004,-17.5099506378174,-18.3610515594482,-4.82061243057251,-5.25621223449707,-5.8139123916626,0.67732501029968,0.62328749895096,0.13378749787807,-39.376953125,-57.8329544067383,-76.0639572143555,14.1379508972168,10.4809503555298,5.11605024337769,-5.17302513122559,-7.11177492141724,-7.96124982833862,39.7920036315918,55.5769538879395,45.1710014343262,1.32453751564026,6.26862478256226,9.51115036010742,-15.2087373733521,-20.5393371582031,-21.8065376281738,-2.32305002212524,0.99000006914139,2.21205019950867,5.67900037765503,-5.39700031280518,-7.4040002822876,-6.67933750152588,-8.99593734741211,-10.3265247344971,19.9279518127441,18.6529502868652,15.8800506591797,0.55261248350143,2.35977506637573,5.21303749084473,-2.15888738632202,0.69258749485016,3.81768751144409,3.10995006561279,2.26005005836487,2.06805014610291,6.06900024414063,6.04305028915405,6.71295022964478,-0.14891250431538,0.9589250087738,1.37417495250702,11.2819509506226,10.1700000762939,9.74595069885254,SWING_LEFT
-0.65931248664856,-1.4360499382019,-2.49122500419617,4.93116235733032,5.01709985733032,4.82515001296997,0.83895003795624,-0.54195004701614,-2.17305016517639,6.57705020904541,6.94605016708374,8.26500034332275,-1.00911247730255,-1.58977496623993,-2.21718740463257,-5.63595008850098,-6.80205011367798,-6.48900032043457,-5.78971242904663,-5.13177490234375,-4.08718729019165,1.84497499465942,1.05613744258881,0.66879999637604,-9.48900032043457,-11.5420503616333,-11.4990005493164,13.6879510879517,16.6549510955811,18.6310501098633,-2.53921246528625,-1.27888751029968,-0.17325000464916,-20.310001373291,-19.2640514373779,-14.2699508666992,-2.68482494354248,-4.04194974899292,-5.39866256713867,1.23695003986359,0.45141249895096,-0.29892501235008,-30.094051361084,-40.5739517211914,-56.9659538269043,11.4049501419067,11.3239507675171,7.78605031967163,-6.80693769454956,-8.00208759307861,-6.48175001144409,55.4100036621094,48.1980018615723,19.1440505981445,6.3219747543335,11.0198001861572,9.58512496948242,-20.1532382965088,-16.924186706543,-9.90261268615723,-1.21005010604858,1.10805010795593,2.80305004119873,11.8630504608154,-0.92805004119873,2.74200010299683,-7.67745018005371,-7.60677480697632,-6.19478750228882,18.0469512939453,16.8379516601563,14.97705078125,2.71356248855591,3.36462497711182,4.73453760147095,-1.53766250610352,0.08483749628067,2.35564994812012,1.78095006942749,1.02600002288818,0.5950500369072,6.71100044250488,6.67995023727417,8.26995086669922,1.19652497768402,1.72589993476868,1.56901252269745,9.49200057983398,8.77200031280518,7.98405027389526,SWING_LEFT
-0.81372499465942,-1.76632499694824,-2.87828755378723,-0.40521249175072,2.91046237945557,5.31863737106323,0.0679500028491,-1.84905004501343,-3.50895023345947,7.05795049667358,6.34695053100586,5.97300004959106,0.77426248788834,0.53143751621246,-0.22797499597073,-5.29095029830933,-5.87805032730103,-6.34500026702881,-7.47518730163574,-6.38880014419556,-4.33028745651245,8.57065010070801,6.83718729019165,4.92951250076294,-11.0269508361816,-12.7390508651733,-14.1070508956909,7.89600038528442,12.6000003814697,16.360050201416,-1.39548754692078,-0.29177498817444,0.36396250128746,-22.9519519805908,-22.3339519500732,-17.6710510253906,-1.7659125328064,-3.23991250991821,-4.45692491531372,0.70881247520447,0.15867500007153,-0.28380000591278,-35.6190032958984,-46.3750534057617,-61.6240539550781,7.12005043029785,6.1429500579834,4.12695026397705,-5.02232503890991,-6.99104976654053,-8.1983003616333,20.2170009613037,44.9029502868652,48.9430541992188,1.23502504825592,5.64671230316162,10.3582878112793,-15.2730875015259,-20.1573619842529,-18.3192615509033,-12.7990503311157,-6.4069504737854,-2.86200022697449,23.3490009307861,12.3220510482788,0.89100003242493,-4.88124990463257,-6.31386232376099,-6.45204973220825,22.9050006866455,23.484001159668,21.1369514465332,1.65123748779297,0.5295125246048,0.87628751993179,-1.82751250267029,-0.84067499637604,0.5682874917984,-0.05805000290275,0.09705000370741,-0.01500000059605,8.40900039672852,6.96705055236816,6.93600034713745,-0.64240002632141,0.55274999141693,1.40882503986359,11.5570507049561,9.3919506072998,8.29500007629395,SWING_LEFT
-1.24354994297028,-1.49311244487762,-1.85570001602173,0.53845000267029,0.94599997997284,1.31408751010895,1.67805004119873,0.45900002121925,-1.66005003452301,5.86305046081543,4.89795017242432,6.16005039215088,-1.16462504863739,-1.02877497673035,-0.8291249871254,-2.25705003738403,-4.08599996566772,-5.16195011138916,-8.00360012054443,-7.12236261367798,-5.08640003204346,6.58762502670288,6.51557493209839,5.63997507095337,-9.97995090484619,-12.2650508880615,-13.6489505767822,10.2649507522583,14.2120504379272,17.7780017852783,-0.48441249132156,-0.0576125010848,0.27307498455048,-20.6770515441895,-19.8769512176514,-15.4770011901855,-0.93513751029968,-2.1733250617981,-3.59328746795654,1.83053743839264,0.93046247959137,-0.0086624994874,-25.8859519958496,-32.8549499511719,-42.9960021972656,9.10095024108887,10.782000541687,15.2160005569458,-3.59232497215271,-5.60271263122559,-7.04013729095459,16.2970504760742,39.0540008544922,56.5830039978027,-1.33718752861023,3.48342490196228,7.19950008392334,-13.086012840271,-20.1767501831055,-23.1518383026123,-11.6350507736206,-3.52095007896423,-1.54305005073547,13.1530504226685,7.64505052566528,5.22600030899048,-4.5845251083374,-6.55916261672974,-8.79587459564209,22.2630004882813,15.1039505004883,13.8319501876831,6.04958724975586,5.29031229019165,7.05127477645874,-2.89973759651184,0.38678750395775,2.45794987678528,3.47205018997192,1.61100006103516,1.08795011043549,7.90605020523071,7.42695045471191,8.36100006103516,0.89017498493195,2.85518741607666,3.68032503128052,3.66795015335083,4.95195007324219,5.15505027770996,SWING_LEFT
-2.32787489891052,-3.41770005226135,-6.27123737335205,5.09327507019043,6.62832498550415,7.35666227340698,-2.0460000038147,-4.65900039672852,-8.13105010986328,4.08105039596558,2.42400002479553,2.77800011634827,-2.79977488517761,-3.50391244888306,-1.63006246089935,-6.02595043182373,-10.1890506744385,-20.3010005950928,0.47148749232292,3.04878759384155,3.43048739433289,3.34922504425049,2.37118744850159,1.78433752059937,-7.56405019760132,-11.731050491333,-15.3690004348755,16.6960506439209,12.2430009841919,8.75594997406006,-0.24681249260902,-1.53546249866486,-2.54347491264343,-5.65305042266846,-6.7900505065918,-11.4250507354736,-2.65319991111755,-3.64155006408691,-5.82340002059937,-1.30789995193481,-1.75312495231628,-1.12997496128082,-22.1779518127441,-33.1980018615723,-78.5640029907227,15.4770011901855,8.47605037689209,-11.3269500732422,-3.61473751068115,-6.69226264953613,-8.22181224822998,61.6870536804199,64.8870010375977,26.5110015869141,5.01765012741089,8.65961265563965,10.8572750091553,-24.187349319458,-26.5097255706787,-24.3061504364014,-1.77705013751984,0.71205002069473,1.4190000295639,10.2870006561279,-4.06800031661987,-1.07400000095367,-8.97627449035645,-9.89546203613281,-8.35449981689453,16.1749515533447,17.8800010681152,13.5259504318237,7.86252498626709,7.19565010070801,6.53592491149902,1.89103746414185,3.39184999465942,5.09355020523071,1.74000012874603,2.33100008964539,2.21895003318787,8.08095073699951,8.60295009613037,9.38400077819824,3.34551239013672,3.24032497406006,1.85322499275208,5.28705024719238,3.83295011520386,2.23605012893677,SWING_LEFT
-1.36234998703003,-2.75563740730286,-4.40618753433228,-1.01378750801086,0.12581250071526,1.58166253566742,-3.57105016708374,-4.45995044708252,-5.52105045318604,9.22995090484619,8.4859504699707,7.98705053329468,1.35451245307922,1.22815001010895,0.79406249523163,-4.41195011138916,-7.23795032501221,-7.85400056838989,-3.9366250038147,-2.42989993095398,-1.61851251125336,5.69786262512207,4.76602506637573,3.96921253204346,-13.0440006256104,-13.1250009536743,-13.2349510192871,12.0450010299683,11.6179504394531,11.146050453186,-0.07328750193119,0.41896250844002,0.71981251239777,-16.465950012207,-14.2600507736206,-11.3190002441406,-2.43980002403259,-3.00588750839233,-3.92204999923706,1.60352504253387,0.86790001392365,-0.70193749666214,-27.0520515441895,-37.3750534057617,-78.6529541015625,9.99900054931641,13.4170503616333,4.16505002975464,-5.90232515335083,-8.06877517700195,-7.94241237640381,62.4660034179688,60.6840019226074,25.606050491333,4.30100011825562,7.65819978713989,8.9749002456665,-21.7084999084473,-23.0082874298096,-18.7950115203857,-0.26100000739098,0.57105004787445,0.87300002574921,8.0110502243042,-5.09805011749268,-1.91700005531311,-8.15388774871826,-9.59983730316162,-7.05567502975464,15.2910003662109,12.9409503936768,5.50500011444092,7.91092491149902,9.63778781890869,9.35302448272705,2.75687503814697,5.37556266784668,7.84025001525879,2.40105009078979,2.27205014228821,1.9080001115799,6.97905015945435,8.65305042266846,11.4409503936768,5.28329992294312,4.90764999389648,2.55172491073608,3.51405024528503,2.18505001068115,1.15995001792908,SWING_LEFT
-0.23361249268055,-1.70967495441437,-3.71043753623962,2.36637496948242,2.53371238708496,2.22585010528564,-0.31905001401901,-5.39400005340576,-7.57095050811768,7.95900058746338,7.34595012664795,7.88205051422119,1.33457493782043,1.42725002765656,1.38641250133514,-3.78195023536682,-7.36995029449463,-10.1119508743286,-5.91277503967285,-0.89718747138977,0.4147000014782,5.86011266708374,5.86533737182617,5.00939989089966,-7.72200059890747,-8.64600086212158,-11.0989503860474,12.913950920105,8.91000080108643,7.91100025177002,-0.13296249508858,-0.47189998626709,-0.82142502069473,-12.0430507659912,-14.623950958252,-13.5970506668091,-1.70018744468689,-2.42522501945496,-2.71658754348755,1.90286254882813,1.17493748664856,0.61407500505447,-25.0519504547119,-30.3880519866943,-39.8580017089844,12.4230003356934,14.4900007247925,14.9590511322021,-3.54447507858276,-6.17553758621216,-9.17895030975342,31.5150012969971,71.3820037841797,49.128002166748,-1.32770001888275,11.1284246444702,13.1543502807617,-11.6587619781494,-23.9426002502441,-22.3332996368408,1.42605006694794,2.59500002861023,3.10305023193359,21.3799514770508,1.32195007801056,5.91300010681152,-10.4504127502441,-10.806812286377,-5.71917486190796,14.3520002365112,7.66695022583008,3.77295017242432,7.8617000579834,7.5255126953125,6.81931257247925,5.4064998626709,6.38123750686646,8.33965015411377,2.19705009460449,1.96500015258789,2.20005011558533,9.20595073699951,10.8970508575439,12.5569505691528,5.24246263504028,4.49872493743896,2.41175007820129,2.31495022773743,1.78995013237,1.79505014419556,SWING_LEFT
-4.08663749694824,-6.93577480316162,-8.97710037231445,3.18752503395081,4.51041269302368,6.28952503204346,-5.96400022506714,-7.63305044174194,-8.2369499206543,5.29305028915405,7.00500011444092,9.85995006561279,-0.09019999951124,-1.00031244754791,-1.72823750972748,-5.53005027770996,-6.00705051422119,-8.11695003509521,-0.5020124912262,2.19573760032654,2.0355498790741,4.84261226654053,3.61831259727478,3.45138740539551,-7.63095045089722,-10.1190004348755,-12.3319501876831,12.3730506896973,12.0690002441406,8.94495010375977,-0.21779999136925,-0.02612499892712,0.16830000281334,-11.5159502029419,-14.3539505004883,-20.7360000610352,-4.43203735351563,-4.93680000305176,-5.1357626914978,1.88429999351501,1.36963748931885,0.98890000581741,-33.0319519042969,-53.1859512329102,-78.6550521850586,11.5369501113892,7.06500053405762,-1.1050500869751,-4.98781251907349,-10.2557125091553,-8.57559967041016,54.4609527587891,31.230001449585,16.1909999847412,8.83231258392334,12.2174253463745,12.4689121246338,-21.2724876403809,-23.505350112915,-19.1479740142822,0.79395002126694,2.54505014419556,3.25800013542175,-10.3330507278442,-11.121000289917,4.18695020675659,-7.34978723526001,-7.97018766403198,-8.03027534484863,17.4150009155273,13.1980504989624,9.17400074005127,5.78338766098022,7.9774751663208,10.7501621246338,-1.91620004177094,4.66895008087158,9.55074977874756,3.29400014877319,2.87505006790161,2.9610002040863,4.43100023269653,9.28095054626465,11.0359506607056,4.15525007247925,2.66461253166199,1.07758748531342,3.5029501914978,3.27705025672913,1.51200008392334,SWING_LEFT
-4.136549949646,-5.73306226730347,-6.44077491760254,2.12657499313354,4.49666261672974,6.78122472763062,-4.921950340271,-5.06595039367676,-5.39100027084351,9.00795078277588,9.86505031585693,10.0810508728027,2.12492489814758,1.48940002918243,0.74841248989105,-8.12700080871582,-8.65799999237061,-8.78805065155029,-0.53611248731613,-0.51507496833801,-0.8427374958992,4.25603771209717,2.95982503890991,1.92486250400543,-12.4620008468628,-14.4949502944946,-14.8660507202148,11.4220504760742,12.0450010299683,13.2330007553101,-2.70242500305176,-2.6302375793457,-2.19284987449646,-9.48495006561279,-10.4740505218506,-11.1660003662109,-1.86504995822906,-2.65402507781982,-3.67166256904602,0.33495000004768,0.1907124966383,-0.01594999991357,-24.564001083374,-32.7280502319336,-46.7080535888672,8.26005077362061,8.49495029449463,4.34505033493042,-1.29621243476868,-6.875,-8.35216236114502,12.1270503997803,55.5300025939941,22.6120510101318,5.1874623298645,9.74957466125488,12.3919124603271,-20.045711517334,-22.7477245330811,-21.192325592041,-0.03405000269413,0.5059500336647,1.11000001430511,12.646050453186,0.83805006742477,-2.27205014228821,-7.63124990463257,-9.00899982452393,-7.77810001373291,15.3340511322021,15.0490503311157,12.2779502868652,8.63926219940186,7.7954249382019,7.33755016326904,0.82719999551773,1.52542495727539,2.64316248893738,2.29605007171631,2.18099999427795,2.80305004119873,8.49300003051758,6.44700050354004,5.64300012588501,1.3113374710083,2.22461247444153,2.60136246681213,5.425950050354,4.46100044250488,3.63405013084412,SWING_LEFT
-6.22998762130737,-4.21245002746582,0.76546251773834,4.93748760223389,4.99564981460571,3.54213738441467,-3.52305006980896,-1.46595001220703,-2.89305019378662,14.2429504394531,14.60205078125,9.43905067443848,-3.52797508239746,-4.48140001296997,-5.20134973526001,1.61505007743835,0.69300001859665,-0.96300005912781,0.0614624992013,-1.63047504425049,-2.92201256752014,-0.62589997053146,-0.36877501010895,0.99453747272491,-7.42005014419556,-7.55400037765503,-8.39505004882813,10.6339502334595,10.0810508728027,8.71605014801025,-0.64831250905991,1.54096245765686,3.33932495117188,-11.0460004806519,-11.953950881958,-10.7400007247925,-4.62494993209839,-4.46159982681274,-3.38896250724792,2.31412506103516,0.64625000953674,-0.23402500152588,-27.1810512542725,-30.6180019378662,-35.6190032958984,12.2700004577637,17.3929500579834,23.2129516601563,-3.26425004005432,-5.14208745956421,-7.47284984588623,28.4130020141602,60.4609527587891,45.4489517211914,-2.74408745765686,3.0164749622345,9.18307495117188,-7.95616245269775,-18.4205989837646,-25.0034122467041,-2.75505018234253,-5.35605049133301,-4.71405029296875,15.1270503997803,12.8800506591797,6.58395051956177,-5.11073732376099,-7.18877506256104,-9.02522468566894,23.2609519958496,20.5170001983643,13.582950592041,7.44053745269775,5.9666748046875,5.71546268463135,-0.45787498354912,1.33842504024506,1.25592494010925,1.96305012702942,1.5940500497818,1.11000001430511,7.10595035552979,7.29795026779175,6.60105037689209,-0.92207497358322,0.21298749744892,1.58001244068146,6.89400053024292,6.9060001373291,5.50995016098022,SWING_LEFT
-4.08196258544922,-3.17803740501404,-2.14898753166199,4.76918745040894,5.11513757705688,5.05573749542236,-2.89095020294189,-2.52495002746582,-5.0179500579834,11.613000869751,10.7539501190186,8.31599998474121,-2.19161248207092,-2.71865010261536,-3.02898740768433,-1.63395011425018,-3.10200023651123,-7.67895030975342,-4.52361249923706,-3.90018749237061,-2.49053740501404,2.97027492523193,3.65736246109009,3.76419997215271,-12.8640003204346,-13.899001121521,-14.7220506668091,11.8939504623413,12.1720504760742,9.88200092315674,0.93018752336502,1.39205002784729,1.18813753128052,-14.6959505081177,-13.2379503250122,-10.6270503997803,-1.66732501983643,-2.97783756256104,-4.11289978027344,0.8259624838829,-0.26688748598099,-1.31188750267029,-29.8350009918213,-38.1739501953125,-47.7349510192871,7.22595024108887,6.11505031585693,7.90605020523071,-5.9818000793457,-7.67126226425171,-7.63743734359741,27.6010513305664,38.0050506591797,23.3620510101318,4.08828735351563,8.51468753814697,11.3441619873047,-18.6091117858887,-23.5608997344971,-23.4448490142822,-3.46095013618469,-2.05305004119873,-2.67105007171631,-1.14900004863739,3.3600001335144,8.46195030212402,-5.94990015029907,-5.79878759384155,-3.9617874622345,14.3830509185791,15.3100509643555,13.2019510269165,7.89236259460449,6.74712514877319,6.01108741760254,0.87725001573563,1.74487495422363,1.89186251163483,1.92000007629395,1.87605011463165,2.51100015640259,4.45500040054321,5.22795009613037,7.66395044326782,-0.00109999999404,-0.33948749303818,-0.45636248588562,7.4040002822876,6.62295007705688,5.43795013427734,SWING_LEFT
-2.77186250686646,-4.06724977493286,-4.99138736724854,-2.40790009498596,-0.48276248574257,2.37435007095337,-3.38700008392334,-2.50800013542175,-3.44205021858215,9.77895069122314,11.9460000991821,12.1740007400513,1.21329998970032,1.10989999771118,0.88206249475479,-7.99695014953613,-8.24595069885254,-7.2480001449585,-0.87807500362396,-1.10893750190735,-2.31206250190735,5.70954990386963,4.04635000228882,2.96697497367859,-9.55605030059814,-11.7049503326416,-12.6439504623413,8.60805034637451,6.29700040817261,7.0489501953125,-1.76673746109009,-0.92028748989105,-0.43312498927116,-15.2449502944946,-13.7689504623413,-12.4549503326416,-3.87914991378784,-3.07601237297058,-2.5471875667572,1.93613743782043,1.22553753852844,0.31473749876022,-23.0280017852783,-29.3580017089844,-41.6260528564453,10.0350008010864,10.1550006866455,8.69595050811768,-4.86584997177124,-6.98472499847412,-8.0705623626709,30.7960510253906,42.9630012512207,30.2670021057129,2.02716255187988,6.96863746643066,10.1498374938965,-16.9206123352051,-22.6051368713379,-23.8207740783691,-5.51595020294189,-2.87700009346008,-3.03000020980835,6.44295024871826,1.36305010318756,0.8770500421524,-4.80191230773926,-6.93481254577637,-7.56607484817505,13.9639511108398,16.2439498901367,16.2900009155273,6.10761260986328,6.33352518081665,6.91542482376099,-0.43518748879433,0.6151750087738,1.72315001487732,1.07205009460449,1.24695003032684,1.29705011844635,5.20395040512085,6.75405025482178,7.99905061721802,0.51480001211166,1.60311245918274,2.06360006332397,7.84695053100586,7.0570502281189,5.64795017242432,SWING_LEFT
-1.65439999103546,-1.88100004196167,-2.11131238937378,2.77598738670349,1.81665003299713,0.88907498121262,-3.32205009460449,-4.13205003738403,-4.50795030593872,8.7319507598877,9.53505039215088,9.64500045776367,-3.08165001869202,-3.34523749351501,-3.41275000572205,-2.94900012016296,-2.67105007171631,-3.16695022583008,-3.09416246414185,-2.9944748878479,-2.37448740005493,1.34117496013641,2.42618751525879,4.71239995956421,-10.1070003509521,-10.4670009613037,-9.99705028533936,10.5430507659912,11.9680509567261,6.97695016860962,1.901899933815,2.31233739852905,1.74473750591278,-12.0670509338379,-9.09195041656494,-10.3399505615234,-3.06294989585876,-2.23657488822937,-2.56410002708435,1.59926247596741,-0.58946251869202,-1.57354998588562,-25.0189514160156,-45.388053894043,-58.6570510864258,14.9950504302979,9.85605049133301,5.23995018005371,-6.34149980545044,-8.60502529144287,-8.58206272125244,57.3190536499023,40.7760009765625,11.3700008392334,4.0257248878479,9.18156242370606,12.7595872879028,-17.1441879272461,-21.8160247802734,-22.3359127044678,-0.1219500079751,-2.11695003509521,-4.03305006027222,7.29795026779175,-4.34595012664795,-1.98705005645752,-7.74839973449707,-6.82893753051758,-4.79407501220703,19.734001159668,12.9870004653931,8.21100044250488,5.65455007553101,4.32368755340576,4.87478733062744,2.21374988555908,1.05833745002747,2.05466246604919,1.15605008602142,1.39995002746582,1.72995007038116,4.77600002288818,6.78495025634766,9.29805088043213,1.38517498970032,1.94686245918274,2.17030000686646,5.46900033950806,5.74200010299683,5.95500040054321,SWING_LEFT
-3.37301254272461,-5.15116262435913,-6.81064987182617,-0.26537498831749,0.46351251006126,1.89873743057251,-4.39995002746582,-5.65995025634766,-5.72895050048828,7.53000020980835,7.30695056915283,9.93000030517578,1.13024997711182,1.52308750152588,1.66814994812012,-11.2549505233765,-12.4279508590698,-11.0460004806519,-1.18222498893738,-0.17641249299049,-1.55581247806549,8.74005031585693,7.06777477264404,3.37012505531311,-9.54900074005127,-12.082950592041,-14.5549507141113,10.8229503631592,8.78505039215088,11.0770502090454,-0.85882496833801,-1.30748748779297,-1.59885001182556,-12.598051071167,-12.9450006484985,-13.2949504852295,-3.60992503166199,-3.27373743057251,-3.52907490730286,0.47052499651909,0.23045000433922,-0.15056249499321,-26.401050567627,-36.1360511779785,-47.230052947998,8.98095035552979,5.21895027160645,0.44595003128052,-3.83680009841919,-6.2529501914978,-8.06684970855713,24.7200012207031,36.0799522399902,17.8650016784668,5.89764976501465,10.1787128448486,12.6040744781494,-20.4018383026123,-22.3496627807617,-20.0265998840332,-6.94800043106079,-4.1100001335144,-1.71705007553101,13.3669509887695,3.44400024414063,-1.75905013084412,-5.74860000610352,-6.04229974746704,-5.75244998931885,17.0200500488281,14.3470506668091,14.1940507888794,5.06054973602295,3.50583744049072,4.10024976730347,-3.03407502174377,-2.68661236763,-1.27737498283386,2.24505019187927,2.16900014877319,2.14695000648499,8.30805015563965,6.15795040130615,4.71600008010864,-0.06737499684095,1.24066245555878,1.73442494869232,3.42300009727478,2.800950050354,2.50905013084412,SWING_LEFT
-3.70246243476868,-2.35867500305176,-1.75615000724792,2.52559995651245,2.01808738708496,1.896124958992,-4.42095041275024,-4.18695020675659,-4.35405015945435,9.40500068664551,8.88300037384033,9.48405075073242,-1.97573745250702,-1.83493745326996,-1.64683747291565,-4.93200016021729,-5.29605007171631,-5.5090503692627,0.27101248502731,0.26014998555183,-0.13365000486374,1.85102498531342,1.57795000076294,0.99701249599457,-6.07905006408691,-7.6830005645752,-10.6990509033203,10.2649507522583,11.4460506439209,13.1509504318237,-1.66072499752045,-0.09473749995232,1.40662503242493,-8.02605056762695,-19.2870006561279,-18.4039516448975,-5.03497505187988,-6.40488767623901,-7.25614976882935,1.3359500169754,0.94888746738434,0.11962500214577,-31.3630523681641,-47.1199531555176,-68.1409530639648,5.62095022201538,8.25795078277588,4.40205001831055,-2.87141251564026,-6.80363750457764,-9.08132457733154,41.2960510253906,55.1700019836426,30.6000022888184,2.75371241569519,8.05103778839111,11.4901876449585,-16.8609371185303,-22.6551876068115,-24.1247882843018,-4.01205015182495,-1.84005010128021,-1.38000011444092,7.87500047683716,-0.71295005083084,-0.28200000524521,-4.66716241836548,-7.14834976196289,-7.11218738555908,18.1699504852295,17.3940010070801,10.7689504623413,6.82412481307983,6.62103748321533,7.02693748474121,-1.17425000667572,0.32202500104904,2.18074989318848,1.66800010204315,1.76595008373261,1.69005012512207,5.96595048904419,4.87395000457764,5.71695041656494,0.82156246900558,1.61081254482269,1.70060002803802,6.10605049133301,6.58500051498413,6.22995042800903,SWING_LEFT
-0.02199999988079,-0.8036875128746,-1.36070001125336,0.83022499084473,0.48138749599457,0.96401250362396,-4.0770001411438,-3.23595023155212,-2.69505023956299,11.56605052948,10.3540506362915,8.78999996185303,-1.89818751811981,-1.29868745803833,-1.04032504558563,-5.1589503288269,-3.73695015907288,-3.18300008773804,-1.07414996623993,-0.72668749094009,-0.346774995327,1.92046248912811,1.03441250324249,-1.46107494831085,-5.94900035858154,-6.60795021057129,-9.38595008850098,12.3889503479004,13.51305103302,13.8859510421753,-3.37507486343384,-2.19188737869263,-0.15510000288486,-8.61300086975098,-14.943000793457,-19.9200000762939,-2.22667503356934,-4.29715013504028,-6.78218746185303,2.13702487945557,3.04603743553162,2.58719992637634,-23.1240005493164,-43.8079528808594,-70.0189514160156,9.86295032501221,7.59900045394897,2.67300009727478,-1.01392495632172,-6.20056247711182,-6.94856262207031,50.3200531005859,58.4320526123047,9.07800006866455,7.88328742980957,10.9715375900269,11.2385625839233,-25.7808380126953,-25.711124420166,-18.2595882415771,-3.56895017623901,-1.6840500831604,1.35195004940033,1.38900005817413,0.01200000010431,2.01405000686646,-7.77479982376099,-6.92614984512329,-4.46929979324341,16.1550006866455,9.27000045776367,8.09595012664795,5.30392503738403,7.64362478256226,10.5050001144409,-1.03509998321533,1.48940002918243,5.63598728179932,2.73105001449585,2.99505019187927,3.47595024108887,4.67505025863647,6.68505048751831,8.88105010986328,0.98559999465942,1.23915004730225,0.85896247625351,5.39205026626587,4.52505016326904,3.93600010871887,SWING_LEFT
-2.42481255531311,-5.4122748374939,-8.73963737487793,-0.85689997673035,0.00467499997467,2.64412498474121,-4.6710000038147,-6.29400014877319,-8.12700080871582,5.39400005340576,6.56205034255981,8.56905078887939,0.62424999475479,0.22137500345707,0.11838749796152,-7.50600051879883,-9.9330005645752,-13.0720510482788,-2.59971237182617,-0.01127499993891,0.88426250219345,8.07386207580566,6.39388751983643,4.83766269683838,-10.9720506668091,-13.9680004119873,-15.2689504623413,14.4520511627197,13.6800003051758,12.9670505523682,0.47011250257492,0.11935000121593,-0.22329999506474,-15.8719511032104,-13.9870510101318,-13.5040502548218,-2.17016243934631,-3.37603759765625,-4.48717498779297,0.83490002155304,0.07975000143051,-0.58176249265671,-27.4950008392334,-38.5840530395508,-53.8480529785156,9.45600032806396,8.83800029754639,2.82900023460388,-4.42598724365234,-7.23841238021851,-9.25512504577637,30.2020511627197,50.5290031433105,39.7660522460938,1.7604124546051,7.49979972839355,11.631950378418,-16.7685375213623,-22.2695007324219,-23.7652244567871,-4.44105005264282,-2.61105012893677,-1.53105008602142,23.193000793457,12.5790004730225,2.20800018310547,-4.16941261291504,-5.69566249847412,-5.97011232376099,13.9230003356934,14.3230504989624,13.3270502090454,7.31389999389648,5.58855009078979,4.78857517242432,-0.65188747644424,-0.46970000863075,0.64968746900558,1.71405005455017,1.35000002384186,1.56000006198883,10.2460508346558,7.71405029296875,6.45000028610229,0.53267496824265,1.73016250133514,2.2314875125885,6.06300020217896,5.25600004196167,4.29300022125244,SWING_LEFT
-0.90241247415543,-1.91853749752045,-3.53154993057251,-1.49902498722076,-0.515625,1.13024997711182,-1.24995005130768,-4.01700019836426,-5.45895004272461,8.19600009918213,9.84795093536377,11.0550003051758,0.3605250120163,0.92303746938705,1.04939997196198,-5.49900007247925,-9.81795024871826,-10.8450002670288,-4.37992477416992,-2.93603754043579,-1.6689749956131,8.13188743591309,6.98238754272461,3.84133744239807,-9.06300067901611,-12.5119504928589,-14.1240005493164,15.9820508956909,13.3639507293701,12.2410507202148,-1.74157500267029,-1.1863499879837,-0.40424999594688,-17.2540512084961,-16.5930004119873,-15.4150505065918,-4.1102876663208,-4.49432516098022,-4.54052495956421,2.65746259689331,2.1455500125885,1.41308748722076,-23.1220512390137,-32.6130027770996,-48.2020530700684,8.04495048522949,9.88395023345947,6.0930004119873,-2.40735006332397,-5.97616243362427,-9.31163787841797,21.1320018768311,40.3380012512207,25.8100509643555,5.61385011672974,10.0072498321533,12.396312713623,-20.8422508239746,-23.8239364624023,-22.3294506072998,-2.82900023460388,-0.91800004243851,-1.27905011177063,10.8690004348755,3.44205021858215,-0.30795001983643,-5.29155015945435,-6.54307508468628,-6.16302490234375,12.5440502166748,15.0679502487183,13.7320508956909,7.09389972686768,5.88431262969971,5.2684497833252,-0.97171247005463,-0.16596250236034,3.01001238822937,1.32105004787445,1.17195010185242,1.74195003509521,10.8450002670288,8.51895046234131,7.72395038604736,1.18305003643036,1.71393752098084,1.74239993095398,2.7940502166748,2.91600012779236,3.19395017623901,SWING_LEFT
-3.9751250743866,-3.87062501907349,-2.76031255722046,6.66214990615845,7.16498756408691,6.77613735198975,-0.3790500164032,0.49695003032684,0.46305000782013,9.20205020904541,10.3390502929688,11.4550504684448,-3.07202506065369,-3.52357506752014,-4.51701259613037,-3.10905003547669,-1.37295007705688,-2.14605021476746,-0.24310000240803,-2.06236243247986,-3.95546245574951,-0.76945000886917,-0.57378751039505,0.26936250925064,-6.89100027084351,-8.88300037384033,-12.0949506759644,8.75100040435791,9.6739501953125,11.568000793457,-0.48688748478889,1.05118751525879,1.88938748836517,-19.7659511566162,-18.6649513244629,-17.7450008392334,-3.78688740730286,-4.34238767623901,-5.27010011672974,2.56781244277954,1.04816246032715,-0.30181249976158,-30.6420021057129,-42.610050201416,-61.3180541992188,9.11295032501221,7.92795038223267,3.22095012664795,-3.50184988975525,-6.9227123260498,-8.70608711242676,34.3140029907227,48.1030540466309,31.3950023651123,7.58669996261597,10.9507751464844,12.0719499588013,-25.2261619567871,-26.8867492675781,-22.1837005615234,-2.49600005149841,-1.74900007247925,-0.7950000166893,-2.54505014419556,-1.9080001115799,5.7940502166748,-6.57483768463135,-7.18258762359619,-6.09331226348877,13.7410507202148,13.4659509658813,12.5599508285522,6.70340013504028,6.14459991455078,6.25019979476929,-1.4059374332428,-0.16293749213219,1.55608749389648,1.78500008583069,1.86195003986359,2.23995018005371,4.29704999923706,5.90595006942749,7.30500030517578,0.94971251487732,0.83146250247955,0.62645000219345,5.70600032806396,5.44200038909912,5.58600044250488,SWING_LEFT
-0.40823748707771,-1.21013748645782,-2.91101241111755,0.20473749935627,-0.23718750476837,-0.83063751459122,-1.64805006980896,-4.963050365448,-8.27700042724609,6.30900049209595,5.45805025100708,4.45500040054321,1.0920250415802,2.04682493209839,2.5278000831604,-0.42705002427101,-3.95895028114319,-7.86795043945313,-12.0399122238159,-8.5340747833252,1.8515750169754,7.03725004196167,9.527512550354,8.74733734130859,-10.4710502624512,-10.3470001220703,-12.0090007781982,12.1380004882813,14.2549505233765,11.6299505233765,3.38415002822876,2.15118741989136,0.20996250212193,-13.6810503005981,-10.0710000991821,-12.4900503158569,0.7930999994278,-1.2225124835968,-3.60167503356934,2.57743740081787,0.88054996728897,-0.7929624915123,-25.3780517578125,-35.7480010986328,-56.5560035705566,16.8250503540039,14.4229507446289,2.85300016403198,-2.88832497596741,-5.50453758239746,-8.84235000610352,22.9960517883301,67.0180511474609,47.0440521240234,-3.03764986991882,3.46032500267029,8.89281272888184,-12.2538623809814,-20.4173755645752,-25.1378879547119,1.12005007266998,-1.05900001525879,-3.82995009422302,25.5570011138916,3.32205009460449,-10.9420509338379,-8.42476272583008,-9.99349975585938,-8.24505043029785,16.3090515136719,17.3839511871338,9.33000087738037,5.13796234130859,4.82982492446899,3.76337504386902,1.75587499141693,1.75903749465942,1.47138750553131,0.35100001096725,-0.37095001339912,-0.08895000070333,5.07300043106079,6.45900011062622,7.49895048141479,1.24561250209808,2.5008499622345,3.08536243438721,5.03295040130615,4.17105007171631,3.45495009422302,SWING_LEFT
-3.16112494468689,-4.71679973602295,-6.17031240463257,-1.17177498340607,0.68406248092651,2.5867874622345,-2.74995017051697,-4.52700042724609,-6.48405027389526,8.83500003814697,8.27505016326904,7.97805023193359,-0.05981250107288,0.89746248722076,1.59060001373291,-3.94995021820068,-6.52395009994507,-8.53395080566406,-3.05621242523193,-1.58358752727509,-0.9590625166893,7.11741256713867,5.56874990463257,4.37442493438721,-9.74100017547607,-11.7619504928589,-13.3450508117676,12.1429510116577,10.7659502029419,10.2649507522583,0.11632499843836,0.04922499880195,0.1870000064373,-13.7410507202148,-16.7250003814697,-16.0759506225586,-2.67313742637634,-3.41508746147156,-4.15676259994507,2.15338754653931,1.57011246681213,0.78979998826981,-19.314001083374,-24.2689514160156,-33.3100509643555,7.70205020904541,5.79795026779175,2.62500023841858,-3.11960005760193,-6.44544982910156,-9.61138725280762,20.6749515533447,46.4280014038086,47.0610008239746,0.38389998674393,5.52131223678589,10.0361251831055,-11.7660121917725,-16.4858379364014,-18.6535243988037,-4.22504997253418,-0.73605000972748,-0.11805000901222,20.3910007476807,10.2120008468628,-1.82205009460449,-5.7369122505188,-6.13222503662109,-6.66077518463135,10.4959506988525,13.9740009307861,13.4320507049561,9.14691257476807,5.03236246109009,4.47576236724854,-1.25606250762939,1.2751749753952,2.69417500495911,2.09895014762878,1.79505014419556,2.18505001068115,13.678050994873,6.05505037307739,6.14805030822754,1.15761244297028,2.92490005493164,3.82937502861023,3.18195009231567,2.83005023002625,1.33500003814697,SWING_LEFT
-1.99168753623962,-3.17638754844666,-4.26813745498657,1.13121247291565,1.87646245956421,2.84157490730286,-3.22605013847351,-4.21605014801025,-4.31400012969971,9.72405052185059,10.6050004959106,12.1930503845215,0.87449997663498,1.11773753166199,0.69107496738434,-5.80605030059814,-6.40905046463013,-6.26295042037964,-3.12674999237061,-3.27662491798401,-3.48040008544922,3.98777508735657,3.68788743019104,3.56578755378723,-11.0820007324219,-10.9980001449585,-12.69105052948,7.51995038986206,10.1599502563477,12.1210508346558,-0.15922500193119,-0.47932499647141,-0.9787250161171,-11.0100002288818,-10.5889501571655,-13.5109510421753,-1.31174993515015,-2.13234996795654,-3.95037508010864,0.88646250963211,0.29589998722076,-0.25685000419617,-30.4750518798828,-44.827953338623,-62.7139511108398,8.35095024108887,1.24995005130768,-7.21500015258789,-4.53021240234375,-7.55411243438721,-9.6846752166748,44.6299514770508,54.35400390625,16.2370510101318,8.24601268768311,11.836275100708,12.4777126312256,-19.6516380310059,-20.3444995880127,-15.108362197876,-1.69800007343292,-0.9250500202179,0.28095000982285,-1.54395008087158,-4.34805011749268,3.89400029182434,-7.91862487792969,-6.98610019683838,-5.64231252670288,13.5300006866455,11.0350503921509,7.03800010681152,6.62571239471436,6.79635000228882,8.35766220092773,0.90034997463226,2.32485008239746,7.25229978561401,1.98705005645752,1.95495009422302,1.75395011901855,7.13505029678345,7.05105018615723,9.63495063781738,4.13943767547607,3.42223739624023,2.26833748817444,3.45495009422302,2.54505014419556,2.50905013084412,SWING_LEFT
-3.06212496757507,-5.17838764190674,-7.08977508544922,2.53591251373291,3.95821237564087,5.35589981079102,-5.93295049667358,-6.43800020217896,-8.028000831604,7.7310004234314,8.01600074768066,8.43495082855225,2.41766238212585,1.65962493419647,1.1950124502182,-5.33205032348633,-8.2300500869751,-10.4359502792358,-2.59214997291565,-0.51438748836517,0.3617624938488,6.08176231384277,5.04075002670288,3.81741237640381,-8.4330005645752,-10.3489503860474,-14.1090002059937,12.0760507583618,9.38100051879883,10.5210008621216,-1.00471246242523,-1.56612503528595,-1.52845001220703,-10.407000541687,-14.3470506668091,-17.6520004272461,-1.55512499809265,-3.23303747177124,-5.13122510910034,0.11508750170469,0.09336250275373,-0.14808750152588,-32.8909530639648,-47.8770027160645,-70.5139541625977,7.32900047302246,5.13000011444092,-2.4250500202179,-2.82466244697571,-6.53771257400513,-9.33996200561523,54.3250541687012,63.294002532959,20.7990016937256,6.91171264648438,11.7917251586914,13.8840627670288,-16.3103866577148,-19.1449489593506,-17.0777740478516,-2.26605010032654,-2.46195006370544,-1.24605000019073,-5.43600034713745,-5.81895017623901,1.36500000953674,-6.45383739471436,-6.42317485809326,-5.64423751831055,18.0,12.5460004806519,7.84200048446655,4.57531261444092,3.44643759727478,4.13985013961792,-1.16187500953674,0.19167499244213,2.42288756370544,0.84705001115799,1.51005005836487,1.29000008106232,5.29500007629395,4.68900012969971,5.19195032119751,0.53130000829697,1.58949995040894,1.87467503547668,5.9239501953125,5.514000415802,4.97505044937134,SWING_LEFT
-3.22024989128113,-4.38143730163574,-5.53038740158081,1.67131245136261,3.68307495117188,5.75987482070923,-2.29905009269714,-3.63405013084412,-4.89300012588501,7.84095048904419,7.54200029373169,7.99695014953613,0.5154874920845,-0.39916250109673,-0.59716248512268,-6.22005033493042,-9.6670503616333,-13.4629507064819,-2.13427495956421,-1.14331245422363,-0.36203750967979,5.58126258850098,4.6139497756958,2.71755003929138,-9.90795040130615,-10.6219501495361,-12.5959501266479,15.3379507064819,14.707950592041,10.5049505233765,0.22811250388622,-0.27926251292229,-0.93334996700287,-9.46095085144043,-8.34000015258789,-6.26295042037964,-1.53752493858337,-1.99979996681213,-3.13857507705688,-0.63167500495911,-1.93668746948242,-3.52811241149902,-20.4630012512207,-26.6659507751465,-35.2170028686523,14.473051071167,9.18495082855225,-0.17895001173019,-5.48734998703003,-6.96959972381592,-7.46460008621216,33.9720001220703,33.631950378418,22.1089515686035,5.39879989624023,9.36457538604736,10.7618503570557,-15.1195001602173,-14.1737747192383,-11.0863494873047,-4.84995031356812,-2.48895001411438,-0.16305001080036,3.47295022010803,-2.97795009613037,-2.29800009727478,-4.18879985809326,-4.37483739852905,-4.3828125,12.9169502258301,10.3570508956909,8.02905082702637,5.11994981765747,4.64997482299805,5.89366245269775,-1.97353744506836,-1.025750041008,1.60806250572205,2.60700011253357,2.84595012664795,2.71005010604858,4.49805021286011,4.7590503692627,5.96805047988892,-1.60572504997253,0.28916248679161,1.64133751392365,6.6259503364563,5.6650505065918,5.58600044250488,SWING_LEFT
-2.14197492599487,-4.40618753433228,-7.22851228713989,-2.6226749420166,-4.04909992218018,-3.4964873790741,-7.25205039978027,-11.8870506286621,-11.896050453186,3.93705010414124,5.91600036621094,11.1270008087158,2.63738751411438,4.46283769607544,5.45146226882935,-14.8060503005981,-18.4159507751465,-15.8509511947632,-2.10251259803772,0.97020000219345,0.42996248602867,10.4883623123169,6.37752485275269,4.10066270828247,-7.50405025482178,-10.6560001373291,-12.0349502563477,6.2440505027771,2.99400019645691,7.49400043487549,-0.65463751554489,-1.99031245708466,-2.84927487373352,-13.4149503707886,-13.6020002365112,-11.9130001068115,-3.51106238365173,-2.76375007629395,-1.92568743228912,0.42927500605583,0.22866250574589,-0.12223749607801,-27.7590007781982,-32.6470527648926,-43.0050010681152,7.10805034637451,10.4850006103516,8.45400047302246,-3.02266240119934,-8.07386207580566,-10.2712497711182,19.5870018005371,52.324951171875,26.2549514770508,3.44753742218018,9.70475006103516,14.3328628540039,-11.9623622894287,-15.8268003463745,-16.774450302124,3.69705009460449,1.66305005550385,0.6360000371933,19.9699516296387,7.26705026626587,-0.5380499958992,-6.58996248245239,-7.29960012435913,-6.74877500534058,13.4250001907349,14.3350505828857,11.3509502410889,8.52747535705566,5.43922519683838,3.33616256713867,1.53931248188019,1.40717494487762,2.33859992027283,1.45305001735687,1.25100004673004,1.09305000305176,11.9509506225586,10.8900003433228,7.06095027923584,3.34317493438721,4.51673746109009,4.66977500915527,3.80895018577576,2.31705021858215,1.2679500579834,SWING_LEFT
-1.91537499427795,-3.15122509002686,-4.31461238861084,-2.27095007896423,-0.96222501993179,1.24616253376007,-4.27095031738281,-5.66700029373169,-4.2679500579834,9.60900020599365,9.58695030212402,10.135950088501,2.12671256065369,2.80747509002686,2.77034997940063,-8.2300500869751,-6.2590503692627,-3.98100018501282,-2.32402491569519,-1.88677501678467,-2.7306125164032,7.94172477722168,6.25336265563965,3.07862496376038,-8.46705055236816,-11.1199502944946,-19.230001449585,8.18895053863525,8.86605072021484,11.4430503845215,-3.21694993972778,-2.29212498664856,-0.95452499389648,-19.5289516448975,-20.3989505767822,-16.9000511169434,-3.16855001449585,-3.12743759155273,-3.77781248092651,1.68850004673004,1.05806255340576,-0.0109999999404,-35.048999786377,-38.6560516357422,-63.612003326416,7.08195018768311,8.10195064544678,3.60195016860962,-2.13702487945557,-5.15006256103516,-8.04278755187988,28.0660514831543,50.1070518493652,46.7659530639649,-1.74831247329712,3.47985005378723,9.45463752746582,-7.57102489471436,-14.4522123336792,-20.418062210083,-3.00795006752014,-0.68805003166199,-1.14705002307892,10.7179508209229,5.47995042800903,0.18000000715256,-7.33933734893799,-9.16162490844727,-8.31393718719482,14.848051071167,13.5180006027222,11.6860504150391,7.53788757324219,6.20179986953735,5.7800874710083,0.12196250259876,1.43082499504089,2.81338739395142,0.5059500336647,0.46800002455711,0.84705001115799,8.27505016326904,7.20195055007935,6.01905012130737,1.17328751087189,1.87109994888306,2.14720010757446,5.02800035476685,6.00495052337646,6.75495052337646,SWING_LEFT
-2.59311246871948,-3.6421000957489,-4.38845014572144,1.51703751087189,0.70771247148514,0.34883749485016,-2.48205018043518,-3.35595011711121,-2.9320502281189,6.35595035552979,8.05005073547363,9.40305042266846,-2.81984996795654,-2.71974992752075,-2.31522488594055,-5.89695024490356,-9.23100090026856,-11.1010503768921,-1.81747496128082,-1.09683752059937,-1.18277502059937,6.84502506256104,7.09389972686768,6.43156242370605,-5.48205041885376,-9.03404998779297,-13.19700050354,8.99295043945313,8.89500045776367,11.8270502090454,-1.46286249160767,-1.66251254081726,-1.66760003566742,-18.1069507598877,-15.7500009536743,-16.5979499816895,-3.45042490959167,-4.18893766403198,-5.30639982223511,0.83654999732971,0.32780000567436,-0.2216500043869,-25.1220016479492,-35.7630004882813,-50.4229507446289,6.96195030212402,4.22205018997192,-3.54600024223328,-2.58087491989136,-5.81336259841919,-9.46921253204346,20.22705078125,48.1240539550781,47.9950523376465,5.57246255874634,11.2754125595093,14.5069370269775,-16.7690868377686,-20.8909244537354,-20.5922756195068,-1.87095010280609,0.56205004453659,-0.07500000298023,9.1830005645752,-3.01200008392334,-3.44505023956299,-5.99486255645752,-6.32362508773804,-5.87785005569458,11.9020509719849,13.0009508132935,10.9630508422852,8.17189979553223,6.06209993362427,4.54162502288818,-0.10436250269413,0.44275000691414,1.55306243896484,0.58095002174377,0.42495003342628,0.62895005941391,8.52195072174072,6.11205005645752,5.12295007705688,1.1837375164032,2.31384992599487,2.63986253738403,4.98705005645752,5.43300008773804,4.93695020675659,SWING_LEFT
-2.6148374080658,-4.38762474060059,-6.10871267318726,-6.63286256790161,-5.06426239013672,-0.63786250352859,-7.20705032348633,-3.44205021858215,-3.63105010986328,4.60995006561279,8.37105083465576,9.62595081329346,4.4108624458313,4.13806247711182,3.54928755760193,-7.41795015335083,-9.46605014801025,-10.1839504241943,0.29713749885559,2.12712502479553,1.41583752632141,11.1095876693726,6.42028760910034,2.71933746337891,-10.9770002365112,-14.614951133728,-16.6429500579834,14.6100006103516,13.9099502563477,16.5040512084961,-3.31677508354187,-2.98457503318787,-1.98838746547699,-15.0079507827759,-13.3380002975464,-11.7259502410889,-3.3853874206543,-4.42282485961914,-5.62828731536865,0.71403747797012,0.11563749611378,-0.60101246833801,-28.3639507293701,-42.7390518188477,-60.4650039672851,9.70500087738037,9.18000030517578,3.9060001373291,-2.79991245269775,-6.13208723068237,-8.9076623916626,35.9410514831543,53.0269508361816,25.687952041626,-0.19758750498295,5.09299993515015,9.62073707580566,-12.8917245864868,-18.3774242401123,-21.129487991333,-0.64200001955032,-2.22795009613037,-3.29295015335083,5.5900502204895,-0.75600004196167,-1.67295002937317,-8.67638778686523,-8.925950050354,-7.50516223907471,17.6430015563965,14.1720008850098,9.45195007324219,6.06608724594116,5.39701223373413,5.02768754959106,0.81949996948242,2.20811247825623,3.15301251411438,0.71700000762939,1.10295009613037,0.83895003795624,5.67600011825562,6.72495031356812,7.32405042648315,0.50036251544952,1.04403746128082,1.42092502117157,5.75100040435791,5.04000043869019,4.33605003356934,SWING_LEFT
-1.77498745918274,-2.8419873714447,-4.91507482528687,-1.22759997844696,-2.30999994277954,-2.62295007705688,-2.44095015525818,-6.17700052261353,-8.10300064086914,3.99705028533936,2.63895010948181,3.4939501285553,1.26128745079041,2.91183757781982,4.38157510757446,-6.04995012283325,-10.0950002670288,-14.8039503097534,-6.8598747253418,2.10952496528625,3.49140000343323,12.4476003646851,9.7288122177124,5.55046224594116,-6.02400016784668,-9.0730504989624,-11.8650007247925,15.6109504699707,7.87995052337646,9.30900001525879,-0.54780000448227,-3.06061244010925,-3.54791259765625,-5.22900009155273,-12.0739507675171,-24.5160007476807,-3.34138751029968,-5.3090124130249,-6.44792509078979,0.50022500753403,0.74181246757507,0.61269998550415,-29.5380020141602,-47.1409530639649,-67.4179534912109,1.49505007266998,5.05800008773804,1.88295006752014,-1.8712375164032,-9.67092514038086,-10.5272750854492,41.7750015258789,25.7350521087646,11.4640502929688,4.49721240997314,9.98167514801025,13.0004873275757,-15.3891372680664,-20.2475624084473,-20.2626876831055,-4.10100030899048,-2.99400019645691,-1.6840500831604,-2.13105010986328,-6.83895015716553,-0.47595003247261,-7.2690749168396,-7.60787487030029,-7.21517515182495,19.980001449585,15.0970506668091,9.65295028686523,6.04862499237061,5.36800003051758,6.54678726196289,-1.57176244258881,2.31756258010864,5.20781230926514,1.08600008487701,1.6560001373291,1.92000007629395,5.59995031356812,4.72800016403198,6.40200042724609,0.43174999952316,1.01859998703003,1.23296248912811,6.33105039596558,4.83405017852783,3.93600010871887,SWING_LEFT
-0.84741246700287,-4.84770011901855,-7.46789979934692,-2.94277501106262,-2.72882509231567,0.776462495327,-4.83600044250488,-6.7300500869751,-4.60605001449585,4.54800033569336,4.45695018768311,8.03505039215088,5.13163757324219,4.8365626335144,4.74100017547607,-9.78900051116943,-12.1140003204346,-14.4829511642456,-2.13441252708435,1.71173751354218,3.1825749874115,16.6970367431641,11.6417121887207,5.85378742218018,-8.69895076751709,-12.7009506225586,-16.7940006256104,12.7540502548218,10.9840507507324,11.017050743103,-0.88343751430511,-4.24957513809204,-3.9502375125885,-12.9810009002686,-11.1919507980347,-8.34899997711182,-1.78117501735687,-2.42577505111694,-3.75237488746643,-0.08126249909401,-0.40658751130104,-0.81784999370575,-25.4190006256104,-34.0549507141113,-51.4020042419434,10.2150001525879,5.83005046844482,-1.76595008373261,-2.88474988937378,-5.52750015258789,-8.03330039978027,32.5369529724121,51.4960517883301,38.1850509643555,0.63992500305176,11.733699798584,13.3747625350952,-14.3918495178223,-21.3585624694824,-18.3576240539551,-3.32895016670227,0.03705000132322,0.64095002412796,23.4900016784668,-6.40095043182373,-4.95405006408691,-6.35648727416992,-7.0633749961853,-6.71508741378784,12.1050004959106,12.3829507827759,11.4130506515503,5.31423759460449,4.03878736495972,3.9858500957489,-0.94888746738434,-0.02956249937415,2.27741241455078,0.3529500067234,0.47100001573563,1.71405005455017,6.91200017929077,6.03300046920776,7.36005020141602,1.56956243515015,2.90936255455017,3.20636248588562,3.36105012893677,3.27000021934509,2.71005010604858,SWING_LEFT
-1.10192501544952,-2.04792499542236,-3.49662494659424,-2.76677489280701,-3.42072486877441,-4.00276231765747,-1.30800008773804,-4.20105028152466,-6.23895025253296,6.9190502166748,4.27995014190674,3.24795007705688,0.49032500386238,1.65288746356964,3.43667507171631,-4.39305019378662,-9.32205009460449,-16.3099498748779,-4.93817520141602,-1.51951253414154,1.20436251163483,15.6330623626709,15.2039251327515,11.3652000427246,-4.50795030593872,-5.61705017089844,-9.31005001068115,9.60600090026856,9.1560001373291,9.01995086669922,3.84697508811951,0.7928249835968,-2.40267491340637,-8.21805000305176,-4.34295034408569,-7.22400045394897,-0.22192500531673,-1.01571249961853,-2.26338744163513,-1.27572500705719,-1.92128753662109,-1.93875002861023,-16.7650508880615,-28.0080013275146,-40.5619506835938,16.4830513000488,9.59205055236816,4.97205018997192,-2.48160004615784,-3.46059989929199,-8.03192520141602,16.4400005340576,37.4569511413574,30.7320022583008,1.51951253414154,7.79886245727539,12.3517627716064,-17.7491874694824,-21.1847629547119,-21.2455368041992,2.64000010490417,1.17000007629395,-1.36800003051758,15.8449506759644,9.17805004119873,1.9450501203537,-6.96836233139038,-6.56713724136353,-5.32674980163574,10.2640504837036,13.7100009918213,12.4189510345459,5.22087478637695,3.08577489852905,2.56836247444153,0.73507499694824,0.12773749232292,2.01423740386963,1.71405005455017,2.35095000267029,1.19895005226135,8.4859504699707,9.82005023956299,7.84905052185059,0.88907498121262,1.73800003528595,1.49572503566742,4.39604997634888,3.46200013160706,3.64395022392273,SWING_LEFT
-4.93913745880127,-6.02043724060059,-5.16188764572144,-0.45168748497963,3.73628759384155,10.8261995315552,-5.28600025177002,-4.89105033874512,-4.65405035018921,9.19695091247559,9.50100040435791,11.1510009765625,2.67877507209778,2.11846256256104,1.01804995536804,-7.86600017547607,-6.00705051422119,-3.97605013847351,1.26018750667572,0.53570002317429,-0.25753748416901,1.56282496452332,0.45539999008179,-0.51301246881485,-8.77305030822754,-10.4710502624512,-12.0180006027222,12.3199510574341,13.4220008850098,14.0370006561279,-3.8422999382019,-3.32846260070801,-1.83397495746613,-3.78900027275085,-7.17795038223267,-12.6700506210327,-2.55502510070801,-3.74137496948242,-5.27271270751953,-0.24667499959469,-0.20693749189377,-0.76587498188019,-24.928050994873,-38.4619522094727,-59.2720527648926,13.4820003509521,13.756950378418,11.1730508804321,-1.25647497177124,-4.62866258621216,-6.36927509307861,58.6069526672363,52.2630043029785,24.2050514221191,2.94016242027283,7.54421234130859,9.98153781890869,-19.2637500762939,-22.4076881408691,-20.9002742767334,7.99305057525635,3.04005002975464,-0.85800004005432,4.05194997787476,2.77305006980896,2.02905011177063,-8.7568244934082,-10.7907247543335,-10.6145877838135,11.4420003890991,12.2179508209229,12.3190507888794,9.84651279449463,7.12855005264282,5.89448738098145,3.06157493591309,3.60717487335205,4.11977481842041,3.78300023078919,3.39195013046265,2.63100004196167,6.47595024108887,6.54300022125244,6.7950005531311,0.90887498855591,1.68671250343323,1.5552624464035,3.14595007896423,3.78000020980835,4.5799503326416,SWING_LEFT
-2.02894997596741,-3.76956248283386,-5.63777494430542,-2.8168249130249,-2.40817499160767,-0.81578749418259,-4.66800022125244,-4.84500026702881,-4.53900003433228,5.71005010604858,7.04400014877319,8.42805004119873,2.16026258468628,1.95965003967285,1.31738746166229,-1.20000004768372,-1.89195013046265,-2.89605021476746,-4.49459981918335,-2.63477492332459,-1.50713753700256,9.11803722381592,7.71402502059937,5.57864999771118,-11.6419506072998,-15.2010011672974,-17.203950881958,13.1029510498047,15.4309511184692,18.3529510498047,-0.40562498569489,-1.3582249879837,-1.45585000514984,-9.78900051116943,-6.84105014801025,-9.46605014801025,-1.0752500295639,-2.63862490653992,-4.79448747634888,0.93279999494553,-0.09569999575615,-1.24574995040894,-33.3460502624512,-45.3360023498535,-65.7769546508789,11.367000579834,6.31305027008057,2.3970000743866,-2.61511254310608,-4.97158765792847,-5.98496246337891,53.110954284668,51.8029518127441,28.3099517822266,4.75763750076294,8.52128791809082,10.342887878418,-20.6487865447998,-22.0596752166748,-18.4412250518799,-2.17695021629334,0.03495000302792,0.84195005893707,7.58700037002563,2.30595016479492,0.40995001792908,-8.05172538757324,-8.53586292266846,-7.91009998321533,10.3069505691528,12.4290008544922,11.7100505828857,6.44971227645874,5.82491254806519,5.22871255874634,0.04826249927282,1.203125,2.46289992332459,2.34795022010803,1.52400004863739,1.90305006504059,9.903000831604,9.40995025634766,8.79495048522949,0.54285001754761,3.31154990196228,3.21254992485046,3.8209502696991,3.07605004310608,3.55305027961731,SWING_LEFT
-1.13231253623962,-1.6935875415802,-2.59544992446899,-0.11164999753237,-0.26551249623299,-0.19744999706745,-0.95595002174377,-2.94900012016296,-4.23000001907349,7.88400030136108,6.45000028610229,5.64495038986206,0.08992499858141,0.57887500524521,1.02135002613068,-1.41795003414154,-2.67300009727478,-4.84095001220703,-7.40286254882813,-6.36006259918213,-2.26132488250732,5.85983753204346,7.07423734664917,6.07241249084473,-7.84605026245117,-10.701000213623,-15.3210010528564,11.4840002059937,11.8530006408691,14.3530502319336,-0.24763749539852,-0.25726249814034,0.42996248602867,-15.5250005722046,-22.4299507141113,-21.2200508117676,-1.32096254825592,-2.96683740615845,-4.91012477874756,2.77681255340576,1.74473750591278,0.39531248807907,-33.5040016174316,-47.896053314209,-69.2860565185547,10.8210000991821,8.94300079345703,2.56005001068115,-3.23441243171692,-6.66558742523193,-9.11514949798584,37.6240501403809,54.8610038757324,22.324951171875,5.80717515945435,10.2826623916626,12.1276378631592,-19.3602752685547,-21.1703243255615,-17.9048366546631,-0.4120500087738,-0.2569500207901,2.16600012779236,4.95105028152466,-2.14305019378662,-2.11905002593994,-7.05196237564087,-7.89758729934692,-8.17354965209961,9.15495014190674,9.97095012664795,8.55600070953369,5.6959376335144,4.86791229248047,4.5445122718811,-1.12227499485016,4.15387487411499,7.68569993972778,1.99905014038086,0.55395001173019,1.07400000095367,10.2940502166748,9.88200092315674,8.79495048522949,3.35940003395081,3.71318745613098,2.89478754997253,3.18195009231567,3.07395005226135,2.88000011444092,SWING_LEFT
2.82823753356934,2.03362488746643,-0.22261250019073,0.3588750064373,-1.20532500743866,-1.6608624458313,-2.67300009727478,-3.48495006561279,-5.7199501991272,13.6920003890991,11.2350006103516,9.01200008392334,-4.38583755493164,-3.08976244926453,-1.50094997882843,-2.68500018119812,-3.7390501499176,-4.80195045471191,-3.46335005760193,-3.92383742332459,-4.07522487640381,0.68942499160767,1.27916252613068,1.44375002384186,-9.06105041503906,-11.6449508666992,-14.2720508575439,9.70500087738037,10.267050743103,11.1340503692627,2.26462507247925,2.40666246414185,2.50469994544983,-10.2460508346558,-13.7839508056641,-18.2149505615234,-3.32089996337891,-3.36325001716614,-4.43437480926514,0.64679998159409,0.36245000362396,-0.28297498822212,-32.3230514526367,-53.0160026550293,-70.1170501708984,18.8509502410889,11.6040000915527,-9.83100032806396,-2.54746246337891,-6.6617374420166,-10.4762620925903,59.661003112793,49.305004119873,3.98205018043518,7.99768733978271,13.1920251846313,15.8431625366211,-19.9343376159668,-21.3841381072998,-17.410249710083,-3.12600016593933,-1.51395010948181,-0.43395000696182,11.0550003051758,4.0570502281189,2.83095002174377,-8.60681247711182,-3.31003737449646,-0.12815000116825,10.9969501495361,9.96705055236816,6.13905048370361,3.47269988059998,1.49778747558594,1.74294996261597,1.34103751182556,0.08195000141859,2.0315625667572,-0.15600000321865,-0.18900001049042,0.94200003147125,9.82695007324219,8.32005023956299,7.81695032119751,2.05328750610352,2.45891237258911,2.38576245307922,4.94205045700073,4.92000007629395,4.4650502204895,SWING_LEFT
-10.8625001907349,-9.33666229248047,-5.31808757781982,9.56711292266846,9.75383758544922,8.45047473907471,-9.67605018615723,-8.67300033569336,-7.77000045776367,12.4180507659912,13.8049507141113,14.0250005722046,-0.62933748960495,-0.97955000400543,-1.67859995365143,-6.40200042724609,-3.21705007553101,-0.88200002908707,1.09161245822906,-0.32903748750687,-1.60407495498657,2.09151244163513,1.11319994926453,0.34540000557899,-13.0530004501343,-12.997950553894,-11.6740503311157,9.08205032348633,10.4850006103516,11.9130001068115,-2.90881252288818,-1.2615624666214,0.73191249370575,-8.14605045318604,-9.66195011138916,-13.7310009002686,-1.53697502613068,-2.1900999546051,-4.37360000610352,1.59362494945526,1.3388375043869,0.43779999017715,-24.5370006561279,-36.1650009155273,-60.060001373291,13.570050239563,7.19895029067993,-5.81895017623901,2.0092875957489,-2.83992505073547,-7.91793727874756,28.6189517974854,64.5060043334961,49.4370040893555,-2.6802875995636,4.28408765792847,10.8524627685547,-5.84980010986328,-12.2944250106812,-17.7691249847412,2.54700016975403,-0.01500000059605,1.56705009937286,38.97705078125,13.9800004959106,-0.94005006551743,-6.62804985046387,-6.71605014801025,-6.21816253662109,8.52705001831055,8.00804996490479,8.89605045318604,9.79440021514893,7.1666374206543,4.04470014572144,1.38517498970032,1.68959999084473,1.36070001125336,1.25400006771088,0.95895004272461,1.13595008850098,10.9980001449585,9.34500026702881,8.29605007171631,2.0315625667572,3.38511252403259,3.46953749656677,4.93005037307739,5.24100017547607,5.08095026016235,SWING_LEFT
-7.07959985733032,-8.9896125793457,-9.43937492370606,-0.95438748598099,-0.71939998865128,0.48578751087189,-7.31895017623901,-7.68600034713745,-8.66295051574707,8.95500087738037,10.8709506988525,11.532000541687,-4.09557485580444,-3.53663754463196,-2.77351260185242,-7.18995046615601,-7.70505046844482,-5.19300031661987,0.16830000281334,1.05476248264313,-0.04592499881983,6.10761260986328,4.70236253738403,4.12115001678467,-8.04495048522949,-9.11100006103516,-11.6140508651733,8.19795036315918,5.26395034790039,6.97395038604736,-1.11526250839233,-0.2041874974966,0.70592498779297,-14.1600008010864,-18.6000003814697,-22.0180511474609,-2.7355625629425,-2.9354875087738,-4.02228736877441,2.0876624584198,1.24038743972778,-0.03382499888539,-30.3499507904053,-43.9369506835938,-61.995002746582,10.3270502090454,4.04805040359497,-1.88895010948181,-2.8362123966217,-6.39883756637573,-11.1061496734619,37.5960006713867,46.6459503173828,20.4310512542725,8.10315036773682,14.9968500137329,17.5298748016357,-20.4342880249023,-26.5090370178223,-26.3767623901367,2.35995006561279,1.17195010185242,2.55900001525879,0.81705003976822,-1.58700013160706,2.47605013847351,-7.82058763504028,-9.52764987945557,-8.92815017700195,11.988000869751,11.6380500793457,9.44895076751709,7.2780122756958,6.35923767089844,4.88413763046265,1.54426252841949,3.37342500686646,5.19089984893799,1.3330500125885,1.3660501241684,1.13895010948181,8.08800029754639,9.16800022125244,9.70200061798096,1.52927494049072,1.92761254310608,1.73951244354248,6.11295032501221,6.03405046463013,4.40100002288818,SWING_LEFT
-3.67455005645752,-8.70429992675781,-12.3613872528076,3.44712495803833,6.62172508239746,10.6264123916626,-6.69000053405762,-9.7069501876831,-7.72905015945435,4.37805032730103,6.69900035858154,10.7419500350952,-3.8391375541687,-3.85921239852905,-2.40721249580383,-6.55800008773804,-6.16500043869019,-6.85500049591064,2.54484987258911,2.65278744697571,1.92774999141693,2.00488758087158,0.9094250202179,0.36877501010895,-11.9059505462646,-15.0220508575439,-14.5140008926392,15.7999505996704,14.4610509872437,11.532000541687,-3.3486750125885,-2.35193753242493,-0.7070249915123,-15.3070507049561,-21.6150016784668,-20.2120513916016,-3.17748737335205,-4.72463750839233,-6.7681622505188,2.65773749351501,2.44365000724792,1.09477496147156,-34.5750007629395,-57.9720039367676,-78.6550521850586,7.03905010223389,0.24000000953674,-7.36395025253296,-4.02600002288818,-8.38749980926514,-11.5073747634888,59.8770027160645,61.0810546875,24.8059520721436,6.95406246185303,13.0068120956421,16.269962310791,-21.6592750549316,-26.5534496307373,-27.2821998596191,6.38895034790039,1.06005001068115,-1.13100004196167,18.4440002441406,7.90395021438599,-0.32700002193451,-6.85300016403198,-7.53472518920898,-6.03074979782104,12.2680501937866,14.3850002288818,9.16394996643066,5.26363754272461,2.73308753967285,1.28823745250702,-0.30703750252724,-0.61572498083115,3.94817495346069,1.54095005989075,1.23495006561279,0.95700001716614,10.9140005111694,9.39600086212158,8.50995063781738,1.31518745422363,1.54701244831085,1.36592495441437,3.34395027160645,4.40100002288818,4.93005037307739,SWING_LEFT
-6.34851264953613,-6.19478750228882,-1.83631253242493,4.70415019989014,8.91976261138916,9.69760036468506,-3.28905010223389,-5.72205018997192,-6.48795032501221,8.21700000762939,9.70905017852783,14.5350008010864,-2.12781238555908,-2.98814988136292,-3.83982491493225,-3.20295023918152,-4.32105016708374,-2.2350001335144,0.9256500005722,0.18424999713898,-0.14877499639988,0.50696247816086,0.9118999838829,1.3171124458313,-7.09200048446655,-7.99500036239624,-8.77095031738281,11.1439504623413,9.77400016784668,9.64995002746582,-3.24431252479553,-2.16232490539551,1.72246253490448,-4.78095006942749,-8.00505065917969,-15.4669504165649,-4.24709987640381,-4.96292495727539,-5.59061241149902,2.314537525177,2.11021256446838,1.49214994907379,-20.4199504852295,-30.0220508575439,-46.1449508666992,10.3440008163452,10.4350509643555,10.3540506362915,-1.25661253929138,-6.05165004730225,-9.66308784484863,39.7609519958496,66.3139495849609,37.6819534301758,-0.63153749704361,6.78067493438721,13.1786870956421,-8.72327518463135,-18.3034496307373,-24.089448928833,1.79505014419556,2.6380500793457,-1.36500000953674,21.6940517425537,8.96700000762939,-0.6889500617981,-3.94281244277954,-5.68768739700317,-7.02845001220703,12.3400506973267,12.7570505142212,12.0840005874634,7.09307479858398,4.55867481231689,3.1099750995636,-0.49334999918938,-0.0027499999851,0.95191252231598,2.17305016517639,1.0480500459671,0.52995002269745,10.8850507736206,10.1839504241943,9.07005023956299,1.02093744277954,1.58908748626709,1.76673746109009,2.13300013542175,2.08500003814697,3.08805012702942,SWING_LEFT
-4.33331251144409,-4.02916240692139,-3.53141236305237,3.62958741188049,3.5069375038147,2.78781247138977,-3.95400023460388,-6.22305011749268,-7.15395021438599,10.7200508117676,11.1490507125854,10.9210500717163,-2.86673736572266,-3.14971256256104,-3.0667998790741,0.13800001144409,-0.44805002212524,-0.61395001411438,-3.37493753433228,-3.11520004272461,-2.78698754310608,1.12626254558563,1.65013754367828,2.04929995536804,-11.9920501708984,-13.7959508895874,-15.2659511566162,15.070050239563,15.2179508209229,13.5300006866455,-0.5908374786377,0.85745000839233,2.71576237678528,-11.3790006637573,-18.9070510864258,-23.0910015106201,-2.18954992294312,-3.3015124797821,-4.90091228485107,3.16910004615784,2.5511748790741,1.63501250743866,-33.612003326416,-51.4240531921387,-71.6260528564453,15.7090511322021,6.96705055236816,-1.63005006313324,-1.0506374835968,-5.63420009613037,-8.68381214141846,43.0920028686523,49.3219528198242,31.6920013427734,1.32536244392395,8.91137504577637,12.2710494995117,-13.5060749053955,-25.2216243743896,-27.3127250671387,-3.73200011253357,-5.21400022506714,-5.21400022506714,20.7000007629395,7.63095045089722,2.62500023841858,-3.97361254692078,-4.97749996185303,-3.97650003433228,12.6660003662109,14.8240509033203,14.026050567627,4.59689998626709,2.18680000305176,1.81651246547699,-0.96978747844696,-1.93187499046326,-1.92733752727509,-0.18000000715256,-0.16305001080036,0.61905002593994,7.91805028915405,7.12305021286011,6.65100049972534,-1.35836243629456,-0.4490749835968,0.34883749485016,4.76505041122437,4.08195018768311,4.19700002670288,SWING_LEFT
-1.17493748664856,-2.1455500125885,-3.62353754043579,-2.08340001106262,-3.27538752555847,-3.64072489738464,-3.01800012588501,-5.14200019836426,-7.53495025634766,7.26405048370361,7.97295045852661,8.75400066375732,-0.47533750534058,-0.40851250290871,-0.35048750042915,-1.96395003795624,-4.8139500617981,-7.67595052719116,-4.33207511901855,-2.24496245384216,-0.63249999284744,8.85802459716797,9.05808734893799,7.73368740081787,-10.6750507354736,-13.8199510574341,-12.3540010452271,11.9490003585815,10.8829507827759,14.401050567627,1.01956248283386,0.91671252250671,0.80162501335144,-19.5769500732422,-17.3310012817383,-15.292950630188,-1.83301246166229,-3.58833742141724,-5.34517478942871,1.60283744335175,-0.02351249940693,-1.5604875087738,-37.1779518127441,-48.4279518127441,-56.0680541992188,12.8950510025024,4.27305030822754,-2.81295013427734,-4.96732521057129,-7.91972494125366,-9.78257465362549,42.1410026550293,46.4140510559082,25.359001159668,4.22042512893677,16.1196746826172,17.8051490783691,-18.2325000762939,-26.0438747406006,-22.8628120422363,2.4300000667572,-0.95295006036758,-0.18495000898838,16.5589504241943,-0.43500003218651,1.62105011940002,-6.68373727798462,-6.74038743972778,-5.0957498550415,9.67005062103272,11.7100505828857,12.2400007247925,5.61701250076294,3.77162504196167,2.51982498168945,0.70592498779297,0.43532499670982,0.72682499885559,0.97800004482269,0.9300000667572,1.34205007553101,9.63300037384033,9.39795017242432,8.22000026702881,0.66976249217987,0.74731248617172,0.81042498350143,4.09605026245117,4.45800018310547,4.75305032730103,SWING_LEFT
0.04372499883175,-1.30336248874664,-3.55189990997314,0.67347496747971,0.43834999203682,0.16747500002384,-1.57395005226135,-4.45500040054321,-6.82095050811768,5.7049503326416,6.01200008392334,6.35595035552979,-0.55701249837875,-0.90488749742508,-1.5749249458313,-1.04505002498627,-1.66005003452301,-3.175950050354,-9.8573751449585,-6.20647478103638,-2.06786251068115,6.49604988098145,7.74661254882813,7.70989990234375,-10.3320007324219,-10.0620002746582,-12.6390008926392,17.0140514373779,17.6320514678955,17.29905128479,-0.41029998660088,0.16293749213219,0.62947499752045,-12.0109510421753,-13.5319509506226,-15.2760009765625,-1.44911253452301,-3.87914991378784,-6.44875001907349,2.59049987792969,1.40717494487762,0.01567500084639,-26.7600021362305,-39.0580520629883,-55.4230537414551,11.3260507583618,7.95195055007935,-0.50700002908707,-2.11626243591309,-6.16989994049072,-9.65964984893799,30.1230010986328,59.5960540771484,44.1439514160156,-0.00508749997243,8.54851245880127,15.1529121398926,-10.4108123779297,-18.8651371002197,-23.3231620788574,-3.98595023155212,0.44400003552437,0.3649500310421,29.416051864624,13.2090005874634,3.01995015144348,-1.91565001010895,-2.38727498054504,-3.73889994621277,4.47300004959106,7.68195056915283,9.28905010223389,10.9110374450684,7.94488763809204,4.53282499313354,0.43669998645782,0.23086249828339,-0.76958751678467,0.82305002212524,0.60495001077652,0.42495003342628,10.0110006332397,11.1270008087158,10.288950920105,-0.84397500753403,-0.0692999958992,0.83490002155304,5.05200004577637,2.7720000743866,2.19495010375977,SWING_LEFT
-1.4392124414444,-2.27204990386963,-3.90156245231628,1.51043748855591,1.81156253814697,1.65439999103546,-1.95195007324219,-4.68495035171509,-8.028000831604,6.96000051498413,8.80905055999756,10.453950881958,-2.42440009117126,-2.49906253814697,-2.26985001564026,-2.11800003051758,-4.32300043106079,-5.88000011444092,-6.06265020370483,-4.25328731536865,-2.71603751182556,3.79994988441467,4.50931262969971,4.50766229629517,-11.7649507522583,-12.9240007400513,-13.7839508056641,13.3590002059937,12.8010005950928,11.5390501022339,-0.51672500371933,-0.17503750324249,1.0867999792099,-7.74105024337768,-11.0730009078979,-16.5,-1.77127504348755,-1.91881251335144,-3.18697500228882,1.89942502975464,1.48926246166229,0.51603752374649,-25.8619518280029,-42.9430503845215,-69.7069549560547,19.2679500579834,18.2520008087158,2.18204998970032,-0.1119249984622,-3.91132497787476,-7.99644994735718,25.0000514984131,59.4450035095215,52.2750015258789,-5.10221242904663,4.76286268234253,8.30871200561523,-1.62580001354218,-17.663387298584,-19.5801372528076,-0.550950050354,1.35000002384186,-2.48895001411438,35.0010032653809,17.3760013580322,-0.30795001983643,-6.75303745269775,-7.5250997543335,-10.4780502319336,10.9320001602173,12.2400007247925,15.1950006484985,7.15302515029907,6.46525001525879,5.09492492675781,2.54154992103577,0.62328749895096,-0.54780000448227,4.57305002212524,3.54600024223328,2.22795009613037,9.46500015258789,8.63205051422119,8.52600002288818,-2.68551254272461,-1.37101244926453,-0.56278747320175,3.63195013999939,3.01395010948181,3.28005003929138,SWING_LEFT
0.58038747310638,1.08377504348755,1.04719996452332,5.03937482833862,3.87474989891052,2.9797625541687,-5.64300012588501,-5.60700035095215,-5.91405010223389,10.4059505462646,8.95995044708252,7.94895029067993,-2.38617491722107,-2.24674987792969,-2.07281255722046,-2.30700016021729,-2.48595023155212,-2.56095004081726,-0.80575001239777,-1.1950124502182,-1.39218747615814,0.05499999970198,-0.5293750166893,-1.02409994602203,-7.16595029830933,-8.57205009460449,-10.9909505844116,9.16095066070557,9.59700012207031,9.99195003509522,-1.74116253852844,-1.86587500572205,0.39985001087189,2.382000207901,-2.48400020599365,-21.984001159668,-2.06456255912781,-2.84625005722046,-4.40522480010986,1.7274124622345,2.62143754959106,2.02716255187988,-25.4830513000488,-37.7550010681152,-52.6690521240234,10.0159502029419,4.99095010757446,0.24405001103878,1.53133749961853,-3.65873742103577,-8.71103763580322,41.1019515991211,55.2300033569336,36.6760520935059,-9.71038722991943,-14.2729120254517,-9.12656211853027,12.4926996231079,24.7390003204346,23.3553371429443,4.66695022583008,-0.8770500421524,-0.06495000422001,29.8519515991211,16.2100505828857,-0.63105005025864,-10.4816246032715,-7.93594980239868,-6.2600998878479,10.371000289917,11.1139507293701,8.76195049285889,4.86254978179932,2.95790004730225,1.41858744621277,0.57818752527237,-1.17782497406006,-1.74762499332428,1.42395007610321,0.26700001955032,0.37500002980232,11.1439504623413,11.2710008621216,10.488000869751,0.29053750634193,0.86129999160767,1.68877494335175,5.65995025634766,4.15605020523071,3.04305005073547,SWING_LEFT
-9.9389123916626,-9.13976287841797,-6.25088739395142,6.47721242904663,9.14003753662109,10.5055503845215,-5.23605012893677,-4.8139500617981,-5.20005035400391,8.3899507522583,10.6120500564575,12.5310001373291,-3.97058749198914,-2.755774974823,-2.23024988174438,-5.47095012664795,-4.94895029067993,-4.51005029678345,2.0257875919342,0.1727000027895,-0.91932499408722,4.44042491912842,1.95992493629456,1.39411246776581,-9.03900051116943,-13.0510501861572,-14.5669507980347,11.4150009155273,12.5910005569458,13.2300004959106,-2.76044988632202,-1.50988745689392,-0.03822499886155,-12.0880508422852,-16.0660514831543,-17.7259502410889,-3.45413756370544,-4.36906242370605,-5.80098724365234,1.34584999084473,0.55110001564026,-0.67223751544952,-38.8399505615234,-58.4770545959473,-77.7910537719727,14.6650505065918,7.41000032424927,-3.81705021858215,-1.53656244277954,-5.38807487487793,-9.79041290283203,53.1010513305664,55.7790031433105,23.4120006561279,2.92709994316101,5.21344995498657,6.60233736038208,-5.75616264343262,-6.89576244354248,-7.3154125213623,-3.175950050354,1.48605012893677,2.15400004386902,3.44400024414063,-2.99295020103455,-3.04305005073547,-8.6279878616333,-9.5462121963501,-7.23291254043579,9.59805011749268,10.6440000534058,10.7590503692627,5.57315015792847,4.10121250152588,1.90327501296997,-0.84411251544952,-0.05417500063777,6.85712480545044,0.07500000298023,-0.43905001878738,0.64305001497269,11.1750001907349,11.1750001907349,9.24495029449463,1.42202496528625,1.541375041008,0.89636248350143,3.1189501285553,3.35595011711121,3.58605027198792,SWING_LEFT
-2.17923760414124,3.97787499427795,3.58256244659424,12.6339120864868,5.42657518386841,1.64161252975464,-1.14495003223419,-1.8880500793457,-2.2590000629425,11.6350507736206,13.51305103302,11.9220008850098,-4.32011270523071,-4.01871252059937,-3.5590500831604,-1.63905012607574,-1.41300010681152,-1.66305005550385,-4.10575008392334,-5.22499990463257,-5.87578725814819,1.51401245594025,2.36362504959106,2.7942750453949,-10.9360504150391,-13.2930002212524,-14.3419504165649,6.97200012207031,8.84700012207031,13.5529508590698,0.22659999132156,1.10096251964569,1.47344994544983,-14.2890005111694,-15.1849508285522,-12.5359506607056,-2.00612497329712,-2.13674998283386,-3.27057504653931,1.72053754329681,0.2771999835968,-1.41075003147125,-36.3690032958984,-44.743953704834,-55.4569511413574,18.3270015716553,12.3370504379272,3.17100024223328,-3.28721237182617,-5.88582515716553,-8.34721279144287,39.400951385498,50.6080513000488,35.3730010986328,-10.5990495681763,-11.1401128768921,-9.56064987182617,11.6382751464844,16.3468246459961,17.489725112915,0.05400000140071,2.61900019645691,-2.34000015258789,16.8030014038086,15.1960506439209,8.50500011444092,-10.1370496749878,-10.0641746520996,-8.37842464447021,15.3550510406494,15.4990510940552,13.4470510482788,4.04813766479492,2.54883742332459,1.7326375246048,2.58376240730286,1.86724996566772,2.15462493896484,1.29195010662079,1.1340000629425,1.09095001220703,8.56905078887939,9.03600025177002,8.51399993896484,-0.41249999403954,-0.55412501096725,-0.66976249217987,2.26395010948181,2.72700023651123,3.40695023536682,SWING_LEFT
-5.73264980316162,-6.35291242599487,-6.05714988708496,6.26917505264282,9.59612464904785,11.092399597168,-0.72795003652573,-2.62995004653931,-4.24395036697388,4.56704998016357,5.54505014419556,8.22705078125,-7.22232484817505,-6.57758760452271,-5.69222497940063,-2.45505023002625,-3.52095007896423,-6.2029504776001,-0.51727497577667,0.54477500915527,0.55646252632141,2.159987449646,1.49338746070862,1.23323750495911,-6.94800043106079,-10.1260509490967,-12.7510509490967,17.5530014038086,16.875,16.3390502929688,-3.69888758659363,-3.33671259880066,-2.77241253852844,-5.57400035858154,-7.53795051574707,-14.6910009384155,-1.96831250190735,-2.88172507286072,-4.07178735733032,1.94851243495941,2.32649993896484,1.98261249065399,-23.8309516906738,-36.3589515686035,-55.873950958252,19.840051651001,21.1150512695313,14.9950504302979,-1.472212433815,-5.30529975891113,-8.74761199951172,54.4420509338379,56.5999526977539,34.875,-6.48683738708496,-12.7791128158569,-12.8537750244141,6.59917497634888,22.2946624755859,23.8427753448486,0.99000006914139,-1.33905005455017,-1.24305009841919,19.0840511322021,3.51405024528503,-1.12695002555847,-14.9962997436523,-14.2911996841431,-10.2444372177124,12.3379507064819,12.4429502487183,13.2810010910034,4.9002251625061,5.04129981994629,4.23115015029907,1.53491246700287,0.13337500393391,-0.18823750317097,1.43595004081726,1.1580001115799,0.5950500369072,8.45700073242188,8.28404998779297,8.10195064544678,-0.1703625023365,0.34031251072884,0.35763749480247,5.84505033493042,5.33205032348633,6.13005018234253,SWING_LEFT
0.72600001096725,0.62686252593994,0.07342500239611,-2.90111255645752,-3.39157509803772,-3.89606237411499,3.70905017852783,1.37100005149841,-2.89095020294189,6.90000009536743,4.27800035476685,1.99695014953613,1.46025002002716,3.59658741950989,11.791862487793,6.20400047302246,2.9610002040863,-9.97995090484619,-13.5795001983643,-10.0171499252319,-5.77500009536743,18.2590370178223,24.2098999023438,26.7024993896484,-3.27900004386902,-5.32005023956299,-6.86895036697388,17.6610012054443,18.6520500183105,18.6019515991211,0.55563747882843,4.95701265335083,1.87068748474121,-9.31005001068115,-10.1340007781982,-19.5649509429932,2.87003755569458,0.29479998350143,-5.03868770599365,2.39112496376038,1.81554996967316,0.47657498717308,-22.1730003356934,-35.048999786377,-77.4150009155273,23.90505027771,21.0520515441895,4.87604999542236,-4.59359979629517,-7.77273750305176,-10.4449129104614,60.3340530395508,63.730052947998,34.279052734375,-1.3309999704361,10.4457378387451,13.2808494567871,-5.40897512435913,-19.2798366546631,-20.1378364562988,7.26000022888184,-1.03305006027222,0.86100006103516,21.6990013122559,6.20805025100708,-0.91095006465912,-3.01537489891052,-4.22936248779297,-9.15200042724609,7.0090503692627,10.9150505065918,10.4029502868652,5.2230749130249,3.77946257591248,2.0286750793457,-0.06215000152588,-0.1363999992609,0.38623750209808,1.07205009460449,1.4760000705719,1.76595008373261,10.1740503311157,8.83800029754639,8.86395072937012,0.71403747797012,0.46021249890327,0.67869997024536,3.48105025291443,3.54300022125244,4.42200040817261,SWING_LEFT
-0.09061250090599,-0.79970002174377,-1.92073750495911,-2.57427501678467,-2.40363740921021,-1.64917504787445,-0.07200000435114,-1.62195003032684,-3.86100029945374,4.33695030212402,3.77505016326904,3.81795024871826,0.46378749608994,0.45196250081062,-1.51483750343323,-1.30305004119873,-2.83095002174377,-4.4170503616333,-12.3358125686646,-10.0119247436523,-5.35424995422363,13.4582252502441,14.8216753005981,13.2441377639771,-10.5550508499146,-13.1370010375977,-15.7519512176514,12.9160509109497,15.7330503463745,17.5320014953613,-1.99897503852844,-0.95672500133514,-0.68708747625351,-14.2530002593994,-15.9919509887695,-18.409049987793,-0.26922500133514,-1.88168752193451,-3.89166259765625,3.46596240997314,2.76718759536743,1.68739998340607,-30.8269519805908,-47.9220008850098,-77.4259567260742,13.6900510787964,12.4590005874634,3.80595016479492,-2.3263623714447,-6.41561269760132,-10.3665370941162,45.1710014343262,78.7180557250977,47.568000793457,-2.24867486953735,-4.0034499168396,-2.72690010070801,-0.95053750276566,5.96983766555786,5.46397495269775,6.00795030593872,1.04295003414154,0.53505003452301,17.4379501342773,-3.06495022773743,-10.5709505081177,-12.8959875106812,-11.5116376876831,-10.2108879089355,7.78200054168701,8.55600070953369,8.51504993438721,5.21124982833862,4.02902507781982,1.94383752346039,-0.00288749998435,3.68527507781982,6.85148763656616,1.48395001888275,1.73505008220673,1.66095006465912,12.3420009613037,8.8279504776001,6.77805042266846,0.92661249637604,-0.12416250258684,-0.38389998674393,1.9939501285553,2.7240002155304,3.5550000667572,SWING_LEFT
2.06593751907349,1.0535249710083,-0.47176250815392,0.21779999136925,-0.11866249889135,-0.74222499132156,3.06000018119812,0.73395001888275,-1.82505011558533,6.96705055236816,5.94900035858154,4.764000415802,-0.03368749842048,0.83531248569489,1.55182504653931,1.34700012207031,1.00005006790161,-1.13295006752014,-12.5136003494263,-13.6442623138428,-11.7441501617432,3.34922504425049,9.50234985351562,13.2160873413086,-7.36005020141602,-8.78295040130615,-12.3030004501343,10.4470500946045,13.4860506057739,15.9870004653931,-4.5974497795105,-3.15906238555908,-0.40741249918938,-12.3420009613037,-20.6650505065918,-26.3740520477295,1.94768750667572,-1.07896244525909,-4.05789995193481,6.33874988555908,4.64076232910156,3.15851259231567,-22.8870010375977,-46.5619506835938,-69.5659561157227,13.8580503463745,4.18395042419434,0.33495002985001,-2.84391260147095,-6.73612499237061,-10.3048000335693,39.0520515441895,59.8669509887695,37.4449501037598,-2.65938758850098,-5.34709978103638,-3.1322500705719,0.19607499241829,11.9598875045776,11.5466995239258,-3.06105017662048,-3.97395014762878,-0.80505001544952,26.3689517974854,3.19695019721985,-5.40900039672852,-12.3721122741699,-8.90779972076416,-7.57968759536743,8.94900035858154,12.28005027771,12.3229503631592,4.95646238327026,3.97856259346008,2.79592490196228,-4.27872514724731,-2.83071255683899,0.30071249604225,1.07895004749298,0.40605002641678,0.966000020504,12.4609508514404,10.7899503707886,9.29295063018799,-0.79667496681213,0.33907499909401,0.82513749599457,4.4389500617981,3.83805012702942,3.75600028038025,SWING_LEFT
-1.71448743343353,-3.15356254577637,-4.9754376411438,-1.20064997673035,0.07851249724627,2.05480003356934,-2.14904999732971,-3.26895022392273,-4.36395025253296,6.46395015716553,7.14195013046265,7.99200057983398,-1.64683747291565,-2.6863374710083,-3.25751256942749,-2.04105019569397,-2.66100001335144,-4.09095001220703,-1.66718745231628,-0.37427499890327,0.01044999994338,6.875,4.94353723526001,3.23152494430542,-7.04400014877319,-8.65605068206787,-9.49905014038086,12.1450510025024,12.0640506744385,13.1850004196167,-3.89922499656677,-4.02861261367798,-1.71778750419617,-3.42795014381409,-9.19695091247559,-24.256950378418,-2.16507506370544,-3.27029991149902,-4.50298738479614,4.50216245651245,4.65630006790161,3.6481499671936,-25.8330020904541,-39.928050994873,-62.1970520019531,12.4540510177612,17.6110515594482,11.0940008163452,0.46529999375343,-7.17640018463135,-10.073112487793,13.7680501937866,52.300952911377,25.2250518798828,-2.57454991340637,-11.4617252349854,-11.1344747543335,-1.02148747444153,17.9217491149902,18.8171501159668,4.82895040512085,1.69905006885529,-0.90105003118515,8.80695056915283,-0.0709500014782,-2.64495015144348,-15.6733503341675,-16.3403625488281,-11.796950340271,9.47294998168945,10.3380002975464,11.9160003662109,5.28343725204468,4.25878763198853,2.91389989852905,0.12430000305176,0.50641250610352,1.68052494525909,1.1290500164032,0.58799999952316,0.89205002784729,7.17600011825562,7.9350004196167,8.91000080108643,0.70881247520447,1.1978999376297,0.4989874958992,6.03900051116943,5.95305013656616,6.19695043563843,SWING_LEFT
1.27407503128052,-1.22952497005463,-6.09248733520508,-2.84638738632202,-2.9074375629425,-1.84016251564026,-3.69300007820129,-7.92795038223267,-11.1370506286621,3.26895022392273,3.56400012969971,4.55295038223267,3.08054995536804,-0.29988750815392,-1.17383754253387,-3.15900015830994,-5.51895046234131,-10.2370500564575,-11.1461620330811,-2.29253745079041,4.75873756408691,16.952787399292,15.2512245178223,8.46972465515137,-8.0710506439209,-10.6939506530762,-15.4960508346558,29.1859512329102,35.014949798584,28.8910522460938,2.4730749130249,0.3271124958992,-1.11237502098084,-9.21900081634522,-7.75800037384033,-7.17795038223267,-5.08488750457764,-8.21521282196045,-9.29761219024658,-0.55508750677109,-1.08226251602173,-0.82513749599457,-39.256950378418,-45.3720016479492,-35.2740020751953,2.3689501285553,3.43695020675659,14.1589508056641,-8.50368785858154,-6.76541233062744,-1.93324995040894,43.360050201416,27.2850017547607,12.9319505691528,13.7428503036499,15.2000751495361,11.4305124282837,-23.8488254547119,-24.6141490936279,-14.1323871612549,1.30200004577637,1.23900008201599,2.581050157547,-1.39800012111664,-3.27105021476746,0.61305004358292,-7.74963760375977,-7.77699995040894,-6.98115015029907,13.5979509353638,11.1070508956909,8.43405055999756,5.2181248664856,4.03631258010864,1.82751250267029,-1.19308745861053,1.46038746833801,7.52702474594116,2.84595012664795,3.10995006561279,2.85600018501282,7.84095048904419,6.73200035095215,7.99500036239624,-1.14303743839264,-1.37857496738434,-1.39782500267029,2.76000022888184,2.9850001335144,3.37605023384094,SWING_LEFT
-0.60774999856949,-2.20329999923706,-4.43368768692017,-5.09561252593994,-5.18072509765625,-4.19251251220703,-7.52505016326904,-10.4779500961304,-10.2940502166748,2.95095014572144,2.44995021820068,3.98100018501282,5.60477495193481,2.0297749042511,2.64701247215271,-4.23195028305054,-9.75300025939941,-11.0340003967285,-9.05052471160889,-1.06507503986359,3.6788125038147,22.510950088501,16.5917129516602,6.53716230392456,-14.2720508575439,-17.4720001220703,-19.2589511871338,14.2579507827759,15.0529508590698,14.7289505004883,1.02849996089935,-1.03661251068115,-2.06634998321533,-11.5879507064819,-9.84195041656494,-9.98505020141602,-0.33123749494553,-2.89588737487793,-4.40976238250732,1.23406255245209,0.17517499625683,-0.51631247997284,-24.7909507751465,-45.0550537109375,-67.8990020751953,9.7170000076294,4.76100015640259,-0.12600000202656,-1.76577496528625,-4.58053731918335,-8.03164958953857,29.673002243042,66.9780044555664,49.5079536437988,-1.35148751735687,5.92460012435913,8.64077472686768,-1.83039999008179,-11.4776744842529,-12.7149000167847,-2.23200011253357,3.96000027656555,-2.59605002403259,28.5150012969971,13.9969511032104,0.26295000314713,-5.76702499389648,-6.5694751739502,-8.79037475585938,13.6099510192871,11.3080501556396,10.0840501785278,8.63623714447021,7.05319976806641,5.01393747329712,0.74277502298355,-0.38238748908043,0.00769999995828,3.11205005645752,2.28600001335144,1.52400004863739,10.0540504455566,11.881950378418,11.4700508117676,-1.39026248455048,-0.2246749997139,0.43147498369217,3.99300026893616,4.0009503364563,3.42300009727478,SWING_LEFT
0.26949998736382,-0.26248750090599,-0.94338750839233,-3.07821249961853,-4.37593746185303,-4.94903755187988,1.14795005321503,-0.29505002498627,-3.1519501209259,11.202000617981,10.7370004653931,9.62295055389404,2.00887489318848,1.90382504463196,1.6191999912262,2.44905018806458,3.06900024414063,2.53695011138916,-5.72371244430542,-9.19228744506836,-11.0008249282837,0.71527498960495,3.49318742752075,8.5893497467041,-12.7129507064819,-15.0600004196167,-13.0840501785278,4.27500009536743,9.1230001449585,14.7769508361816,1.4218875169754,1.94878745079041,3.67798757553101,-15.3360004425049,-19.0290012359619,-20.1690006256104,1.58028745651245,0.79199999570847,-0.92537498474121,4.2274374961853,2.23987507820129,0.96648746728897,-28.8220520019531,-35.9020500183105,-47.3070030212402,11.767050743103,8.91900062561035,7.75305032730103,-1.91826248168945,-6.98885011672974,-8.95180034637451,-1.00905001163483,55.245002746582,44.9599533081055,0.57736247777939,7.26398754119873,11.5937252044678,-13.6090621948242,-21.7325630187988,-24.4472255706787,-2.86200022697449,2.23800015449524,1.91205012798309,13.3470010757446,3.33900022506714,-0.87795001268387,-4.99730014801025,-7.51025009155273,-8.91632461547852,12.1630506515503,12.8959503173828,13.2979507446289,7.73024988174438,5.37074995040894,4.49776268005371,-1.06493747234344,1.71833753585815,3.01125001907349,0.36795002222061,0.26505002379417,0.69600003957748,7.72200059890747,10.0950002670288,9.36195087432861,2.42783737182617,3.0552499294281,2.76237487792969,3.6870002746582,2.73600006103516,3.51705026626587,SWING_LEFT
-0.85813748836517,-1.07786250114441,-1.55595004558563,-0.5429875254631,0.18205000460148,0.82816249132156,-2.94105005264282,-2.85495018959045,-3.45600008964539,6.63705015182495,7.02705049514771,7.20705032348633,-0.25409999489784,0.26730000972748,0.81290000677109,0.28605002164841,-0.90105003118515,-2.38800001144409,-4.75694990158081,-4.06106233596802,-1.30831253528595,4.07893753051758,4.71102476119995,4.49597501754761,-8.44799995422363,-9.71895027160644,-13.7599506378174,11.8390502929688,13.9080009460449,16.711950302124,0.64652502536774,1.12282502651215,1.6825875043869,-13.5709505081177,-15.6660003662109,-17.4910507202148,-1.67887496948242,-3.02032494544983,-4.76135015487671,2.23300004005432,1.46712493896484,0.61008751392365,-30.738000869751,-44.9860534667969,-61.9999542236328,15.868950843811,9.93900012969971,2.08605003356934,-1.97023749351501,-8.15705013275146,-8.91219997406006,32.881950378418,41.2669525146484,19.3170013427734,4.5738000869751,9.39303779602051,12.2141246795654,-19.1928005218506,-21.8671741485596,-20.0274257659912,4.18994998931885,-0.09795000404119,-1.50000011920929,6.11205005645752,2.37600016593933,2.007000207901,-8.56583786010742,-7.32228755950928,-4.75763750076294,12.3210010528564,12.9130506515503,11.6959505081177,3.82896256446838,2.47486257553101,2.4256374835968,1.63611245155334,1.45777499675751,2.27617502212524,2.15700006484985,2.18295001983643,1.53405010700226,7.60905027389526,7.35495042800903,7.40295028686523,0.76986247301102,0.88261246681213,1.42133748531342,4.11105012893677,3.55995011329651,3.65100026130676,SWING_LEFT
-7.05828762054443,-7.13693761825562,-5.88211250305176,4.77069997787476,5.81267499923706,6.35098743438721,-5.92605018615723,-6.47595024108887,-6.95505046844482,10.782000541687,12.7800006866455,13.8820505142212,-1.07112503051758,-1.36730003356934,-2.14293742179871,-5.37195014953613,-4.27095031738281,-4.00500011444092,-0.12264999747276,-0.97143751382828,-1.72658753395081,2.30161237716675,1.66141247749329,1.26266252994537,-10.6009502410889,-10.6150503158569,-10.6630506515503,10.3630504608154,9.86805057525635,10.2910509109497,-1.04307496547699,-0.30992498993874,0.51218748092651,-5.27700042724609,-6.61800050735474,-9.62805080413818,-2.1319375038147,-2.23451256752014,-4.01940011978149,0.15922500193119,0.19566249847412,0.12691250443459,-19.723051071167,-26.8650016784668,-64.5870056152344,12.3130502700806,12.6430501937866,2.42400002479553,-0.71761250495911,-4.28656244277954,-7.9712872505188,28.3320007324219,75.013053894043,55.185001373291,5.81748723983765,10.3514127731323,12.8167877197266,-18.4872875213623,-20.5341129302979,-17.5804748535156,7.32705020904541,3.07395005226135,2.64495015144348,9.93000030517578,-0.11895000934601,-0.98595005273819,-8.02078723907471,-7.57336235046387,-4.85760021209717,8.90295028686523,9.52395057678223,6.76905012130737,4.49872493743896,0.73301249742508,-2.26572489738464,3.00382494926453,2.21388745307922,2.159987449646,-0.52500003576279,0.14699999988079,-0.57000005245209,12.6580505371094,11.2879505157471,9.28995037078857,3.92370009422302,3.71071243286133,2.98168754577637,4.29300022125244,4.33800029754639,4.05299997329712,SWING_LEFT
-4.74223756790161,-5.97973728179932,-6.52753734588623,1.76728749275208,3.77189993858337,5.59638738632202,-5.61195039749146,-6.4980001449585,-7.19505023956299,8.40705013275146,8.59800052642822,9.16605091094971,0.49390000104904,-0.00948750041425,-0.55192500352859,-3.52800011634827,-4.24695014953613,-4.52505016326904,-1.43770003318787,-0.76092499494553,-0.92702502012253,5.42286252975464,4.40948724746704,3.01798748970032,-10.5550508499146,-11.5369501113892,-13.9320011138916,10.8450002670288,10.7580003738403,11.5990505218506,-0.02571249939501,0.86075001955032,1.63047504425049,-11.9370002746582,-15.1900510787964,-16.2409515380859,-2.08133745193481,-2.5306875705719,-3.55684995651245,0.8564875125885,0.509850025177,0.0859375,-29.8210506439209,-43.8049507141113,-64.1580047607422,14.7730503082275,10.4929504394531,1.97400009632111,-2.10485005378723,-5.63873767852783,-9.20590019226074,35.6800498962402,59.3380546569824,18.1840515136719,6.23383760452271,11.3924245834351,14.3397378921509,-19.8538990020752,-23.476749420166,-22.4588375091553,5.55300045013428,2.35500001907349,0.6810000538826,5.62395048141479,0.89805006980896,0.80205005407333,-7.90226268768311,-9.10511207580566,-8.35614967346191,9.58605003356934,10.4530506134033,9.54795074462891,8.38282489776611,5.30956268310547,2.6978874206543,2.51226258277893,2.79881238937378,2.58321237564087,1.9410001039505,1.02404999732971,0.82500004768372,8.3230504989624,9.08895015716553,10.2460508346558,1.95786249637604,2.31068754196167,1.84703743457794,4.50795030593872,4.15395021438599,4.21395015716553,SWING_LEFT
-3.28377509117126,-4.71432495117188,-6.20839977264404,-0.06682500243187,3.08192491531372,7.05704975128174,-1.89705014228821,-2.956050157547,-3.9190502166748,6.10500049591064,5.6980504989624,6.27705049514771,1.51524996757507,1.38352501392365,0.65903747081757,-4.95105028152466,-4.6560001373291,-5.12100028991699,-0.4130499958992,-0.00921249948442,0.07136250287294,3.8200249671936,1.5633749961853,0.51218748092651,-11.2930507659912,-14.4060010910034,-16.6740016937256,17.0430011749268,18.7630500793457,18.5299510955811,-3.98598742485046,-3.95271253585815,-3.03847503662109,-2.67600011825562,-5.73195028305054,-14.1310510635376,-2.35977506637573,-3.54461240768433,-5.24713754653931,0.15716250240803,0.67251247167587,1.12928748130798,-19.7179508209229,-25.6219520568848,-46.5240020751953,8.40405082702637,3.68400025367737,3.49005007743835,1.87055003643036,-3.57431244850159,-8.25275039672852,45.9570007324219,71.0710525512695,30.6289520263672,2.1840500831604,7.55796241760254,11.8069877624512,-11.584924697876,-19.6531505584717,-23.7109127044678,-3.3510000705719,-0.11805000901222,1.53600001335144,17.1769504547119,-2.21399998664856,-8.62800025939941,-2.78698754310608,-5.14016246795654,-6.98362493515015,11.7799501419067,15.609001159668,16.4040012359619,4.30416250228882,3.11231255531311,3.50968742370605,-5.85598754882813,-3.57995009422302,1.13300001621246,2.47995018959045,2.29995012283325,2.28105020523071,9.28800010681152,9.38895034790039,8.73000049591064,0.04111250117421,1.32838749885559,1.49806249141693,3.18600010871887,3.26100015640259,3.14805006980896,SWING_LEFT
-0.5292375087738,-1.36496245861053,-3.33176255226135,-5.84306240081787,-6.06691265106201,-3.10571241378784,-0.88605004549026,-2.79495024681091,-2.69505023956299,6.03105020523071,7.14900016784668,8.91900062561035,0.45911249518394,0.49994999170303,0.5020124912262,0.01800000108778,-1.67895007133484,-4.37100028991699,-5.75588750839233,-4.81923770904541,-3.35225009918213,8.90546226501465,9.79467487335205,9.3262128829956,-9.05100059509277,-10.7400007247925,-12.1380004882813,13.7470502853394,18.4489517211914,20.9209518432617,1.65769994258881,1.22402501106262,0.94668751955032,-13.1320505142212,-14.521050453186,-14.8930511474609,-2.02358746528625,-3.80462503433228,-5.95814990997314,1.99650001525879,1.21357500553131,0.37290000915527,-30.3040523529053,-44.0809516906738,-56.1370544433594,12.2269506454468,4.15500020980835,-1.27605009078979,-3.67221236228943,-6.52066230773926,-7.87077474594116,32.6329498291016,38.6689529418945,32.9160003662109,1.60132503509521,7.66424989700317,11.6138000488281,-16.3689632415771,-21.4957866668701,-22.1700878143311,-3.90705013275146,-0.88200002908707,1.74495005607605,15.0550508499146,3.42495012283325,-0.43995001912117,-5.05298757553101,-6.23548746109009,-6.58088731765747,8.78805065155029,10.1269502639771,10.1269502639771,7.59151268005371,6.25185012817383,4.55331230163574,-2.69156241416931,0.03519999980927,3.49552488327026,2.71695017814636,1.72305011749268,1.62000012397766,11.5540504455566,11.881950378418,10.7269506454468,0.14726249873638,1.53903746604919,1.66333746910095,4.65000009536743,4.51800012588501,4.78095006942749,SWING_LEFT
-0.59702497720718,-0.853600025177,-1.41102504730225,1.08831250667572,-0.12828749418259,-1.83081245422363,1.72095012664795,0.39900001883507,-1.80105006694794,10.1650505065918,7.87200021743774,5.95905017852783,-2.51776242256165,-2.30821251869202,0.75006252527237,5.45205020904541,7.91895055770874,-6.52395009994507,-12.0749750137329,-10.4489002227783,-6.33297491073608,-0.171187505126,7.90460014343262,13.9840250015259,-5.76300048828125,-5.41095018386841,-6.12405014038086,13.993950843811,17.3040008544922,14.836950302124,5.87578725814819,4.04029989242554,1.22979998588562,-10.8670501708984,-12.4069509506226,-16.0020008087158,-0.72187501192093,-2.25747489929199,-4.03301239013672,0.595787525177,-1.21934998035431,-2.14651250839233,-32.3950500488281,-42.1720504760742,-49.3639526367188,20.238000869751,10.9690504074097,1.96605014801025,-5.71518754959106,-7.38649988174438,-8.6840877532959,36.844051361084,45.4440040588379,26.9520015716553,-1.45351254940033,4.93927478790283,11.287787437439,-10.098687171936,-16.1757755279541,-19.0482883453369,4.40295028686523,1.20795011520386,0.80805003643036,14.7840003967285,8.34899997711182,4.75695037841797,-6.8545126914978,-7.44562482833862,-7.25683736801147,9.38895034790039,11.2459506988525,11.1430501937866,10.5198497772217,8.17189979553223,6.27715015411377,1.58537495136261,2.34905004501343,2.29652500152588,1.88595008850098,1.67295002937317,1.60800004005432,7.05105018615723,8.84700012207031,9.75300025939941,1.5387624502182,1.38434994220734,1.30130004882813,5.08800029754639,4.45605039596558,4.19204998016357,SWING_LEFT
-1.43233752250671,-4.00812482833862,-9.980299949646,-1.46602499485016,-0.30236250162125,3.74687504768372,-5.14200019836426,-8.22000026702881,-8.65305042266846,1.84905004501343,2.68695020675659,6.28200006484985,2.56148743629456,2.37682509422302,1.5662624835968,-7.42500019073486,-7.51800012588501,-9.175950050354,-3.57279992103577,2.86220002174377,4.34829998016357,15.3322124481201,7.3862247467041,2.20385003089905,-9.69495010375977,-11.5609502792358,-14.2720508575439,20.3740501403809,29.0299510955811,25.6120510101318,0.07507500052452,-0.87986248731613,-1.44402503967285,-12.9100503921509,-15.9180011749268,-17.0910015106201,-1.29786252975464,-3.73477506637573,-6.2867751121521,0.10023749619722,-0.12677499651909,-0.64569997787476,-36.4960517883301,-54.4410018920898,-72.8880004882813,14.0920505523682,4.03095006942749,-5.3730001449585,-4.49116230010986,-7.62327480316162,-9.06207466125488,64.5850524902344,53.0170516967773,22.3699512481689,3.37892508506775,10.6578998565674,14.699987411499,-17.0016002655029,-21.4392757415771,-21.0861740112305,1.43805003166199,-1.357950091362,0.00405000010505,17.9599514007568,4.56704998016357,-1.58700013160706,-4.5292501449585,-5.72165012359619,-6.09317493438721,6.38595008850098,9.0730504989624,10.8379507064819,8.12968730926514,5.28013753890991,3.84216237068176,-1.38531243801117,-2.91884994506836,-2.7945499420166,3.32805013656616,3.17505025863647,3.51900005340576,6.31095027923584,8.50695037841797,11.5060501098633,-2.03651237487793,-0.31968748569489,1.04059994220734,3.26505017280579,2.98995018005371,2.54205012321472,SWING_LEFT
-1.83548748493195,-3.52192497253418,-7.24515008926392,-2.48709988594055,-1.77196252346039,0.26977500319481,-4.34205007553101,-8.03295040130615,-9.22800064086914,1.79895007610321,2.08800005912781,3.55695009231567,4.93239974975586,4.18453741073608,4.05130004882813,-7.20000028610229,-8.21805000305176,-7.69095039367676,-6.71027517318726,0.48056250810623,4.03163766860962,20.6331119537354,14.1717128753662,5.37033748626709,-11.0479507446289,-10.9740009307861,-11.9010009765625,12.2719507217407,17.3140506744385,20.0220012664795,1.33952498435974,0.51039999723434,-0.16981250047684,-16.1520004272461,-13.1590509414673,-13.7839508056641,-2.13111257553101,-4.26854991912842,-6.00531244277954,0.23223750293255,-0.40810000896454,-0.97460001707077,-29.0730018615723,-41.0490036010742,-54.8490028381348,10.6150503158569,5.74095010757446,2.86200022697449,-4.19086265563965,-6.98554992675781,-8.9553747177124,26.8369522094727,46.5990028381348,44.3350524902344,1.31106245517731,12.6653995513916,15.3883123397827,-11.5117750167847,-19.3591747283936,-17.3502998352051,-5.00805044174194,-0.10095000267029,0.87105005979538,33.0850524902344,10.617000579834,5.29500007629395,-1.31917500495911,-1.57231247425079,-1.27393746376038,4.44405031204224,5.89005041122437,7.05405044555664,10.4314374923706,8.16034984588623,5.99128723144531,0.01924999989569,-1.96570003032684,-2.58953738212585,2.91105008125305,2.33895015716553,1.79295003414154,5.43705034255981,9.14895057678223,11.086950302124,-1.44429993629456,-0.12759999930859,1.25785005092621,3.91395020484924,3.4740002155304,3.9019501209259,SWING_LEFT
-2.9326000213623,-3.95078754425049,-5.59583759307861,-3.58049988746643,-2.31962490081787,-0.12718750536442,-2.83800005912781,-3.87105011940002,-5.34105014801025,3.14895009994507,2.9719500541687,3.07005023956299,0.30951249599457,0.99962496757507,2.23643755912781,-6.05295038223267,-8.25795078277588,-9.4750509262085,-4.87973737716675,0.16582499444485,3.23014998435974,13.5799121856689,10.307412147522,4.40893745422363,-8.46195030212402,-10.6410007476807,-14.5020008087158,19.2919502258301,19.7880001068115,15.4740009307861,-2.85436248779297,-3.23152494430542,-2.38700008392334,-8.11695003509521,-13.1590509414673,-17.5200004577637,-2.7025625705719,-4.8214373588562,-6.85080003738403,-0.39050000905991,-0.65257501602173,-1.06287503242493,-33.9070510864258,-50.9380531311035,-62.6370048522949,11.1799507141113,2.00505018234253,-4.5949501991272,-2.76581239700317,-6.55709981918335,-9.03897476196289,55.1940040588379,58.1310043334961,18.1860008239746,4.11509990692139,10.9840497970581,15.9827251434326,-13.6515502929688,-18.1582508087158,-18.9381504058838,-1.40595006942749,-0.08895000070333,3.4740002155304,21.9979515075684,1.73205006122589,-3.132000207901,-3.39061236381531,-4.51714992523193,-3.34303736686707,4.65495014190674,6.17100048065186,5.22000026702881,7.39681243896484,3.95711255073547,0.68860000371933,2.77351260185242,2.44722509384155,2.17511248588562,0.12795001268387,-0.43905001878738,0.01995000056922,13.006950378418,13.4650506973267,12.3439502716064,2.47994995117188,3.41618752479553,2.8118748664856,3.13800024986267,3.1360502243042,2.94405007362366,SWING_LEFT
0.31707498431206,1.96666252613068,3.08288741111755,3.01276254653931,5.78132486343384,7.82801246643066,2.83200001716614,1.17705011367798,-1.02105009555817,3.98805022239685,3.09195017814636,4.87200021743774,-5.14909982681274,-4.35325002670288,-4.05515003204346,-4.70205020904541,-7.92300033569336,-7.99995040893555,-5.57741260528564,-4.05336236953735,-2.98141241073608,3.00671243667603,0.93266248703003,-0.7900750041008,-6.21795034408569,-10.3780508041382,-12.6220502853394,13.4310007095337,12.4350004196167,11.896050453186,-3.1799623966217,-1.88278746604919,-0.37468749284744,-13.1160001754761,-14.3800506591797,-16.381950378418,-3.47998738288879,-4.42131233215332,-5.64396238327026,-0.57158750295639,-1.05792498588562,-1.80166244506836,-34.1389503479004,-51.0430526733398,-68.8980026245117,18.8320503234863,11.1540002822876,4.03800010681152,-0.71926248073578,-4.35050010681152,-7.4970498085022,46.7470512390137,60.5659523010254,39.0850524902344,8.14371204376221,12.9058876037598,15.1747751235962,-21.8487491607666,-22.6873626708984,-19.4158248901367,2.63595008850098,0.58799999952316,2.73405003547669,9.48900032043457,-0.10905000567436,-1.19400000572205,-7.97733736038208,-8.7429370880127,-8.29633712768555,5.0110502243042,6.421950340271,8.0910005569458,7.60319995880127,5.97382497787476,3.95931243896484,-0.32821249961853,-0.06407500058413,1.77594995498657,1.8550500869751,0.85395002365112,0.99000006914139,8.66295051574707,11.8750505447388,13.9440002441406,2.93328738212585,3.54612493515015,3.03806257247925,4.79295015335083,4.09200000762939,3.57705020904541,SWING_LEFT
-4.87822484970093,-1.65646255016327,0.91011250019073,8.37031269073486,7.57212495803833,5.79136228561401,-4.68705034255981,-4.39305019378662,-4.764000415802,14.671950340271,13.7329502105713,11.9800510406494,-2.26751255989075,-5.00871229171753,-5.19571256637573,2.51595020294189,1.86405003070831,-1.63095009326935,-2.22708749771118,-3.39542508125305,-3.63879990577698,-2.27562499046326,-1.46767497062683,0.28036248683929,-8.30400085449219,-8.91900062561035,-9.68295001983643,7.99200057983398,9.39600086212158,11.8170003890991,2.22681260108948,4.01843738555908,4.78073740005493,-9.64995002746582,-10.4830503463745,-13.3620004653931,-2.20261240005493,-3.35513758659363,-6.55833768844604,2.44749999046326,1.14166247844696,-0.60637497901917,-24.1609516143799,-35.6170501708984,-75.8670043945313,11.0599508285522,8.5290002822876,-1.2679500579834,-2.9247624874115,-7.19757509231567,-9.980712890625,51.8479537963867,72.4219512939453,31.912052154541,3.40779995918274,10.2488374710083,14.3660001754761,-14.8055877685547,-22.0877246856689,-23.8826503753662,5.28000020980835,4.89900016784668,2.75505018234253,8.54295063018799,-2.86800003051758,-2.28900003433228,-6.58707475662231,-8.64655017852783,-9.56436252593994,6.24000024795532,10.8619508743286,12.3259506225586,8.9482250213623,6.23383760452271,3.54791259765625,0.2381500005722,2.20467495918274,3.29449987411499,-0.57495003938675,0.60495001077652,0.55695003271103,9.50595092773438,11.5219507217407,11.7810001373291,3.05250000953674,4.18068742752075,3.32846260070801,7.2940502166748,5.4810004234314,4.02495002746582,SWING_LEFT
0.19937500357628,-0.693274974823,-3.12661242485046,-1.75670003890991,-0.99935001134872,0.49994999170303,0.76005005836487,-4.29704999923706,-7.06305027008057,2.71800017356873,3.22395014762878,5.09205007553101,1.98481249809265,2.33722496032715,2.3706374168396,-2.74695014953613,-4.41405010223389,-6.43605041503906,-9.67284965515137,-3.8643000125885,1.03234994411469,11.7367248535156,9.59227466583252,5.80896234512329,-12.5959501266479,-13.1029510498047,-14.3340005874634,17.5390510559082,21.2970008850098,19.795051574707,-0.27266249060631,-0.78086251020432,-1.29538750648499,-7.75305032730103,-4.03800010681152,-5.18805027008057,0.22990000247955,-0.82788747549057,-2.36871242523193,1.23557496070862,0.86597502231598,0.28971248865128,-16.5690002441406,-22.969051361084,-40.9980010986328,15.2610006332397,18.4900512695313,9.7669506072998,-0.54009997844696,-2.75921249389648,-5.41309976577759,19.9440002441406,47.0920524597168,47.7859535217285,-2.67698740959167,3.36435008049011,7.89827489852905,-11.9814748764038,-20.5838871002197,-24.8657741546631,-6.22695016860962,-0.30900001525879,1.38795006275177,11.2900505065918,-0.81300002336502,-5.01900005340576,-6.33022499084473,-8.83327484130859,-10.8110752105713,10.2250509262085,11.0920505523682,12.7879505157471,7.84451246261597,7.33301258087158,7.71567487716675,-3.54076242446899,-1.17534995079041,1.74129998683929,2.54700016975403,1.93605005741119,2.05800008773804,6.37305021286011,7.83705043792725,9.48405075073242,-2.31357502937317,-0.04386249929667,1.61204993724823,6.36195039749146,4.3289999961853,4.19505023956299,SWING_LEFT
-4.23912477493286,-5.84086227416992,-7.23813724517822,-0.47519999742508,1.80386245250702,4.45004987716675,-7.46595048904419,-8.05200004577637,-8.78999996185303,9.79305076599121,8.95005035400391,8.35605049133301,2.60699987411499,2.56781244277954,2.19986248016357,-4.65195035934448,-4.64400005340576,-4.87200021743774,-3.01372504234314,-1.47235000133514,-1.07428753376007,7.51148748397827,4.39271259307861,3.35678744316101,-12.0259504318237,-13.6849508285522,-14.5690507888794,7.85595035552979,11.5900506973267,13.0740003585815,0.67760002613068,0.73603749275208,0.68639999628067,-10.8760509490967,-10.7520008087158,-11.7619504928589,-0.80162501335144,-1.68121254444122,-2.8969874382019,-0.01182499993593,-0.74648749828339,-1.34818744659424,-26.7649517059326,-34.876953125,-46.8349533081055,12.5190010070801,9.91500091552734,5.22795009613037,-2.70269989967346,-5.11499977111816,-7.09444999694824,33.7709999084473,43.5810012817383,34.1800498962402,0.0173249989748,6.15917491912842,14.5382871627808,-10.5008745193481,-17.0797004699707,-19.6403617858887,-7.40595054626465,-5.07300043106079,1.61505007743835,21.3210010528564,8.54505062103271,0.23205001652241,-4.44111251831055,-4.83615016937256,-5.07966232299805,9.34605026245117,10.4460000991821,11.2219505310059,6.54238748550415,4.16295003890991,2.83772492408752,-3.50831246376038,-2.74683737754822,-0.57529997825623,0.20700001716614,0.05595000088215,-0.2710500061512,8.90505027770996,10.8420009613037,11.1970500946045,-0.30263748764992,1.52033746242523,2.57537508010864,5.18100023269653,4.51095008850098,4.99500036239624,SWING_LEFT
0.43807500600815,-0.92675000429153,-2.82273745536804,6.30822515487671,5.88005018234253,4.92689990997314,-3.35295009613037,-4.89105033874512,-6.24600028991699,7.89405059814453,9.25200080871582,11.2110004425049,-3.03338742256165,-2.64261245727539,-2.16727495193481,-6.81705045700073,-7.65000057220459,-7.97295045852661,-2.47953748703003,-0.76202499866486,-0.9285374879837,3.3544499874115,2.15627503395081,1.22663748264313,-7.95195055007935,-11.7690010070801,-13.2880506515503,12.9829502105713,12.4060506820679,12.9760503768921,-1.24533748626709,-0.98463749885559,-0.02873750030994,-4.01700019836426,-10.0330505371094,-17.5969505310059,-3.51999998092651,-4.37868738174438,-6.02745008468628,-1.58840000629425,-1.44484996795654,-1.54811251163483,-25.4740505218506,-42.4230003356934,-63.1159515380859,14.6460008621216,9.52305030822754,0.65100002288818,1.12598752975464,-6.00627517700195,-7.28859996795654,27.0739517211914,36.5389518737793,22.2360019683838,2.89258742332459,7.85977506637573,12.8053750991821,-14.2667245864868,-17.7934627532959,-13.1071872711182,-8.69700050354004,-2.91300010681152,1.75695013999939,9.00495052337646,-1.95600008964539,3.15900015830994,-3.23784995079041,-3.16153740882874,-3.70246243476868,12.8599510192871,15.6810007095337,14.4480009078979,6.74739980697632,4.59758758544922,4.25699996948242,-5.29361248016357,2.45409989356995,6.47954988479614,0.97395002841949,1.88595008850098,1.46400010585785,10.3540506362915,10.0710000991821,8.028000831604,1.30075001716614,1.34378755092621,0.80849999189377,3.49305009841919,3.87900018692017,3.57000017166138,SWING_LEFT
-4.4878625869751,-2.24468755722046,-0.06792499870062,8.30981254577637,10.0117874145508,9.71272468566894,-4.35000038146973,-4.62000036239624,-4.95795011520386,11.1970500946045,11.7790508270264,11.3790006637573,0.50160002708435,-0.33041250705719,-1.75092494487762,-6.74205017089844,-4.87695026397705,-2.30400013923645,0.27417498826981,-1.74666249752045,-2.45602488517761,0.45086249709129,-1.7100875377655,-2.14926242828369,-10.7130002975464,-12.4860010147095,-11.5710000991821,11.2369508743286,12.1210508346558,12.0610504150391,-3.31086254119873,-2.19628739356995,-0.76353746652603,-4.4239501953125,-5.5570502281189,-9.30705070495606,-2.29487490653992,-2.76691246032715,-4.22179985046387,0.54271250963211,0.72682499885559,0.05321250110865,-23.4090003967285,-35.5620002746582,-51.2419509887695,14.7750005722046,8.69400024414063,2.38305020332336,2.07240009307861,-5.09245014190674,-6.69363737106323,22.1050510406494,44.1649513244629,22.9050006866455,5.10647487640381,11.9167127609253,11.2663373947144,-22.750337600708,-21.5815868377686,-11.4291372299194,1.80900013446808,2.30505013465881,2.47500014305115,9.98505020141602,-0.02505000121891,1.22400009632111,-8.73922538757324,-7.09389972686768,-3.96398758888245,7.39695024490356,7.5120005607605,7.83300018310547,5.13438749313354,3.09759998321533,1.64876246452332,1.41501247882843,7.30674982070923,8.01693725585938,0.72705000638962,0.94500005245209,1.15095007419586,9.24000072479248,9.22800064086914,7.97505044937134,1.88787496089935,1.31766247749329,0.86954998970032,3.00195002555847,3.53595018386841,4.19895029067993,SWING_LEFT
-3.07078742980957,-4.6539626121521,-6.62365007400513,-3.20127487182617,-2.28277492523193,-0.21340000629425,-4.67295026779175,-6.26295042037964,-7.39095020294189,6.87405014038086,8.03999996185303,8.778000831604,1.28108751773834,1.13355004787445,1.24300003051758,-4.79805040359497,-7.69305038452148,-10.6030502319336,-1.58606255054474,-0.28723749518394,-0.31446251273155,8.238037109375,6.27206230163574,4.03273725509644,-9.92805004119873,-12.9720010757446,-14.2870502471924,9.80505084991455,12.6960010528564,15.8020505905151,1.17961251735687,0.54188752174377,-0.05115000158548,-10.81605052948,-12.0229501724243,-12.5809507369995,-2.68757510185242,-3.90871238708496,-5.27670001983643,-0.32161250710487,-0.67127501964569,-0.96263748407364,-26.8650016784668,-35.9140510559082,-47.2369537353516,6.21495008468628,2.07705020904541,-0.91395002603531,-5.70157480239868,-8.14687538146973,-8.96665000915527,48.1050033569336,46.9030532836914,27.2800521850586,7.66204977035522,12.8206377029419,15.7400369644165,-18.9272880554199,-20.5254497528076,-17.9055252075195,-2.24700021743774,-1.8469500541687,0.27195000648499,18.0370502471924,5.97600030899048,-0.60495001077652,-4.44111251831055,-4.55111265182495,-4.4407000541687,9.09195041656494,9.62895011901856,8.89395046234131,2.07968759536743,0.8622624874115,2.55804991722107,-6.48147487640381,-5.67242479324341,-1.01007497310638,2.77005004882813,2.50905013084412,1.63500010967255,6.51705026626587,9.05805015563965,10.0230007171631,-1.15939998626709,1.21041250228882,2.61703753471375,5.85705041885376,5.671950340271,5.94495010375977,SWING_LEFT
-0.92826247215271,-1.42683744430542,-2.29734992980957,0.39544999599457,-1.06438744068146,-2.44117498397827,0.70500004291534,-1.89495003223419,-4.00695037841797,9.54900074005127,5.64705038070679,4.83105039596558,-1.48417496681213,0.0671000033617,1.09106254577637,2.83905005455017,-0.61395001411438,-2.58495020866394,-6.92119979858398,-5.60051250457764,-3.5766499042511,4.38501262664795,7.2895622253418,8.51042461395264,-9.75495052337646,-11.5990505218506,-13.1179504394531,12.3660001754761,15.0070505142212,17.7180004119873,2.46372509002686,3.17088747024536,3.95821237564087,-15.7669506072998,-23.2750511169434,-23.2369518280029,-2.26215004920959,-3.84119987487793,-5.52255010604858,2.81544995307922,1.99319994449615,1.40373754501343,-33.2740516662598,-57.3799514770508,-76.501953125,12.5670003890991,6.98400020599365,0.36405003070831,-4.85306262969971,-9.06785011291504,-10.2236747741699,53.0029525756836,53.4049530029297,24.2389507293701,3.21048736572266,11.2961750030518,12.2859001159668,-15.3228626251221,-19.5471382141113,-14.2554502487183,-6.06900024414063,0.34395000338554,2.10405015945435,14.3250007629395,-7.01595020294189,-7.07895040512085,-4.13008737564087,-5.22953748703003,-6.45397520065308,11.7700510025024,11.1160507202148,9.73905086517334,0.07466249912977,1.34323751926422,3.89578747749329,-6.66503763198853,-2.52697491645813,4.1001124382019,1.19400000572205,1.2109500169754,1.53600001335144,13.7070007324219,11.8270502090454,9.54195022583008,0.89567500352859,3.06501245498657,1.85143744945526,3.25605010986328,2.73600006103516,3.12195014953613,SWING_LEFT
-2.62611246109009,-4.41828727722168,-7.05319976806641,-1.69482493400574,-2.14403748512268,-1.63088750839233,-6.1429500579834,-10.6750507354736,-13.7880010604858,4.38795042037964,5.49705028533936,7.37205028533936,3.80462503433228,4.98382520675659,5.15721225738525,-4.70895004272461,-8.17500019073486,-9.72900009155273,-4.35063743591309,3.88299989700317,5.22788763046265,10.7199125289917,8.0140495300293,4.77482509613037,-7.7029504776001,-10.6270503997803,-13.7809505462646,16.8730506896973,22.1710510253906,17.0689506530762,-0.62755000591278,-1.08019995689392,-0.44893750548363,-8.60595035552979,-14.542950630188,-18.5590515136719,-2.34506249427795,-4.31667518615723,-5.80373764038086,0.431062489748,0.25533750653267,0.18823750317097,-29.0899505615234,-43.6300506591797,-61.2430534362793,20.367000579834,16.0870513916016,2.65605020523071,-1.98618745803833,-7.98723745346069,-8.75998783111572,35.4949531555176,35.2390518188477,20.3710517883301,3.41178750991821,8.54301261901855,12.1477127075195,-15.5476751327515,-17.6812629699707,-15.5319995880127,2.58300018310547,-2.43795013427734,-0.90600001811981,20.0539512634277,10.7370004653931,6.94095039367676,-6.40928745269775,-5.21509981155396,-3.35995006561279,10.8240003585815,11.5470008850098,10.1530504226685,9.21593761444092,5.68906259536743,3.78977489471436,1.25743746757507,-0.33838748931885,-1.00677502155304,1.50300002098084,1.38495004177094,1.66605007648468,8.04495048522949,10.1650505065918,10.3939504623413,0.09652499854565,1.15816247463226,2.11818742752075,4.01295042037964,2.88195013999939,2.54700016975403,SWING_LEFT
