gyro_x_0,gyro_y_0,gyro_z_0,acc_x_0,acc_y_0,acc_z_0,gyro_x_1,gyro_y_1,gyro_z_1,acc_x_1,acc_y_1,acc_z_1,gyro_x_2,gyro_y_2,gyro_z_2,acc_x_2,acc_y_2,acc_z_2,gyro_x_3,gyro_y_3,gyro_z_3,acc_x_3,acc_y_3,acc_z_3,gyro_x_4,gyro_y_4,gyro_z_4,acc_x_4,acc_y_4,acc_z_4,gyro_x_5,gyro_y_5,gyro_z_5,acc_x_5,acc_y_5,acc_z_5,gyro_x_6,gyro_y_6,gyro_z_6,acc_x_6,acc_y_6,acc_z_6,gyro_x_7,gyro_y_7,gyro_z_7,acc_x_7,acc_y_7,acc_z_7,gyro_x_8,gyro_y_8,gyro_z_8,acc_x_8,acc_y_8,acc_z_8,gyro_x_9,gyro_y_9,gyro_z_9,acc_x_9,acc_y_9,acc_z_9,gyro_x_10,gyro_y_10,gyro_z_10,acc_x_10,acc_y_10,acc_z_10,gyro_x_11,gyro_y_11,gyro_z_11,acc_x_11,acc_y_11,acc_z_11,gyro_x_12,gyro_y_12,gyro_z_12,acc_x_12,acc_y_12,acc_z_12,gyro_x_13,gyro_y_13,gyro_z_13,acc_x_13,acc_y_13,acc_z_13,gyro_x_14,gyro_y_14,gyro_z_14,acc_x_14,acc_y_14,acc_z_14,motion_type
0.52038168907166,1.78485059738159,2.11614775657654,-1.01572966575623,-1.31719946861267,-1.61440825462341,0.33039984107018,0.33039984107018,0.29927521944046,11.1785278320313,11.1785278320313,6.24168395996094,3.16969442367554,3.23094701766968,3.12548589706421,-0.62488663196564,0.92655605077744,0.92655605077744,-0.69455242156982,0.70413982868195,1.42212808132172,-0.85114628076553,-1.12864768505096,-0.74035876989365,1.4676456451416,1.71903681755066,0.68953007459641,16.7474403381348,18.013973236084,15.3875341415405,-2.16355204582214,-4.50553607940674,-7.19905710220337,21.1695308685303,39.8012084960938,46.4211769104004,-1.38271331787109,-2.97847938537598,-4.20140314102173,-2.06181931495667,-0.86765789985657,1.64636623859406,-8.38688850402832,-20.3890209197998,-45.7891082763672,0.85473001003265,0.3447650372982,6.69897651672363,-17.4527606964111,-17.4527606964111,-15.875636100769,36.7222671508789,26.336217880249,25.165454864502,2.60244107246399,4.15133571624756,3.53081893920898,-0.16564862430096,-1.03810024261475,-2.25303435325623,-49.0978927612305,-47.2016868591309,-36.5211524963379,16.891092300415,12.1457853317261,2.45405673980713,-4.99662303924561,-2.04743838310242,1.72679364681244,-11.2240171432495,-13.9581956863403,-4.34308195114136,1.7683390378952,2.14597535133362,1.75395786762238,-0.35899412631989,-0.2402171343565,-0.31318774819374,-6.60799646377563,-3.72777199745178,-2.27209734916687,13.9965028762817,10.1992988586426,8.29351425170898,0.76166409254074,0.12676647305489,-0.00958738010377,0.33518823981285,0.16998831927776,-1.98958158493042,SWING_RIGHT
0.27537086606026,-0.05592638254166,-0.30466562509537,0.4261057972908,0.38988679647446,-0.43409526348114,0.11252748221159,0.20111294090748,-0.11971008777618,8.58321285247803,7.11556768417358,7.4770917892456,1.40455114841461,1.78644847869873,4.55294036865234,-1.45328044891357,-6.35899972915649,-5.20260047912598,-1.53611135482788,-1.35554897785187,-2.05968880653381,-0.25513082742691,-0.47297742962837,-0.95074850320816,-3.35188245773315,-3.39497804641724,-5.46117401123047,9.22964763641357,10.4746322631836,6.96473264694214,4.91779327392578,1.30175316333771,-2.38619232177734,32.9920997619629,34.826057434082,37.7685317993164,0.97365170717239,0.75740301609039,0.18748654425144,0.96193379163742,2.05596041679382,2.59125590324402,6.54095888137817,-4.83868169784546,-15.9717197418213,9.89284133911133,6.46434450149536,2.06140756607056,-17.4527606964111,-17.4527606964111,-17.4527606964111,50.2064094543457,40.8666305541992,30.5619850158691,1.17764985561371,1.96274971961975,2.0591561794281,0.74515247344971,-0.38402783870697,-0.77338200807571,-40.0358390808105,-42.7029800415039,-47.9798011779785,7.29752683639526,6.45955610275269,2.98796367645264,-12.5935564041138,-9.06912899017334,-4.09487676620483,27.3417835235596,-11.4514665603638,-23.4176864624023,-0.56459015607834,0.84528732299805,1.89563810825348,-1.44929230213165,-0.80107885599136,-0.45007422566414,-30.4877643585205,-21.6076698303223,-12.3181676864624,14.7674360275269,13.156138420105,11.3724584579468,3.11163759231567,1.95529294013977,0.92997586727142,8.36534118652344,8.48026275634766,6.10521411895752,SWING_RIGHT
0.89801794290543,0.496413230896,0.34141725301743,-0.06924218684435,0.28602349758148,0.32277512550354,1.05584299564362,1.39821374416351,1.66636443138123,10.5488529205322,9.19612884521484,9.21288776397705,0.70946609973907,1.00667488574982,1.46047759056091,-1.53947174549103,-3.46919822692871,-2.84910011291504,-0.07297061383724,-0.80320942401886,-1.52386081218719,0.21358552575111,0.27590349316597,0.28868666291237,1.70227742195129,1.60890352725983,1.47243404388428,7.49863958358765,5.51624059677124,6.22971296310425,3.1425302028656,4.68023920059204,0.49907639622688,-4.52025270462036,-4.52025270462036,49.3492851257324,1.15687716007233,1.31879734992981,-0.40746363997459,-2.6109631061554,-1.02957808971405,-0.70041137933731,6.81868648529053,4.9105076789856,-15.5479459762573,20.5159149169922,15.7801837921143,6.19858837127686,-17.4527606964111,-17.4527606964111,-17.4527606964111,50.4003410339355,37.4022178649902,26.4271984100342,0.26791399717331,2.92841196060181,2.96036982536316,1.08603715896606,1.08656978607178,1.13131082057953,-49.287036895752,-34.5076293945313,-32.0966682434082,11.6118783950806,6.05254173278809,3.47159242630005,-6.0922474861145,0.4612595140934,2.90178036689758,-0.71586632728577,-19.9269409179688,-1.02471828460693,3.70978355407715,-0.49215218424797,-2.02293729782104,-0.5091964006424,0.40480050444603,0.81492727994919,-2.40377855300903,2.72220730781555,1.73819041252136,2.65277552604675,0.67995327711105,4.97036266326904,0.87351685762405,0.37816888093948,0.3787015080452,-1.03668928146362,-0.63206923007965,-4.26646757125854,SWING_RIGHT
-1.68524837493896,-1.54569876194,-2.1102888584137,1.09349393844604,0.74302196502686,1.52066504955292,2.69826531410217,2.04943656921387,-1.09654438495636,9.35175228118896,8.99262142181396,9.49540424346924,2.31428694725037,2.17047643661499,1.80136215686798,-8.91361331939697,-0.81881695985794,0.52672439813614,-0.5028048157692,-1.03383910655975,-0.79575252532959,-1.07538449764252,-0.68443238735199,-1.5755261182785,0.49081134796143,0.16519992053509,0.74220252037048,8.18098735809326,10.6278610229492,13.0340337753296,2.17420482635498,-2.04051399230957,-10.0337257385254,9.51934623718262,38.1492080688477,41.5729179382324,1.42106282711029,0.82238417863846,0.86872315406799,1.85462546348572,1.60908198356628,3.01789426803589,-1.944091796875,-35.9010543823242,-47.1490135192871,18.4138050079346,11.142614364624,13.0412168502808,-17.4527606964111,-16.4141273498535,-12.3895578384399,32.606632232666,23.7696342468262,26.2356624603271,3.68688035011292,3.1425302028656,3.28900408744812,2.28339433670044,2.74731707572937,1.93665075302124,-47.7236213684082,-43.9910621643066,-40.1100616455078,12.0524110794067,1.77170920372009,1.82677590847015,-1.65808415412903,1.4727281332016,4.71486043930054,-21.2916355133057,-21.2916355133057,-5.97592735290527,0.75953358411789,0.60933125019073,-0.61305969953537,0.61625546216965,-0.40852892398834,-0.17150758206844,-3.45483303070068,4.75249052047729,4.75249052047729,7.42202520370483,3.33751726150513,3.33751726150513,1.40029013156891,1.13290870189667,0.63915866613388,-2.18830037117004,-0.58657944202423,-3.83311700820923,SWING_RIGHT
-0.10865697264671,-0.24607609212399,-0.39947417378426,0.03462109342217,0.22636869549751,0.2737729549408,1.53468334674835,1.21386027336121,1.00795888900757,9.47146224975586,8.92319011688232,9.17218685150146,0.71053141355515,0.16405072808266,0.33342778682709,1.49398183822632,0.45489832758904,-2.41574954986572,-0.87458211183548,-0.85647261142731,-0.05006742849946,-0.07882957160473,-1.24529409408569,-3.87969303131104,1.7980455160141,1.63284552097321,1.11330378055573,8.87051773071289,11.473014831543,11.7962322235107,0.8905611038208,-2.69245600700378,-9.26194190979004,26.8078765869141,37.9480972290039,39.2050514221191,0.74621772766113,0.65247446298599,-0.98750013113022,0.34194988012314,1.30654680728912,4.50926446914673,-14.209587097168,-36.7174758911133,-46.0788040161133,12.717999458313,5.9902925491333,0.36631286144257,-17.4527606964111,-17.3712673187256,-13.6822566986084,26.2069320678711,9.90481281280518,-2.04704236984253,4.91246700286865,4.20353364944458,2.62800741195679,-1.09935295581818,-0.75740301609039,-0.35526570677757,-38.9033851623535,-35.1468811035156,-28.9411106109619,11.8034143447876,5.11640882492065,3.76129078865051,-1.10574448108673,1.04555702209473,2.12680053710938,-11.7818670272827,-9.98382091522217,-5.71974802017212,1.71986949443817,-0.01278317347169,-1.08177602291107,-0.30413299798965,-0.63969129323959,-0.42876893281937,-4.3837833404541,2.16196417808533,3.39497804641724,6.55292987823486,3.92888498306274,5.36301183700562,0.95873802900314,0.62211441993713,0.38349521160126,0.12210428714752,0.217872351408,-0.64643448591232,SWING_RIGHT
-0.03302319720387,-0.28442561626434,0.25300031900406,-0.74941354990005,-0.8820389509201,-1.60428822040558,-2.10929179191589,-2.10929179191589,-2.92810869216919,7.57525396347046,7.57525396347046,12.7491245269775,3.68901085853577,4.02989530563354,4.2125883102417,0.43095630407333,0.43095630407333,5.56173038482666,-0.2402171343565,-1.15421402454376,-2.0932445526123,0.17523600161076,1.21919512748718,1.67353045940399,-1.40779054164886,2.77009129524231,3.58651423454285,8.51617527008057,8.14507389068604,7.93677854537964,0.76965355873108,-1.86847388744354,-11.4143085479736,25.1199645996094,40.2441368103027,55.9429168701172,2.1965754032135,0.51132690906525,-1.27192580699921,-2.5598304271698,-0.42983421683311,2.25037121772766,-25.9914531707764,-41.6638984680176,-56.6492080688477,12.6222314834595,3.60087943077087,-2.9664158821106,-17.4527606964111,-17.4527606964111,-14.149374961853,41.0102806091309,13.5535755157471,10.9295310974121,1.13290870189667,-0.15233281254768,-0.48096689581871,-0.27110978960991,-0.6870955824852,-0.45060685276985,-42.1427383422851,-36.461296081543,-31.5364246368408,1.56820213794708,3.47877502441406,8.02536392211914,1.67992210388184,3.72789287567139,4.39847707748413,-17.6356887817383,-8.29830265045166,-2.37983655929565,1.47432601451874,0.1257012039423,-0.90281164646149,-0.17896443605423,0.13582122325897,0.51399010419846,0.67277067899704,2.76769709587097,2.37744235992432,2.76769709587097,3.50271701812744,6.18422317504883,1.16539931297302,1.08976554870605,0.90281164646149,-1.65918183326721,-2.47081613540649,0.38307225704193,SWING_RIGHT
-1.66713881492615,-1.75182735919952,-1.30921006202698,-0.92997586727142,-1.09189605712891,-1.07112336158752,-1.95366859436035,-2.34392356872559,-2.18111777305603,7.58004236221313,8.78672027587891,12.746729850769,2.89964985847473,3.02694892883301,2.94811940193176,0.50278234481812,0.57939678430557,2.4205379486084,-0.07297061383724,-0.28069719672203,-0.54221957921982,-0.69881349802017,-0.7472830414772,-1.74437057971954,-1.10372698307037,-1.1947066783905,-3.34469985961914,10.5919485092163,9.6606035232544,10.4650554656982,3.18673872947693,1.01999068260193,-3.41364002227783,18.2797298431396,38.005558013916,48.8895988464355,-0.36485308408737,0.30839407444,0.15180018544197,-0.67164921760559,0.30945932865143,0.39681100845337,-10.4219598770142,-10.4219598770142,-28.5221252441406,17.8775043487549,17.8775043487549,9.0261402130127,-17.4527606964111,-17.4527606964111,-17.4527606964111,56.3475379943848,42.2145652770996,30.4422740936279,1.46047759056091,1.2415657043457,-0.34194988012314,-0.64555025100708,-1.65808415412903,-1.40934491157532,-65.4431076049805,-45.0492973327637,-38.3934173583984,12.2080345153809,1.5179238319397,-1.88184249401093,-4.46452331542969,-0.76912093162537,3.20751118659973,-8.4108304977417,-17.8056774139404,-2.78924489021301,2.53319883346558,1.65009462833405,0.06498113274574,-0.53849118947983,-0.55500280857086,-0.06231797114015,-7.86016416549683,-2.77727389335632,-0.74459671974182,7.24964284896851,3.94564437866211,3.77805018424988,1.36460375785828,1.14089822769165,0.95394432544708,0.20590133965015,-0.84754741191864,-0.69431847333908,SWING_RIGHT
-0.524642765522,-0.56512278318405,-0.40213733911514,0.82131892442703,0.44687843322754,0.05539375171065,-0.33518823981285,-0.31842881441116,-0.51714754104614,9.61511421203613,9.78510189056396,10.3860473632813,1.36194062232971,1.80775380134583,2.16248679161072,-1.69988322257996,-2.82994651794434,-1.78607451915741,-0.55766594409943,-0.32703620195389,-1.09615707397461,0.23116238415241,-1.18990039825439,-1.77260005474091,-0.10773907601833,1.30005156993866,-0.02154781483114,8.58081912994385,9.80186176300049,6.22731876373291,5.28477716445923,3.09725642204285,-8.87525081634521,14.125789642334,32.5515670776367,55.9908027648926,4.66639089584351,2.96569633483887,-0.35792887210846,2.38885545730591,0.41225734353065,0.89109373092651,-24.8254776000977,-42.5090522766113,-49.3492851257324,13.5080862045288,-0.67277067899704,-4.85783529281616,-17.4527606964111,-17.4527606964111,-14.6862688064575,39.8299407958984,11.3628816604614,6.03099393844604,4.96626281738281,0.99282646179199,0.21092236042023,0.69668292999268,1.03064334392548,0.17470337450504,-35.6855773925781,-25.6395053863525,-21.739351272583,-1.14921677112579,0.24420857429504,4.75967311859131,1.99257719516754,2.77288341522217,2.72760963439941,-7.56807136535645,-3.79002118110657,-0.73262572288513,0.11398329585791,-1.38857221603394,-1.5712651014328,-0.20666129887104,0.232227653265,-0.524642765522,0.4955997467041,0.16519992053509,-0.73023152351379,5.27921485900879,8.26478385925293,9.96945571899414,-0.21678131818771,0.26152241230011,0.40480050444603,0.80445176362991,-3.89536619186401,-2.06619596481323,SWING_RIGHT
-0.06498113274574,0.68443238735199,0.24394555389881,-0.51931643486023,0.1097222417593,0.87032103538513,-2.34631776809692,-2.44447994232178,-2.70305371284485,15.6772327423096,11.743558883667,6.89051246643066,3.05145001411438,1.43491125106812,1.30335104465485,-2.03028297424316,2.29843354225159,-1.14203417301178,0.05965480953455,-1.06100344657898,-0.82664519548416,-0.17789916694164,-0.22849921882153,-1.02158856391907,-1.27371525764465,-0.71107792854309,0.07422025501728,7.08923101425171,9.73482418060303,13.1058597564697,4.07676696777344,1.82053697109222,-4.27117776870728,15.6485023498535,40.5529899597168,58.9069404602051,-0.40266996622086,-1.89723598957062,-1.80082952976227,-0.34514567255974,1.40934491157532,2.44531464576721,-15.5982236862183,-23.879768371582,-40.2800483703613,3.18668246269226,7.97029733657837,11.9590377807617,-17.4527606964111,-17.4527606964111,-17.4527606964111,44.1395034790039,32.8316879272461,32.8316879272461,3.09139752388,4.32071256637573,5.79024505615234,-0.54594802856445,-0.3115898668766,-0.28549087047577,-51.7889785766602,-47.184928894043,-41.3358917236328,16.6373081207275,15.6221656799316,9.97185039520264,-7.67096948623657,-4.06504917144775,-0.79948097467422,-5.21217727661133,-13.6780738830566,-14.6381492614746,0.65460503101349,1.29802477359772,1.37206065654755,0.18695391714573,0.00639158673584,-0.1065264493227,-10.0029745101929,-4.55377149581909,-0.40940847992897,11.925518989563,10.3525285720825,8.39646530151367,0.83303678035736,0.05113269388676,-0.13901701569557,3.29920983314514,2.08056116104126,-1.39581954479218,SWING_RIGHT
-0.07190535217524,-0.03515372797847,0.13102753460407,-0.58110177516937,-0.16032229363918,0.30573090910912,1.97282218933105,1.97282218933105,1.68551802635193,9.68215179443359,9.68215179443359,10.8098211288452,-0.28282770514488,-0.17736652493477,-0.47137951850891,-1.94888019561768,-0.39504328370094,-1.36708915233612,0.34088462591171,0.73023879528046,1.12172341346741,0.16511599719524,0.60027652978897,0.57364493608475,0.91458505392075,0.43095630407333,1.03908348083496,11.3030261993408,12.2631015777588,10.6182842254639,3.27994918823242,5.22618722915649,3.04931950569153,-4.27365016937256,7.49624538421631,28.3473472595215,0.69242191314697,-2.01974129676819,-2.7659592628479,-3.81258153915405,-1.40987753868103,-1.48764181137085,12.8664398193359,-3.16034626960754,-12.0380458831787,10.7356004714966,3.6343982219696,5.96874475479126,-17.4527606964111,-16.4839019775391,-13.4036903381348,38.1013259887695,14.8081378936768,14.8081378936768,2.27647018432617,5.2778525352478,4.93004369735718,1.18936777114868,-0.37337517738342,-0.56991648674011,-30.5452251434326,-29.2523555755615,-22.4791603088379,14.6549081802368,10.9582614898682,6.04296493530273,1.48444604873657,1.77526319026947,1.34542906284332,-3.99113416671753,-3.99113416671753,2.85867691040039,0.18216022849083,0.03249056637287,-0.24074976146221,0.59867864847183,-0.06125270575285,-0.43675842881203,-0.78290396928787,-1.41018486022949,-1.82677590847015,7.20415306091309,7.35977602005005,6.3470287322998,-0.07989483326674,0.44101947546005,1.33637428283691,-5.37019443511963,-6.62475633621216,-4.05577754974365,SWING_RIGHT
-0.62584286928177,-0.58749336004257,-0.35739621520042,-0.34088462591171,-0.34088462591171,-0.19867181777954,1.75016140937805,1.46285724639893,1.47482824325562,8.37252330780029,10.9199542999268,11.9566431045532,0.52144694328308,0.324373036623,0.43729105591774,3.12922167778015,1.78846871852875,0.88346040248871,0.18695391714573,0.60507023334503,0.59281969070435,0.01278317347169,0.64555025100708,0.09054747968912,3.04063606262207,4.12520933151245,7.14908647537231,13.496114730835,12.4378776550293,10.0771951675415,-0.85700523853302,-1.91534554958344,-3.73268675804138,18.2414226531982,22.2445278167725,33.6888122558594,1.04076337814331,1.78751373291016,-0.42077946662903,-0.03462109342217,-0.19281286001205,-0.51505535840988,3.39737224578857,-11.5855417251587,-40.7014274597168,18.7657527923584,11.7818670272827,6.96473264694214,-17.4527606964111,-17.4527606964111,-16.5451545715332,37.0646362304688,28.177360534668,21.5238723754883,2.51828527450562,1.08603715896606,0.52837115526199,-1.40934491157532,-0.73663038015366,-0.80747044086456,-49.2822494506836,-43.2656173706055,-35.2905311584473,3.23935484886169,8.40125370025635,14.4633722305298,2.95983719825745,4.84588813781738,4.44108772277832,-19.5630226135254,-6.6056022644043,10.1155023574829,2.46502184867859,1.70602107048035,-0.56352490186691,0.19494339823723,0.07936219871044,0.17150758206844,3.33512306213379,4.79319190979004,4.55616569519043,5.4444146156311,2.87304210662842,4.85304689407349,0.00639158673584,-0.13741911947727,-0.16777914762497,-2.17872357368469,-2.23857855796814,-2.47321033477783,SWING_RIGHT
-0.36432045698166,-0.61465758085251,-0.29667615890503,0.50440269708633,0.70467245578766,0.46711847186089,2.8012158870697,2.56179571151733,1.92972660064697,8.15465068817139,9.45470237731934,11.0612115859985,0.14966966211796,0.49481534957886,0.8303736448288,1.10372698307037,-0.80684596300125,-1.42694425582886,-0.23116238415241,-0.52038168907166,-1.03969812393188,-0.264185577631,-0.78723043203354,-3.58514761924744,1.16597628593445,0.97922849655151,0.22984336316586,8.34618759155273,7.39329481124878,7.26400804519653,3.3087112903595,1.83491802215576,-1.91694343090057,10.5847654342651,27.0808162689209,39.0590057373047,0.64288711547852,-0.30146983265877,-1.91268229484558,-0.17257283627987,0.28495824337006,1.70708632469177,2.03028297424316,-6.67264032363892,-27.1215171813965,8.16901588439941,4.57771348953247,1.5753847360611,-17.4527606964111,-16.9222583770752,-14.2026386260986,41.7931861877441,29.5181121826172,20.0155258178711,2.95238041877747,1.48284816741943,0.2418150305748,-1.08017814159393,-0.65087658166885,-0.37284255027771,-37.656005859375,-37.656005859375,-26.2859401702881,2.13802218437195,2.13802218437195,9.90960121154785,-0.01864212751389,1.43118274211884,2.09164667129517,-12.1505737304688,-12.1505737304688,-1.60890352725983,1.46899974346161,0.54541540145874,-0.76059883832932,-0.52677327394485,-0.588558614254,-0.19441075623035,-2.6934769153595,-0.76375031471252,-0.10055647045374,7.2616138458252,5.23372507095337,5.53778839111328,1.39549648761749,1.14143085479736,0.72011876106262,0.75656771659851,1.54904854297638,2.34392356872559,SWING_RIGHT
0.30519825220108,0.28122982382774,0.18801917135715,0.24128240346909,-0.18056233227253,-0.01384843792766,1.6448165178299,1.92972660064697,1.81241071224213,8.76996040344238,8.36534118652344,8.01339340209961,0.45327001810074,0.96033591032028,1.21706461906433,-1.07260239124298,-2.30801033973694,-2.50433492660522,-0.66951870918274,-0.81918835639954,-1.07591712474823,0.03142530098557,-0.7792409658432,-1.17445409297943,3.08612608909607,3.09570288658142,2.54982471466064,8.49941635131836,7.99423933029175,6.715735912323,4.98597049713135,4.95028400421143,2.01548027992249,4.57292509078979,17.3124732971191,37.488410949707,-1.01572966575623,-1.27192580699921,-0.62690812349319,-1.48604393005371,0.10173275321722,1.15527927875519,4.14436292648315,-1.54904854297638,-8.5496940612793,12.1386022567749,13.333309173584,15.7538471221924,-15.7984046936035,-17.4527606964111,-17.4527606964111,57.063404083252,43.7229118347168,31.0240650177002,2.30043864250183,1.82000434398651,0.91719269752502,0.28921929001808,-0.79042625427246,0.03249056637287,-38.8459243774414,-40.8762054443359,-41.6902351379395,8.82502746582031,5.96874475479126,3.84987640380859,-14.1168842315674,-8.05233383178711,-6.38679313659668,11.8321447372437,3.59130263328552,1.97042798995972,-0.50972902774811,1.26446890830994,4.65094470977783,0.43409526348114,1.04342651367188,0.43036684393883,-27.8948440551758,-24.6961898803711,-13.0627641677856,12.3612632751465,17.9445419311523,9.25837802886963,2.75637173652649,1.65861678123474,0.62371236085892,3.7038300037384,2.93289709091187,1.9943699836731,SWING_RIGHT
-0.15606124699116,0.02556634694338,0.13795174658298,-0.19920445978642,-0.03302319720387,-0.16564862430096,1.91536140441895,1.63763391971588,1.82677590847015,10.4770269393921,10.4770269393921,10.172963142395,0.95714008808136,0.79308938980103,1.0444917678833,2.96881008148193,1.45328044891357,-1.18512988090515,-0.24607609212399,-2.06927609443665,-2.94279313087463,0.92411690950394,1.29855740070343,-0.32597091794014,3.61045622825623,0.54587799310684,-2.03746557235718,9.29429054260254,5.39174222946167,9.97903251647949,6.27866888046265,2.50550198554993,-3.56064653396606,14.3029613494873,39.9568328857422,44.7811470031738,1.20481407642365,-0.12144014984369,-2.99925208091736,-2.78193807601929,-1.94677078723907,-0.93263900279999,-0.49320554733276,-4.93205547332764,-15.0906534194946,9.46427917480469,4.49391651153564,2.91853189468384,-17.4527606964111,-17.4527606964111,-17.0133380889893,40.8618392944336,31.1318054199219,35.101390838623,-0.74302196502686,-1.02265381813049,-1.0657970905304,-1.3997575044632,-1.88445281982422,-2.19071626663208,-40.9791564941406,-40.1747055053711,-33.0232238769531,5.18105268478394,6.56250667572021,10.010157585144,-7.95113372802734,-5.58624696731567,-1.89137709140778,-2.26491475105286,-4.08929634094238,-10.9295310974121,1.21493411064148,2.43679237365723,2.37234401702881,0.69615030288696,0.31585091352463,-0.62424498796463,-18.7825126647949,-13.5559701919556,-5.19062948226929,14.5016794204712,12.4761848449707,4.73812532424927,3.34013676643372,3.0051109790802,2.66529178619385,2.1978771686554,3.45243883132935,4.10366153717041,SWING_RIGHT
-0.15712650120258,-0.2226402759552,-0.25566345453262,0.18855181336403,0.03089267015457,0.04846953228116,0.36391866207123,0.17477671802044,0.17477671802044,9.3828763961792,9.09078407287598,9.09078407287598,1.33317852020264,1.55528604984283,1.74490320682526,-0.87627780437469,-1.46285724639893,-1.05105459690094,-0.56885123252869,-0.92198640108109,-1.54729664325714,0.20666129887104,0.48416268825531,0.26258769631386,-0.35194763541222,-0.24181437492371,-0.28012159466743,8.75798988342285,7.75003099441528,11.1737394332886,3.06316804885864,2.9752836227417,2.22959852218628,0.70868372917175,2.79163908958435,13.5679407119751,2.3883228302002,2.39737772941589,1.02265381813049,-3.16170501708984,-3.39606308937073,-2.66103053092957,9.10993766784668,4.85783529281616,4.85783529281616,18.9213752746582,13.8504571914673,13.8504571914673,-15.1464624404907,-15.953932762146,-15.4378128051758,41.5968589782715,31.1174392700195,26.8318176269531,0.82611256837845,4.00699234008789,5.58358383178711,4.07410383224487,3.76997089385986,2.60670208930969,-26.4535350799561,-26.0489139556885,-29.2595386505127,18.5406970977783,12.5025215148926,11.5424461364746,-9.6235990524292,-8.17377376556396,-2.96409845352173,8.18338108062744,0.65601128339767,-11.8393278121948,1.70708632469177,0.80107885599136,0.16138756275177,0.15393070876598,1.01146864891052,1.15474665164948,-18.2869129180908,-14.5016794204712,-7.24006605148315,6.02381134033203,5.00627565383911,6.75164890289307,2.59178853034973,1.83012437820435,1.01999068260193,0.85712420940399,1.5442601442337,0.78050976991653,SWING_RIGHT
-0.30839407444,-0.31638354063034,-0.2290318608284,0.22690132260323,0.13262543082237,0.07030745595694,0.60094463825226,0.5147533416748,0.39983168244362,9.78989028930664,10.0173397064209,10.5560350418091,0.70840084552765,0.84901577234268,1.16646456718445,-0.40462008118629,-0.40462008118629,-0.57939678430557,0.01544633507729,0.11984225362539,0.30093720555305,-0.38402783870697,-0.740891456604,-1.18990039825439,-0.31603461503983,-0.36391866207123,-0.34955343604088,9.47864437103272,9.48343276977539,9.07641887664795,1.60908198356628,1.82905912399292,2.47567462921143,2.66474652290344,3.82593441009521,3.9073371887207,-0.87404948472977,-1.11586451530457,-1.61121249198914,-0.08948221802711,-0.08415589481592,-2.410160779953,5.68622922897339,8.83460426330566,7.0820484161377,10.7954559326172,13.417106628418,19.5773868560791,-10.3447828292847,-13.3163385391235,-15.6908130645752,54.8870735168457,48.8848114013672,38.4939765930176,3.15584588050842,5.46853494644165,6.47254705429077,5.07012605667114,4.09967041015625,-0.6721818447113,-36.4182014465332,-39.2529373168945,-42.0469703674316,14.7003984451294,9.28950214385986,0.96007490158081,-12.7906303405762,-10.7522468566895,-8.33196640014648,11.4490728378296,4.34308195114136,4.34308195114136,-0.77018618583679,-2.30097126960754,-1.24209833145142,-2.88580131530762,-1.56753659248352,1.8748654127121,-26.4415626525879,-26.4415626525879,-19.5079555511475,5.03261184692383,5.03261184692383,17.6428718566895,3.6863477230072,4.36545372009277,4.52311277389526,-8.38688850402832,-8.38688850402832,-4.17309379577637,SWING_RIGHT
0.04420847445726,0.35579833388329,1.1989551782608,-0.80320942401886,-0.64075654745102,-2.10975623130798,-0.95049810409546,-1.40060794353485,-1.86987149715424,11.2599306106567,10.8289747238159,10.9391078948975,1.42851960659027,2.0335898399353,2.92255306243896,-3.81156921386719,-3.81156921386719,-3.94803857803345,-1.48497867584229,0.84635263681412,1.20587933063507,1.78964424133301,-0.65087658166885,-1.42638909816742,-3.85705900192261,7.26879644393921,13.2662715911865,13.2902135848999,13.9462251663208,11.6358203887939,-7.21237277984619,-8.9013500213623,-11.5048561096191,50.019660949707,46.1578140258789,52.0307922363281,-2.25676274299622,0.29507824778557,1.70229256153107,1.26020789146423,2.45064091682434,2.04317712783813,-16.9581298828125,-36.8922538757324,-43.0716896057129,10.8529167175293,17.8200435638428,17.1736087799072,-16.3289070129395,-15.6545934677124,-12.6878318786621,42.7915687561035,39.3606758117676,21.2150211334229,2.57367897033691,1.67725884914398,1.54942715167999,-0.36538571119308,-0.18801917135715,0.26471820473671,-36.2769432067871,-34.8954887390137,-32.7766227722168,6.64151573181152,8.59278964996338,12.2870435714722,0.30626353621483,2.03518772125244,2.82721185684204,-12.90953540802,-7.86974096298218,-2.94247388839722,3.69220662117004,1.60908198356628,0.27164244651794,0.67484503984451,-0.10492854565382,-0.29081720113754,-7.29513263702393,1.06781399250031,2.38462495803833,3.09091448783875,0.7972691655159,1.58496153354645,1.37738692760468,1.60695147514343,1.94464027881622,-4.97754526138306,-5.3366756439209,-5.1786584854126,SWING_RIGHT
-0.23435817658901,-0.22690132260323,0.18002969026566,0.51505535840988,0.42290997505188,0.03142530098557,-1.09415018558502,-0.96007490158081,-0.54587799310684,9.13148498535156,10.857705116272,11.7172231674194,1.45355331897736,1.24902260303497,1.27245843410492,4.42448472976685,3.47638082504272,3.53384160995483,0.78616517782211,1.03437173366547,0.90440952777863,-0.58589547872543,-0.31105720996857,-0.20825919508934,1.40060794353485,3.1699230670929,2.85149431228638,11.4969568252563,11.5975131988525,9.53610515594482,-1.91481280326843,-2.84638667106628,-5.00354719161987,11.3030261993408,16.153678894043,18.8447608947754,-0.47564056515694,-0.10279802232981,0.47510793805122,0.91080111265182,0.93157374858856,0.46498793363571,1.58256733417511,-1.93930339813232,-1.93930339813232,14.7147636413574,15.6748380661011,15.6748380661011,-12.8375015258789,-15.1395387649536,-14.743260383606,43.5792579650879,34.6752243041992,25.5916213989258,2.8900625705719,4.40273809432983,4.81925630569458,1.45568382740021,1.25381624698639,0.36218991875648,-26.7336559295654,-35.0822372436523,-37.2011070251465,15.9645366668701,8.927978515625,7.44596719741821,-9.96767997741699,-7.1713604927063,-1.67033469676971,3.55778384208679,3.55778384208679,-10.0724067687988,1.361407995224,0.70094400644302,0.43196472525597,-0.82611256837845,-0.65673553943634,-0.10279802232981,-18.0642509460449,-13.4649906158447,-9.77791976928711,6.89051246643066,9.18176364898682,9.95269680023193,2.05223202705383,1.45515120029449,0.85807049274445,-1.44609785079956,-0.57939678430557,-1.4293384552002,SWING_RIGHT
0.26844665408134,0.69828087091446,0.82664519548416,0.07297061383724,-0.28176245093346,-0.98164117336273,1.50116443634033,0.09576806426048,-0.98162269592285,12.0811414718628,11.2862672805786,9.33020401000977,2.85597395896912,1.76993691921234,0.82557994127274,2.09013819694519,4.56095409393311,3.16513466835022,0.20719394087791,-0.81439465284348,-0.80960100889206,1.10574448108673,-0.29134982824326,-2.28818798065186,-1.27132105827332,-0.91219085454941,-2.36786556243896,8.47786808013916,9.31823348999023,15.1433258056641,2.63865995407104,-2.98327302932739,-6.53220176696777,25.5940170288086,42.494686126709,47.977409362793,2.53586196899414,0.15446335077286,-5.10687780380249,-4.3622579574585,-5.3433666229248,2.0037624835968,-3.40216064453125,-24.7033729553223,-56.0985412597656,10.8792524337769,3.98873996734619,7.30710363388062,-17.4527606964111,-17.4527606964111,-17.1448993682861,47.6733436584473,36.2577896118164,39.6431922912598,5.66241312026978,-0.47244477272034,-5.11380195617676,-4.41285800933838,-3.80938577651978,-0.83516734838486,-68.1820755004883,-58.9500350952149,-53.3715438842773,-8.746018409729,-9.2248592376709,5.91367816925049,-2.92202043533325,3.90419411659241,6.80863761901855,-39.3080024719238,-32.9849166870117,-11.3556985855103,4.27863454818726,4.19021797180176,3.16490077972412,1.39549648761749,1.46473860740662,0.98963069915771,-21.7561111450195,-11.9925565719604,-2.58813214302063,6.6271505355835,0.2777273952961,-3.47638082504272,3.19046711921692,0.9544769525528,1.16539931297302,12.4259071350098,-3.2585084438324,-4.39575433731079,SWING_RIGHT
-0.2290318608284,-0.06338323652744,-0.07882957160473,0.42823630571365,0.34141725301743,0.24767398834229,0.02394201606512,0.11731588095427,-0.09337386488914,9.79467868804932,9.92875480651856,9.49061584472656,0.38615837693214,0.432497382164,0.54435014724731,0.35913026332855,0.29448682069778,0.16519992053509,-0.00905474834144,0.02929477207363,0.56512278318405,-0.00852211564779,-0.34088462591171,-0.85487473011017,0.06943184882402,0.26815059781075,1.24977326393127,10.9151659011841,11.9614315032959,14.6740617752075,0.81705784797668,-0.01810949668288,-1.65115988254547,11.9350957870483,18.3491611480713,24.2245330810547,0.31585091352463,-0.16724652051926,-0.99282646179199,-3.36197471618652,-0.86073368787766,-0.81066626310349,-1.66636443138123,-9.70848751068115,-36.0183715820313,11.1354322433472,13.6254014968872,9.65342140197754,-17.4527606964111,-17.4527606964111,-17.3249282836914,45.7388305664063,31.1772937774658,29.5300846099854,3.33747363090515,2.35796284675598,1.50521862506866,-0.33129724860191,-0.97844541072845,-0.84049367904663,-52.7035636901855,-45.1211242675781,-45.1211242675781,8.88967132568359,6.80192708969116,6.80192708969116,-6.41768550872803,-2.6929886341095,1.23570680618286,-9.53131675720215,-19.1224880218506,-20.0203151702881,2.80324339866638,2.18645524978638,1.08124339580536,0.84901577234268,0.88257157802582,0.5480785369873,-17.5303440093994,-10.1370496749878,0.38067805767059,12.7539129257202,7.49145698547363,2.36307716369629,1.61494088172913,0.79575252532959,0.8175904750824,6.04775333404541,0.42377370595932,-4.50828170776367,SWING_RIGHT
0.480434268713,0.47990164160728,0.8239820599556,-0.4740426838398,-1.13237607479095,-1.45248806476593,0.01675941236317,0.50038814544678,1.10851538181305,9.16979217529297,10.0652236938477,11.2000751495361,0.82238417863846,0.96619486808777,1.29589426517487,3.76607918739319,3.12443327903748,3.27047944068909,-0.52890378236771,-1.02265381813049,-0.85434210300446,-1.08230865001678,-1.07165598869324,-0.50866377353668,2.45645093917847,2.79642748832703,0.90979665517807,7.59919595718384,9.45230865478516,12.6772975921631,-1.59150505065918,-3.41949892044067,-5.753493309021,19.5438690185547,27.3082637786865,30.5332546234131,-0.11078750342131,-0.35366779565811,-0.42237734794617,1.58031976222992,1.94304239749908,1.91481280326843,-5.91607236862183,-19.0482692718506,-19.0482692718506,13.2973966598511,9.64863300323486,9.64863300323486,-15.8229055404663,-14.2191495895386,-13.0138034820557,29.4917774200439,19.5055618286133,17.4824600219727,3.81098365783691,2.1875205039978,1.88232231140137,-0.53795856237411,-2.86715936660767,-2.39791035652161,-40.8307151794434,-39.0853424072266,-29.7503509521484,6.08127212524414,7.65905141830444,13.5224514007568,-3.2320122718811,0.23489081859589,1.94410765171051,-23.3075542449951,-15.5982236862183,-6.63672733306885,2.66529178619385,2.12413740158081,1.30175316333771,0.71852087974548,0.31265512108803,0.26684874296188,-8.38928318023682,-4.22097778320313,-0.641646027565,7.05331802368164,5.20499467849731,4.14196872711182,1.76940429210663,0.74675035476685,-0.53156697750092,3.44525623321533,3.44046783447266,-2.95683908462524,SWING_RIGHT
0.04261057823896,-0.37284255027771,-1.04608964920044,0.36112466454506,0.23276028037071,-0.79468727111816,-2.69587111473084,-2.34152936935425,-2.1284453868866,8.1331033706665,5.54497098922729,3.99113416671753,1.16326880455017,0.72011876106262,0.67111659049988,-0.40462008118629,1.71185421943665,0.87148940563202,-0.85274422168732,-0.12942963838577,0.96246641874313,-2.2519690990448,-3.25012183189392,-2.72654438018799,-1.14682257175446,-0.54827219247818,0.09097966551781,12.363657951355,17.5518932342529,18.9668655395508,0.03888215124607,-4.77824354171753,-8.18495941162109,16.7067394256592,36.0231590270996,36.0231590270996,1.52599132061005,1.61653876304626,1.66713881492615,2.93373823165894,4.45653390884399,3.62722539901733,-5.68383502960205,-8.34379291534424,-16.2183227539063,17.2310695648193,15.8256731033325,13.7666597366333,-14.2047691345215,-12.5109987258911,-11.6742334365845,25.9124450683594,16.7091331481934,15.660472869873,9.88618659973144,7.2864089012146,2.99925208091736,-2.90976977348328,-4.1406831741333,-3.46583795547485,-37.6703681945801,-32.1349754333496,-25.1846084594727,8.80587387084961,1.5945383310318,-2.85628271102905,-2.45170617103577,-0.08681905269623,1.55209028720856,-10.9199542999268,-11.9662199020386,-8.95670890808105,1.65595364570618,2.32707023620605,2.24504494667053,1.7166736125946,2.00216460227966,1.71347784996033,-9.51934623718262,-9.51934623718262,-0.66798228025436,13.1202249526978,13.1202249526978,4.08211374282837,1.04875290393829,0.11078750342131,-0.53156697750092,0.17717093229294,-1.8171991109848,-6.70376491546631,SWING_RIGHT
0.25832661986351,0.24714136123657,0.23808661103249,-0.09108011424541,-0.00745685119182,-0.52943640947342,0.6703764796257,0.68713587522507,1.45567464828491,10.4219598770142,9.68454551696777,11.8680582046509,1.22132575511932,1.21706461906433,1.06366658210754,0.14844051003456,3.58651423454285,2.32237553596497,0.88896316289902,0.41705104708672,0.18429075181484,0.60933125019073,0.70946609973907,0.73876088857651,0.47405192255974,0.79008656740189,0.67516487836838,7.9152307510376,9.13387966156006,9.57680702209473,0.52783852815628,-1.27405631542206,-3.02109003067017,13.1968393325806,19.5127429962158,24.5525379180908,-2.46608710289001,-1.87433278560638,-1.72945690155029,-3.30231976509094,1.02212119102478,1.27671945095062,-3.41652584075928,-15.6532907485962,-27.6865482330322,10.8074264526367,14.0036859512329,10.26633644104,-17.4527606964111,-17.4527606964111,-17.4527606964111,43.5601043701172,28.6609878540039,21.5286617279053,4.24081802368164,3.53561282157898,1.8924423456192,-0.28602349758148,-1.20534670352936,-0.8303736448288,-47.1681671142578,-44.8242454528809,-40.9887313842773,9.41160678863525,3.44046783447266,1.03668928146362,-8.39534950256348,-5.43018579483032,-2.68926000595093,-5.19302368164063,-10.1250791549683,-10.1250791549683,1.48071753978729,2.3371901512146,2.7095000743866,0.68762820959091,0.95341169834137,0.87191897630692,-15.6580791473389,-10.1562032699585,-5.7819972038269,13.9534072875977,11.9518547058105,8.54490566253662,3.36996412277222,1.52492606639862,0.18216022849083,1.00556468963623,4.07971954345703,-0.15322890877724,SWING_RIGHT
-0.496413230896,-0.1145159304142,0.09640643000603,0.67164921760559,0.40053942799568,0.16511599719524,1.28808057308197,0.88346040248871,0.97683429718018,11.5592060089111,11.4083709716797,9.94790840148926,0.54488277435303,0.75420725345612,0.90707266330719,-0.99359369277954,-1.06541979312897,-1.06541979312897,-0.51452273130417,-0.77231675386429,-0.97897803783417,0.42450788617134,-0.12144014984369,-1.71720635890961,0.74699091911316,1.21864867210388,0.56263738870621,8.25999546051025,8.30069732666016,9.55525875091553,2.83466863632202,-0.68389976024628,-4.95507764816284,34.5794563293457,45.7340393066406,50.6613082885742,-0.33236250281334,-1.33424377441406,-3.20644593238831,-1.49403345584869,-0.51452273130417,2.84958243370056,-4.0462007522583,-13.3835878372192,-51.5950469970703,9.19134044647217,7.99184513092041,4.06056594848633,-17.4527606964111,-17.4527606964111,-15.7818927764893,41.7453002929688,25.5796508789063,18.8519439697266,2.07779836654663,2.43625974655151,1.97713088989258,1.66607356071472,-1.5025554895401,-1.46047759056091,-45.2121047973633,-40.2513198852539,-32.5252304077148,6.28717374801636,5.33188724517822,7.08923101425171,1.36087536811829,2.89698672294617,2.1789984703064,-12.5120983123779,-12.5120983123779,5.7436900138855,1.12491929531097,0.35739621520042,-1.11906027793884,-0.34621095657349,-0.15446335077286,-0.5629922747612,-1.22104287147522,-0.36152446269989,-0.96486330032349,5.6934118270874,5.21217727661133,5.75087261199951,-0.25353294610977,-0.07190535217524,0.47457531094551,-2.33434677124023,-3.33751726150513,-4.89853668212891,SWING_RIGHT
-0.46552056074142,-0.80267679691315,0.14860439300537,-0.28549087047577,-0.93743270635605,-0.88044106960297,1.82438170909882,0.91937345266342,1.09415018558502,6.61996793746948,7.95832633972168,12.2271881103516,1.49669659137726,0.25513082742691,-0.36698359251022,7.98226833343506,7.98226833343506,3.80438661575317,-1.37525641918182,-1.22185838222504,-1.05035078525543,0.36005938053131,-1.0018812417984,-2.59178853034973,0.78769236803055,0.78769236803055,0.54587799310684,8.81305599212646,8.81305599212646,7.79073238372803,-2.27487230300903,-2.64718222618103,-6.28399515151978,16.0267868041992,23.762451171875,45.707706451416,-2.42294406890869,-3.02907943725586,-3.59526753425598,-1.92812871932983,-1.60375559329987,0.64341974258423,-19.2086811065674,-30.2890453338623,-71.5363540649414,9.43554878234863,12.2535238265991,12.3684463500977,-17.4527606964111,-17.4527606964111,-17.4527606964111,52.3085174560547,37.5793914794922,35.2187080383301,3.79979825019836,5.43870782852173,4.35373592376709,3.25065445899963,1.80509066581726,0.04740426689386,-65.9865951538086,-58.0617866516113,-47.5488471984863,18.7513885498047,3.01669406890869,0.46447512507439,-6.96523141860962,0.02343581803143,3.14732384681702,-9.34217548370361,-26.0608863830566,-16.5295677185059,1.94890129566193,1.95422768592834,1.2287825345993,-0.6013417840004,0.02982740476727,0.53902381658554,-13.5056915283203,-4.09408473968506,-1.7788919210434,10.0245227813721,5.24569606781006,4.6830587387085,1.94304239749908,0.8713863492012,0.3627225458622,0.50517654418945,0.41898530721664,-4.16112232208252,SWING_RIGHT
-0.38775625824928,-0.34301516413689,-0.35739621520042,-0.25619611144066,-0.07936219871044,0.14753912389278,-1.95606279373169,-2.21224236488342,-2.3056161403656,9.16739845275879,9.81622695922852,8.99740982055664,1.27352368831635,2.07833099365234,2.39258408546448,-6.91684865951538,-5.46596240997314,-3.58890843391419,-3.20431542396545,-3.59420228004456,-2.05649304389954,1.22185838222504,-1.03064334392548,-4.97691535949707,-2.78924489021301,-2.78924489021301,-0.75656771659851,6.51222848892212,6.51222848892212,24.3035411834717,2.6796727180481,-1.63411569595337,-5.77533102035522,13.4075298309326,49.3014030456543,49.5240631103516,1.9094865322113,0.2705771625042,-1.46154284477234,-0.74408721923828,-1.02478444576263,-0.432497382164,-0.81163436174393,-13.6014595031738,-35.0391426086426,7.16345167160034,4.68784713745117,7.78594398498535,-17.4527606964111,-17.4527606964111,-17.4527606964111,45.1354904174805,31.2802448272705,23.3171310424805,2.60936522483826,1.54516613483429,1.5968314409256,-0.71372717618942,-0.20080235600471,-0.32277512550354,-54.4537239074707,-54.676383972168,-45.7962913513184,4.48433971405029,6.4164605140686,14.2191638946533,-2.07353734970093,0.63329970836639,2.31854820251465,-21.0737628936768,-15.4162645339966,-11.0540294647217,3.05677628517151,2.9198899269104,2.07620048522949,0.83836311101913,0.83942836523056,0.29614353179932,-8.33182144165039,-3.80678081512451,3.20104765892029,8.12831497192383,6.07169532775879,4.40533113479614,1.36513638496399,1.00294649600983,1.02265381813049,-0.91458505392075,-2.72220730781555,-4.38617753982544,SWING_RIGHT
0.1384843736887,0.14221280813217,-0.02237055450678,-0.26684874296188,-0.19600865244865,-0.25033715367317,2.01112937927246,2.29603934288025,2.70065951347351,9.51934623718262,8.59757804870605,8.2911205291748,1.28896999359131,1.1813782453537,0.74834829568863,-0.46208092570305,1.73340201377869,0.65361708402634,0.27909928560257,0.8713863492012,0.95660746097565,-2.00536036491394,-2.54012298583984,-2.36914825439453,4.4340615272522,5.18105268478394,6.33745193481445,9.19612884521484,12.11705493927,8.08282470703125,-1.20161831378937,-1.62772405147552,-6.25150442123413,12.9885444641113,20.0442562103271,45.389274597168,-0.59654808044434,-0.23648871481419,-0.29880666732788,-1.98352241516113,-2.84958243370056,-3.58035373687744,-22.9556064605713,-24.1886196136475,-45.8154449462891,15.4952735900879,20.5566158294678,17.1185417175293,-17.4527606964111,-17.4527606964111,-17.4527606964111,44.2065391540527,30.7654914855957,29.3648834228516,-0.37816888093948,1.83704853057861,3.70605492591858,-0.20453077554703,0.71372717618942,0.3531351685524,-54.542308807373,-47.3716735839844,-42.5353889465332,18.5885810852051,19.3188133239746,14.9685487747192,-4.99342727661133,1.14995300769806,3.12335538864136,-12.8472862243652,-16.7642002105713,-10.9127712249756,2.60670208930969,2.76382851600647,1.31719946861267,0.65194183588028,0.216248691082,-0.24714136123657,-8.68376922607422,-3.64876341819763,3.64158082008362,8.63588523864746,6.25604915618896,2.54982471466064,1.44875967502594,1.12811505794525,1.25594675540924,-0.65840548276901,-3.12922167778015,-3.12922167778015,SWING_RIGHT
0.08096009492874,-0.1113201379776,-0.38136467337608,-0.16937704384327,-0.18855181336403,-0.11025486886501,1.92254400253296,1.70706582069397,1.31202256679535,8.4132251739502,7.58004236221313,8.50899314880371,2.32600498199463,2.62694215774536,1.54889452457428,0.84754741191864,5.84903478622437,17.772159576416,1.8407769203186,1.67086732387543,0.25832661986351,-2.49591469764709,-2.2562301158905,-1.75715374946594,6.77319669723511,5.73171901702881,4.55616569519043,17.389087677002,10.6685628890991,7.67341661453247,-7.73488521575928,-11.5229654312134,-15.1033191680908,37.730224609375,48.2455596923828,49.5144844055176,-2.4868597984314,0.15126755833626,3.43068408966064,4.02030801773071,3.6432044506073,2.50816512107849,-35.2474365234375,-35.0798416137695,-37.8595123291016,18.8375797271729,27.8924503326416,27.7057018280029,-15.9315624237061,-15.7840232849121,-15.0979928970337,40.3351173400879,34.8404235839844,24.806324005127,1.32785212993622,-1.53877449035645,-2.04637312889099,-1.18031299114227,0.43462789058685,1.02478444576263,-38.2689208984375,-33.5858612060547,-29.7144374847412,0.21068975329399,6.76361989974976,14.9613666534424,1.74863159656525,3.51697063446045,3.94041323661804,-13.8193321228027,-7.30470943450928,4.07971954345703,3.71777296066284,2.80484127998352,0.56245964765549,1.36833214759827,0.79948097467422,0.19494339823723,-2.80839848518372,0.88106620311737,4.21379518508911,3.07894349098206,0.61530983448029,2.38462495803833,0.94648748636246,0.77657777070999,0.5310343503952,-3.98155736923218,-3.80678081512451,-3.46680402755737,SWING_RIGHT
-0.06711166352034,0.12357068061829,0.23808661103249,-0.30732879042625,-0.32703620195389,-0.35899412631989,0.08619125932455,-0.01915361359715,0.10773907601833,10.690110206604,10.8648872375488,10.4913921356201,1.38271331787109,1.80082952976227,1.90256226062775,1.13006317615509,2.9352912902832,4.34787034988403,-0.01491370238364,-0.75846827030182,-0.89162635803223,-0.81173151731491,-1.39283323287964,-1.85462546348572,0.87867200374603,-0.34955343604088,-0.64404028654099,8.02775859832764,8.59997272491455,10.4411134719849,-0.232227653265,-1.87220227718353,-5.58837747573853,18.2438163757324,24.830265045166,31.9937171936035,0.09161274135113,-0.35473304986954,-1.01999068260193,-0.65833342075348,-1.08230865001678,-1.25594675540924,-7.55370616912842,-16.0435447692871,-33.0471649169922,11.1114902496338,9.17218685150146,8.34379291534424,-17.4527606964111,-17.4527606964111,-16.908411026001,32.7167663574219,22.4600067138672,18.3946514129639,1.4088122844696,1.82746112346649,1.68950939178467,0.57684069871902,1.14728987216949,1.17498672008514,-46.1003532409668,-42.928035736084,-36.0423126220703,11.7244052886963,6.33745193481445,5.28879165649414,-8.62757682800293,-6.67707777023315,-0.13741911947727,-1.38384854793549,-8.46589756011963,-22.6730899810791,2.56835269927979,2.75157809257507,2.2008364200592,0.53849118947983,0.42663842439651,0.40852892398834,-16.5511169433594,-11.9566431045532,-7.21372985839844,11.1019134521484,6.65827512741089,3.2776620388031,1.85462546348572,1.15794241428375,0.73769563436508,2.0973207950592,0.22505496442318,0.21308395266533,SWING_RIGHT
0.05326322466135,0.00639158673584,0.19600865244865,-0.45433530211449,-0.05752427875996,0.25566345453262,0.67995327711105,0.73023152351379,0.73023152351379,9.55525875091553,10.9008007049561,10.9008007049561,0.87724530696869,0.76858830451965,0.77338200807571,1.6903064250946,1.20667767524719,0.23942017555237,0.28229507803917,-0.00958738010377,-0.65460503101349,0.13795174658298,0.01331580616534,-0.67644292116165,0.58657944202423,-0.20829555392265,1.14442837238312,8.64785671234131,7.90565395355225,10.0317049026489,0.47297742962837,-1.96754348278046,-4.90927124023438,20.9851779937744,30.5931091308594,39.0925254821777,1.5153386592865,-0.10705907642841,-2.22746801376343,-1.81308007240295,-1.69270527362823,2.70257592201233,-1.27371525764465,-17.5087966918945,-31.6345863342285,9.77552509307861,5.49229860305786,9.8401689529419,-17.4527606964111,-15.5603179931641,-13.4186038970947,30.3249588012695,27.5931739807129,8.41561889648438,0.75580513477325,0.432497382164,1.17392146587372,-0.47990164160728,-0.44687843322754,-0.47830373048782,-36.0255546569824,-30.3369293212891,-24.6985855102539,3.84748220443726,10.0795888900757,12.3157739639282,2.37980079650879,3.41257476806641,2.97634887695313,-10.6877164840698,-0.84754741191864,0.87148940563202,0.124103307724,-0.70041137933731,-1.26872992515564,-0.3531351685524,-0.08735168725252,-0.00798948295414,1.5753847360611,1.49877023696899,0.73501992225647,4.87459468841553,5.42047262191772,7.48906278610229,0.93636745214462,0.59601545333862,0.76219671964645,-1.15879356861115,-1.58017313480377,-3.71340680122375,SWING_RIGHT
-0.26045715808868,-0.09534116834402,-0.11877698451281,-0.03834952041507,-0.2290318608284,0.40852892398834,-0.01197100803256,-0.00478840339929,0.13646949827671,8.48983955383301,9.81143856048584,9.14585018157959,1.49137020111084,1.12918031215668,0.81972098350525,1.79325711727142,1.68791222572327,1.09175598621368,-1.96488034725189,-2.64505171775818,-2.99818682670593,1.64636623859406,1.91641080379486,1.81840646266937,1.14682257175446,-0.31603461503983,-0.55545479059219,5.80833339691162,6.75164890289307,8.46110916137695,1.81148219108582,2.102299451828,2.17793321609497,-3.7541081905365,-1.22343707084656,1.33117616176605,0.36218991875648,1.10521185398102,2.44211888313293,-4.7090015411377,-6.88586950302124,-2.72601175308228,-1.34314715862274,0.36391866207123,7.70932960510254,15.0451631546021,17.6117477416992,19.3930339813232,-8.65846920013428,-12.7075395584106,-15.2061176300049,54.6069526672363,49.6533508300781,42.928035736084,1.51640391349792,2.09004878997803,2.73986029624939,3.35505032539368,2.5688853263855,1.8796591758728,-35.1325149536133,-41.5058822631836,-37.2896919250488,6.13394498825073,5.1978120803833,3.76607918739319,-12.7703905105591,-11.3999271392822,-8.24834251403809,16.0555171966553,13.6421613693237,-10.9127712249756,1.23836994171143,1.16273617744446,1.2671320438385,-0.71159666776657,-0.37017938494682,-0.13315805792809,-35.1564559936523,-30.6002922058105,-23.7409038543701,6.93600225448608,7.24485445022583,7.24006605148315,4.05173349380493,4.48103475570679,4.25519895553589,-6.48110389709473,-2.36068296432495,1.80283391475677,SWING_RIGHT
1.18031299114227,0.75900089740753,-1.82053697109222,-0.33342778682709,-0.31904670596123,1.06313395500183,-0.00239420169964,0.42616790533066,0.6033388376236,9.32062721252441,5.44680881500244,6.07408952713013,1.02105593681335,1.33797216415405,1.71401047706604,-2.09971499443054,-2.41096115112305,0.61770403385162,0.15552860498428,-0.06391586363316,-0.09161274135113,-0.51505535840988,-1.35448372364044,-2.2519690990448,1.55623114109039,1.73579621315002,0.46447512507439,10.3668937683105,10.5775833129883,11.9303073883057,4.38835716247559,0.13156016170979,-2.07300472259521,14.1090307235718,29.6976776123047,32.3791847229004,-0.92837798595428,-0.43942159414291,-0.78296935558319,-1.62878930568695,-1.26500153541565,-1.55581879615784,-4.4029369354248,-8.21929454803467,-40.8402938842773,13.0483989715576,15.552734375,8.9064302444458,-17.4527606964111,-17.4527606964111,-17.4527606964111,43.6055946350098,35.0966033935547,20.6092891693115,2.78513383865356,3.79074358940125,3.50525259971619,3.95799016952515,3.68688035011292,2.54438424110413,-56.9245414733887,-54.8631324768066,-44.42919921875,11.5137157440186,2.34392356872559,1.26653265953064,-8.46618938446045,-6.21155691146851,-3.39339995384216,-6.18182897567749,-8.88967132568359,-17.6021709442139,2.27966594696045,2.17793321609497,1.50788187980652,-0.68123662471771,-0.5054680109024,-0.16990968585014,-19.8192024230957,-14.3101434707642,-4.42927312850952,4.3646297454834,4.41011953353882,3.33991146087646,2.78300333023071,2.13425731658936,1.31666684150696,0.72783732414246,-0.44292730093002,-3.9384617805481,SWING_RIGHT
0.01651159860194,-0.00639158673584,-0.00372842559591,0.07616640627384,-0.06551376730204,0.02982740476727,0.91937345266342,0.91937345266342,0.83318221569061,9.39484786987305,9.63426780700684,10.172963142395,0.55287224054337,0.9763149023056,1.59416830539703,-1.12048637866974,-1.12048637866974,-1.95127439498901,-0.30040457844734,0.05592638254166,0.79042625427246,0.140082269907,-0.89162635803223,-2.31801557540894,2.87064790725708,3.52426481246948,3.47159242630005,11.2982378005981,12.5504055023193,13.7355356216431,0.16777914762497,-1.38537645339966,-3.69913077354431,24.5262031555176,33.8899269104004,44.7572059631348,-1.37898480892181,-1.47858703136444,-1.53504610061646,-0.248206615448,0.25513082742691,1.0018812417984,-9.00698661804199,-30.2196140289307,-47.4075889587402,9.41400146484375,13.1681089401245,9.97185039520264,-17.4527606964111,-17.4527606964111,-15.7254343032837,42.3534278869629,25.4264221191406,26.9443454742432,4.02936267852783,4.44375085830688,2.25569748878479,2.83040761947632,1.8967033624649,-0.43995422124863,-53.675609588623,-54.8870735168457,-45.8274154663086,6.64390993118286,4.47715711593628,-0.11492168158293,-7.04992008209229,-2.4016387462616,1.85249483585358,-18.9357414245605,-27.459098815918,-21.4281044006348,3.93721747398376,3.43707585334778,2.27487230300903,1.75715374946594,1.06419920921326,0.01331580616534,-10.0221281051636,-10.0221281051636,-1.92014980316162,4.23534297943115,4.23534297943115,-1.38384854793549,1.88019180297852,0.20293287932873,-0.02929477207363,4.71897172927856,-1.51074123382568,-4.01507616043091,SWING_RIGHT
-0.45380264520645,-0.47137951850891,-0.55606806278229,-0.47883638739586,-0.46605318784714,-0.38882151246071,-1.06302559375763,-0.82599955797195,-0.70150107145309,9.46188545227051,9.74200630187988,9.35654067993164,2.28818798065186,2.24238157272339,1.64583361148834,4.25689077377319,5.70298862457275,8.39646530151367,-1.87273490428925,0.01065264455974,1.53611135482788,-2.00109934806824,-2.28286170959473,-1.48710918426514,-4.74291372299194,-4.20182418823242,-5.16908168792725,18.8208198547363,22.1535491943359,19.4744358062744,-3.71670770645142,-5.66986989974976,-8.56153011322021,21.3490962982178,30.5931091308594,30.5931091308594,-0.55500280857086,0.01597896590829,-0.10066749155521,0.82078623771667,2.70896744728088,2.72974014282227,-28.364107131958,-44.1371078491211,-56.6587829589844,13.0148801803589,7.35738182067871,3.28005623817444,-17.4527606964111,-14.8774833679199,-13.9469747543335,30.150182723999,15.1169891357422,23.7528743743896,2.36328911781311,1.113201379776,0.4996090233326,0.18961706757545,0.03089267015457,0.33342778682709,-44.0102157592773,-42.1642875671387,-38.9967575073242,0.30406361818314,1.16118776798248,5.38695383071899,-8.18762302398682,-6.94445896148682,-4.89968395233154,-1.89860188961029,-5.44920301437378,-12.5575876235962,5.98572111129761,5.40302133560181,4.05652713775635,1.76940429210663,2.01388239860535,1.30228579044342,-17.6548442840576,-17.6548442840576,-5.76523780822754,11.9374895095825,11.9374895095825,1.14921677112579,2.24344682693481,0.82238417863846,0.60347229242325,-1.73579621315002,-1.28808057308197,-3.68946480751038,SWING_RIGHT
-0.05965480953455,0.00692421896383,-0.36858150362968,0.52624064683914,0.55127435922623,1.07911288738251,-0.58657944202423,-0.85233581066132,-1.43652105331421,10.3022499084473,8.80826759338379,7.44357299804688,1.72306525707245,2.29724287986755,3.39446520805359,-0.9720458984375,-3.46919822692871,0.59855043888092,-1.19735729694366,-0.58696073293686,0.62797337770462,0.37390783429146,-0.85593998432159,-3.11589860916138,-2.42293214797974,-1.68072962760925,-2.77248549461365,12.6605386734009,13.9198884963989,9.52892303466797,6.69571971893311,5.30554962158203,-0.77338200807571,14.2885961532593,27.6434535980225,47.9031867980957,-0.26631611585617,-0.02663161233068,-1.53131771087646,-1.43970489501953,-2.34464716911316,-3.29699349403381,-11.5592060089111,-11.5592060089111,-45.899242401123,15.6101951599121,15.6101951599121,3.8379054069519,-17.4527606964111,-17.4527606964111,-17.4527606964111,50.0268440246582,33.1285705566406,26.508602142334,2.63226842880249,2.14757323265076,1.7853832244873,1.61067986488342,0.42344263195992,-0.4261057972908,-55.2126846313477,-50.9605827331543,-50.9605827331543,7.53934097290039,3.27047944068909,3.27047944068909,-7.20118761062622,-3.47382736206055,0.08735168725252,-7.88889455795288,-20.918140411377,-18.3539505004883,3.21443557739258,2.9321403503418,1.94250977039337,-0.33023199439049,-0.31052458286285,-0.33129724860191,-19.0099620819092,-9.01656341552734,-5.07570743560791,11.566388130188,3.76607918739319,2.59052634239197,2.49058818817139,1.60162508487701,0.94329166412354,0.4525041282177,-0.35673606395721,-1.47003984451294,SWING_RIGHT
-0.4452805519104,-0.17310547828674,-0.04474110901356,-0.62051653862,-0.68230187892914,-0.80320942401886,0.3687070608139,-0.03112462162971,-0.22505496442318,8.95431423187256,9.4235782623291,8.6095495223999,1.02851283550262,1.44662916660309,1.55049240589142,0.3256114423275,1.47243404388428,3.56496644020081,-0.30573090910912,-0.25353294610977,-0.97205382585526,-0.59548282623291,-0.70786821842194,-0.85487473011017,1.8866308927536,3.03105926513672,4.22097778320313,10.4004125595093,10.4961805343628,11.5041389465332,-2.04104661941528,-4.23442602157593,-9.79084587097168,23.3482551574707,34.3232765197754,42.2504768371582,-0.51771855354309,-0.65993130207062,3.74333930015564,0.01917476020753,1.56487345695496,2.81922245025635,-26.1015872955322,-41.5992546081543,-53.440975189209,13.4482307434082,18.3635272979736,24.8805446624756,-16.7347717285156,-16.7587394714355,-15.9960107803345,38.1539993286133,35.101390838623,32.6209983825684,7.4669713973999,5.75296068191528,4.04800510406494,1.28790473937988,-0.06817692518234,0.85061365365982,-64.1574249267578,-62.1534767150879,-53.682788848877,16.3212738037109,9.88326454162598,7.42441940307617,-6.39478254318237,-2.40536713600159,2.03199195861816,-22.345085144043,-22.1415767669678,-9.04050540924072,3.78701519966125,3.69273924827576,3.88235640525818,0.51505535840988,0.31638354063034,-0.51984906196594,-12.1697273254395,-6.80910968780518,-2.15478157997131,2.41335535049438,1.6711528301239,2.51151752471924,-0.78456729650497,-0.80693781375885,-0.5182511806488,-3.72537779808044,-6.81150388717651,-8.16183376312256,SWING_RIGHT
-0.02450108155608,-0.05645901709795,-0.30200245976448,0.15393070876598,0.22636869549751,0.47670584917068,-0.23942017555237,-0.3447650372982,-1.19231247901917,9.61750793457031,8.81066226959229,7.96311473846436,1.733717918396,2.165682554245,2.45490193367004,-1.86508309841156,-2.41335535049438,-1.24019646644592,-1.73691368103027,-1.6953684091568,-1.04608964920044,-0.78509992361069,-1.60428822040558,-1.89297497272491,-1.68551802635193,-0.91458505392075,0.34237083792686,5.3175220489502,11.3556985855103,15.7514533996582,0.61838603019714,-2.55503678321838,-4.16837978363037,22.2205867767334,28.8644962310791,34.8978843688965,0.18695391714573,-0.324373036623,-0.64395236968994,-1.0444917678833,-0.70893347263336,-0.26578348875046,-5.216965675354,-19.0554504394531,-30.1860942840576,8.78672027587891,6.66306352615356,7.7069354057312,-17.4527606964111,-17.4527606964111,-16.3331680297852,50.797779083252,50.797779083252,30.2579212188721,1.44396591186523,3.6820867061615,2.20509743690491,2.2173478603363,-0.680703997612,-1.40987753868103,-48.8488960266113,-41.9655685424805,-40.742130279541,16.6420955657959,6.26562595367432,5.35104084014893,-11.0558471679688,-8.51093006134033,-5.73165559768677,7.10838460922241,-0.52911859750748,-0.52911859750748,3.82536458969116,5.1585431098938,5.30714750289917,0.49534797668457,1.76993691921234,2.48046827316284,-31.5460014343262,-25.0194072723389,-17.9086284637451,24.1383419036865,16.6971626281738,9.53849983215332,1.53504610061646,1.65275776386261,1.29110050201416,-1.1372457742691,0.02633621916175,0.61052143573761,SWING_RIGHT
0.3371562063694,0.99762016534805,1.31613421440125,-0.01917476020753,-0.07936219871044,-0.72384721040726,2.3702597618103,3.62960982322693,5.14274501800537,15.4306297302246,14.0372047424316,12.9143238067627,-0.79948097467422,-3.36996412277222,-4.72604560852051,11.3197860717773,22.211009979248,22.211009979248,-0.65300709009171,-0.67164921760559,-0.43089947104454,-0.84688526391983,-1.38484382629395,-1.66607356071472,-0.39504328370094,-0.39504328370094,-9.30865573883057,11.4371013641357,11.4371013641357,15.0427694320679,-9.70349407196045,-10.2441158294678,-11.7807598114014,26.3577671051025,29.40797996521,36.545093536377,-0.95128113031387,-1.47059762477875,1.19682466983795,-3.23787140846252,3.3097767829895,2.21415209770203,-38.331169128418,-51.3125305175781,-48.5256805419922,13.0316400527954,13.9270715713501,17.0443210601807,-16.4338340759277,-14.358699798584,-11.4057865142822,34.2490539550781,5.96874475479126,-5.0182466506958,2.165682554245,1.64370310306549,1.94836866855621,-1.61494088172913,-1.07858026027679,0.82717782258987,-39.4755973815918,-36.8443717956543,-25.2516460418701,12.2583122253418,12.5767412185669,15.8879222869873,3.47542524337769,4.41232538223267,4.41126012802124,-10.611102104187,-4.48673391342163,0.43335050344467,1.75928425788879,0.76912093162537,-0.60613548755646,1.41413855552673,1.1643340587616,0.93157374858856,-1.09654438495636,1.72621941566467,2.86346530914307,2.78445649147034,1.29286897182465,0.76614451408386,2.11668038368225,1.99683821201324,1.96488034725189,-1.51074123382568,-1.92733240127563,-4.26886177062988,SWING_RIGHT
-0.04207794740796,0.50653326511383,0.81865572929382,-0.81279677152634,-0.59068912267685,-0.31265512108803,-0.42137950658798,-0.3256114423275,-0.00478840339929,11.6621561050415,12.3109855651855,10.5943422317505,1.69696629047394,1.84876644611359,2.04264450073242,3.19147086143494,2.82036972045898,4.26646757125854,0.10066749155521,0.17523600161076,0.26525086164474,-0.26684874296188,-0.55766594409943,-1.31932997703552,1.90099620819092,2.92571449279785,3.72298359870911,10.611102104187,10.6206789016724,9.81383323669434,-1.2628710269928,-1.65968203544617,-1.53664398193359,11.7196168899536,10.350133895874,11.6430025100708,-1.03117597103119,-1.90309500694275,-0.27909928560257,-1.95742344856262,-1.42638909816742,0.5091964006424,0.3208230137825,-3.66791701316834,-6.20098257064819,6.715735912323,10.0843772888184,18.2150859832764,-11.4260263442993,-17.0857772827148,-17.2583503723145,49.9167098999023,35.393482208252,31.6154327392578,3.99367642402649,4.37983465194702,3.35078930854797,1.25328361988068,-1.43650913238525,-2.43412923812866,-44.5536994934082,-44.0844345092773,-44.0844345092773,13.007698059082,9.13627338409424,9.13627338409424,-12.736834526062,-10.4550380706787,-7.04938745498657,3.21780705451965,-3.80438661575317,-15.2031812667847,0.51984906196594,1.22505414485931,1.49350070953369,0.66685557365417,1.51320815086365,2.19231414794922,-27.3537540435791,-19.8718738555908,-12.6054716110229,17.8176498413086,12.7994022369385,8.15225696563721,3.88928055763245,2.76063275337219,1.63837671279907,1.79565131664276,2.88980150222778,1.23061966896057,SWING_RIGHT
-0.3659183382988,-0.10386328399181,0.01917476020753,-0.01704423129559,-0.25300031900406,-0.340351998806,-1.70467162132263,-1.62326872348785,-1.69748902320862,9.80665016174316,10.6637744903564,10.3740758895874,2.2642195224762,2.75370860099792,3.5446674823761,-0.56263738870621,0.13646949827671,6.87854146957397,0.91133373975754,0.69242191314697,-0.03355583176017,-1.53717660903931,-1.98991405963898,-2.01548027992249,1.86987149715424,2.95205068588257,2.95205068588257,9.61750793457031,7.07726001739502,7.07726001739502,-0.60560286045074,-4.38516092300415,-9.1761884689331,38.6208686828613,53.0195960998535,57.3411293029785,-0.00266316113994,-0.65780079364777,-1.09509181976318,-0.82291680574417,-0.22636869549751,4.29567909240723,-26.7671756744385,-49.2607002258301,-63.4654998779297,15.1648731231689,9.8808708190918,9.32781028747559,-17.4527606964111,-17.4527606964111,-17.4527606964111,39.3295516967773,34.1892013549805,34.1892013549805,4.4485445022583,2.93533611297607,0.75953358411789,-0.65673553943634,-1.15208351612091,-0.89002847671509,-51.4418182373047,-48.1904907226563,-44.35498046875,4.59447288513184,1.38863694667816,1.0486603975296,-6.72448205947876,-2.09590792655945,3.59473490715027,-16.5846347808838,-25.4383926391602,-11.0276927947998,2.66635704040527,1.94250977039337,1.13557195663452,0.74941354990005,0.75260931253433,-0.03515372797847,-13.0244569778442,-2.70784211158752,0.82839381694794,7.55370616912842,3.84029960632324,3.56736063957214,4.06664705276489,4.09008264541626,3.30125451087952,-3.35667085647583,-3.35667085647583,-0.50278234481812,SWING_RIGHT
0.8841695189476,0.27537086606026,-0.65780079364777,-0.76592516899109,-0.57417756319046,-0.17417073249817,2.96402168273926,3.23696064949036,3.87860679626465,7.77397298812866,5.80833339691162,6.34942293167114,2.34677767753601,0.86659264564514,-0.32703620195389,5.13316822052002,15.3468332290649,17.7745532989502,0.56245964765549,0.95660746097565,0.31425300240517,-0.21411815285683,-0.72597771883011,0.19867181777954,8.2504186630249,11.226411819458,8.7268648147583,13.3740110397339,12.131420135498,6.60081386566162,-10.2643556594849,-12.498215675354,-14.4726829528809,42.5641174316406,43.9072647094727,41.8889541625977,-1.3997575044632,-1.59150505065918,-0.06551376730204,1.03437173366547,3.00244784355164,4.09008264541626,-35.1301231384277,-34.3160934448242,-33.9665412902832,14.4753437042236,18.1791744232178,24.9164562225342,-10.9732894897461,-11.2539863586426,-10.9743547439575,35.4796752929688,29.3433361053467,18.1791744232178,5.43657732009888,2.474609375,1.22931516170502,-0.83250415325165,-1.64103984832764,-1.55155766010284,-33.9928741455078,-22.2732582092285,-19.7689228057861,4.81952810287476,7.30949783325195,6.76601409912109,-1.20641195774078,-0.07616640627384,0.23808661103249,-2.51391172409058,-2.51391172409058,0.19153612852097,1.85569071769714,1.60215771198273,0.95607483386993,-0.12197277694941,-0.23329292237759,-0.17576862871647,-7.69496440887451,-6.40927791595459,-4.95360326766968,9.21767616271973,7.16824007034302,6.22492456436157,-0.3755057156086,0.10918960720301,1.20587933063507,-7.10599040985107,-5.61440277099609,-7.09162521362305,SWING_RIGHT
-0.29880666732788,-0.08894958347082,0.35366779565811,-0.06764429062605,-0.10865697264671,0.19441075623035,5.95198535919189,6.36139392852783,5.76763200759888,14.0922708511353,15.4785137176514,16.378734588623,-2.89379096031189,-4.13216066360474,-5.17771768569946,16.7474403381348,20.424934387207,22.1296062469482,2.05010151863098,2.36382174491882,2.43945550918579,-1.66926944255829,-1.9691413640976,-3.64906334877014,-1.34554135799408,-3.63200402259827,-12.4929447174072,14.7961664199829,16.5990009307861,15.7562417984009,-11.7157783508301,-14.1280698776245,-15.164571762085,43.4356079101563,47.5991249084473,28.1342639923096,0.38402783870697,3.76357936859131,5.99477577209473,3.34279990196228,3.647465467453,3.93721747398376,-40.6032676696777,-38.2401885986328,-41.1922416687012,30.0544147491455,28.8740730285645,18.9405288696289,-11.822304725647,-10.4917898178101,-6.61902046203613,34.3208808898926,-5.85621738433838,-20.0586223602295,3.36623573303223,2.30683016777039,1.93398761749268,-0.71372717618942,-1.02904546260834,-1.22239100933075,-26.5014190673828,-18.727445602417,-18.727445602417,6.33745193481445,5.78678560256958,5.78678560256958,1.35714685916901,1.43863964080811,0.86126631498337,-4.77882671356201,-1.97521638870239,0.10295066982508,0.20506340265274,-0.02343581803143,-0.26525086164474,-1.15048563480377,-0.8303736448288,-0.54328489303589,-2.84910011291504,-2.84910011291504,-2.75812029838562,9.07641887664795,9.07641887664795,9.44752025604248,1.55954718589783,1.80029690265656,2.11348462104797,-3.35427665710449,-3.7732617855072,-3.57933163642883,SWING_RIGHT
-0.22050973773003,-0.22210763394833,-0.34887412190437,-0.92944324016571,-1.34809219837189,-0.71532505750656,0.23463176190853,0.38307225704193,0.62967503070831,9.49779796600342,9.50258636474609,9.16021537780762,1.88445281982422,0.76752305030823,-0.75260931253433,8.07085418701172,14.5543518066406,15.744270324707,0.82078623771667,3.35078930854797,4.05759239196777,-1.04182863235474,-1.35767960548401,-2.41548705101013,5.5138463973999,4.93444967269897,2.67192912101746,14.839262008667,16.9246120452881,12.3205623626709,-8.4683198928833,-10.3634252548218,-11.1575803756714,35.9968223571777,30.2890453338623,30.2890453338623,-1.2117383480072,-0.90281164646149,0.74408721923828,-1.54676401615143,-1.49722921848297,-1.21120572090149,-23.1184120178223,-23.1184120178223,-23.6403484344482,24.5429611206055,24.5429611206055,36.8850708007813,-10.4182863235474,-12.0140523910522,-12.738431930542,31.9601993560791,31.9601993560791,31.1030750274658,2.2642195224762,0.9033442735672,-0.33662357926369,-0.19920445978642,-0.50706589221954,-0.09587380290031,-32.3672142028809,-30.279468536377,-31.5507907867432,5.81551599502563,3.62721562385559,1.10133278369904,-10.5375957489014,-9.0696611404419,-6.82195377349854,15.9477777481079,15.9477777481079,-5.20738887786865,0.90068107843399,2.31695008277893,3.19579339027405,-0.07297061383724,-0.66365975141525,-1.11692976951599,-24.4591636657715,-21.8710327148438,-18.2390289306641,11.7267999649048,11.8082027435303,9.10993766784668,0.31105720996857,0.42024683952332,0.18748654425144,-6.71334171295166,-4.12760353088379,-2.82036972045898,SWING_RIGHT
-0.22477079927921,-0.76432722806931,-0.85114628076553,-2.24184894561768,-1.5712651014328,-0.58589547872543,2.33434677124023,1.82198750972748,1.20188927650452,9.86650562286377,9.8784761428833,11.2527475357056,-1.24902260303497,-1.89510548114777,-2.82508134841919,11.8824234008789,14.8560218811035,17.7314586639404,1.35981011390686,0.8522115945816,0.01651159860194,-1.88445281982422,-2.12467002868652,-2.56196093559265,-1.25216746330261,-3.23217225074768,-3.76368498802185,10.3836526870728,7.58961915969849,7.78354978561401,-5.66454362869263,-6.35323715209961,-8.42730712890625,21.9476470947266,30.1645469665527,41.6734733581543,-1.40348589420319,-4.01285123825073,-5.83764934539795,-5.32951784133911,-2.28073120117188,0.76485985517502,-20.2740993499756,-20.2740993499756,-45.6502456665039,8.2336597442627,8.2336597442627,5.09246683120728,-15.7834911346436,-13.4723997116089,-10.912036895752,26.0417327880859,26.0417327880859,15.2007865905762,1.26393628120422,2.67487907409668,2.03838348388672,3.06529855728149,0.85008102655411,-0.38083204627037,-39.231388092041,-42.5066566467285,-37.7374076843262,5.82748699188232,-0.83318221569061,-2.18111777305603,-6.05283260345459,-2.36009335517883,2.9928605556488,-21.7800521850586,-23.3482551574707,-7.91044235229492,-0.09800432622433,-0.69668292999268,-0.49801114201546,-1.09668970108032,-0.33662357926369,0.68656295537949,-7.81467437744141,-7.29752683639526,-7.29752683639526,6.30393314361572,8.00621032714844,8.00621032714844,0.85487473011017,1.05141603946686,0.54328489303589,-2.32237553596497,-3.38540124893188,-1.47243404388428,SWING_RIGHT
-0.47936901450157,-0.44474792480469,-0.33555829524994,0.09693906456232,-0.67484503984451,-1.30175316333771,1.36708915233612,1.74537301063538,1.99197578430176,10.0005807876587,10.4004125595093,11.3916120529175,0.96832537651062,0.48576059937477,-0.63915866613388,3.26808524131775,9.64623832702637,14.1952219009399,2.62481164932251,0.73130404949188,-0.81066626310349,-2.21415209770203,-1.47592389583588,-1.5329155921936,4.99191045761108,2.36068296432495,2.36068296432495,14.8440504074097,6.73967790603638,6.73967790603638,-7.13567399978638,-8.08375930786133,-10.0145511627197,26.9898357391357,31.9937171936035,32.9466094970703,1.22292363643646,-0.66206187009811,-3.3609094619751,-5.74017763137817,-4.30792951583862,0.36751624941826,-20.8846206665039,-35.5993843078613,-47.7691116333008,16.95094871521,13.3764047622681,9.23682975769043,-16.3635272979736,-14.0955791473389,-13.0984916687012,34.9912567138672,25.9339923858643,28.3593196868896,2.89272570610046,1.75235998630524,0.91026848554611,0.7984157204628,-1.55794930458069,-1.02478444576263,-52.7682037353516,-34.4214363098145,-26.2931232452393,3.89057779312134,5.85621738433838,6.61039066314697,-0.94382429122925,0.04207794740796,0.10173275321722,-11.3269681930542,-3.47638082504272,-1.93451499938965,0.6551376581192,0.71852087974548,0.57950389385223,-0.7771103978157,-0.65567028522491,-0.68656295537949,-9.12430286407471,-6.93600225448608,-4.40533113479614,7.95832633972168,8.93037223815918,8.11634349822998,0.97045594453812,0.92571479082108,1.38431119918823,0.05027823522687,-2.82515811920166,-4.84347009658813,SWING_RIGHT
-0.93476957082748,-0.99868541955948,-0.88150632381439,-0.12676647305489,0.26951190829277,0.35420042276382,1.56820213794708,1.56820213794708,2.15238738059998,9.18894577026367,9.18894577026367,10.8744640350342,1.69323790073395,1.78804636001587,0.74302196502686,0.12928688526154,2.50433492660522,12.2774667739868,0.42237734794617,0.524642765522,0.21997711062431,-1.82639586925507,-1.79017686843872,-1.87539803981781,3.56496644020081,3.05739545822144,1.67594122886658,13.9510135650635,13.1968393325806,12.5599822998047,-4.60567092895508,-5.49889516830444,-5.61873722076416,25.2875576019287,24.3155117034912,24.3155117034912,0.73876088857651,-4.78570079803467,-6.72714519500732,-5.8051586151123,-3.31190729141235,-0.40693101286888,-11.6549739837646,-29.4295272827148,-44.8864936828613,5.27921485900879,1.75494980812073,6.6056022644043,-17.4527606964111,-14.7155628204346,-13.8660144805908,42.5497512817383,28.5364894866943,31.6992301940918,0.53316485881805,-1.05194866657257,-1.14675724506378,-0.33342778682709,0.14966966211796,0.19334550201893,-39.6455841064453,-31.3951663970947,-28.1031398773193,-1.13245737552643,2.62643933296204,9.78989028930664,-1.63624620437622,0.38136467337608,1.31773209571838,-10.9606552124023,-2.7629086971283,-2.20984816551209,0.73130404949188,0.78243672847748,0.7472830414772,-0.15446335077286,-0.45966160297394,-0.69029134511948,-7.66144561767578,-3.11006808280945,-2.8658595085144,7.1012020111084,8.51617527008057,7.5968017578125,0.60293966531754,1.19948780536652,1.78911161422729,-4.14196872711182,-6.40927791595459,-4.20421838760376,SWING_RIGHT
-0.55926382541656,-0.50387006998062,-0.41119208931923,0.1161138266325,0.26205506920815,-0.06072007492185,0.07661445438862,0.25857377052307,0.94570964574814,12.7347583770752,11.5615997314453,13.3835878372192,0.21731394529343,-0.3531351685524,-0.96246641874313,10.582371711731,9.99339771270752,14.2478942871094,0.60080915689468,-0.54435014724731,-1.83012437820435,-1.20055305957794,-1.68737888336182,-1.98831605911255,4.83868169784546,2.32955837249756,1.63045132160187,6.88093566894531,4.73573112487793,8.28154373168945,-5.23151397705078,-6.85817241668701,-8.15140342712402,27.1574306488037,30.9642105102539,33.2195472717285,0.14594122767448,-0.87298423051834,-2.00163197517395,-2.98700141906738,-2.0250678062439,0.2194444835186,-17.1831855773926,-33.7965507507324,-43.4427909851074,17.6907558441162,12.6318082809448,11.9039707183838,-17.4527606964111,-17.4527606964111,-14.9142351150513,44.5704574584961,32.5443840026855,19.6252708435059,0.11664646118879,0.63276708126068,0.81652522087097,2.10922360420227,1.28204572200775,-0.73023879528046,-42.1403427124023,-42.1403427124023,-38.1755447387695,2.70784211158752,2.70784211158752,2.84431171417236,-5.47119808197021,-2.88952994346619,-0.6077333688736,-8.04212379455566,-8.04212379455566,0.13886369764805,3.06370067596436,2.3627564907074,1.82213485240936,-1.25967526435852,-0.46818372607231,0.18162758648396,-15.0188274383545,-11.9422779083252,-10.448296546936,6.84741687774658,5.33428144454956,6.22731876373291,0.84102630615234,0.5118595957756,0.80906838178635,-2.75812029838562,-3.24414324760437,-5.70777702331543,SWING_RIGHT
-1.09668970108032,-1.15687716007233,-1.07112336158752,-0.52837115526199,-0.70680296421051,-0.94968324899673,0.28969839215279,0.28969839215279,-0.11252748221159,8.50899314880371,10.8193979263306,11.8201742172241,1.23357629776001,1.52173030376434,0.91293162107468,1.25935006141663,6.5361704826355,6.5361704826355,1.25861001014709,1.35554897785187,1.58351564407349,-3.51057910919189,-2.91030240058899,-2.44744515419006,1.53468334674835,0.36152446269989,-2.94486808776855,15.306131362915,14.8009548187256,13.4506254196167,-5.09143161773682,-7.06163787841797,-9.26087665557861,34.4908714294434,40.4691925048828,42.6048202514649,-2.63013792037964,-6.38146686553955,-8.04434490203857,-6.33672571182251,-3.32575559616089,2.07620048522949,-28.2587623596191,-41.9535980224609,-58.0761489868164,-0.62488663196564,5.50666379928589,13.9893207550049,-16.7853717803955,-15.9624547958374,-13.5448379516602,36.2649726867676,22.1846733093262,18.0091857910156,2.99445843696594,3.63414978981018,3.45731568336487,3.15797638893127,3.15957427024841,2.3073627948761,-46.4953956604004,-45.8202323913574,-46.3924446105957,11.7339820861816,4.65672206878662,-0.11971008777618,-11.568772315979,-9.5229320526123,-6.76389646530151,6.02620553970337,-6.77798509597778,-12.9143238067627,0.50227218866348,0.8586031794548,1.00774013996124,-0.60720074176788,-1.09615707397461,-1.20108568668365,-21.3419132232666,-17.5734405517578,-13.8145437240601,5.40371322631836,5.96156215667725,5.79875659942627,1.14835512638092,0.67644292116165,0.54328489303589,-0.61052143573761,-0.61052143573761,-5.18105268478394,SWING_RIGHT
-0.19973708689213,-0.21145498752594,-0.40852892398834,-0.3115898668766,-0.28868666291237,-0.11717908829451,1.03429508209229,0.94092124700546,0.85951840877533,11.0707883834839,9.2224645614624,9.68933391571045,0.71798825263977,0.83410209417343,1.09242868423462,1.8674772977829,1.49877023696899,3.03584766387939,-0.16085493564606,0.108124345541,0.2498045116663,0.3371562063694,0.28655612468719,-0.52837115526199,0.76375031471252,1.64002811908722,2.17872357368469,10.9582614898682,10.9822034835815,11.0923366546631,-0.07403588294983,-2.22746801376343,-3.94893527030945,17.5399208068848,25.4958534240723,35.7502212524414,0.36059200763702,-3.9047269821167,-5.23790550231934,-3.85572481155396,-4.11564922332764,-2.90497612953186,-14.3436622619629,-22.2804412841797,-22.2804412841797,5.80593919754028,3.65115761756897,3.65115761756897,-16.5350341796875,-13.9885206222534,-12.5392274856567,49.0739517211914,15.3181028366089,17.5710468292236,5.04882097244263,4.36811685562134,2.43466186523438,1.46314072608948,-0.28122982382774,-1.12491929531097,-48.1306381225586,-39.3965873718262,-29.082368850708,2.24576115608215,-0.30645781755447,-2.32955837249756,-4.23549127578735,-1.72572839260101,-0.38775625824928,-20.5063381195068,-14.9972791671753,-11.1785278320313,-0.16618125140667,0.27004453539848,0.30466562509537,-1.34116792678833,-1.44077014923096,-0.96246641874313,-13.4099235534668,-10.8792524337769,-9.03332328796387,8.78432559967041,7.94396114349365,7.73087739944458,1.12758243083954,1.05993819236755,0.8905611038208,-5.25766706466675,-4.74291372299194,-3.95282697677612,SWING_RIGHT
-0.16192018985748,-0.74035876989365,-0.35899412631989,0.58110177516937,-0.02130528911948,-0.05805691331625,2.03746557235718,2.32237553596497,1.71185421943665,6.54335308074951,7.85537576675415,10.3597106933594,0.40107205510139,0.72011876106262,0.39414784312248,0.60812723636627,0.64643448591232,2.08534979820251,-0.20399814844131,-0.32064458727837,0.46871635317802,-0.3627225458622,-0.89322423934937,-2.58007049560547,1.60890352725983,1.60890352725983,4.17788219451904,9.23682975769043,9.23682975769043,10.8816471099854,-1.68897676467896,-3.02375316619873,-3.99580693244934,21.5741519927979,23.3123416900635,29.1446170806885,-2.9752836227417,-1.38484382629395,-0.15446335077286,-1.37685430049896,-1.81361269950867,-2.85224556922913,-6.98628044128418,-24.672248840332,-31.5986747741699,8.2312650680542,17.659631729126,16.7139225006104,-16.9632720947266,-16.9169330596924,-16.0561981201172,46.7970657348633,46.7970657348633,30.7200012207031,-0.80054622888565,2.01281714439392,3.74014353752136,1.96594560146332,1.15954041481018,-0.05060006305575,-50.7834129333496,-51.5447692871094,-62.0361595153809,22.0314445495605,14.6357545852661,10.2759132385254,-7.55911636352539,-2.24451231956482,0.56725335121155,-26.6187343597412,-24.9356098175049,-24.9356098175049,0.88736528158188,1.0146644115448,0.3627225458622,-1.06526446342468,-1.17392146587372,-0.41598576307297,-9.73721790313721,-6.61039066314697,-4.4340615272522,11.1952867507935,8.19295787811279,6.30632734298706,0.63116919994354,0.32969933748245,0.3467435836792,-0.00957680679858,-0.05985504388809,-3.21062445640564,SWING_RIGHT
-1.15421402454376,-0.88523477315903,-0.78776305913925,-0.34461304545403,0.02183792181313,-1.20587933063507,-0.56503158807755,0.48123455047607,1.75255560874939,9.49779796600342,10.5344877243042,12.0452289581299,1.21440148353577,0.54914385080338,-0.09427590668201,6.23210716247559,7.65905141830444,9.41878986358643,-1.10467922687531,-1.56434082984924,-1.46686911582947,-1.96168446540833,-1.79603588581085,-1.11000561714172,2.78924489021301,-0.10055647045374,-2.3511061668396,12.392388343811,13.8049669265747,16.7498359680176,-4.67278242111206,-6.28719091415405,-7.55911636352539,27.3489665985107,30.2914390563965,31.3377056121826,3.14093232154846,3.92603206634521,0.55553543567657,-1.80082952976227,-2.57048320770264,-2.29244899749756,-14.1138191223145,-18.7346286773682,-36.4565086364746,17.1376953125,13.3404922485352,2.14520478248596,-15.6599197387695,-16.5131969451904,-15.8846912384033,45.8345985412598,34.1341323852539,27.492618560791,1.86794126033783,2.0548951625824,0.5821670293808,0.7664577960968,-1.06100344657898,-0.43729105591774,-54.3579559326172,-46.466667175293,-46.466667175293,14.9086942672729,6.3087215423584,6.3087215423584,-3.93615221977234,-0.83996105194092,0.8948221206665,-8.49702167510986,-12.2008514404297,-11.417947769165,0.9544769525528,0.17523600161076,0.07030745595694,-0.15446335077286,0.21837921440601,0.05166532471776,-6.02620553970337,-4.95120906829834,-3.91691398620605,3.99352836608887,5.85621738433838,8.31745624542236,1.64157247543335,1.99204456806183,2.07460260391235,-4.1156325340271,-4.948814868927,-4.948814868927,SWING_RIGHT
-0.49801114201546,-0.4516721367836,-0.51292484998703,0.40000680088997,0.22157500684261,-0.08202536404133,0.00478840339929,0.00478840339929,0.81163436174393,10.0915603637695,10.0915603637695,9.23682975769043,1.29003524780273,1.34542906284332,1.39070272445679,-1.16597628593445,0.66319388151169,1.24019646644592,0.12357068061829,0.41918155550957,1.13557195663452,-1.53770923614502,-3.48394751548767,-5.03603792190552,0.86909520626068,0.86909520626068,0.88585460186005,10.0556468963623,10.0556468963623,10.6206789016724,1.44396591186523,-2.35956072807312,-4.7564058303833,23.3913497924805,33.0543479919434,34.9553451538086,-2.66209578514099,-2.17260694503784,-1.19149827957153,-1.37685430049896,-1.47432601451874,-0.60453760623932,-5.832275390625,-13.9941091537476,-32.5108642578125,9.99339771270752,13.0220632553101,9.25119495391846,-17.4527606964111,-17.4527606964111,-13.8276653289795,48.8584747314453,35.2953224182129,24.5860576629639,2.17953109741211,2.63226842880249,2.11508250236511,2.23385953903198,1.28044784069061,0.04420847445726,-39.1284370422363,-43.8785362243652,-44.9990196228027,7.10838460922241,1.54186594486237,-1.25695586204529,-8.29361629486084,-5.07971334457397,0.57630807161331,-7.69257020950317,-15.9693250656128,-11.034875869751,2.12626791000366,1.35714685916901,0.65993130207062,-0.73290193080902,-0.23435817658901,0.60027652978897,-17.3914813995361,-7.67341661453247,-6.89051246643066,10.0652236938477,5.5832781791687,6.65588092803955,1.32252585887909,1.20161831378937,1.31932997703552,1.73100781440735,-2.75812029838562,-3.28245043754578,SWING_RIGHT
-0.78882831335068,-1.15261614322662,-1.5329155921936,-0.41545313596725,0.47351005673409,0.69401979446411,2.83234071731567,2.85388851165771,2.83473491668701,8.06606578826904,9.00698661804199,10.1633863449097,1.0018812417984,-0.33609092235565,-2.04850363731384,9.39484786987305,9.39484786987305,20.400993347168,-1.14356136322021,-2.34571242332459,-2.03465509414673,-0.31531828641891,-1.93771600723267,-2.06927609443665,3.67988801002502,3.91451978683472,0.99598789215088,8.80587387084961,13.1321964263916,22.3881797790527,-7.10797691345215,-8.9791145324707,-10.5658254623413,33.6289558410645,34.876335144043,36.8252182006836,2.99925208091736,2.20190167427063,0.59974390268326,-2.37500715255737,-1.81467795372009,-1.36407113075256,-16.7187099456787,-23.3147354125977,-37.1987113952637,16.0004501342773,9.73482418060303,6.08366632461548,-14.6415271759033,-13.5176734924316,-11.9048633575439,40.3710289001465,33.4709396362305,23.2524871826172,0.29880666732788,1.8322548866272,2.70736956596375,1.24902260303497,0.36432045698166,-2.19337940216064,-31.9410457611084,-32.3791847229004,-28.9746284484863,13.4793558120728,7.81706857681274,3.31357526779175,-0.46179214119911,0.47510793805122,-0.12357068061829,-8.15225696563721,0.59615623950958,6.52180528640747,0.41278997063637,1.82160222530365,2.0804615020752,-0.16937704384327,0.19014970958233,0.12623383104801,-10.3094329833984,-9.62469100952148,-7.00543403625488,18.3300075531006,13.4937210083008,7.92480754852295,0.33129724860191,0.29507824778557,-0.00213052891195,-7.22570085525513,-2.99993467330933,-3.49074602127075,SWING_RIGHT
-0.81972098350525,-1.27725207805634,-1.82000434398651,0.20612867176533,0.39095205068588,-0.02663161233068,-0.67995327711105,-0.67995327711105,0.217872351408,7.0317702293396,7.0317702293396,7.46033239364624,1.75235998630524,0.60080915689468,-0.82984101772308,9.02374649047852,10.5416698455811,14.5471696853638,0.59335231781006,0.24927188456059,-0.34514567255974,-2.9364013671875,-2.95664143562317,-2.32121133804321,5.24330186843872,4.29040956497192,1.84353530406952,15.4928789138794,13.8600339889526,14.6453313827515,-4.95454502105713,-6.36175918579102,-7.34233522415161,24.638729095459,29.7503509521484,29.7503509521484,2.11295199394226,1.32945001125336,0.10918960720301,-3.37262725830078,-3.75612258911133,-3.16969442367554,-14.30774974823,-19.1009407043457,-29.2786922454834,13.5583639144897,11.374852180481,9.55286502838135,-15.5225009918213,-16.0503387451172,-12.1173830032349,43.5696830749512,30.9498462677002,11.1928930282593,2.74998021125793,2.83626651763916,2.01707816123962,1.22771728038788,-0.47617322206497,-1.48231554031372,-40.4428558349609,-38.0845680236816,-38.0845680236816,5.02542924880981,1.62087452411652,1.62087452411652,-0.59654808044434,1.40614902973175,1.85941910743713,-18.7801189422607,-10.1011371612549,-2.81558108329773,1.03703498840332,0.79415464401245,0.09321063756943,-1.14569187164307,-0.75260931253433,-0.56192702054977,-8.66701030731201,-6.40448951721191,-4.75249052047729,8.4132251739502,6.44040250778198,5.81072759628296,1.31187319755554,1.28630685806274,1.32891738414764,-5.96635055541992,-0.68474167585373,-0.96725749969482,SWING_RIGHT
0.34461304545403,0.32490566372871,-0.08255799859762,1.1345067024231,0.89855057001114,-1.39443111419678,-1.15400516986847,0.01675941236317,1.1180921792984,9.08120727539062,8.21929454803467,8.22408294677734,0.33129724860191,0.64341974258423,0.44101947546005,3.42849683761597,4.57053089141846,10.7930612564087,0.17204020917416,0.84209156036377,0.94116115570068,-1.09402656555176,-1.32678687572479,-2.26315426826477,1.70706582069397,2.1284453868866,2.79403328895569,15.3875341415405,12.1290254592896,9.33978080749512,-4.17317342758179,-6.57374715805054,-9.43558025360107,30.2938346862793,37.4931983947754,39.8874015808105,-4.57957172393799,-4.03735208511353,-3.56863594055176,-1.57659137248993,-0.52038168907166,0.33502566814423,-12.6653270721436,-33.8827438354492,-33.8827438354492,-0.105344876647,15.9022874832153,15.9022874832153,-17.4527606964111,-15.7627182006836,-13.8777322769165,51.3771743774414,40.7804374694824,38.414966583252,4.53163480758667,0.54328489303589,-0.78137147426605,-0.27803403139114,-2.81602668762207,-2.65517163276672,-51.2383117675781,-41.692626953125,-30.0304718017578,-0.82121115922928,0.19153612852097,10.2471828460693,1.60269033908844,3.91431427001953,2.68020534515381,-19.1751613616943,8.19774627685547,12.5144920349121,1.25275099277496,0.86126631498337,0.52357745170593,0.75740301609039,0.20772656798363,-0.52890378236771,-6.48110389709473,-4.01747035980225,-3.7349545955658,8.34139919281006,6.88811826705933,5.89691877365112,-0.03249056637287,0.18588864803314,1.43278074264526,-3.40694904327393,-3.40694904327393,-6.15788698196411,SWING_RIGHT
-0.64075654745102,-0.82078623771667,-0.93370431661606,0.4452805519104,0.41598576307297,-0.02077265642583,1.00077629089355,0.98641109466553,0.78529816865921,9.4044246673584,8.76517200469971,9.9191780090332,2.1321268081665,2.51508927345276,2.37074613571167,1.17076468467712,2.58094954490662,6.28477954864502,0.80107885599136,-0.10226538777351,-0.96619486808777,-3.0738205909729,-2.86396360397339,-2.72441387176514,1.93690919876099,1.56341373920441,1.30244576931,9.85214042663574,7.22570085525513,8.97586250305176,-2.98433828353882,-3.73588252067566,-8.45873260498047,23.087287902832,27.8086528778076,45.2168922424316,-1.44556391239166,-2.07353734970093,-2.76808977127075,-1.1813782453537,-0.50387006998062,2.42720508575439,-20.7577285766602,-20.7577285766602,-54.4585113525391,9.2033109664917,9.2033109664917,8.87769985198975,-17.4527606964111,-17.4527606964111,-17.177921295166,48.8273506164551,38.1875152587891,26.61155128479,2.89964985847473,5.28797292709351,6.05975675582886,5.17398929595947,2.96622896194458,-0.30679616332054,-52.9549522399902,-52.0523376464844,-42.9471893310547,10.527304649353,7.91044235229492,2.25773215293884,-3.5191011428833,1.36247324943542,1.39176797866821,-24.5142307281494,-6.07408952713013,1.49637603759766,-0.68389976024628,-1.00347912311554,-0.72491246461868,-1.06526446342468,-0.34514567255974,-0.06498113274574,-7.49863958358765,-7.00782823562622,-7.44836139678955,5.50187540054321,8.19295787811279,10.9558668136597,-0.18216022849083,-0.06604639440775,-0.03834952041507,-3.36624765396118,-4.08690214157104,-4.01268196105957,SWING_RIGHT
-0.84635263681412,-1.0231865644455,-0.96726012229919,-0.06231797114015,0.15073491632938,0.20666129887104,0.63685762882233,0.66558808088303,0.88346040248871,7.48906278610229,8.58560752868652,9.27274322509766,-1.46953237056732,-1.22611939907074,-0.77764302492142,-1.45806884765625,-1.53707754611969,-0.88346040248871,-0.26045715808868,1.20481407642365,1.49989235401154,-2.30949330329895,-4.02510166168213,-3.09246277809143,-0.4525041282177,1.05344879627228,1.48440504074097,12.0811414718628,13.1178312301636,9.80425548553467,-3.55478739738464,-4.56465816497803,-8.00759315490723,23.7456932067871,26.2667865753174,40.5936889648438,-3.32522296905518,-4.04587459564209,-4.20193576812744,-2.7313380241394,-2.22959852218628,0.45273739099503,-18.7681465148926,-28.1294765472412,-40.2608947753906,9.60793113708496,12.1074781417847,13.8432741165161,-17.379789352417,-16.9313125610352,-15.8031978607178,40.8881759643555,40.8881759643555,32.6712760925293,3.20484805107117,3.895672082901,1.96115183830261,1.96274971961975,0.42717105150223,-0.94435691833496,-46.909595489502,-47.3884353637695,-44.1778106689453,10.6829280853271,5.66228723526001,1.93930339813232,-10.8640995025635,-8.27870273590088,-3.59686541557312,8.29830265045166,2.53067111968994,-12.3085908889771,2.0469057559967,3.13454055786133,2.72974014282227,-1.04981815814972,-0.25033715367317,-0.35260254144669,-23.9515933990479,-17.4465484619141,-3.90015459060669,17.0275630950928,13.4697790145874,5.35104084014893,1.92653071880341,1.23251092433929,0.95980328321457,2.89219570159912,0.92895025014877,-2.27449154853821,SWING_RIGHT
0.23276028037071,-0.06764429062605,-0.49481534957886,-0.08468852192163,1.09775507450104,0.94116115570068,0.72304892539978,1.61848032474518,1.06063139438629,8.9255838394165,8.56884765625,7.60159063339233,0.42504051327705,-0.20772656798363,-1.36460375785828,4.25449657440186,7.27837324142456,11.1809215545654,0.30306774377823,-0.19867181777954,-0.67484503984451,-2.79951500892639,-3.89833521842957,-4.7175235748291,2.35828876495361,2.8969841003418,1.23780226707459,9.09078407287598,9.18176364898682,9.86411094665527,-4.11032295227051,-6.93593692779541,-9.63425159454346,23.4320526123047,37.5674171447754,42.8250846862793,-2.98220777511597,-3.04079747200012,-4.17956495285034,-2.85011506080627,-2.03252458572388,1.53983974456787,-26.5516967773438,-35.5898094177246,-56.136848449707,15.0427694320679,14.9829139709473,6.54814147949219,-17.4527606964111,-17.4090843200684,-14.5648279190063,39.0039405822754,37.763744354248,28.8621006011963,1.06100344657898,1.64902937412262,1.75449061393738,0.87511473894119,-0.22530342638493,-1.20321619510651,-52.4138641357422,-50.6660957336426,-41.9871139526367,5.54257678985596,7.26879644393921,9.00698661804199,-1.00827276706696,1.80988430976868,3.35025668144226,-21.2844524383545,-21.2844524383545,-6.56250667572021,2.94492363929749,2.03145933151245,1.28524160385132,-0.31318774819374,-0.39414784312248,-0.57364493608475,-7.5465235710144,0.01197100803256,2.28406834602356,8.66222190856934,4.61841487884521,5.39413642883301,1.64050722122192,0.68869346380234,0.15499597787857,3.67509961128235,0.91219085454941,-0.19153612852097,SWING_RIGHT
-0.91293162107468,-0.69188928604126,-0.48149952292442,0.00266316113994,0.16937704384327,-0.06285060197115,1.86268889904022,1.6448165178299,0.70389527082443,10.5057573318481,10.886435508728,10.1226844787598,-1.01146864891052,-0.75793564319611,-0.97311908006668,-1.55623114109039,0.27293899655342,7.1227502822876,0.46605318784714,0.14381070435047,-0.55500280857086,-2.07140684127808,-2.04530763626099,-2.42134618759155,2.54982471466064,0.93373864889145,-1.13485157489777,9.68215179443359,7.97747993469238,5.97832155227661,-2.33346176147461,-2.46875047683716,-3.79500460624695,14.5663232803345,18.5957641601563,29.486988067627,-2.23013114929199,2.17260694503784,1.57019984722137,3.50312209129334,-0.41811630129814,-2.9156289100647,-15.7107515335083,-31.5914916992188,-44.9463500976563,15.3037376403809,11.5161104202271,5.38216543197632,-17.4527606964111,-17.4527606964111,-17.4527606964111,51.6956024169922,42.3079376220703,27.054479598999,-1.81467795372009,-1.29482889175415,-1.04928553104401,0.20932446420193,-0.4932174384594,0.03462109342217,-49.002124786377,-49.002124786377,-44.0916175842285,12.5288572311401,12.5288572311401,10.965443611145,-10.9429292678833,-8.98337554931641,-6.06401777267456,16.1560726165771,4.26167917251587,4.26167917251587,2.31481957435608,2.31801557540894,1.91321492195129,0.37390783429146,0.29348036646843,0.42504051327705,-30.224401473999,-30.224401473999,-20.0298919677734,9.92396640777588,9.92396640777588,4.57771348953247,3.50738310813904,3.49033904075623,3.38221454620361,-2.28406834602356,-1.64242231845856,-1.11569797992706,SWING_RIGHT
0.2418150305748,-0.01757686398923,-0.2306297570467,-0.01438106968999,-0.00745685119182,-0.18322548270226,2.45405673980713,2.83234071731567,2.34392356872559,8.76277828216553,9.35893440246582,9.01656341552734,-0.50120693445206,-0.06551376730204,0.21411815285683,0.86909520626068,1.21386027336121,1.58017313480377,-1.43757438659668,-1.23996782302856,-0.70680296421051,-0.78509992361069,-2.12307214736938,-3.01949214935303,1.63284552097321,2.08056116104126,2.6431987285614,9.59117221832275,11.2192287445068,13.5727291107178,-4.50340557098389,-7.26670169830322,-10.1626224517822,37.5123519897461,43.2488594055176,44.7572059631348,-1.53025233745575,-5.62885761260986,-7.71304750442505,-3.3177661895752,-1.13823509216309,1.31773209571838,-16.5439338684082,-51.9757232666016,-58.313175201416,2.97359848022461,-3.07415509223938,-1.01753568649292,-17.4527606964111,-15.8671140670776,-11.3615779876709,35.4437637329102,22.72336769104,34.3256683349609,3.94520688056946,3.55159163475037,1.68418312072754,2.24504494667053,0.67271453142166,0.14487597346306,-43.6846046447754,-40.6056594848633,-33.0304069519043,3.18428826332092,-1.5179238319397,-2.67432332038879,-0.43143209815025,1.73158740997314,3.03653621673584,-15.0978355407715,-10.9008007049561,-7.94874954223633,0.49481534957886,-0.81652522087097,-2.02240467071533,-0.61891865730286,-0.08788431435823,-0.01118527725339,-3.57933163642883,-2.14281058311462,-1.83156430721283,3.15795207023621,2.29603934288025,4.18027639389038,1.66021466255188,1.06632971763611,1.01786017417908,5.93522596359253,1.8674772977829,-0.42137950658798,SWING_RIGHT
-0.10333064943552,0.05166532471776,0.06178534030914,0.17150758206844,0.25885927677155,-0.38349521160126,-0.73980832099915,-0.83078801631927,-1.25935006141663,10.5296993255615,9.96466732025146,9.27513694763184,2.75104546546936,3.01096987724304,3.03334045410156,2.15478157997131,4.15633392333984,6.19858837127686,-0.15393070876598,-0.84049367904663,-1.47592389583588,-2.65091061592102,-3.2533175945282,-2.49857783317566,-1.7980455160141,-1.1180921792984,-3.62242722511292,7.35738182067871,5.16429328918457,5.62158536911011,-2.9156289100647,-7.91811084747314,-11.1368074417114,32.2044067382813,40.1818885803223,43.6941795349121,-1.36513638496399,-2.38139867782593,-4.1859564781189,-1.49137020111084,-0.37657099962234,0.6593986749649,-30.2363739013672,-59.7473030090332,-71.9601287841797,7.00543403625488,1.8171991109848,-4.29040956497192,-17.4527606964111,-17.4527606964111,-12.3751773834229,31.902738571167,20.9013805389404,14.209587097168,1.09349393844604,2.7526433467865,2.99552369117737,2.32813549041748,-0.16032229363918,-0.89748531579971,-41.4915161132813,-41.4915161132813,-20.592529296875,8.38928318023682,8.38928318023682,3.51468801498413,3.29965662956238,4.65147733688354,4.62484550476074,-14.3460569381714,-4.97993946075439,4.87698888778687,-0.29081720113754,-0.60613548755646,-0.76166409254074,0.53636068105698,0.56885123252869,0.35686358809471,-2.15478157997131,-0.61770403385162,-0.23942017555237,6.17464637756348,7.6375036239624,8.00621032714844,0.48469531536102,-0.04474110901356,0.26791399717331,0.7781155705452,-2.42293214797974,-4.01986455917358,SWING_RIGHT
2.12893104553223,1.46207547187805,0.58003652095795,-0.53209960460663,-0.44581317901611,-0.4900216460228,-1.45328044891357,-0.07661445438862,0.57221418619156,6.892906665802,4.98472785949707,5.15950489044189,2.24983859062195,2.32920074462891,2.15503001213074,2.98796367645264,2.99275207519531,5.10922622680664,-0.1416801661253,-0.07829693704844,-0.01118527725339,0.07030745595694,-0.41278997063637,-0.4612595140934,0.39743748307228,1.18273568153381,2.1978771686554,8.7077112197876,9.76834297180176,9.69651699066162,-0.4996090233326,-4.30526638031006,-6.26801586151123,20.9205341339111,33.758243560791,36.2170906066895,-2.98007726669312,-4.53216743469238,-4.36492109298706,-1.83811378479004,-1.89350759983063,2.42400932312012,-8.19056415557861,-17.2813472747803,-40.4500389099121,4.51307010650635,5.29118585586548,9.29429054260254,-17.4527606964111,-17.4527606964111,-17.4527606964111,44.3047027587891,35.8340187072754,31.5890979766846,0.59654808044434,2.78832960128784,2.74891495704651,4.01072072982788,1.47805440425873,-0.75207668542862,-49.6509552001953,-42.4180717468262,-43.4739151000977,5.48511600494385,0.81163436174393,-1.75734400749207,-11.5874137878418,-6.73566722869873,3.28474283218384,12.0811414718628,-15.7083578109741,-21.6986503601074,2.91243290901184,3.36783361434937,2.81655931472778,3.01789426803589,2.72121810913086,1.4514228105545,-21.6866798400879,-8.44434928894043,-1.97042798995972,14.4130945205688,5.26484966278076,2.71981310844421,4.34894227981567,3.00244784355164,1.60748410224915,9.4020299911499,6.86896467208862,2.38223075866699,SWING_RIGHT
0.09374327212572,0.1416801661253,0.10333064943552,-0.39947417378426,-0.2210423797369,-0.03036003746092,0.80205756425858,0.51954174041748,0.62967503070831,10.2088756561279,9.91678333282471,9.36851119995117,-0.24394555389881,-0.29667615890503,-0.18322548270226,0.50996494293213,0.50996494293213,0.66558808088303,-0.32810145616531,-0.82984101772308,-1.91481280326843,-0.09800432622433,0.11238539963961,-1.6650083065033,0.06224924325943,-0.52193599939346,-1.76452660560608,8.32942771911621,6.98628044128418,7.5776481628418,0.60453760623932,-0.56618803739548,-6.26002645492554,15.8400382995605,15.8400382995605,35.4796752929688,-1.92599809169769,-2.49378418922424,-5.45149087905884,-2.27487230300903,-1.77899169921875,1.43704175949097,-22.2229804992676,-35.9226036071777,-72.8483734130859,8.27675533294678,4.19942998886108,-1.74776721000671,-17.4527606964111,-17.4527606964111,-17.3515605926514,40.708610534668,30.2124309539795,30.2124309539795,1.1685950756073,2.37873554229736,2.18965101242065,2.53799247741699,-0.34248253703117,0.46818372607231,-57.0945281982422,-40.9600028991699,-34.4956588745117,8.17859268188477,6.44519090652466,5.70298862457275,2.91296553611755,4.2168493270874,4.89648818969727,-12.0212869644165,-7.67820501327515,-4.6112322807312,0.85700523853302,-0.86765789985657,-1.34170055389404,0.40639838576317,-0.22636869549751,-0.63915866613388,-4.43645572662354,0.45010992884636,1.70227742195129,1.97521638870239,4.90332508087158,8.40125370025635,1.92333495616913,0.6743124127388,0.49588060379028,2.3247697353363,0.35194763541222,-0.85712420940399,SWING_RIGHT
0.39840891957283,0.6615292429924,0.52411013841629,-0.77444726228714,-1.67353045940399,-1.75981688499451,0.23463176190853,0.96965169906616,1.12288057804108,10.2423944473267,9.19612884521484,9.21288776397705,1.29163312911987,1.50734925270081,1.34116792678833,0.73501992225647,2.54982471466064,3.67988801002502,-0.00479369005188,-0.01384843792766,0.01065264455974,-0.4900216460228,-0.9161274433136,-2.13851833343506,2.41574954986572,2.74375510215759,3.12682747840881,8.8872766494751,8.60236644744873,8.70531749725342,-1.00667488574982,-2.30789542198181,-8.10932540893555,22.2493171691895,22.2493171691895,52.014030456543,-4.37184524536133,-4.54388570785522,-5.10208415985107,-1.70016205310822,-1.5968314409256,-1.21386885643005,-22.4695835113525,-22.4695835113525,-48.1833076477051,4.66390514373779,4.66390514373779,8.91840171813965,-17.4527606964111,-17.4527606964111,-16.4881629943848,51.3532333374023,31.7088069915771,30.2579212188721,-0.35260254144669,0.92837798595428,1.97979402542114,2.24078369140625,2.60350632667542,1.82905912399292,-43.6606636047363,-40.9504241943359,-43.4308204650879,12.2990140914917,10.1514148712158,7.7763671875,-11.1554489135742,-9.15861129760742,-6.64192390441895,9.44033718109131,-2.50433492660522,-11.6549739837646,0.98750013113022,1.51001238822937,2.24664282798767,0.3531351685524,0.9225190281868,0.86446207761765,-26.8844909667969,-21.4879608154297,-16.3571853637695,10.596736907959,11.66455078125,10.8912239074707,2.69352126121521,3.05091738700867,3.02641630172729,-6.67503452301025,-3.15076947212219,-0.60573303699493,SWING_RIGHT
0.44421526789665,0.43516051769257,0.3371562063694,-0.1097222417593,-0.01171790901572,0.13262543082237,1.6136919260025,1.65439331531525,1.81241071224213,9.40921306610107,8.54490566253662,7.9343843460083,0.86925578117371,0.83356940746307,0.95341169834137,-0.12928688526154,2.70544791221619,1.80522811412811,0.30519825220108,-0.82984101772308,-2.46608710289001,0.38136467337608,-0.22210763394833,-0.08681905269623,2.56658411026001,2.73417830467224,2.166752576828,5.71495962142944,3.66312861442566,3.26090264320374,0.55180698633194,-2.1875205039978,-4.35639905929565,11.0683946609497,22.6683025360107,31.6681060791016,-2.02133941650391,0.36485308408737,-0.23489081859589,-1.37738692760468,-0.44581317901611,-0.04261057823896,-2.03507137298584,-15.2031812667847,-34.0287895202637,20.0562267303467,14.3963346481323,2.03746557235718,-15.9342260360718,-15.2902736663818,-13.1938333511353,46.691722869873,35.9968223571777,33.2698249816895,-0.99921804666519,1.72413051128387,2.22480487823486,4.91299962997437,0.42983421683311,0.12623383104801,-45.5161666870117,-33.8348579406738,-25.5078258514404,0.23463176190853,6.90727186203003,5.73650741577148,-1.7251957654953,1.18723726272583,1.69590103626251,-6.8043212890625,-5.99268674850464,-0.19153612852097,0.94275903701782,0.48789110779762,0.55393749475479,-0.21358552575111,-0.15765914320946,-0.19547602534294,-5.13556241989136,-4.81473970413208,-4.42927312850952,6.49786329269409,8.06606578826904,9.18655204772949,-0.09267801046371,-0.04580637067556,0.05805691331625,-3.0693666934967,-2.65038132667542,-4.08211374282837,SWING_RIGHT
-1.02212119102478,-1.00987064838409,-0.90281164646149,0.59122174978256,0.54275226593018,0.59654808044434,-0.24899697303772,-0.37349545955658,-0.37349545955658,8.66701030731201,8.90164184570313,8.90164184570313,1.51480603218079,1.6650083065033,1.63251781463623,-0.49799394607544,2.68629431724548,3.75171399116516,0.03249056637287,1.06153607368469,1.66394305229187,-1.40455114841461,-1.28204572200775,-2.26262164115906,-0.20111294090748,0.44771572947502,1.11330378055573,12.0739593505859,12.2247934341431,8.82742214202881,-0.01917476020753,-2.51988315582275,-4.16465139389038,25.5413436889648,28.8764667510986,36.494815826416,-0.6743124127388,-1.20960783958435,-2.46182608604431,-1.2245215177536,-2.45596718788147,-1.08390653133392,-9.28710842132568,-12.4378776550293,-28.2587623596191,8.71249961853027,10.2926731109619,10.3908357620239,-17.4298572540283,-14.715030670166,-13.5160751342773,55.7489852905273,30.2148246765137,31.864429473877,3.13027954101563,1.36726689338684,0.06817692518234,1.16486668586731,0.264185577631,-0.2833603322506,-51.0946578979492,-49.3085823059082,-39.1068916320801,-2.61686253547669,-2.17872357368469,2.30082774162292,-4.2472095489502,-0.98963069915771,-0.30626353621483,-13.5176630020142,-5.17387008666992,-6.57208347320557,3.24053454399109,2.4911208152771,0.46285739541054,-1.02052330970764,-0.85061365365982,-0.84635263681412,-17.0084095001221,-7.75242519378662,-4.21140098571777,7.80509757995605,1.04626619815826,4.16112232208252,1.16060566902161,1.56647133827209,1.79656851291656,-6.66066932678223,-5.96395635604858,-4.41251373291016,SWING_RIGHT
-1.40774703025818,-0.81066626310349,1.0189254283905,-0.13102753460407,-0.89961582422256,-2.39311671257019,-0.09337386488914,0.19393034279346,1.28329205513,12.0021333694458,14.111424446106,16.2590236663818,-1.13397395610809,-2.39631247520447,-2.57953786849976,20.0155258178711,16.3404273986816,17.6452655792236,-3.30711340904236,-3.77210140228271,-2.87727928161621,-0.61039650440216,-0.88576740026474,-0.94755274057388,2.38701915740967,-0.0526724383235,-4.49391651153564,4.69024133682251,11.1162786483765,17.3148670196533,-6.62647771835327,-9.78871536254883,-11.1298828125,40.8522644042969,38.2282180786133,41.4316596984863,-0.85700523853302,-2.10336470603943,-1.86048436164856,0.45540055632591,3.18087959289551,3.82429933547974,-44.9439544677734,-51.3580207824707,-55.5813941955566,3.31118106842041,2.84910011291504,4.42687892913818,-15.5336866378784,-15.6055917739868,-12.3544044494629,29.2978458404541,21.7130146026611,-2.02310037612915,-1.18563938140869,-1.3741911649704,-0.68496507406235,-1.47911965847015,-0.47777110338211,-0.47457531094551,-39.6886825561523,-34.601001739502,-27.3178405761719,4.77643251419067,8.12592029571533,11.6046953201294,1.49935972690582,3.17395544052124,3.20111966133118,-16.7594127655029,-2.70784211158752,0.2537853717804,0.92944324016571,1.26074051856995,1.21067309379578,-0.25353294610977,-0.79575252532959,-0.99016332626343,-5.13556241989136,-3.82593441009521,-3.38061285018921,9.14345645904541,8.76517200469971,7.53215837478638,2.55823254585266,2.45170617103577,2.46395659446716,-0.50278234481812,-1.15639936923981,-0.0454898327589,SWING_RIGHT
-1.53877449035645,-1.83438539505005,-1.5536881685257,0.11025486886501,-0.45060685276985,-0.75260931253433,-2.06859016418457,-3.21541285514832,-3.33033466339111,7.24485445022583,9.12909126281738,12.4259071350098,1.79443800449371,1.72200000286102,1.58777666091919,3.64876341819763,4.42448472976685,7.52258157730103,1.80562329292297,1.16007304191589,0.72171664237976,-2.43306398391724,-1.76780641078949,-2.52627468109131,1.7980455160141,0.6703764796257,0.43813890218735,12.3468980789185,7.5968017578125,6.72052431106567,-0.14753912389278,-0.86659264564514,-3.75772047042847,16.5702705383301,29.1781368255615,38.9201431274414,-2.28659009933472,-2.60563683509827,-2.91722679138184,-0.75473988056183,-0.62264704704285,-1.26500153541565,-11.9805850982666,-20.6044998168945,-29.4486808776855,4.54419469833374,4.95120906829834,6.68221712112427,-17.4527606964111,-17.449031829834,-16.6074733734131,40.792407989502,30.6936664581299,30.6936664581299,-2.60403895378113,0.37390783429146,1.4769891500473,4.06664705276489,4.02030801773071,2.86502885818481,-50.9150924682617,-48.1521835327149,-52.2845764160156,7.46751499176025,2.00873517990112,1.721431016922,-12.9994220733643,-10.4406566619873,-6.74046087265015,4.61602067947388,-10.8720703125,-18.3874683380127,0.93636745214462,0.74461984634399,0.82185155153275,-0.79948097467422,0.16990968585014,0.27909928560257,-26.3769207000732,-22.4719772338867,-17.822437286377,6.17704057693481,7.37892961502075,8.13549709320068,2.37021350860596,3.36783361434937,3.95532703399658,-9.28950214385986,-5.7819972038269,-2.70544791221619,SWING_RIGHT
-0.10599381476641,-0.93476957082748,-1.13983297348022,-0.51931643486023,0.1368864774704,-0.33555829524994,4.35744714736938,4.73094272613525,7.1012020111084,4.46758031845093,4.92726707458496,8.927978515625,2.24451231956482,3.26503562927246,4.29301595687866,0.76853877305984,0.42616790533066,7.68299341201782,-4.15559673309326,-2.71003270149231,-0.19228023290634,-1.63251781463623,3.04292798042297,1.92759609222412,-12.5384340286255,-11.4227361679077,-7.34301662445068,17.9924259185791,20.3531093597412,23.8342781066895,-4.90074920654297,-10.1700801849365,-14.1291351318359,26.2356624603271,50.4649848937988,58.7584991455078,-1.08443915843964,1.93452024459839,2.63226842880249,3.83921313285828,2.7526433467865,2.15023636817932,-56.1631851196289,-52.5407562255859,-51.9182624816895,3.32794046401978,18.3084602355957,9.59835433959961,-15.3856143951416,-14.6585712432861,-5.58251857757568,44.0509185791016,44.0509185791016,-24.7704105377197,1.49722921848297,2.57793998718262,2.79791712760925,0.74355459213257,-0.21891184151173,-0.00585895450786,-34.8476066589355,-19.986795425415,-9.05965900421143,5.5832781791687,6.82586908340454,4.61362648010254,3.75186133384705,3.16277027130127,2.56249356269836,-2.06140756607056,-1.37427175045013,-1.10133278369904,0.54488277435303,-0.34248253703117,-1.09882032871246,-1.02638232707977,-0.75793564319611,-0.32490566372871,2.36547136306763,2.79642748832703,2.43490314483643,5.05894804000854,4.79558610916138,6.89051246643066,1.14356136322021,0.91772532463074,0.64501762390137,-2.08056116104126,-2.11168599128723,-2.05183076858521,SWING_RIGHT
-0.26525086164474,0.15073491632938,0.33928671479225,0.98643487691879,0.93423694372177,-0.48576059937477,1.44130945205688,1.24259066581726,1.944091796875,10.4530849456787,9.65581512451172,8.30069732666016,2.24717545509338,2.38725757598877,2.24238157272339,6.72770690917969,8.76277828216553,15.5766763687134,-1.05035078525543,-0.94648748636246,-0.02822950854897,0.87884318828583,-0.60720074176788,-1.20854246616364,3.67749381065369,2.13562798500061,1.76931500434875,9.6989107131958,11.580753326416,15.375563621521,-5.82433319091797,-7.31090974807739,-9.30615043640137,39.240966796875,45.9183959960938,49.7730598449707,3.97450160980225,-0.99762016534805,-2.86715936660767,-2.32014608383179,-2.23705530166626,0.43196472525597,-31.0551910400391,-52.3803443908691,-52.4378051757813,10.1657800674438,4.3837833404541,21.9404640197754,-15.8250360488892,-13.0803823471069,-7.86751079559326,31.9530162811279,17.2597999572754,-3.34948825836182,1.88818120956421,2.08791828155518,2.76169800758362,-0.92198640108109,-0.26791399717331,0.24607609212399,-32.8340835571289,-28.7926692962646,-18.7226581573486,11.5328693389893,11.063606262207,10.6685628890991,1.25861001014709,2.28552484512329,2.53639459609985,-11.7675008773804,-6.87854146957397,-3.27287364006042,0.10865697264671,-0.26471820473671,-0.54275226593018,-0.04846953228116,-0.34621095657349,-0.42131209373474,-1.07260239124298,0.02394201606512,0.75656771659851,5.74129581451416,6.40688371658325,7.54173517227173,1.08124339580536,1.2069445848465,1.41094279289246,-3.68228220939636,-3.79241538047791,-2.93050289154053,SWING_RIGHT
-0.95873802900314,-0.55180698633194,-0.71053141355515,-0.9997506737709,-0.64555025100708,-1.0317085981369,0.33279404044151,1.36948335170746,1.12766897678375,10.7068700790405,8.68855762481689,5.40850162506104,3.20111966133118,3.56544017791748,1.54995977878571,5.88494777679443,12.3828115463257,30.4135437011719,-1.54995977878571,-0.08202536404133,1.82746112346649,-0.64182186126709,-1.82426536083221,0.20612867176533,-4.43645572662354,-8.30309104919434,-22.4767646789551,20.3938102722168,25.2947406768799,31.3568592071533,-13.3818521499634,-16.637300491333,-17.4527606964111,45.8441734313965,45.4946212768555,50.9845237731934,1.45515120029449,1.75821900367737,5.50848245620728,3.94733738899231,4.35959482192993,3.90952062606812,-61.5501365661621,-60.3219108581543,-60.4966888427734,9.44033718109131,14.7195520401001,16.1728324890137,-15.5081195831299,-14.6575059890747,-11.2545185089111,41.2832183837891,15.0523462295532,-8.54490566253662,4.7952880859375,3.27462291717529,3.72629499435425,0.40799629688263,0.71212929487228,0.58536279201508,-43.394905090332,-25.1391181945801,-17.5447101593018,3.39976644515991,10.1155023574829,9.33738708496094,2.58273363113403,2.21468472480774,1.40987753868103,-4.86980628967285,0.55784898996353,0.2777273952961,3.07861423492432,2.27433967590332,0.17736652493477,-0.41918155550957,-0.39361521601677,-0.37124466896057,2.57137250900269,2.57137250900269,3.77805018424988,2.99754047393799,2.99754047393799,2.73896670341492,0.33236250281334,0.28069719672203,0.29614353179932,-5.31991624832153,-5.4946928024292,-6.27520275115967,SWING_RIGHT
-0.11824435740709,0.21997711062431,0.55500280857086,0.83090627193451,0.13741911947727,-0.10120012611151,-1.66397023200989,-1.4676456451416,-1.10133278369904,12.3205623626709,11.1904983520508,10.1633863449097,3.48714327812195,3.69327187538147,3.97769737243652,-0.09097966551781,-0.23463176190853,3.72537779808044,-0.70041137933731,0.20399814844131,1.03703498840332,-1.22984778881073,-0.58749336004257,-0.43516051769257,-1.16837048530579,-1.16358196735382,-1.16358196735382,11.1067018508911,12.2271881103516,12.2271881103516,-2.72494649887085,-7.11756467819214,-9.9314603805542,30.4398803710938,41.6112251281738,47.7427749633789,-1.19469404220581,-2.65091061592102,-2.90817189216614,-2.6929886341095,-0.32064458727837,0.4261057972908,-19.3212070465088,-40.792407989502,-57.0274887084961,9.897629737854,16.5487213134766,18.5574569702148,-17.4527606964111,-15.4623136520386,-14.8529825210571,37.1963157653809,32.5108642578125,30.3297462463379,3.8269624710083,3.36996412277222,3.18194484710693,0.03462109342217,-0.46711847186089,-1.39869225025177,-53.9006614685059,-49.8496742248535,-44.6422843933105,6.6056022644043,9.105149269104,11.2000751495361,-7.11809730529785,-3.20538067817688,-0.04793690145016,-17.6165351867676,-19.3188133239746,-17.3412036895752,2.63173580169678,2.29138374328613,1.53344821929932,-0.10279802232981,0.27643612027168,0.54168695211411,-17.8296203613281,-6.63193893432617,-2.17154097557068,12.7539129257202,5.84903478622437,4.78600931167603,3.14998698234558,2.34517979621887,1.94836866855621,2.72699570655823,0.83318221569061,-1.55862534046173,SWING_RIGHT
-0.93104112148285,-0.78829568624496,-0.73343455791473,0.85434210300446,0.84635263681412,0.89535474777222,0.96486330032349,0.34715923666954,0.00239420169964,9.2631664276123,9.62947940826416,9.31583881378174,0.7984157204628,1.85142958164215,2.39471459388733,-1.67833542823792,-0.3256114423275,-0.3256114423275,0.39787626266479,0.92518216371536,1.9222697019577,-0.29720878601074,-1.29962265491486,-6.43792581558228,3.28963303565979,3.28963303565979,3.11006808280945,14.4825258255005,14.4825258255005,14.3819694519043,-0.34301516413689,-3.60059380531311,-7.02115821838379,35.9297866821289,41.7141761779785,45.6047554016113,-3.81417942047119,-4.5902247428894,-3.73481726646423,-1.34436368942261,-0.27483823895454,0.804807305336,-26.4607162475586,-26.4607162475586,-64.7918853759766,11.3820352554321,11.3820352554321,26.5301494598389,-17.4527606964111,-17.4527606964111,-17.4527606964111,48.1904907226563,51.9230537414551,48.5352554321289,2.52947044372559,-0.9827064871788,-1.64636623859406,-3.27835130691528,-1.21067309379578,0.07190535217524,-78.4508056640625,-66.7335815429688,-51.9829063415527,3.33512306213379,8.59757804870605,20.6260471343994,-2.41069340705872,0.19494339823723,2.54598212242126,-20.3195896148682,-18.9525012969971,-15.5479459762573,4.36971473693848,4.87837839126587,4.7217845916748,0.37657099962234,0.29987195134163,0.06072007492185,-16.5152034759521,-10.1250791549683,-5.02064085006714,9.86650562286377,5.55694198608398,1.25216746330261,2.59764742851257,1.30068790912628,0.54594802856445,6.25604915618896,3.7038300037384,-0.1508347094059,SWING_RIGHT
1.18776988983154,0.50653326511383,-0.39787626266479,-0.41811630129814,-0.39361521601677,-0.40266996622086,-1.62566292285919,-1.72382521629334,-1.72382521629334,7.99184513092041,5.48272180557251,5.48272180557251,2.15183424949646,2.09697318077087,2.00482773780823,5.42286682128906,3.96719217300415,5.41329002380371,-1.25168573856354,-0.81279677152634,-0.20346550643444,-0.60826599597931,-1.15900778770447,-1.19469404220581,-1.13245737552643,-1.13245737552643,2.66474652290344,11.954249382019,11.954249382019,12.3468980789185,-3.12122488021851,-5.33750772476196,-10.6430568695068,31.8859786987305,32.1852531433105,46.3996276855469,-1.26340365409851,-0.52677327394485,1.92386758327484,-0.25672873854637,1.33530902862549,0.43995422124863,-33.8109169006348,-46.6893272399902,-59.3785972595215,14.7027921676636,23.250093460083,31.4933300018311,-17.4527606964111,-17.4527606964111,-17.4527606964111,40.1675224304199,35.5802307128906,29.8197822570801,1.8450380563736,-1.1813782453537,-2.1832594871521,-4.65094470977783,-3.63361716270447,-2.31109118461609,-57.4105644226074,-42.8562088012695,-34.1054039001465,6.91924285888672,4.34308195114136,21.3395195007324,-7.02382135391235,-5.40248870849609,-3.37955141067505,-1.77170920372009,-5.11640882492065,-10.0388879776001,3.50365471839905,4.23176288604736,4.40859699249268,0.83889573812485,1.68844413757324,2.03838348388672,-21.0953121185303,-16.3116970062256,-11.8656635284424,22.0793285369873,15.9262294769287,10.3046445846558,3.20431542396545,2.85916972160339,1.36407113075256,-1.86987149715424,0.26096799969673,-0.651222884655,SWING_RIGHT
0.28549087047577,0.19387812912464,0.01225054077804,-0.51505535840988,-0.51239222288132,-0.18961706757545,-1.8866308927536,-1.93690919876099,-2.11168599128723,9.19852256774902,8.50181007385254,8.32224464416504,1.76993691921234,2.39258408546448,2.27593755722046,-0.75896191596985,2.05183076858521,5.31033945083618,-0.43143209815025,-0.30466562509537,0.46339005231857,-0.04633900523186,0.58696073293686,0.50387006998062,-0.54108959436417,1.13963997364044,2.41574954986572,10.3261919021606,12.1840925216675,14.8488388061523,-0.84528732299805,-2.22853326797485,-4.09807252883911,14.4202766418457,19.5510501861572,27.0042018890381,0.40000680088997,-0.93263900279999,2.04743838310242,-1.07165598869324,2.10336470603943,0.93370431661606,-2.00873517990112,-21.6411895751953,-25.380931854248,12.5456171035767,26.1758079528809,40.2968101501465,-15.2854795455933,-16.5004138946533,-15.3968000411987,45.2288627624512,39.3606758117676,36.2937049865723,5.59636688232422,5.28744029998779,3.68581509590149,0.53050172328949,0.20026971399784,-0.20399814844131,-48.3125953674316,-47.7643241882324,-51.4992790222168,17.0922050476074,13.417106628418,9.93114852905273,-10.8262825012207,-7.33061742782593,-3.71990346908569,-5.63834476470947,-5.63834476470947,-22.8263187408447,0.5757754445076,1.56434082984924,2.17154169082642,0.04261057823896,-0.388288885355,-0.37603834271431,-31.8356990814209,-21.2269916534424,-14.7818012237549,8.02297019958496,12.6102600097656,9.20091724395752,2.99179530143738,3.13720393180847,1.88498544692993,-8.51617527008057,-8.51617527008057,-1.18512988090515,SWING_RIGHT
