gyro_x_0,gyro_y_0,gyro_z_0,acc_x_0,acc_y_0,acc_z_0,gyro_x_1,gyro_y_1,gyro_z_1,acc_x_1,acc_y_1,acc_z_1,gyro_x_2,gyro_y_2,gyro_z_2,acc_x_2,acc_y_2,acc_z_2,gyro_x_3,gyro_y_3,gyro_z_3,acc_x_3,acc_y_3,acc_z_3,gyro_x_4,gyro_y_4,gyro_z_4,acc_x_4,acc_y_4,acc_z_4,gyro_x_5,gyro_y_5,gyro_z_5,acc_x_5,acc_y_5,acc_z_5,gyro_x_6,gyro_y_6,gyro_z_6,acc_x_6,acc_y_6,acc_z_6,gyro_x_7,gyro_y_7,gyro_z_7,acc_x_7,acc_y_7,acc_z_7,gyro_x_8,gyro_y_8,gyro_z_8,acc_x_8,acc_y_8,acc_z_8,gyro_x_9,gyro_y_9,gyro_z_9,acc_x_9,acc_y_9,acc_z_9,gyro_x_10,gyro_y_10,gyro_z_10,acc_x_10,acc_y_10,acc_z_10,gyro_x_11,gyro_y_11,gyro_z_11,acc_x_11,acc_y_11,acc_z_11,gyro_x_12,gyro_y_12,gyro_z_12,acc_x_12,acc_y_12,acc_z_12,gyro_x_13,gyro_y_13,gyro_z_13,acc_x_13,acc_y_13,acc_z_13,gyro_x_14,gyro_y_14,gyro_z_14,acc_x_14,acc_y_14,acc_z_14,motion_type
-0.26939156651497,-0.25717425346375,-0.21258109807968,-0.63636887073517,-0.67851859331131,-0.7567093372345,0.11731588095427,-0.03591302409768,-0.02873042039573,10.2762126922607,10.518027305603,10.5635175704956,1.28136622905731,1.13414764404297,0.85376054048538,3.5506010055542,5.29866743087769,7.08953046798706,0.13988813757896,0.5583308339119,1.18935465812683,-1.08107876777649,-0.55939984321594,-0.61987549066544,-1.54186594486237,-3.24893164634705,-4.56574249267578,12.9026517868042,12.2897367477417,7.89637660980225,-3.84623670578003,-7.73744821548462,-11.7270088195801,29.2556476593018,31.2069225311279,32.7272415161133,-0.47952923178673,0.46181413531303,0.31215214729309,1.45523369312286,1.99035167694092,2.53279995918274,-21.5962982177734,-37.0299224853516,-50.8375816345215,12.2059392929077,6.71842908859253,-4.11802673339844,-17.7464752197266,-12.4411106109619,-6.83947658538818,-4.85304689407349,-28.7576541900635,-27.0697422027588,1.56014978885651,0.94012159109116,1.05740773677826,1.83580279350281,1.43812954425812,1.39048206806183,-16.7911357879639,-9.56752967834473,-6.79025506973267,7.50133323669434,10.503662109375,8.55238819122314,1.0333548784256,1.75967371463776,2.06205201148987,-10.5371809005737,-7.676109790802,-6.14860916137695,-0.16126842796803,-0.81794857978821,-0.93034774065018,0.65988719463348,0.68737614154816,0.37400224804878,3.21780705451965,3.61045622825623,3.57933163642883,4.01986455917358,5.99298620223999,7.39359426498413,1.41392397880554,1.29175090789795,1.38887846469879,-3.1004912853241,-3.63200402259827,-3.56257224082947,SWING_RIGHT
-0.07819075137377,-0.01343903504312,-0.0745255574584,1.31778907775879,1.39720153808594,1.36910176277161,0.53151279687881,0.4955997467041,0.64404028654099,9.88356399536133,9.32571506500244,9.3927526473999,-0.03382666409016,-0.05337435007095,-0.17982345819473,2.22660756111145,3.0693666934967,4.69742393493652,0.22540926933289,0.33536502718925,0.58826321363449,0.66477411985397,0.51938819885254,-0.02000583708286,1.93930339813232,2.34152936935425,1.2449848651886,10.0439758300781,10.8244848251343,10.4797201156616,-3.65809011459351,-5.94272613525391,-8.56639194488525,20.3704662322998,25.0753726959229,30.0026397705078,-0.0745255574584,1.09955739974976,2.1135938167572,0.085673853755,1.25975680351257,2.37397503852844,-9.3927526473999,-21.282657623291,-36.2446212768555,18.7831115722656,15.9771060943604,6.85489892959595,-17.3329200744629,-14.4245901107788,-10.60240650177,7.79103183746338,-7.89398241043091,-19.1637897491455,2.56441235542297,1.91017556190491,1.3213015794754,0.71364331245422,1.13880550861359,-0.69195759296417,-21.5172901153564,-14.504373550415,-9.96257209777832,14.8781681060791,5.79426717758179,11.3966989517212,-1.15659701824188,-0.25740334391594,0.26427558064461,-11.2722005844116,-9.08390045166016,-7.81976222991943,0.69638639688492,0.10812314599752,-0.36529740691185,-0.45372015237808,-0.47143524885178,-0.41401392221451,1.3718775510788,1.77649760246277,2.0829553604126,4.86262369155884,5.70089340209961,7.11347246170044,0.83360201120377,0.58192551136017,0.52878022193909,-3.27287364006042,-3.96479797363281,-4.55855989456177,SWING_RIGHT
-0.28893926739693,-0.26572638750076,-0.18081611394882,0.51205778121948,0.13515393435955,-0.40851613879204,1.03429508209229,0.67516487836838,0.52911859750748,9.03122806549072,8.75589466094971,9.33529186248779,2.50370764732361,2.29356980323792,1.74989986419678,4.69502973556519,5.0089693069458,7.36246967315674,-0.10384709388018,-0.064751714468,-0.0226020142436,0.17058411240578,0.06673702597618,-0.4751004576683,1.78128612041473,1.02950668334961,-0.88585460186005,10.3647985458374,10.4222593307495,9.79497814178467,-1.94766747951508,-3.48277187347412,-5.95677614212036,18.3306064605713,23.0423965454102,27.2564907073975,0.03359758853912,0.7006624341011,1.35001218318939,1.38864946365356,2.80341339111328,3.54378199577332,-4.82671070098877,-12.3615627288818,-22.6545352935791,16.0345668792725,12.4166288375854,7.15656805038452,-15.4502325057983,-15.1179218292236,-14.1368722915649,18.5365085601807,9.79258441925049,-1.80522811412811,2.79165410995483,2.73178935050964,1.85214340686798,-3.27713942527771,-0.69745540618896,0.64644813537598,-26.7345542907715,-23.0711269378662,-16.9850654602051,18.0217552185059,12.6416845321655,6.94348430633545,-2.24149370193481,-0.03810271993279,1.01258552074432,-19.7695217132568,-13.9632835388184,-9.86441040039062,0.59131753444672,0.2852740585804,-0.03359758853912,-0.62354069948196,-0.78908520936966,-0.89598661661148,-0.84754741191864,0.66079968214035,1.08936178684235,5.71525859832764,5.6937108039856,6.44309616088867,1.55259037017822,1.57152724266052,1.77983224391937,-4.07014274597168,-4.41011953353882,-4.30956315994263,SWING_RIGHT
0.17104226350784,0.40989059209824,0.51434850692749,-1.43049371242523,-1.42071986198425,-0.67302078008652,-0.23942017555237,0.5147533416748,1.38863694667816,9.61062526702881,11.0423574447632,11.5618991851807,0.88186031579971,0.04680754989386,-1.04969561100006,9.4717607498169,11.1070013046265,12.4166288375854,0.51801371574402,0.55344390869141,0.58032196760178,0.69470649957657,0.39171734452248,-0.06704246252775,-0.06943184882402,-1.85071790218353,-1.43891525268555,9.8668041229248,9.82610321044922,10.7430820465088,-6.48945045471191,-9.51384449005127,-12.6115417480469,25.9085540771484,27.9986915588379,27.4097194671631,0.48808133602142,0.93156951665878,0.78312921524048,2.93536019325256,3.04592680931091,-1.54655814170837,-23.2363262176514,-36.0866050720215,-41.7081909179688,6.00735139846802,-1.80283391475677,7.70962858200073,-12.4056806564331,-6.14125728607178,-2.5945737361908,-28.9851036071777,-25.8486995697021,-20.9474697113037,0.83016586303711,0.76602500677109,0.60536748170853,-0.13118331134319,-0.3883575797081,-0.6088799238205,-10.3839521408081,-7.52527523040771,-3.6846764087677,7.84370422363281,6.83813953399658,5.98340940475464,1.79143869876862,1.70958280563354,1.33451151847839,-4.94911432266235,-3.17710566520691,-2.03507137298584,-0.4972442984581,-0.50885075330734,-0.56627207994461,-0.39507710933685,-0.4011857509613,-0.35231652855873,2.41814374923706,1.78128612041473,1.41736745834351,7.9059534072876,8.25071811676025,8.72237586975098,0.45669811964035,0.65767282247543,0.72364622354507,-4.15393972396851,-3.3925838470459,-2.24097275733948,SWING_RIGHT
-0.24190263450146,-0.1795943826437,-0.11423180252314,-0.84100872278214,-1.11528718471527,-1.10123729705811,-0.22744916379452,0.0,0.20590133965015,9.38317584991455,9.78300762176514,10.3456449508667,2.05411076545715,1.79632556438446,1.57580327987671,4.95869112014771,5.16938066482544,6.16776275634766,0.0177150927484,0.03054326213896,0.01343903504312,-0.21792617440224,-0.16844609379768,-0.1745547503233,0.44292730093002,0.68474167585373,-0.18914192914963,10.3624038696289,10.3097314834595,10.228328704834,-1.41071689128876,-3.27202343940735,-5.69899082183838,18.4527111053467,23.6002445220947,28.3051509857178,0.36163222789764,0.8472700715065,1.49661982059479,1.39597976207733,1.85657215118408,3.25728631019592,-3.88818359375,-11.104606628418,-24.4549751281738,14.1787614822388,14.214674949646,9.38317584991455,-16.5504016876221,-15.3634901046753,-12.7740325927734,13.9225826263428,1.54904854297638,-18.8573303222656,0.86681777238846,0.16982053220272,-0.3286454975605,-0.38896843791008,1.61100435256958,1.31473469734192,-24.4860992431641,-16.9323921203613,-12.2873420715332,13.0032091140747,6.60350751876831,7.19487524032593,-0.20059287548065,0.64301204681396,0.9606619477272,-12.2083339691162,-8.89236450195313,-7.01531028747559,-0.07513642311096,-0.5528330206871,-1.04274702072144,-0.20448714494705,-0.2930625975132,-0.17027868330479,0.45010992884636,1.05823719501495,1.26892685890198,4.9203839302063,5.79426717758179,7.50133323669434,1.05290257930756,0.63812512159348,0.38339430093765,-3.16513466835022,-3.79480957984924,-4.63278007507324,SWING_RIGHT
-0.50946164131165,-0.54611355066299,-0.40683624148369,-0.07070764899254,0.39660426974297,0.19624045491219,1.19949507713318,0.70150107145309,-0.21547815203667,11.217134475708,10.7766008377075,10.503662109375,1.35222661495209,1.07978069782257,0.7395287156105,4.5920786857605,5.75356578826904,7.48936223983765,0.41966441273689,0.54733526706696,0.80573123693466,-0.77870047092438,-0.83978700637817,-0.18493945896626,-0.32321724295616,-0.04309562966228,0.49320554733276,11.2291049957275,12.7997016906738,13.7262573242188,-4.12112617492676,-6.65621662139893,-10.1363162994385,20.2435741424561,24.7497615814209,27.5509777069092,1.13804197311401,1.15392446517944,1.48134827613831,0.66294151544571,1.76921844482422,1.81442248821259,-13.4820489883423,-25.9516506195068,-34.3193855285645,10.9298295974731,7.43190145492554,3.14837527275085,-14.2309455871582,-10.0947771072388,-6.59451961517334,-8.04721164703369,-17.3322238922119,-18.6226997375488,1.00976026058197,0.05375614017248,-0.23090706765652,0.59513545036316,0.07528914511204,-0.16233743727207,-11.585841178894,-8.37761116027832,-6.53168153762817,6.2778959274292,7.7072343826294,8.77744293212891,-0.38935023546219,0.22518019378185,0.55138224363327,-7.37683486938477,-6.34253978729248,-5.10473728179932,-0.5155702829361,-0.50335294008255,-0.527787566185,-0.22586742043495,-0.25152376294136,-0.23991732299328,0.30645781755447,0.13168109953403,0.06464344263077,8.68646335601807,8.88996982574463,9.25628280639648,0.5971971154213,0.58253633975983,0.60147321224213,-3.36145925521851,-3.21062445640564,-3.09091448783875,SWING_RIGHT
-0.12522737681866,-0.24678955972195,-0.24923302233219,-0.15989397466183,0.12904527783394,0.35811975598335,1.27371525764465,1.18752408027649,0.30406361818314,9.888352394104,10.4797201156616,9.89314079284668,1.74318039417267,1.57885754108429,1.46279323101044,4.503493309021,4.77643251419067,5.43992567062378,0.02138028293848,0.2315179258585,0.44837507605553,-0.51969361305237,-0.26374107599258,-0.02733621932566,0.51235914230347,0.73501992225647,1.28808057308197,11.6528787612915,11.8492031097412,12.4501485824585,-2.73201847076416,-4.45160388946533,-6.8406982421875,17.5524921417236,21.692066192627,26.4783744812012,0.39767327904701,0.87414819002151,1.31336033344269,0.96104377508163,1.47294878959656,3.06119847297669,-3.87381839752197,-14.0758113861084,-25.9348907470703,13.0199680328369,12.3543796539307,7.82694482803345,-16.3414859771729,-13.7471408843994,-8.37397003173828,7.96820259094238,-13.5562696456909,-26.7776489257813,1.16614174842834,0.72998398542404,0.32803463935852,-1.62658143043518,-0.04260785132647,-0.17333301901817,-17.0568923950195,-11.1022129058838,-8.11424922943115,14.7153625488281,9.4717607498169,7.87722301483154,0.11339186131954,0.82871508598328,1.30580079555511,-8.99052619934082,-6.65139150619507,-3.99831676483154,-0.2730567753315,-0.24678955972195,-0.25167647004128,-0.23686300218105,-0.02550362423062,-0.02855795063078,2.47321033477783,2.84431171417236,2.27209734916687,8.76786613464355,8.43507194519043,8.2243824005127,0.40172025561333,0.09506590664387,-0.09246972948313,-1.66157603263855,-1.9943699836731,-2.8467059135437,SWING_RIGHT
0.80573123693466,0.55710911750793,0.39828413724899,-0.14278975129128,0.08506298810244,0.08139779418707,0.2777273952961,0.33039984107018,0.22026655077934,8.47577285766602,8.25790119171143,7.7455415725708,0.83482372760773,0.16103935241699,-0.56405770778656,9.32092666625977,9.93623638153076,10.7311115264893,-0.20952677726746,-0.30237829685211,-0.41783183813095,0.00137444678694,0.18829920887947,0.91889405250549,-0.42377370595932,0.04070143029094,0.76375031471252,8.39437007904053,9.40951156616211,9.75188255310059,-4.72893714904785,-6.5706958770752,-8.75270652770996,16.3146896362305,18.2468090057373,21.8548717498779,-0.31215214729309,0.67928212881088,1.73974418640137,1.94514763355255,2.13023972511292,2.87366271018982,-8.58590698242188,-18.9746475219727,-30.8837051391602,12.6488666534424,11.8276557922363,7.13262605667114,-16.3989067077637,-7.68124866485596,-2.78088760375977,5.04727649688721,-29.7512474060059,-24.1940059661865,0.12522737681866,0.04764748737216,0.58581978082657,-0.03100141137838,-0.35292738676071,-0.67485338449478,-10.2618474960327,-7.28585481643677,-4.93235492706299,9.00489139556885,10.7478704452515,9.25628280639648,1.475621342659,1.89345324039459,1.88673365116119,-6.48140335083008,-4.14436292648315,-1.95366859436035,-0.48747047781944,-0.34025195240974,0.03359758853912,-0.31688633561134,-0.45555275678635,-0.72127914428711,3.08852028846741,3.03105926513672,2.57855534553528,8.5404167175293,9.51725101470947,9.47654914855957,0.70837461948395,0.60269492864609,0.55993437767029,-1.90339040756226,-1.70227742195129,-1.66157603263855,SWING_RIGHT
-0.05314527451992,-0.15454891324043,-0.1246165111661,-0.45616361498833,-0.28267788887024,-0.25579982995987,0.09337386488914,0.06943184882402,0.16280572116375,9.31613826751709,9.50288581848144,9.534010887146,1.5067754983902,1.06023299694061,0.60391664505005,8.11185455322266,8.25550651550293,8.70322227478027,-0.15577064454556,-0.09957103431225,0.02932153269649,-0.10552696883678,0.10155634582043,0.59513545036316,-0.77332717180252,-0.93134444952011,-0.79487496614456,9.98172569274902,10.7215347290039,11.4374008178711,-1.70942997932434,-2.71369242668152,-5.74541664123535,12.7015390396118,14.7440929412842,20.0735855102539,1.02136671543121,1.35062301158905,1.80510675907135,4.9127311706543,3.66106820106506,2.02822542190552,-1.88184249401093,-7.12783765792847,-18.1773777008057,6.85729312896729,7.03206968307495,8.07833576202393,-16.064151763916,-16.1319580078125,-13.1613206863403,18.6107292175293,3.15795207023621,-11.5068330764771,2.47705864906311,2.2968533039093,2.39092659950256,-0.02794708497822,-0.63087105751038,-0.95218622684479,-23.2123832702637,-18.9674644470215,-15.515025138855,8.61463737487793,11.1620674133301,9.967360496521,-1.16148388385773,0.11461359262466,1.16835618019104,-14.6073236465454,-12.4166288375854,-9.78540134429932,0.5717698931694,0.42699480056763,0.18753562867641,-0.66935557126999,-0.72311174869537,-0.55817812681198,-1.02950668334961,0.93852704763412,2.13802218437195,7.05601167678833,6.95066690444946,7.41514205932617,1.4768431186676,1.07916986942291,0.84520840644836,-1.83874690532684,-2.18351197242737,-2.47081613540649,SWING_RIGHT
-0.30665436387062,-0.18631389737129,0.02321287989616,-0.52946746349335,-0.57222801446915,-0.40607267618179,-0.28969839215279,-0.02154781483114,-0.03112462162971,10.1852331161499,10.666467666626,10.4509897232056,2.63076758384705,2.39130830764771,2.10786700248718,5.11191987991333,5.69849920272827,6.89799451828003,-0.05742133408785,0.05742133408785,0.2638937830925,-0.03161227703094,0.83764898777008,0.9317222237587,0.30885201692581,-0.79966336488724,-0.57221418619156,10.8771572113037,11.6145715713501,11.8922986984253,-1.88474833965302,-3.43207001686096,-5.55665922164917,15.1774435043335,18.3641262054443,21.6441822052002,0.97494095563889,1.19973933696747,1.32679927349091,0.78572541475296,1.28174805641174,2.20659804344177,-1.86029469966888,-7.05840587615967,-16.484676361084,13.6975269317627,12.8763160705566,8.94743061065674,-15.2071084976196,-14.7923307418823,-12.6695737838745,17.152660369873,5.03291130065918,-7.94904899597168,1.56014978885651,1.17408299446106,0.79656827449799,-1.22524297237396,1.62199997901917,0.51144695281982,-19.0823860168457,-15.450382232666,-10.7957544326782,16.4942531585693,7.62583160400391,5.58836603164673,-2.13581395149231,-0.99532854557037,-0.14317154884338,-10.7287168502808,-9.0575647354126,-7.84849262237549,0.91507613658905,0.88819807767868,0.75258600711823,-1.02426826953888,-1.19103455543518,-1.16782164573669,-2.25294375419617,-0.39504328370094,0.85473001003265,8.26508331298828,7.9753851890564,7.71202278137207,1.47623217105865,1.15613877773285,0.85681486129761,-1.30483996868134,-0.92895025014877,-1.33357036113739,SWING_RIGHT
-0.10995574295521,-0.07819075137377,-0.097127571702,0.14065171778202,0.19257527589798,0.16447547078133,0.01675941236317,-0.13168109953403,-0.56742578744888,9.75906562805176,9.40951156616211,8.81096172332764,0.57826030254364,0.46158504486084,0.31680998206139,4.60644388198853,5.06643009185791,6.47900915145874,0.34574973583221,0.68416905403137,0.65057146549225,-0.69134676456451,-1.19836485385895,-0.48853948712349,-1.46046304702759,-0.83078801631927,0.73262572288513,10.2666358947754,11.5235919952393,13.4581069946289,-3.77720880508423,-6.23166561126709,-9.10456466674805,22.3073749542236,23.856424331665,23.4039192199707,1.77945041656494,1.89062798023224,2.19850397109985,3.9536726474762,3.89136433601379,3.48391723632813,-11.1620674133301,-18.6418533325195,-28.0824890136719,7.0224928855896,4.46518611907959,2.59770894050598,-15.7831544876099,-12.9963874816895,-8.84494686126709,3.85227060317993,-13.309666633606,-17.281946182251,1.03175139427185,0.30176743865013,0.43921211361885,0.95921117067337,0.72524976730347,-0.31627547740936,-17.1574478149414,-13.5083856582642,-10.0750999450684,8.19325733184814,7.12304925918579,9.24910068511963,0.34735324978828,1.19584512710571,1.66743302345276,-13.613730430603,-8.1022777557373,-6.36408758163452,-0.16065755486488,-0.26450464129448,-0.32253685593605,-0.48059824109077,-0.46777006983757,-0.43233987689018,-0.07422025501728,0.64643448591232,1.25216746330261,7.61864900588989,8.06875896453857,8.61703109741211,1.32473766803741,1.00647687911987,0.86292350292206,-2.77248549461365,-3.22977805137634,-3.17231726646423,SWING_RIGHT
-0.18264870345592,-0.16187928617001,-0.13133603334427,-0.05482515692711,-0.01756237633526,0.04230241850019,-0.62488663196564,-0.43335050344467,-0.40222588181496,10.2403001785278,10.3671922683716,10.5252103805542,0.75418949127197,0.57642769813538,0.30153834819794,3.89536619186401,4.67827033996582,5.83018064498901,0.00916297826916,0.17043140530586,0.36896261572838,0.55970525741577,0.61773747205734,0.69104129076004,-0.4955997467041,-0.62728083133698,-0.84275901317596,10.8603982925415,11.54274559021,12.0694704055786,-2.18773746490479,-3.53897142410278,-5.24267482757568,14.1236953735352,16.6450881958008,20.6122817993164,1.60474300384521,1.9779816865921,2.11664795875549,1.14247071743011,1.45523369312286,2.78203296661377,-0.76135611534119,-7.94904899597168,-21.8859958648682,15.0002717971802,13.5897884368896,10.2187519073486,-16.8894309997559,-16.7422122955322,-13.5809850692749,22.0128898620605,6.19888734817505,-13.6711912155151,2.61572504043579,2.34572243690491,1.81304800510406,-0.16233743727207,1.77471625804901,0.07162395119667,-23.8779716491699,-19.8628959655762,-15.0146369934082,13.7286520004272,4.79319190979004,4.86501789093018,-0.30749428272247,0.5800929069519,1.2557098865509,-12.3615627288818,-10.1469259262085,-9.48612594604492,1.17286121845245,0.6872233748436,-0.00427605677396,-1.56793832778931,-1.28388607501984,-0.72433346509933,-1.84114110469818,0.3447650372982,1.73819041252136,5.37767648696899,5.28430223464966,5.76553678512573,1.82259285449982,1.53304266929626,1.46096062660217,-2.16914677619934,-2.81318688392639,-2.53067111968994,SWING_RIGHT
0.19853121042252,0.05742133408785,-0.10262536257505,-0.30772337317467,-0.13851369917393,0.00015271631128,0.18435353040695,-0.00478840339929,-0.18435353040695,9.6704797744751,9.30416679382324,9.23712921142578,0.2386192381382,0.24350616335869,0.14210252463818,3.57214903831482,4.17548799514771,5.35373449325562,-0.27061331272125,-0.26511552929878,-0.32742378115654,0.58047467470169,0.25305092334747,-0.25335636734962,0.50038814544678,0.217872351408,-1.01035308837891,9.2347354888916,8.88518142700195,9.42387676239014,-2.40825986862183,-3.55546474456787,-5.58353757858276,13.8028717041016,17.5453090667725,21.0719680786133,0.21685716509819,1.17713737487793,1.68843150138855,3.39900684356689,4.03858280181885,3.90846848487854,-2.70784211158752,-10.0774946212769,-18.6035461425781,12.9194116592407,7.96101999282837,0.94570964574814,-13.8870286941528,-13.6274108886719,-11.8247480392456,12.7781534194946,3.62242722511292,-5.30106163024902,0.90163707733154,0.86070913076401,0.52656584978104,0.15592335164547,2.03616666793823,1.01052379608154,-19.1613941192627,-16.3769378662109,-13.1253128051758,14.7991590499878,8.61463737487793,8.41112995147705,-2.53226542472839,-1.03075873851776,0.1237765699625,-11.8348379135132,-9.83568000793457,-8.33690929412842,0.53817230463028,0.85215699672699,0.94806283712387,0.14004085958004,-0.3236058652401,-0.61254513263702,-3.3925838470459,-1.81959331035614,-0.72783732414246,8.92348861694336,8.23395919799805,7.43190145492554,1.5611424446106,1.3589460849762,1.10726964473724,-3.02148246765137,-2.44926834106445,-2.55221891403198,SWING_RIGHT
-0.04764748737216,-0.10751228034496,-0.15271630883217,0.22800545394421,0.2133446931839,0.05390885844827,0.03112462162971,0.10773907601833,0.19153612852097,9.51725101470947,9.23952388763428,9.21797561645508,-0.5750532746315,-0.76197803020477,-1.00998938083649,3.30639243125916,3.98873996734619,5.52851104736328,-0.37323865294456,-0.36285394430161,-0.12522737681866,-1.26128399372101,-1.54167115688324,-0.42012256383896,-1.83156430721283,-2.32955837249756,-1.47722244262695,10.6784391403198,13.9106111526489,15.3761615753174,-3.84379315376282,-6.34406471252441,-9.32447624206543,20.6242523193359,23.7893867492676,25.0705833435059,1.40804433822632,1.90834307670593,2.19300627708435,3.38251352310181,3.67389631271362,4.13448858261108,-11.1309432983398,-20.9354972839355,-30.7256889343262,9.08629512786865,5.72004699707031,2.63841032981873,-15.3567705154419,-12.2700681686401,-8.39107418060303,0.79008656740189,-13.9369478225708,-19.8293762207031,1.57664322853088,1.33779489994049,1.15881133079529,2.07220768928528,0.96043288707733,-0.42195516824722,-18.2444152832031,-14.0207443237305,-11.2410764694214,6.69448709487915,4.5920786857605,7.79821443557739,0.37178784608841,1.2612076997757,1.84763824939728,-11.7773771286011,-9.3927526473999,-6.71364068984985,0.67073005437851,0.19547687470913,-0.26450464129448,-1.32725751399994,-0.99983370304108,-0.6644686460495,0.51235914230347,1.49398183822632,1.99676418304443,5.94031381607056,6.41915416717529,7.59710121154785,1.52143621444702,1.42553043365479,1.41575658321381,-2.19548296928406,-2.15956997871399,-1.58256733417511,SWING_RIGHT
-0.22663100063801,-0.28344148397446,-0.2730567753315,0.36361753940582,0.37155878543854,0.32330042123795,-0.03830722719431,-0.43813890218735,-0.70628952980042,9.26825428009033,9.40711784362793,9.41669464111328,-0.52923840284348,-0.66301786899567,-0.78946697711945,3.39018964767456,3.90254878997803,5.17895746231079,0.21930062770844,0.34147366881371,0.55771994590759,-0.50808715820313,0.03008511289954,2.27134966850281,-1.09654438495636,-0.52672439813614,0.641646027565,11.0040502548218,12.639289855957,12.6345014572144,-4.44732809066772,-6.29336261749268,-8.83334064483643,15.8813381195068,18.5796031951904,22.4893360137939,1.58763873577118,1.39643800258636,1.40071403980255,0.36972618103027,1.42835569381714,3.00072288513184,-8.08791255950928,-19.5157375335693,-27.0577716827393,9.56274127960205,8.75589466094971,4.99220991134644,-14.2511043548584,-12.1741628646851,-5.09789943695068,2.68150591850281,-13.0151796340942,-20.0975284576416,2.34511160850525,2.0512855052948,1.21867620944977,-0.74327027797699,-0.54473906755447,-0.86666506528854,-11.6265430450439,-8.71040534973145,-5.90200662612915,11.9593372344971,7.64977359771729,7.230788230896,0.48601967096329,0.85986918210983,0.92095571756363,-5.06403589248657,-3.96240377426147,-3.11006808280945,-0.28832840919495,-0.00061086524511,0.12705996632576,-0.15378531813622,-0.11713340878487,-0.07559457421303,1.97042798995972,1.73340201377869,1.50595283508301,9.83328533172607,9.55555820465088,8.82293224334717,0.07368562370539,0.14393512904644,0.34429892897606,-2.71741890907288,-3.30160403251648,-3.2585084438324,SWING_RIGHT
-0.4850270152092,-0.56932640075684,-0.66401052474976,-0.03527746722102,-0.09941831976175,-0.11835514008999,-0.09576806426048,-0.59855043888092,-1.01274728775024,9.10544872283936,9.08868885040283,9.10305404663086,1.04801571369171,0.88857984542847,0.63995772600174,5.22684144973755,5.71525859832764,6.47900915145874,-0.63652157783508,-0.51312679052353,-0.37812557816505,-0.44638976454735,-0.28756481409073,0.1718058437109,-1.44130945205688,-1.36948335170746,-1.33596456050873,10.7335052490234,11.4158525466919,12.8739213943481,-1.55243766307831,-2.62939310073853,-4.15044736862183,13.8866691589355,16.4248218536377,20.0903453826904,1.09589219093323,1.61329507827759,2.21621918678284,4.14487361907959,4.98359155654907,4.95671319961548,1.26653265953064,-2.30322194099426,-14.1332721710205,12.7997016906738,9.72315216064453,4.99220991134644,-17.6548461914063,-15.6573162078857,-9.87792015075684,11.3392381668091,-13.855544090271,-27.455207824707,2.09710049629211,0.43493604660034,1.09650313854218,1.63055205345154,1.00991296768188,0.36789360642433,-17.720085144043,-9.03362274169922,-7.80300283432007,3.85227060317993,8.28423690795898,7.5875244140625,-0.23785565793514,0.60758185386658,1.11276745796204,-10.6856212615967,-8.78462505340576,-6.0504469871521,-0.01832595653832,-0.17837265133858,-0.20769418776035,-0.41095960140228,-0.2930625975132,-0.19654589891434,1.6448165178299,1.76931500434875,1.69988322257996,6.23001194000244,7.36965227127075,7.67850399017334,0.5666538476944,0.62407523393631,0.63201647996902,-4.55377149581909,-4.21618938446045,-3.58172583580017,SWING_RIGHT
-0.527787566185,-0.62369340658188,-0.66828656196594,-0.09330966323614,-0.12568552792072,0.09789115190506,0.28012159466743,0.44532153010368,0.53630119562149,9.90032291412354,10.5563344955444,10.7742071151733,0.79328489303589,0.5238932967186,0.17814357578754,4.78600931167603,5.58836603164673,7.24754762649536,-0.45387288928032,-0.53572881221771,-0.61330872774124,-0.03283400833607,-0.26557365059853,-0.03283400833607,-0.39743748307228,-0.12928688526154,0.44053310155869,9.39514636993408,10.0990419387817,12.3376207351685,-3.32333612442017,-4.85416412353516,-6.96348190307617,15.4048919677734,19.1278762817383,24.1317577362061,1.02991878986359,1.37261426448822,1.8735237121582,1.91277182102203,2.63603615760803,4.30858516693115,-5.41837787628174,-16.084846496582,-27.0481948852539,13.1540431976318,12.3735332489014,8.42310047149658,-15.7709369659424,-14.6377820968628,-10.9817533493042,16.681001663208,-0.76375031471252,-18.1055526733398,2.18506503105164,1.17591559886932,0.89980453252792,1.1033753156662,0.24877487123013,0.65561109781265,-15.9364051818848,-11.8444147109985,-9.28022480010986,4.75249052047729,7.8365216255188,8.62421417236328,-0.94645935297012,-0.16516269743443,0.44814601540565,-10.405499458313,-9.88356399536133,-8.20044040679932,0.4844161272049,-0.07696902006865,-0.53633970022202,-0.38530325889587,-0.19410243630409,0.0093156946823,0.46447512507439,0.7781155705452,1.15879356861115,4.66869354248047,5.44950246810913,6.65378570556641,0.79389572143555,0.74746996164322,0.65400761365891,-4.73573112487793,-4.41251373291016,-4.50588750839233,SWING_RIGHT
-0.69333207607269,-0.44898596405983,-0.38362336158752,0.02458732575178,0.53404891490936,0.61529403924942,0.54108959436417,0.45010992884636,0.28490999341011,11.9162406921387,10.9585599899292,10.5347871780396,-0.49686253070831,-0.7955756187439,-1.13643848896027,4.41490793228149,4.41730213165283,4.74530792236328,-0.35491269826889,-0.34452798962593,-0.27733281254768,0.57375520467758,0.31780263781548,-0.50747632980347,-0.50757074356079,-1.21386027336121,-2.04704236984253,9.10544872283936,8.52605152130127,9.21797561645508,-2.98491668701172,-4.05637407302856,-6.32024097442627,12.998420715332,18.1247062683105,22.0990810394287,0.26816985011101,1.41720736026764,2.58090567588806,4.17541646957397,5.81620073318481,6.47043752670288,-2.89937829971313,-11.3344497680664,-24.2993507385254,15.859790802002,9.91947650909424,2.57137250900269,-14.5174417495728,-12.0739803314209,-8.2163667678833,4.25689077377319,-11.231499671936,-17.315465927124,1.80021989345551,2.17284774780273,1.82465445995331,0.48762318491936,0.65316766500473,-0.56734108924866,-17.0425262451172,-17.0425262451172,-11.3536033630371,13.968071937561,13.968071937561,7.29543209075928,-1.04603040218353,-0.04665483161807,0.68882691860199,-10.8484268188477,-8.63857936859131,-7.18290424346924,0.3378084897995,0.02076941914856,-0.22724187374115,-0.43050727248192,-0.39080104231834,-0.18860463798046,-0.66079968214035,0.6224924325943,1.40779054164886,6.5268931388855,7.26670122146606,8.31296730041504,0.90873843431473,0.6411794424057,0.55871260166168,-2.4205379486084,-2.76530289649963,-2.70305371284485,SWING_RIGHT
-1.25532805919647,-1.10810959339142,-0.92423909902573,-0.98089689016342,-0.90270608663559,-0.42806380987167,-0.42616790533066,-1.0989385843277,-1.03190088272095,11.1141834259033,12.2681884765625,12.6153478622437,0.48296532034874,0.06207918003201,-0.56955546140671,6.63942050933838,7.4486608505249,7.83412742614746,-0.08979719132185,-0.03665191307664,-0.17348572611809,0.321467846632,-0.1763873398304,-0.48670688271523,-0.12928688526154,0.82360535860062,2.23139595985413,10.0942535400391,10.8651866912842,14.8829565048218,-6.68004035949707,-9.6891622543335,-13.1991939544678,21.8381118774414,21.8021984100342,19.2188549041748,2.89672303199768,3.51980543136597,2.72568082809448,7.20042133331299,3.28049898147583,-3.27775025367737,-27.1942405700684,-28.6379451751709,-24.4382152557373,-2.82036972045898,-9.40232944488525,7.00094509124756,-7.48516082763672,-3.58600807189941,-1.08818006515503,-26.0282649993896,-21.6561527252197,-14.5187387466431,-0.23579397797585,0.14233160018921,0.62002819776535,-0.10735956579447,-0.03527746722102,-0.4616613984108,-9.36641597747803,-6.90278291702271,-4.26167917251587,9.31853199005127,9.1964282989502,7.92031860351563,1.21600365638733,1.47806477546692,1.58802056312561,-6.79983186721802,-5.42316627502441,-3.72777199745178,-0.44776421785355,-0.49418997764587,-0.42516219615936,-0.14889840781689,0.04230241850019,0.0306959785521,1.77649760246277,1.90339040756226,1.39821374416351,8.5787239074707,9.28740787506104,9.48612594604492,0.60391664505005,0.68210738897324,0.74197220802307,-3.51947641372681,-3.26808524131775,-2.87783050537109,SWING_RIGHT
-0.22235494852066,-0.25656339526176,-0.40011674165726,-0.35353827476501,-0.17516560852528,-0.09147707372904,-0.26336219906807,-0.66558808088303,-0.75417351722717,10.4749317169189,9.80455493927002,9.6896333694458,1.32595932483673,1.12376296520233,0.90140801668167,3.60327363014221,3.62721562385559,4.30477476119995,-0.25045475363731,-0.34697145223618,-0.38117989897728,-0.38285979628563,-0.13790282607079,0.26038131117821,0.20829555392265,0.86670100688934,0.70868372917175,10.6592855453491,11.1213665008545,10.434229850769,-1.86397898197174,-3.19627594947815,-4.85599708557129,13.2929067611694,15.5820636749268,19.0799922943115,0.18997909128666,0.33169981837273,0.79717916250229,0.64339381456375,0.73013669252396,1.65254318714142,1.02711248397827,-2.80361008644104,-14.8590145111084,13.1133422851563,14.475643157959,14.0877819061279,-15.5015459060669,-15.2168827056885,-14.1191577911377,20.540454864502,12.5147914886475,-4.01747035980225,3.74826908111572,2.27058601379395,0.82039201259613,-0.37491855025291,0.55909442901611,0.0074830991216,-22.7814273834229,-17.995418548584,-9.93384170532227,10.927435874939,8.14297962188721,7.87482881546021,-1.24944853782654,-0.75220417976379,0.02725986205041,-8.72955894470215,-9.57471179962158,-8.89954662322998,0.59253931045532,0.29321530461311,-0.00794124789536,0.04902193695307,-0.10552696883678,-0.16233743727207,-0.78769236803055,0.5434837937355,1.39581954479218,5.89003562927246,6.15100336074829,6.8141975402832,0.74624824523926,0.66378146409988,0.59902971982956,-3.84508800506592,-3.86424160003662,-3.96479797363281,SWING_RIGHT
-0.52534413337708,-0.56993728876114,-0.58765238523483,-0.7817547917366,-0.67851859331131,-0.696233689785,1.28568625450134,0.84036481380463,1.11330378055573,10.2115697860718,10.1110134124756,10.7406883239746,0.67416614294052,-0.03749185428023,-0.78396916389465,8.80856704711914,9.66569137573242,10.2019929885864,-0.45142942667007,-0.43188172578812,-0.40805798768997,-0.53985214233398,0.04108068719506,0.68310004472733,-0.88585460186005,-0.49799394607544,0.28730419278145,11.039963722229,11.2506532669067,11.0016565322876,-5.20541191101074,-7.66597700119019,-10.402042388916,21.1270351409912,23.0854911804199,23.305757522583,0.65545839071274,1.11605083942413,1.52838480472565,2.79608297348022,3.1558825969696,1.3978123664856,-13.6304893493652,-24.294563293457,-34.8176765441895,9.5914716720581,4.28801536560059,3.58172583580017,-12.3763589859009,-7.26219511032104,-3.91526436805725,-18.2180786132813,-22.1661186218262,-17.7440280914307,1.37811195850372,0.94745200872421,0.91568702459335,1.16995966434479,0.4900666475296,0.4595233798027,-8.44943714141846,-6.27550172805786,-4.01986455917358,7.58273601531982,8.63857936859131,8.33930397033691,0.56909734010696,1.06023299694061,1.20073199272156,-7.04643487930298,-5.40161848068237,-3.71819519996643,-0.22418753802776,-0.49541172385216,-0.55405479669571,0.23777928948402,0.37705656886101,0.55176401138306,3.12922167778015,3.57454323768616,3.26808524131775,6.58195972442627,7.88201141357422,8.25311279296875,0.1109483987093,0.29359710216522,0.43653959035873,-3.60806202888489,-3.3734302520752,-2.87064790725708,SWING_RIGHT
-0.8600982427597,-0.83199846744537,-0.51495939493179,-1.22524297237396,-0.86055642366409,-0.1892155110836,0.23942017555237,-0.50278234481812,-0.18674772977829,11.9234237670898,13.0175743103027,12.0167980194092,0.43837216496468,0.01992947794497,-0.38690677285194,4.85065269470215,5.40640687942505,6.28747272491455,-0.42516219615936,-0.41966441273689,-0.42271876335144,0.4558582007885,0.82420992851257,0.8095491528511,-1.60650932788849,-1.78607451915741,-2.24576115608215,10.1708679199219,9.55555820465088,8.77025985717773,-2.68925786018372,-3.78148484230042,-5.22007274627686,10.7598419189453,13.2689647674561,16.4080619812012,0.30298915505409,0.99265605211258,1.82343280315399,1.08627116680145,2.70445322990417,3.60303592681885,-3.71580100059509,-6.10311937332153,-10.6137952804565,18.7998695373535,18.7950820922852,15.9651355743408,-16.9633464813232,-15.7593307495117,-9.42893409729004,10.5946416854858,-14.2817125320435,-23.3488540649414,3.08853459358215,2.25714707374573,1.45630276203156,0.05146539583802,-0.16294831037521,0.9744827747345,-14.8733797073364,-10.4366245269775,-8.7582893371582,3.28484463691711,6.34253978729248,4.28562116622925,-0.95317888259888,-0.05215261876583,0.68027478456497,-12.0000381469727,-10.5419692993164,-9.32092666625977,0.32620203495026,-0.18020524084568,-0.77518796920776,-0.08170322328806,-0.25091290473938,-0.29794952273369,-0.35434186458588,1.17794728279114,2.25294375419617,3.46680402755737,3.79959797859192,5.60033702850342,1.1268173456192,0.77129375934601,0.60574924945831,-3.19386506080627,-3.7349545955658,-4.2449197769165,SWING_RIGHT
0.28099802136421,0.40805798768997,0.50090950727463,-0.16172657907009,-0.1116356253624,-0.42195516824722,0.105344876647,-0.20590133965015,-0.57221418619156,11.3009309768677,10.6401319503784,10.7694187164307,-0.89209234714508,-1.28793299198151,-1.92078936100006,6.41675996780396,9.21797561645508,12.6584434509277,0.6444628238678,0.40561452507973,0.18753562867641,-0.00962112750858,0.64400470256805,1.24631786346436,0.9433154463768,0.14125789701939,-0.95768070220947,11.231499671936,11.4828910827637,13.0941886901855,-9.33058452606201,-12.2144794464111,-14.5382108688354,22.1709060668945,22.783821105957,17.3729267120361,2.53753423690796,2.87106657028198,3.29256367683411,2.55723452568054,-0.05604688450694,-2.84159231185913,-31.1614322662354,-32.820613861084,-29.021017074585,3.78044438362122,4.41730213165283,13.5035972595215,-5.97510194778442,-1.9189567565918,1.05840039253235,-29.0018634796143,-21.6729125976563,-9.79976654052734,0.4758640229702,1.23089349269867,1.26265847682953,0.67760229110718,-0.29489520192146,-0.64675354957581,-2.46842193603516,0.34715923666954,2.37504816055298,7.24036502838135,5.53569364547729,4.4723687171936,1.06756341457367,1.09077620506287,1.11276745796204,-4.43645572662354,-3.51708221435547,-2.81079268455505,-0.69211030006409,-0.79351395368576,-0.73181658983231,0.22250767052174,0.54870969057083,0.6372851729393,2.60728573799133,2.75812029838562,2.71023631095886,8.83969211578369,9.25867748260498,8.97855567932129,0.7877870798111,0.63507080078125,0.56421041488647,-2.47321033477783,-2.91374349594116,-3.51468801498413,SWING_RIGHT
-0.10873401165009,-0.08857546001673,0.00122173049022,-0.33521229028702,-0.38530325889587,-0.25091290473938,0.46447512507439,0.72065472602844,0.92176765203476,10.163685798645,10.6329488754272,10.1828393936157,-0.06803511828184,-0.38079813122749,-0.56955546140671,4.82431650161743,5.04009389877319,5.46865606307983,-0.0549778714776,0.01527163106948,0.20586158335209,-0.48059824109077,-0.84711736440659,-0.95585137605667,-1.58256733417511,-2.12365698814392,-2.03028297424316,8.61942577362061,9.03122806549072,9.79018974304199,-1.57259619235992,-3.08509850502014,-6.67393207550049,17.0784397125244,24.852710723877,31.0489063262939,0.50029861927032,1.31336033344269,2.00974655151367,3.40694808959961,3.72520899772644,3.53400826454163,-3.85705900192261,-20.0927391052246,-36.7138862609863,11.0998182296753,6.89081192016602,0.89782565832138,-16.5919399261475,-11.8430738449097,-6.74234867095947,-2.51391172409058,-22.0871086120605,-22.2786445617676,1.16247653961182,1.31763637065887,1.26937794685364,1.7545577287674,0.71303248405457,0.62995475530624,-15.8621845245361,-12.914623260498,-9.38317584991455,10.1852331161499,9.83568000793457,8.0831241607666,0.34857496619225,1.12070870399475,1.31129860877991,-10.5299987792969,-7.78384876251221,-5.0089693069458,0.25228735804558,-0.18814650177956,-0.52290064096451,-0.33276882767677,-0.07376197725534,0.22556199133396,2.24336695671082,2.44687414169312,2.53545951843262,6.25155973434448,7.23318243026733,8.26029491424561,0.60880357027054,0.51045429706573,0.50312387943268,-3.19865345954895,-3.43567943572998,-3.64636921882629,SWING_RIGHT
-0.0745255574584,0.00427605677396,-0.00794124789536,0.38499781489372,0.30925053358078,0.29214629530907,0.67995327711105,0.01915361359715,0.00957680679858,11.3248729705811,9.95778369903564,10.2738189697266,-0.33498322963715,-0.60865086317062,-0.7955756187439,4.88417148590088,4.72615432739258,5.4351372718811,0.06719517707825,0.12156218290329,0.29199358820915,-0.39568796753883,-0.63148194551468,-0.5355761051178,-1.15400516986847,-0.98162269592285,-0.49799394607544,10.0248222351074,10.9753198623657,11.7247047424316,-2.73385095596313,-4.09058284759521,-6.72768783569336,15.0505504608154,20.1525936126709,24.4094848632813,-0.38606682419777,-0.34941491484642,0.35491269826889,2.16750264167786,2.15528535842896,3.2523992061615,-4.41969633102417,-15.3354606628418,-27.0745315551758,6.87165832519531,9.54119300842285,8.93785381317139,-15.9749660491943,-14.312801361084,-11.1821174621582,11.3751516342163,-2.94486808776855,-16.1782188415527,2.05922675132751,2.12214589118958,1.7379115819931,0.08017606288195,1.37582123279572,0.9133962392807,-20.8014221191406,-17.2771587371826,-14.5929584503174,14.0805997848511,8.81814384460449,6.17494535446167,-1.39911043643951,-0.11873693019152,0.77556979656219,-12.3304376602173,-10.5276041030884,-8.56914710998535,0.55527651309967,0.46792277693748,0.18387043476105,-0.51297408342361,-0.5783366560936,-0.33887749910355,-1.85311210155487,-0.13407529890537,0.5243301987648,6.86686992645264,6.88123512268066,6.91475391387939,1.08711111545563,0.8439866900444,0.61185789108276,-2.94726228713989,-2.89937829971313,-3.06457805633545,SWING_RIGHT
-0.20952677726746,-0.18753562867641,-0.18753562867641,0.43936482071877,0.34956762194633,0.18768835067749,0.44053310155869,0.15322890877724,-0.17477671802044,9.85243892669678,9.45021343231201,9.32571506500244,-0.92996597290039,-1.29526340961456,-2.06434273719788,8.2435359954834,10.4749317169189,12.5195798873901,0.10995574295521,0.34513887763023,0.35124751925468,1.98485386371613,2.77531361579895,2.25668883323669,0.48602294921875,-0.39025488495827,-1.00795888900757,10.6401319503784,7.61386060714722,6.32578039169312,-8.7905797958374,-11.7471675872803,-14.0244731903076,24.7832794189453,24.1269683837891,21.5843276977539,1.61879289150238,2.93826174736023,3.13007354736328,3.88525557518005,2.32632756233215,-0.20143280923367,-27.1415691375732,-34.9278106689453,-35.4401702880859,8.44225406646729,5.38246488571167,9.20121669769287,-8.65557861328125,-3.54141497612,-1.03625655174255,-27.9268665313721,-21.7136135101318,-14.5426807403564,0.90041536092758,0.80939644575119,1.04641211032867,-0.0218384321779,0.13698652386665,0.09239336848259,-8.85884571075439,-6.41197156906128,-3.9384617805481,9.52443408966064,9.48612594604492,7.50612163543701,1.24043822288513,1.65032887458801,1.57152724266052,-7.3097972869873,-4.85065269470215,-3.04781866073608,-0.13072516024113,-0.56627207994461,-0.69760811328888,-0.02794708497822,0.14676037430763,0.14737124741077,2.15956997871399,1.91536140441895,1.67354702949524,6.45985555648804,7.55639982223511,8.79659652709961,1.06634163856506,1.04801571369171,0.95088809728622,-2.78924489021301,-2.31519293785095,-1.76692080497742,SWING_RIGHT
-0.61697387695313,-0.80389869213104,-0.84299403429031,-0.20754146575928,-0.22036963701248,-0.20082195103168,1.65678763389587,1.26174426078796,0.82599955797195,9.62259578704834,10.2690305709839,10.6497087478638,-0.54817521572113,-0.98066776990891,-1.59764170646667,6.10551357269287,7.64019680023193,8.87081623077393,-0.69821900129318,-0.47219884395599,-0.1667662113905,0.52183163166046,0.90606588125229,0.56886827945709,-0.24420857429504,-1.63523972034454,-2.06380176544189,11.7773771286011,10.6497087478638,10.5108451843262,-5.77657079696655,-8.00378513336182,-11.0477266311646,19.2332210540771,23.6217918395996,25.2788791656494,1.44591808319092,2.51615405082703,3.444669008255,2.95368623733521,3.66595506668091,2.48209810256958,-18.191743850708,-28.7145595550537,-35.2462387084961,13.3120603561401,8.35127449035645,4.75009632110596,-13.2779960632324,-4.89936828613281,-2.21033954620361,-11.8204727172852,-20.4159564971924,-14.4517011642456,0.41722095012665,-0.32559117674828,-0.30970868468285,1.03618013858795,1.16018581390381,0.83581638336182,-7.83173322677612,-5.74877738952637,-3.96719217300415,6.02889919281006,7.31937408447266,7.3600754737854,0.27160596847534,0.81588691473007,1.04496133327484,-8.19565200805664,-6.82856273651123,-5.0975546836853,-0.20830504596233,-0.40989059209824,-0.55038958787918,-0.09697485715151,-0.09147707372904,-0.10308351367712,1.38384854793549,1.74537301063538,1.73819041252136,7.38162326812744,7.88919401168823,8.66970348358154,0.48296532034874,0.51289772987366,0.6533967256546,-4.10366153717041,-4.29759216308594,-4.01747035980225,SWING_RIGHT
-0.16310101747513,-0.00244346098043,0.12889257073402,-0.37308594584465,-0.38896843791008,-0.33399057388306,-0.41180267930031,0.0526724383235,-0.01436521019787,10.6640739440918,10.9729261398315,10.5491523742676,0.51228684186935,0.24778221547604,-0.05459608137608,5.14304447174072,6.69209289550781,8.49492645263672,0.31459560990334,0.35857790708542,0.2981022298336,0.52244251966476,0.73624533414841,0.96898502111435,0.69431847333908,1.42694425582886,1.82917010784149,11.9401826858521,11.2075576782227,11.5810527801514,-4.87187957763672,-7.46439170837402,-10.3806619644165,19.3457489013672,21.9745826721191,24.1293640136719,1.96148824691772,3.05799150466919,3.97734355926514,3.23712754249573,2.51019811630249,-0.86544334888458,-16.0273838043213,-32.0975646972656,-40.5063018798828,8.5595703125,4.78122091293335,6.08635997772217,-11.4783868789673,-5.4027214050293,-2.60251498222351,-27.0050983428955,-22.3624420166016,-15.9196453094482,0.06719517707825,0.56993728876114,1.25777149200439,1.80220520496368,1.17423570156097,0.48456886410713,-9.61301898956299,-7.73596477508545,-4.93474912643433,10.7311115264893,10.6377372741699,7.60907220840454,0.95088809728622,1.04679393768311,0.92034482955933,-6.40000057220459,-4.49152231216431,-3.54820680618286,-0.09957103431225,-0.15332718193531,-0.09957103431225,-0.0242818929255,0.0056505035609,-0.14217889308929,2.18590617179871,1.91057300567627,1.89860188961029,7.12544345855713,7.78145456314087,8.6002721786499,0.57154077291489,0.52755850553513,0.46280679106712,-3.38061285018921,-2.90895509719849,-3.31836366653442,SWING_RIGHT
0.07330382615328,0.12034045159817,0.09468411654234,-0.16355916857719,-0.27779096364975,-0.29428434371948,-0.1268926858902,-0.21547815203667,-0.10055647045374,9.50528049468994,9.36402225494385,10.036792755127,1.31923985481262,0.96249455213547,-0.37041342258453,6.62266111373901,7.79821443557739,9.74709415435791,-0.0177150927484,-0.17348572611809,-0.51495939493179,1.30740439891815,1.32084333896637,1.73989689350128,0.08140286058187,-1.07499659061432,0.46208092570305,9.13896751403809,9.16769790649414,11.6313314437866,-4.94823741912842,-7.66170120239258,-11.5804014205933,23.5499668121338,27.9627799987793,26.9284839630127,3.01217651367188,4.49169206619263,4.47764205932617,6.11796808242798,5.13997268676758,0.40149119496346,-23.5427837371826,-34.9685134887695,-36.8144416809082,5.98819780349731,-2.75333189964294,-1.04626619815826,-10.948766708374,-5.63301753997803,-2.64832997322083,-24.7258186340332,-23.4541988372803,-16.3673610687256,0.86803948879242,1.09467053413391,1.42575943470001,0.35811975598335,0.1375973969698,-0.10125091671944,-11.0902414321899,-8.64815616607666,-6.33296298980713,9.30177307128906,9.54119300842285,7.10150146484375,0.67477703094482,1.3534482717514,1.55197954177856,-9.0168628692627,-6.25634813308716,-3.6846764087677,-0.02871066704392,-0.12278391420841,-0.08918632566929,-0.07742717117071,-0.101861782372,-0.24236078560352,1.16837048530579,1.37427175045013,1.13006317615509,7.25473022460938,7.79821443557739,8.20044040679932,0.76457422971725,0.7022659778595,0.59108847379684,-3.09809708595276,-2.62883353233337,-2.71741890907288,SWING_RIGHT
-0.15699236094952,-0.10079276561737,0.09101892262697,-0.73777252435684,-0.23014348745346,-0.1116356253624,-0.35673606395721,-0.23223756253719,-0.14365209639072,11.5068330764771,11.4804964065552,10.9010992050171,0.20196732878685,-0.9434050321579,-2.14192271232605,11.3823337554932,12.4525423049927,13.3168487548828,0.39950588345528,0.52473324537277,0.67256265878677,1.06794512271881,2.00440168380737,2.60427117347717,0.06224924325943,-0.86430680751801,-2.20984816551209,11.9377889633179,10.9441947937012,9.65611457824707,-8.88770771026611,-11.2315979003906,-13.1228361129761,22.2618865966797,22.158935546875,19.5277080535889,2.09282422065735,2.34999871253967,2.06228113174438,5.08438396453857,0.87674432992935,-1.42743933200836,-27.3690166473389,-26.1024856567383,-20.8205757141113,-0.61770403385162,1.83395850658417,15.0553388595581,-7.10520267486572,-4.08203077316284,-1.98004329204559,-20.3896198272705,-18.0528793334961,-12.8475856781006,1.53815865516663,1.30541908740997,1.31580376625061,-0.50625455379486,-0.12996158003807,-0.48426342010498,-9.21079349517822,-6.51492214202881,-3.97437477111816,9.90032291412354,8.93067169189453,7.89398241043091,1.20867323875427,1.5935183763504,1.79754734039307,-8.23635292053223,-5.42077207565308,-3.35427665710449,0.33414328098297,-0.05436700582504,-0.29199358820915,-0.5911648273468,-0.37430769205093,-0.28573220968246,1.76692080497742,2.0829553604126,2.07337856292725,6.8453221321106,7.52527523040771,8.40394687652588,1.32351589202881,1.11887609958649,0.91912311315536,-0.9433154463768,-0.77332717180252,-1.02950668334961,SWING_RIGHT
0.22052235901356,0.13011430203915,-0.00794124789536,0.3947716653347,0.41431936621666,0.42103886604309,0.82839381694794,0.7493851184845,0.76853877305984,10.1301670074463,9.64893245697022,9.31853199005127,-0.46570840477943,-1.10406255722046,-1.71492779254913,8.26747798919678,8.43267726898193,8.49732112884521,-0.48197266459465,-0.31642818450928,0.07513642311096,0.59024852514267,1.21882891654968,-0.38041633367538,-0.27054479718208,-0.85951840877533,-1.08936178684235,11.0782709121704,9.93144798278809,11.2458648681641,-5.91584825515747,-8.25546169281006,-11.1607370376587,19.3481426239014,23.4254684448242,25.949254989624,1.46913087368011,2.517986536026,3.16061687469482,3.21513652801514,5.14180564880371,3.74903273582459,-18.821418762207,-31.4511318206787,-35.9285888671875,12.7925186157227,4.95869112014771,-3.17710566520691,-11.6078901290894,-6.50472211837769,-2.96903419494629,-21.6346054077148,-26.4568271636963,-22.0871086120605,-0.02687807008624,-0.73853605985641,-0.62002819776535,0.77411895990372,0.65744370222092,0.07223481684923,-11.8515977859497,-9.10784244537354,-6.4071831703186,6.24198293685913,7.80539703369141,8.32972717285156,2.23614859580994,2.23675942420959,1.74379122257233,-6.28747272491455,-1.67354702949524,-1.35272395610809,-0.26694810390472,-0.22785273194313,-0.17348572611809,-0.50320023298264,-0.38591411709785,-0.32238411903381,2.61446833610535,2.3511061668396,2.11647439002991,9.48852062225342,9.86201572418213,10.1541090011597,0.73036575317383,0.67905306816101,0.70470941066742,-1.95366859436035,-2.30082774162292,-2.25054955482483,SWING_RIGHT
-0.10812314599752,-0.12034045159817,-0.19425514340401,-0.10491610318422,-0.0242818929255,0.11988230794668,0.50517654418945,0.33997663855553,0.28969839215279,9.8284969329834,9.76385402679443,9.56752967834473,-0.19753855466843,-0.77358448505402,-1.52067267894745,7.1996636390686,8.55717658996582,9.51964569091797,-0.1050688251853,0.08613199740648,0.20769418776035,0.74540829658508,1.34711062908173,1.61222612857819,-0.49081134796143,-0.45010992884636,0.07900865375996,11.571475982666,10.8508214950562,10.8556098937988,-6.2359414100647,-8.17238426208496,-10.9157800674438,19.2978649139404,22.2020301818848,21.833324432373,1.07817721366882,1.98286855220795,2.22293853759766,4.6292896270752,3.55355596542358,0.96654152870178,-18.9100036621094,-25.0083351135254,-26.3802127838135,4.88177728652954,1.95606279373169,5.90200662612915,-9.34524536132812,-5.28176975250244,-1.9934823513031,-20.8517017364502,-21.9602165222168,-16.7791633605957,0.75930547714233,0.24312436580658,0.28283059597015,-0.21853704750538,0.0581849142909,-0.14950926601887,-12.1436901092529,-8.66970348358154,-5.84694004058838,7.90355920791626,8.51647472381592,8.38718795776367,1.79266047477722,2.12985801696777,2.04861307144165,-6.85011053085327,-4.07014274597168,-2.18351197242737,0.12095131725073,-0.01954768784344,-0.1050688251853,-0.52702397108078,-0.39996400475502,-0.21853704750538,1.1180921792984,1.0989385843277,1.0989385843277,7.84849262237549,8.58830070495605,8.58830070495605,1.10055005550385,0.98937261104584,0.86475610733032,-1.74776721000671,-1.45806884765625,-1.66875863075256,SWING_RIGHT
0.01649336144328,0.01466076634824,0.03115412779152,-0.19654589891434,-0.11957687139511,-0.10858129709959,-0.16280572116375,-0.31842881441116,-0.56263738870621,10.4869031906128,10.1660795211792,9.76624774932861,-0.57994019985199,-0.80351686477661,-1.31297850608826,5.8924298286438,7.61864900588989,9.56274127960205,-0.17043140530586,-0.18997909128666,-0.31154128909111,0.1308778822422,0.30130928754807,1.11681437492371,0.22984336316586,0.89064306020737,0.51714754104614,9.4717607498169,10.4845085144043,10.4701433181763,-6.46379423141479,-8.70322608947754,-11.2169370651245,18.2156848907471,20.490177154541,21.4909534454346,1.22356307506561,3.19787955284119,3.12762999534607,4.46496677398682,1.52914845943451,-1.61192071437836,-18.1797714233398,-28.3219089508057,-25.1902942657471,8.31536197662354,0.81881695985794,12.4932441711426,-9.21329879760742,-5.81200122833252,-3.57684516906738,-20.0496444702148,-17.5716457366943,-15.0313968658447,0.37690386176109,-0.27794370055199,-0.39950588345528,0.07406741380692,-0.3144428730011,-0.17883080244064,-10.079888343811,-7.13980865478516,-4.04859495162964,6.20606994628906,8.16213321685791,8.09988403320313,1.64605271816254,2.10297989845276,2.14451885223389,-8.07594203948975,-5.25317764282227,-3.26329684257507,-0.59315013885498,-0.7000515460968,-0.69027775526047,-0.19532416760921,-0.12079860270023,-0.01023199316114,1.22343707084656,1.40539634227753,1.1180921792984,8.30578517913818,9.07192993164062,9.65372085571289,1.30580079555511,1.25998592376709,1.20439720153809,-2.85388851165771,-2.81318688392639,-2.8467059135437,SWING_RIGHT
0.06902777403593,0.05192354694009,0.04825835302472,-0.08475755155087,-0.08842274546623,-0.0169515106827,-0.03591302409768,-0.17477671802044,-0.16519992053509,9.58428859710693,9.78061294555664,9.68245124816894,0.53855407238007,0.50068044662476,0.44448083639145,2.65995812416077,2.74375510215759,2.74375510215759,0.00977384392172,-0.05131268128753,-0.07024950534105,0.12232576310635,0.33796119689941,0.76984292268753,-0.23463176190853,-0.17717093229294,-0.28251579403877,9.99130344390869,10.793360710144,11.5283803939819,0.42493313550949,0.12255483865738,-1.17736637592316,8.46859073638916,12.8643445968628,18.6657943725586,0.76846849918365,1.46241140365601,2.43551969528198,3.91640973091125,3.65373778343201,3.88769912719727,4.06774854660034,0.74459671974182,-20.9618339538574,13.4796552658081,12.186785697937,8.04960536956787,-14.1985702514648,-12.403847694397,-9.33608245849609,9.27304267883301,-5.49020385742188,-13.8603324890137,3.57417249679565,1.30969512462616,0.67928212881088,-1.01938140392303,0.3086396753788,0.15470162034035,-17.6865673065186,-11.8635683059692,-9.74709415435791,11.2267112731934,7.94904899597168,10.5012683868408,-0.73326736688614,0.07063129544258,0.70898544788361,-11.3344497680664,-10.2355117797852,-8.21719932556152,1.39827048778534,0.97310835123062,0.1924225538969,-0.71883565187454,-0.69928801059723,-0.42806380987167,-0.57700258493423,0.23223756253719,0.99359369277954,5.12149667739868,4.36223554611206,4.69024133682251,1.84702742099762,1.73768258094788,1.63322460651398,-3.02387666702271,-3.08852028846741,-3.2968156337738,SWING_RIGHT
0.08124507963657,0.00305432616733,-0.13439035415649,0.44303002953529,0.31291571259499,0.14798210561275,0.64882868528366,0.58657944202423,0.48602294921875,9.48373222351074,9.13657283782959,9.30895519256592,-0.64408105611801,-0.9989937543869,-1.49379456043243,5.28430223464966,6.96982049942017,8.93306541442871,0.23029619455338,0.34025195240974,0.19425514340401,-0.70234233140945,-0.46349400281906,0.45463645458221,1.3215993642807,1.20188927650452,-1.07978498935699,11.0902414321899,11.2506532669067,11.1070013046265,-7.13880014419556,-9.45031452178955,-11.9237079620361,23.7031955718994,24.9891815185547,22.9681758880615,1.81610238552094,3.74216055870056,4.48741626739502,6.4893741607666,4.14609527587891,-1.19164538383484,-23.9474048614502,-33.0815811157227,-33.6944999694824,5.04727649688721,1.06063139438629,5.2172646522522,-9.5926456451416,-5.24878311157227,-1.9201785326004,-23.6768589019775,-25.7553253173828,-20.815788269043,0.77579885721207,1.44469630718231,1.42514860630035,-0.0615446716547,-0.59849524497986,-0.77137011289597,-6.72321748733521,-3.5506010055542,-0.48362874984741,9.04559326171875,6.85489892959595,4.96108531951904,1.31557464599609,1.25754249095917,1.10055005550385,-3.63918662071228,-2.79163908958435,-1.78846871852875,-0.36651915311813,-0.10445795953274,-0.08368854224682,-0.12751811742783,-0.05238169431686,0.0679587572813,1.84592950344086,1.73579621315002,1.34793555736542,9.534010887146,9.36641597747803,8.45422554016113,0.41027235984802,0.37239873409271,0.21051943302155,-2.68150591850281,-2.34152936935425,-2.47081613540649,SWING_RIGHT
-0.11423180252314,-0.0372627787292,0.09224065393209,0.26832255721092,0.22006420791149,0.28725937008858,0.06703764945269,-0.18914192914963,-1.10612118244171,9.97214889526367,9.89792919158936,9.56752967834473,-0.3545309305191,-0.38324159383774,-0.70822191238403,4.5920786857605,7.03446388244629,9.60104846954346,-0.49174651503563,-0.21319197118282,0.33841934800148,0.48273625969887,1.20233547687531,1.25731337070465,-0.35434186458588,0.34955343604088,0.36631286144257,12.1628437042236,12.8691329956055,12.5052146911621,-6.74295949935913,-9.8956356048584,-12.9725637435913,24.6563873291016,27.7951850891113,26.8494758605957,2.05922675132751,3.87532901763916,4.109290599823,7.07091808319092,7.7782998085022,1.23287880420685,-25.3650703430176,-37.501579284668,-35.7059288024902,7.46063184738159,-5.23162984848022,-8.81575012207031,-9.73253440856934,-5.37217807769775,-1.68194115161896,-26.4951343536377,-30.3737411499023,-19.7862815856934,0.92362827062607,0.75564032793045,0.59925878047943,0.27076601982117,-0.4616613984108,-0.27412578463554,-11.5834474563599,-7.52048683166504,-3.68707060813904,4.89644193649292,7.22121143341064,5.24838924407959,1.80609941482544,1.41331315040588,0.90629494190216,-2.83952331542969,-1.56820213794708,-2.3702597618103,-0.08796459436417,-0.07635815441608,-0.20280726253986,0.00992656033486,-0.1036943718791,-0.10002918541431,1.02950668334961,0.75896191596985,0.76853877305984,8.29381370544434,8.27466011047363,8.90912342071533,0.77923500537872,0.67538785934448,0.64545547962189,-2.80839848518372,-3.1004912853241,-3.30639243125916,SWING_RIGHT
-0.26511552929878,-0.32620203495026,-0.35308012366295,-0.18493945896626,0.14614951610565,0.27504208683968,0.63685762882233,0.70150107145309,0.79487496614456,10.6544971466064,10.5252103805542,10.2690305709839,-0.64285933971405,-1.3245849609375,-1.93056321144104,5.76553678512573,6.5268931388855,7.75751256942749,0.26022860407829,0.43188172578812,0.45387288928032,-1.05969846248627,-0.91858863830566,0.55176401138306,-1.65678763389587,1.08457338809967,3.78523278236389,12.3663511276245,14.3607206344604,14.7967653274536,-6.79060697555542,-10.003758430481,-12.4307260513306,24.0312004089355,23.8827610015869,19.9442977905273,2.22660374641419,2.03723549842834,1.16858518123627,4.02208948135376,1.99646031856537,-2.02242207527161,-25.128044128418,-26.8782062530518,-21.3089942932129,1.05105459690094,-3.37103605270386,8.30339050292969,-6.94271278381348,-4.19442987442017,-1.97210204601288,-19.4558811187744,-18.7184677124023,-12.5028209686279,1.26876711845398,0.85704392194748,0.41844269633293,0.44913867115974,0.28725937008858,0.11621711403131,-7.64737939834595,-5.21008205413818,-5.21008205413818,7.7072343826294,6.71842908859253,6.71842908859253,0.39438986778259,0.5978080034256,0.61307960748672,-6.42633676528931,-5.23162984848022,-4.35026454925537,0.20952677726746,0.05192354694009,-0.07757988572121,-0.07192938029766,-0.26923885941505,-0.45921793580055,1.38624274730682,1.50355863571167,1.32399356365204,7.18529844284058,7.22839403152466,8.06875896453857,0.43715044856071,0.41577014327049,0.46036332845688,-3.06697249412537,-3.16513466835022,-3.08133769035339,SWING_RIGHT
-0.02687807008624,-0.10995574295521,-0.16310101747513,-0.02733621932566,-0.00045814894838,-0.07254024595022,0.33997663855553,0.48362874984741,0.62488663196564,9.2155818939209,9.0551700592041,9.08868885040283,-0.03871358558536,-0.25434902310371,-0.57016634941101,4.45560932159424,5.88764142990112,7.89158821105957,-0.4886921942234,-0.4972442984581,-0.49174651503563,-0.41951170563698,0.36850446462631,1.7667750120163,-0.92176765203476,0.58418524265289,1.37427175045013,10.7766008377075,12.2250928878784,11.3990936279297,-3.91343188285828,-6.10216188430786,-8.77103233337402,18.4263744354248,20.8852195739746,22.4653930664063,-0.32192599773407,0.00183259579353,1.05557513237,1.17729008197784,1.1100949048996,0.65438938140869,-11.8611745834351,-19.6282634735107,-26.0809364318848,8.41591835021973,10.1110134124756,11.2410764694214,-13.0843515396118,-9.91090679168701,-5.87736368179321,-5.72722959518433,-16.9467582702637,-15.0864639282227,-0.28405234217644,0.00366519158706,0.33536502718925,0.99769568443298,1.21760714054108,1.01418900489807,-11.9330005645752,-10.4797201156616,-8.80138492584229,11.4445829391479,11.118971824646,8.39676475524902,0.2691625058651,1.27281415462494,1.66804385185242,-10.5970363616943,-7.20205783843994,-4.55137729644775,0.05803219974041,-0.02565634064376,-0.11972958594561,-0.1586722433567,-0.26068675518036,-0.2716823220253,0.41180267930031,1.17315888404846,1.29047477245331,7.15417385101318,7.46302604675293,7.48696804046631,1.33817672729492,1.32657027244568,1.22027969360352,-2.30801033973694,-1.721431016922,-1.00077629089355,SWING_RIGHT
-0.08307767659426,-0.08918632566929,-0.15088371932507,0.11071932315826,0.14614951610565,0.12415836006403,0.37588965892792,0.217872351408,0.14844051003456,9.64174938201904,9.2131872177124,8.79420185089111,0.00099265598692,-0.18776470422745,-0.44310638308525,4.83389329910278,5.43034887313843,6.45506715774536,-0.67134088277817,-0.55771994590759,-0.21258109807968,0.04657847434282,0.16386459767818,0.51694470643997,-0.8930372595787,-1.60890352725983,-1.27371525764465,9.54119300842285,10.8532152175903,10.9130706787109,-2.26959347724915,-4.64463758468628,-8.64702701568604,18.6442470550537,26.5094985961914,28.5804843902588,0.00610865233466,1.16797435283661,2.40558743476868,4.47412967681885,4.99153280258179,4.65189170837402,-9.76385402679443,-21.8429012298584,-35.7226867675781,10.8173027038574,8.4207067489624,3.78523278236389,-14.9566535949707,-10.6842622756958,-5.634850025177,-8.49492645263672,-25.2764854431152,-23.8348770141602,0.89736104011536,0.09468411654234,0.34636059403419,1.43935120105743,0.64889162778854,0.07223481684923,-13.2809362411499,-9.45021343231201,-6.85250473022461,6.60350751876831,9.28740787506104,11.3464212417603,-0.25618159770966,0.42554399371147,0.85131704807281,-7.62822580337524,-6.05762958526611,-4.44124412536621,0.00549778714776,-0.21074850857258,-0.21319197118282,-0.08536841720343,0.06123924255371,0.05207626149058,1.63045132160187,2.08534979820251,2.15238738059998,7.65216779708862,8.3991584777832,8.98334407806396,0.31009048223495,0.19463694095612,0.09873109310865,-2.14281058311462,-2.17154097557068,-2.19548296928406,SWING_RIGHT
-0.15027284622192,-0.05558873713017,-0.03115412779152,0.31719177961349,0.20723603665829,0.23350323736668,0.13886369764805,0.00239420169964,-0.36631286144257,9.89792919158936,9.94581317901611,10.1732625961304,-0.04237877577543,-0.10224357247353,-0.13095423579216,3.89536619186401,4.38617753982544,5.74159479141235,0.09285151958466,0.02932153269649,0.19792033731937,0.90973109006882,1.55847001075745,2.38313794136047,-0.36631286144257,-0.73023152351379,-0.60094463825226,10.9585599899292,12.0670757293701,12.6871738433838,-2.68009495735169,-4.93724203109741,-8.38924121856689,17.9595050811768,22.2738571166992,25.211841583252,1.51494586467743,1.7880026102066,2.92299008369446,1.18523132801056,1.14980113506317,0.39843684434891,-11.1668558120728,-21.7662868499756,-32.145450592041,10.956166267395,11.7845602035522,13.8818807601929,-13.8338832855225,-9.33486080169678,-4.80651664733887,-9.36162757873535,-21.8021984100342,-21.2275905609131,0.58887410163879,-0.82588982582092,-0.20830504596233,0.31413745880127,1.21760714054108,0.83276206254959,-9.2131872177124,-6.01932239532471,-4.85783529281616,8.8756046295166,11.585841178894,12.7805480957031,-0.74609553813934,0.1433242559433,0.80183696746826,-9.15093803405762,-7.76230096817017,-5.33218622207642,-0.09040805697441,-0.37384954094887,-0.44898596405983,-0.03955352306366,0.17974710464478,0.14614951610565,1.41736745834351,1.96085119247437,2.14041638374329,6.73279428482056,7.14220285415649,7.29543209075928,0.85253882408142,0.77801322937012,0.71020722389221,-1.91536140441895,-1.66636443138123,-1.66636443138123,SWING_RIGHT
-0.01038470957428,-0.01466076634824,-0.0372627787292,0.23044891655445,0.1699732542038,0.21212296187878,0.15562310814857,-0.03591302409768,-0.0526724383235,9.66090297698975,9.80694961547852,10.4270477294922,-0.52801662683487,-0.92263561487198,-1.41377127170563,6.38324117660522,7.20924043655396,8.66012668609619,0.11728613078594,0.0372627787292,-0.05070181563497,0.64033949375153,0.21578814089298,0.13026700913906,-0.73023152351379,-0.37110126018524,0.44053310155869,8.50929164886475,9.15333271026611,10.5156335830688,-6.24205017089844,-8.49675369262695,-10.7025880813599,18.3713073730469,18.866907119751,17.1478710174561,0.70371675491333,1.83320665359497,3.19543600082397,3.35563540458679,1.87428724765778,-2.73285841941834,-14.667179107666,-23.664888381958,-26.4999217987061,6.25155973434448,5.12149667739868,5.5931544303894,-8.41978454589844,-4.0692024230957,-1.30076122283936,-20.2435741424561,-20.2387847900391,-14.7464866638184,-2.21988439559937,-1.30358648300171,-0.05681046843529,2.26279759407043,1.37582123279572,0.1718058437109,-6.7543420791626,-4.81952810287476,-3.43567943572998,12.8451910018921,13.2809362411499,12.2514295578003,0.43165266513824,0.78717625141144,1.1200977563858,-4.95629692077637,-3.8379054069519,-2.43011474609375,-0.06719517707825,-0.16493362188339,-0.10262536257505,0.69043046236038,0.66294151544571,0.3300199508667,0.96486330032349,1.39581954479218,1.64960491657257,8.8372974395752,8.7175874710083,9.04559326171875,0.4163810312748,0.36201402544975,0.35040757060051,-1.42455005645752,-1.45567464828491,-1.5179238319397,SWING_RIGHT
-0.06169738993049,-0.01038470957428,-0.01221730466932,0.11499538272619,0.18952094018459,0.1809688359499,-0.05746084079146,-0.09097966551781,-0.21068975329399,10.3193082809448,9.92905330657959,9.96496677398682,-0.87559896707535,-1.15048837661743,-1.4522557258606,3.90015459060669,4.52025270462036,5.78708457946777,-0.06536258012056,-0.00305432616733,0.0299323964864,-0.08048149943352,-0.12690725922585,0.15714508295059,-0.26336219906807,-0.20590133965015,0.11492168158293,10.3647985458374,11.3320560455322,12.1484785079956,-6.98425149917603,-9.8272180557251,-12.4105672836304,22.0535907745361,23.5260238647461,20.40159034729,2.91504883766174,3.97917628288269,2.90038824081421,5.65065622329712,1.16446185112,-4.60516023635864,-23.2818164825439,-29.2388896942139,-27.5533714294434,-0.66079968214035,-4.20182418823242,6.30662631988525,-5.88163948059082,-2.61961913108826,-0.85055351257324,-25.1735343933105,-18.3713073730469,-11.0375690460205,0.42516219615936,0.64079761505127,0.69211030006409,-0.73105299472809,-0.51908272504807,-0.62964934110641,-6.08875417709351,-3.2776620388031,-0.65601128339767,12.2418527603149,10.1565027236938,8.88278770446777,1.475621342659,1.34000933170319,1.07489371299744,-1.88423669338226,-0.55784898996353,-0.26815059781075,0.04764748737216,-0.01404990069568,0.01343903504312,-0.12751811742783,-0.15806138515472,-0.04749477282166,1.75734400749207,1.88423669338226,1.6711528301239,8.86123943328857,9.62259578704834,9.75906562805176,0.51228684186935,0.49273917078972,0.47441321611404,-0.78769236803055,-0.76614451408386,-0.80205756425858,SWING_RIGHT
-0.00122173049022,-0.04825835302472,-0.1472185254097,0.13454307615757,-0.07315111160278,-0.12812899053097,-0.02394201606512,-0.03351882472634,-0.02633621916175,8.92827701568604,8.91151809692383,9.13417911529541,-1.54144203662872,-1.85115075111389,-2.25004577636719,5.17656326293945,6.06002378463745,7.39598846435547,-0.3158173263073,-0.27244588732719,-0.53511798381805,0.02031126990914,-0.39446622133255,-0.26068675518036,0.97922849655151,1.83635270595551,0.68713587522507,9.24191761016846,9.61301898956299,11.7151279449463,-7.521812915802,-9.59081363677978,-11.1589040756226,17.2244853973389,16.4750995635986,11.4852848052979,1.67377078533173,1.80021989345551,1.11238563060761,3.88586664199829,0.78083848953247,-0.59605175256729,-18.6729774475098,-20.3896198272705,-18.8764839172363,2.66714072227478,1.01514148712158,6.96742630004883,-6.19562435150146,-3.00079917907715,-1.1645382642746,-19.7312145233154,-16.434398651123,-12.2226991653442,0.04520402848721,0.49846604466438,0.53328537940979,0.01908953860402,-0.34437528252602,-0.38041633367538,-7.07516527175903,-5.34415769577026,-2.79882168769836,9.42627143859863,8.5188684463501,7.02488708496094,1.19217991828918,1.37421774864197,1.33145713806152,-4.57292509078979,-2.69826531410217,-1.12288057804108,-0.40011674165726,-0.32192599773407,-0.12217304855585,-0.37797287106514,-0.19837848842144,-0.20448714494705,1.57299053668976,1.56580793857574,1.07020819187164,9.65611457824707,10.2235403060913,10.1612911224365,0.4377613067627,0.48846313357353,0.47380235791206,-1.97521638870239,-1.64960491657257,-1.22343707084656,SWING_RIGHT
-0.07635815441608,-0.09590584039688,-0.0226020142436,0.23716843128204,0.38255435228348,0.37583485245705,0.20590133965015,0.2537853717804,0.35673606395721,9.99130344390869,10.0296106338501,9.92905330657959,-0.36552649736404,-0.53656876087189,-0.65018969774246,3.1196448802948,3.09809708595276,3.48595762252808,-0.1246165111661,-0.19425514340401,-0.25595253705978,0.08506298810244,-0.04932736977935,-0.12324206531048,-0.2537853717804,0.02633621916175,0.42616790533066,8.75350093841553,8.7582893371582,9.52443408966064,-1.570152759552,-2.16208124160767,-3.23414969444275,9.24910068511963,12.1939687728882,16.1686420440674,-0.53267449140549,-0.91446524858475,-0.40072759985924,0.87979865074158,2.20781970024109,4.74107789993286,1.12766897678375,-7.00573348999023,-16.8007125854492,8.57154178619385,13.8052663803101,11.1788272857666,-13.6878862380981,-12.4545497894287,-9.4399299621582,7.52766942977905,-6.12945556640625,-13.6065473556519,0.28099802136421,0.17654006183147,0.40866884589195,-2.18185782432556,0.05574145540595,1.35383009910584,-14.6623907089233,-11.0184154510498,-9.16530323028564,13.9034280776978,14.6073236465454,9.56274127960205,-1.65384125709534,-1.1645382642746,-0.72593700885773,-7.5372462272644,-6.84292793273926,-6.72321748733521,0.2461786866188,0.29260444641113,0.22785273194313,-0.11346822232008,-0.18555031716824,-0.14462234079838,-2.93289709091187,-1.83874690532684,-1.18273568153381,8.69125175476074,8.46380233764648,8.09270095825195,0.56421041488647,0.48296532034874,0.44631341099739,-2.66474652290344,-2.559401512146,-2.61925673484802,SWING_RIGHT
-0.00977384392172,-0.01099557429552,0.00794124789536,0.51083606481552,0.66171979904175,0.78267109394073,0.63925182819366,0.59615623950958,0.40940847992897,9.81173801422119,9.96017837524414,9.75427722930908,-0.93546378612518,-1.36612379550934,-1.81449890136719,5.97862100601196,6.51252794265747,7.5683708190918,-0.10140363126993,-0.1814269721508,-0.39278635382652,1.03495848178864,0.64766985177994,0.33857205510139,-0.31842881441116,0.50038814544678,1.7980455160141,9.0767183303833,9.0575647354126,11.3344497680664,-6.47051382064819,-9.35624122619629,-11.5388622283936,20.5524253845215,20.2459678649902,17.3968677520752,1.76540052890778,3.38541507720947,3.41901278495789,5.20472478866577,2.75515508651733,-2.05785226821899,-19.1829433441162,-25.5973091125488,-25.9660148620605,4.64953947067261,-0.07661445438862,1.36230075359344,-8.25729465484619,-5.01909780502319,-2.54692625999451,-18.7280445098877,-19.1230869293213,-12.6464729309082,-0.03054326213896,-0.17409659922123,0.28893926739693,0.56642478704453,-0.31322115659714,-0.27351492643356,-10.8795518875122,-6.90038871765137,-5.21008205413818,6.21804094314575,10.956166267395,11.5906295776367,-0.00572686176747,0.71814846992493,0.81710863113403,-6.40957736968994,-3.73256039619446,-2.79403328895569,0.09162978827953,-0.19425514340401,-0.31703907251358,-0.21731531620026,-0.14828753471375,-0.21426098048687,0.67516487836838,0.93373864889145,0.92895025014877,7.71920537948608,8.20522880554199,9.17009162902832,0.51778465509415,0.42676573991776,0.46525025367737,-1.5753847360611,-1.72861361503601,-2.23379015922546,SWING_RIGHT
0.02443460933864,0.03420845419168,0.064751714468,-0.00106901419349,0.04474587738514,0.08017606288195,0.45729252696037,0.41419690847397,0.53390699625015,10.2091751098633,10.2331171035767,10.2259349822998,-0.25434902310371,-0.44738242030144,-0.63552892208099,3.80199241638184,3.77805018424988,3.83551120758057,-0.00244346098043,-0.11301007121801,-0.22357667982578,0.16814066469669,0.1522581577301,-0.05726861581206,0.49320554733276,0.30406361818314,0.01915361359715,8.79180812835693,8.21241092681885,7.92750120162964,-1.40216481685638,-1.59031128883362,-1.78151214122772,4.58968448638916,4.9898157119751,6.19649314880371,-0.53817230463028,-0.62124997377396,-0.78068578243256,-1.03770732879639,-2.32968735694885,-2.15253639221191,-2.17632937431335,-1.29765737056732,2.61446833610535,6.99855089187622,10.5706996917725,15.2277212142944,-5.93722820281982,-9.73864269256592,-13.9157390594482,26.5358352661133,23.7295322418213,12.1173543930054,2.88878178596497,1.58091926574707,-0.8784242272377,5.15524435043335,-0.1440114825964,-1.30465543270111,-29.9523601531982,-25.2214183807373,-17.0281600952148,-8.55717658996582,-4.0270471572876,6.12227296829224,-4.10463285446167,-2.63427996635437,-1.58359181880951,-17.7655754089355,-14.1643962860107,-10.0774946212769,0.61636304855347,0.78618359565735,0.59192842245102,-0.18066339194775,-0.48731774091721,-0.51602840423584,-7.24754762649536,-5.74638319015503,-3.99831676483154,8.81575012207031,7.99693298339844,7.38162326812744,0.68210738897324,0.91606879234314,0.93378388881683,-5.97383260726929,-4.53940629959106,-3.42370843887329,SWING_RIGHT
0.0274889357388,-0.08491026610136,-0.11056660860777,-0.33765575289726,-0.2393064647913,-0.22953261435032,0.69431847333908,0.77572137117386,0.9528923034668,9.6920280456543,9.77343082427978,9.72075843811035,0.99914646148682,0.65828365087509,0.17081318795681,5.43034887313843,6.29226112365723,6.82377433776855,-0.20525072515011,-0.15638150274754,-0.12278391420841,0.0306959785521,-0.13423763215542,-0.18066339194775,0.34237083792686,-0.16759411990643,-0.64882868528366,9.41429996490478,9.44781875610352,10.4749317169189,-2.33984303474426,-3.03195333480835,-4.46198892593384,11.2530469894409,13.9561014175415,17.8757076263428,-0.45204028487206,-0.58215457201004,0.2944370508194,0.85169887542725,1.92865431308746,2.48026561737061,2.06140756607056,-5.62188482284546,-15.641918182373,10.3456449508667,11.6313314437866,9.93384170532227,-12.007396697998,-9.57004356384277,-6.35811471939087,-4.1659107208252,-14.200309753418,-16.4463691711426,-0.30115658044815,0.34452798962593,0.45326200127602,0.63239824771881,0.54626625776291,-0.28328874707222,-13.3144550323486,-10.7598419189453,-8.31296730041504,12.90025806427,8.71040534973145,8.74152946472168,0.09934195876122,1.10604786872864,1.59535098075867,-9.7087869644165,-6.51013374328613,-3.79959797859192,-0.60048055648804,-0.51129418611526,-0.22479841113091,-0.02122756652534,-0.05543602257967,-0.15561792254448,0.65601128339767,1.02471828460693,0.96246910095215,9.64653778076172,10.6712560653687,11.2434701919556,0.80305874347687,0.71570497751236,0.74013960361481,-1.34793555736542,-1.65439331531525,-1.68791222572327,SWING_RIGHT
0.05803219974041,0.13805554807186,0.05925392732024,-0.05726861581206,-0.10980302840471,0.0062613687478,1.07739078998566,1.03429508209229,0.61530983448029,9.79258441925049,9.32092666625977,9.07911205291748,0.31619912385941,0.16348281502724,-0.12667818367481,5.22205305099487,6.45027875900269,8.31536197662354,0.14782938361168,-0.04886921867728,-0.6145304441452,-0.17027868330479,-0.13484850525856,0.80221879482269,-0.39504328370094,-0.23702596127987,1.92014980316162,8.15495014190674,8.74392414093018,9.95778369903564,-4.2970552444458,-7.02823352813721,-9.98787593841553,21.4167327880859,23.2674503326416,23.7223491668701,0.18203784525394,0.86803948879242,1.98347949981689,4.02331113815308,3.75514149665833,0.28053987026215,-14.6480255126953,-26.993127822876,-34.4130592346191,6.26831912994385,3.35188245773315,3.7732617855072,-11.9817399978638,-7.19805431365967,-3.6403751373291,-18.3880672454834,-23.9282512664795,-19.8772602081299,-0.06169738993049,0.61575216054916,1.01586890220642,0.8706356883049,-0.01878410577774,-0.44761151075363,-12.363956451416,-5.99059200286865,-2.72220730781555,8.71279907226563,9.94102478027344,7.61625480651855,1.4945582151413,1.38460242748261,1.22089052200317,-3.90015459060669,-2.59292054176331,-1.97282218933105,-0.0372627787292,-0.1050688251853,-0.08307767659426,-0.15928311645985,-0.21548271179199,-0.27779096364975,1.22104287147522,1.14203417301178,1.21625447273254,8.07594203948975,8.75350093841553,9.20361042022705,0.873919069767,0.83482372760773,0.89468848705292,-1.91536140441895,-2.00155258178711,-1.90578460693359,SWING_RIGHT
0.04153883829713,0.00733038317412,-0.04642575979233,-0.48792862892151,-0.30527991056442,-0.10247264802456,0.70389527082443,0.84754741191864,1.07978498935699,9.54837608337402,9.46457862854004,9.56274127960205,0.45242208242416,0.11339186131954,-0.12912164628506,5.02333450317383,5.43034887313843,5.79666137695313,-0.01160643994808,-0.19608774781227,-0.49846604466438,0.68432176113129,1.06733429431915,1.05511701107025,0.08858546614647,0.12449848651886,0.75896191596985,9.16769790649414,8.31536197662354,8.97616100311279,-1.92078936100006,-3.73872447013855,-6.17363309860229,14.2529821395874,17.4303874969482,20.4997539520264,0.75319683551788,1.08978354930878,1.84298050403595,3.94878554344177,4.53582715988159,0.84070330858231,-12.5411281585693,-25.2333889007568,-32.0209503173828,7.44387245178223,1.50116443634033,0.83557641506195,-10.4814548492432,-3.7735435962677,-2.28730845451355,-16.4559459686279,-14.736909866333,-10.340856552124,0.90224796533585,1.27365398406982,1.21256756782532,-0.14828753471375,-0.04810563847423,0.00992656033486,-7.98017358779907,-6.10311937332153,-3.7038300037384,11.4493713378906,9.59386539459228,6.42154836654663,0.49518263339996,0.91973400115967,0.98326396942139,-6.53886413574219,-4.21618938446045,-2.34152936935425,-0.20341812074184,-0.25045475363731,-0.2461786866188,-0.06643159687519,0.03802636265755,-0.03955352306366,1.22343707084656,1.0486603975296,0.91219085454941,8.51408004760742,8.60745429992676,8.66491508483887,0.71753758192062,0.79389572143555,0.85009533166885,-2.59770894050598,-2.35828876495361,-2.09492659568787,SWING_RIGHT
0.0177150927484,0.05742133408785,0.01282817032188,-0.19776763021946,-0.24052819609642,-0.33765575289726,0.47884035110474,0.16280572116375,0.23942017555237,9.66808605194092,9.11981391906738,8.85884571075439,-0.17004960775375,-0.44249552488327,-0.95440059900284,5.96904420852661,7.53245782852173,9.87159252166748,-0.03665191307664,-0.06963863968849,-0.52045720815659,0.33063080906868,0.41676279902458,1.51143336296082,2.51870012283325,3.53623580932617,2.58573794364929,9.13178443908691,8.26987171173096,8.736741065979,-8.11557388305664,-10.0135326385498,-12.3427610397339,24.0288066864014,23.4805355072021,19.9179630279541,1.04885566234589,1.85825204849243,1.43858766555786,4.989089012146,2.59083223342896,-1.16354560852051,-24.5196189880371,-28.9300365447998,-27.948413848877,2.38941335678101,0.27533319592476,7.22599983215332,-8.36786079406738,-4.7839150428772,-2.11809897422791,-22.1182346343994,-21.524471282959,-16.8222599029541,0.66950833797455,0.76907932758331,0.81733769178391,-0.31077769398689,-0.34865134954453,-0.55390208959579,-10.7981491088867,-6.92433071136475,-3.64397501945496,9.93863010406494,8.80617332458496,7.55400562286377,1.4701235294342,1.51044070720673,1.33939838409424,-4.771644115448,-2.8658595085144,-2.02070617675781,-0.24556782841682,-0.40500366687775,-0.39217549562454,-0.25213462114334,-0.20204368233681,-0.10125091671944,0.41180267930031,0.20350714027882,0.34237083792686,8.29620838165283,9.25628280639648,9.68245124816894,1.0889436006546,0.9484446644783,0.79633921384811,-1.26653265953064,-1.19949507713318,-1.25695586204529,SWING_RIGHT
-0.18997909128666,-0.07147123664618,-0.10201449692249,-0.45372015237808,-0.75243324041367,-0.72189003229141,-0.44053310155869,-0.26336219906807,-0.05027823522687,9.82610321044922,9.43824195861816,9.17727470397949,2.46216869354248,2.05166721343994,1.63444626331329,4.73094272613525,4.69502973556519,4.46039772033691,-0.01282817032188,0.04886921867728,0.05619960278273,-0.10064005106688,-0.15989397466183,-0.29184088110924,0.93613284826279,0.51235914230347,0.25857377052307,9.64174938201904,9.28261947631836,9.57471179962158,0.40049853920937,-0.04237877577543,-0.29100093245506,4.40533113479614,4.9012303352356,5.47823286056519,-0.34025195240974,-0.25289821624756,0.15515977144241,-0.01267545390874,-0.7939720749855,-3.0902144908905,0.27293899655342,-0.46686932444572,3.39976644515991,8.86363410949707,8.79180812835693,11.6911859512329,-5.69349336624146,-9.37517833709717,-11.6457643508911,28.6259727478027,25.7936325073242,20.9522571563721,1.15514612197876,1.96637523174286,1.37261426448822,6.46188545227051,4.37333679199219,-0.49281552433968,-20.7104434967041,-25.6906814575195,-26.1000900268555,2.51151752471924,-5.03769969940186,0.92176765203476,-9.88097476959228,-7.78020906448364,-5.0368127822876,-14.0135622024536,-19.0416851043701,-16.2093448638916,0.35369098186493,0.43737950921059,0.63652157783508,1.23654401302338,0.09422596544027,0.10949759185314,-13.0223627090454,-10.1588973999023,-7.06080007553101,7.17811584472656,9.77582454681396,8.57154178619385,0.57398426532745,1.01136374473572,1.26365113258362,-8.36563968658447,-6.72082328796387,-5.1669864654541,SWING_RIGHT
-0.15515977144241,-0.24312436580658,-0.27366763353348,-0.19532416760921,0.06856962293386,0.17058411240578,0.34955343604088,0.44053310155869,0.45968672633171,9.97693729400635,9.96496677398682,9.67766284942627,-0.3410918712616,-0.6795112490654,-0.91102916002274,4.25689077377319,4.79319190979004,6.54844093322754,-0.05681046843529,0.0842994004488,0.08491026610136,-0.87827152013779,-0.62720590829849,0.59696805477142,-0.7493851184845,0.9241618514061,3.57454323768616,10.8843402862549,12.7015390396118,13.0463047027588,-5.95494365692139,-9.8754768371582,-13.4038343429565,29.4352130889893,31.1662216186523,28.2333240509033,2.38237452507019,3.88327026367188,2.69941353797913,5.54131126403809,-0.13118331134319,-5.25450992584229,-30.2779731750488,-35.6508598327637,-31.1231250762939,1.51074123382568,-2.60489153862,14.7895822525024,-8.01905727386475,-4.98183536529541,-2.52860021591187,-24.6013202667236,-18.0456962585449,-11.7510414123535,0.22418753802776,0.52473324537277,0.74830991029739,-0.27779096364975,-0.0340557359159,-0.25152376294136,-10.927435874939,-8.05918216705322,-4.68784713745117,11.5307750701904,10.4294414520264,8.52605152130127,1.04312872886658,1.51471674442291,1.76028454303741,-6.58435392379761,-4.39575433731079,-2.26970314979553,-0.38606682419777,-0.52717667818069,-0.42699480056763,-0.25824329257011,-0.08964447677135,-0.04749477282166,1.15400516986847,1.80522811412811,1.72382521629334,8.46380233764648,9.2538890838623,9.61780738830566,0.72120279073715,0.6405685544014,0.58192551136017,-1.7405846118927,-1.65199911594391,-1.62326872348785,SWING_RIGHT
-0.08796459436417,-0.18875735998154,-0.13927727937698,-0.15073099732399,-0.07987063378096,-0.07620543986559,1.05823719501495,0.94810384511948,0.91458505392075,9.48612594604492,9.84046840667725,9.84286212921143,0.17631098628044,0.14271339774132,0.12133310735226,1.49398183822632,1.5945383310318,1.87465989589691,-0.18081611394882,-0.1924225538969,-0.21258109807968,0.02641992270947,-0.01328631862998,-0.06398813426495,1.0414776802063,1.35032975673676,1.67833542823792,9.12699604034424,8.92348861694336,9.06714153289795,-0.39790233969688,-0.80107343196869,-1.41743648052216,5.04967069625854,6.85250473022461,9.5723180770874,-0.37323865294456,-0.30237829685211,-0.29932397603989,-0.77442443370819,-2.06090664863586,-1.27472305297852,0.72544312477112,2.12605118751526,2.94726228713989,9.42627143859863,13.146861076355,17.5046062469482,-9.06546974182129,-12.7520408630371,-13.182089805603,27.1535396575928,19.1901245117188,12.3136787414551,2.44407176971436,1.59008228778839,1.63711881637573,-0.483652561903,-2.57708764076233,1.72157096862793,-28.2740249633789,-23.6888294219971,-18.4311637878418,-0.93134444952011,15.258846282959,13.1540431976318,-4.35325479507446,-2.4724006652832,-1.44736886024475,-16.4272155761719,-13.6161241531372,-11.818078994751,0.47464230656624,0.08185594528913,0.07635815441608,-0.25457808375359,-0.61682116985321,-1.0267117023468,-7.45344924926758,-4.31195735931396,-2.17872357368469,6.48858594894409,7.69047498703003,9.0384111404419,1.2544881105423,1.14636504650116,0.98509657382965,-3.66312861442566,-2.81797528266907,-2.72220730781555,SWING_RIGHT
-0.11423180252314,-0.2101376503706,-0.37384954094887,-0.2503020465374,-0.13423763215542,-0.05238169431686,0.92176765203476,1.11569797992706,1.39821374416351,9.12220764160156,8.77983665466309,8.85166263580322,-0.01733330078423,-0.46387580037117,-0.91347259283066,4.89135408401489,5.79187297821045,7.31697988510132,-0.81611597537994,-0.93034774065018,-1.0622946023941,-0.6088799238205,-0.42745295166969,0.58475077152252,-0.69192427396774,0.58418524265289,2.10689759254456,9.42866516113281,11.133337020874,12.6823854446411,-5.17853355407715,-8.19315338134766,-10.8608026504517,24.8718643188477,26.5071048736572,24.3017463684082,1.67804682254791,2.60289669036865,2.5680775642395,4.12837982177734,1.3556627035141,-1.98332679271698,-19.1877307891846,-25.5254821777344,-28.1543159484863,4.85544109344482,2.57376670837402,8.32972717285156,-11.1595153808594,-7.08809852600098,-3.55546474456787,-17.669807434082,-22.1086578369141,-18.7591686248779,0.08002334833145,-0.33108896017075,-0.04703662544489,1.35199749469757,1.17484652996063,1.05206263065338,-10.7382936477661,-7.15656805038452,-4.42448472976685,7.83173322677612,9.73272895812988,8.72716426849365,0.17875444889069,0.6845508813858,1.19584512710571,-8.62660789489746,-7.14459705352783,-5.33458089828491,-0.26878070831299,-0.58032196760178,-0.71471232175827,-0.16661348938942,0.04474587738514,0.22311852872372,0.59136784076691,1.30244576931,1.2641384601593,7.19008684158325,8.09509563446045,8.61224269866943,1.10360443592072,1.04251790046692,1.02419197559357,-3.01190567016602,-2.92332029342651,-2.94965648651123,SWING_RIGHT
-0.09896016865969,-0.12400564551353,-0.16432274878025,0.02703078649938,-0.05299255996943,-0.1262963861227,0.69910687208176,0.61530983448029,0.59376204013824,9.56274127960205,9.45979022979736,9.31613826751709,0.06269004940987,-0.27267497777939,-0.46754097938538,3.28245043754578,4.56334829330444,5.06164169311523,-0.50640726089478,-0.46059238910675,-0.13500121235847,-0.43722680211067,-0.45738536119461,-0.64064490795135,-1.70946002006531,-2.76530289649963,-1.92733240127563,9.50288581848144,10.1852331161499,11.8707513809204,-0.88415110111237,-2.85602402687073,-6.51999378204346,16.5493202209473,22.1014747619629,23.8205108642578,0.18020524084568,1.02625358104706,2.48316717147827,4.98481321334839,5.4105863571167,3.89441871643066,-4.83628749847412,-17.0808334350586,-29.2748012542725,9.48373222351074,5.89003562927246,0.57939678430557,-13.7746295928955,-9.7642993927002,-5.55788087844849,-6.26113653182983,-20.9666233062744,-20.731990814209,0.37140607833862,0.33414328098297,0.36041048169136,1.69774723052979,1.60550653934479,0.89873546361923,-12.9050464630127,-10.3935289382935,-8.21480560302734,11.5930242538452,8.06636524200439,8.66252136230469,-0.19448421895504,0.48907399177551,1.04801571369171,-8.60266590118408,-7.47739124298096,-5.92594861984253,0.16615535318851,-0.14844025671482,-0.28221973776817,-0.06765332818031,0.12538009881973,0.12293662875891,0.29209262132645,0.76853877305984,0.69910687208176,7.44387245178223,7.78863763809204,8.26747798919678,0.77801322937012,0.78412187099457,0.91179275512695,-3.09570288658142,-3.3925838470459,-3.11006808280945,SWING_RIGHT
0.16310101747513,0.17043140530586,0.06414084881544,-0.38224893808365,-0.42134431004524,-0.1262963861227,0.50038814544678,0.48123455047607,0.34237083792686,9.87159252166748,10.2091751098633,10.2833957672119,-0.11385001242161,-0.43027821183205,-1.14865577220917,6.34253978729248,8.22677612304688,10.4078941345215,-0.10629054903984,-0.30543261766434,-0.65118235349655,0.26343563199043,0.04352414980531,0.27687466144562,0.84275901317596,-0.80445176362991,-1.43412685394287,8.56435871124268,9.12939071655273,11.3392381668091,-6.58902168273926,-9.11067295074463,-11.5070972442627,22.7000255584717,23.2363262176514,19.2140674591064,1.59496915340424,2.33167266845703,2.93276405334473,3.39473080635071,1.4912748336792,-1.14949572086334,-23.3249111175537,-22.484546661377,-22.8077640533447,6.89081192016602,5.87567043304443,9.45500183105469,-9.36112785339356,-6.76006364822388,-4.00383996963501,-14.6767559051514,-19.1087226867676,-18.5197486877441,-0.30115658044815,0.07391469180584,0.80267691612244,1.59878706932068,0.93355482816696,0.36483925580978,-10.7095632553101,-6.47182655334473,-3.80438661575317,9.09826564788818,10.3336734771729,8.26747798919678,0.5800929069519,0.96554887294769,1.15736055374146,-7.89637660980225,-6.1390323638916,-4.69024133682251,-0.29504790902138,-0.39767327904701,-0.39950588345528,-0.08536841720343,-0.07376197725534,-0.20387627184391,1.47482824325562,1.75494980812073,1.76931500434875,6.91235971450806,7.36965227127075,7.72159957885742,0.85803657770157,0.81771945953369,0.88002777099609,-3.26090264320374,-3.37582445144653,-3.09570288658142,SWING_RIGHT
0.28344148397446,0.22663100063801,0.11239920556545,-0.47937649488449,-0.26984971761703,0.51877731084824,0.08379705995321,0.31842881441116,1.35751235485077,9.5124626159668,10.3217029571533,9.97693729400635,-3.11503100395203,-4.66907215118408,-5.85537242889404,11.7079458236694,12.8260374069214,13.0271511077881,-0.50396382808685,-1.0067058801651,-1.28037357330322,-0.69073587656021,-0.60399299860001,0.25915959477425,-5.60273122787476,-8.05200004577637,-9.91708278656006,6.83335113525391,8.58351230621338,9.78061294555664,-9.00132846832275,-8.92802429199219,-8.74048900604248,7.41514205932617,4.88177728652954,3.15076947212219,-0.05803219974041,1.01159286499023,1.68171203136444,4.02575445175171,1.81625509262085,-0.20387627184391,-13.2306575775146,-17.3872909545898,-18.5436916351318,7.48217964172363,8.82053852081299,10.3193082809448,-4.58843803405762,-1.47913384437561,0.51228684186935,-22.3624420166016,-19.7383975982666,-14.7800054550171,0.02626720629632,0.08063421398401,0.26816985011101,0.47601673007011,-0.03588833287358,-0.41951170563698,-6.38563537597656,-3.95043277740479,-2.11408019065857,7.59470701217651,7.68808078765869,7.16614484786987,2.75538396835327,2.73156023025513,2.5880069732666,-3.71580100059509,-2.27927994728088,-1.25695586204529,-0.4844161272049,-0.583376288414,-0.56932640075684,-0.19776763021946,-0.1568396538496,-0.0615446716547,1.20667767524719,1.61129772663116,1.65678763389587,7.71920537948608,8.70082855224609,9.58907699584961,1.31923985481262,1.10543704032898,0.87575167417526,-0.17477671802044,-0.35913026332855,-0.641646027565,SWING_RIGHT
-0.28099802136421,-0.27550023794174,-0.2638937830925,-0.14767667651176,-0.08903361111879,-0.10919216275215,0.30406361818314,0.48841714859009,0.49081134796143,10.0966482162476,10.0152454376221,9.74470043182373,1.1701887845993,0.97287929058075,0.81466513872147,2.93768548965454,3.41892004013062,4.62559747695923,-0.56627207994461,-0.63407814502716,-0.65179324150085,-0.95096445083618,-0.60460388660431,0.3514002263546,-0.74220252037048,-0.67755907773972,0.46686932444572,9.83328533172607,11.0902414321899,12.6033773422241,-1.43637323379517,-2.8468611240387,-5.49190759658813,16.0632972717285,21.5843276977539,25.9396781921387,0.62858033180237,1.45447015762329,2.6957483291626,2.44422459602356,2.76004195213318,2.98545122146606,-4.54898309707642,-15.2157506942749,-27.1822700500488,13.6831617355347,13.1995334625244,10.1373491287231,-15.8857793807983,-13.8564853668213,-9.30798244476318,8.13100814819336,-12.545916557312,-24.6492042541504,-0.52045720815659,-0.33841934800148,0.00977384392172,-0.59910607337952,0.49495357275009,0.54137933254242,-15.2803936004639,-12.7254810333252,-9.5507698059082,12.9601135253906,12.610559463501,11.0686941146851,0.04680754989386,0.52755850553513,1.07550466060638,-9.12699604034424,-8.05200004577637,-6.52928733825684,0.08796459436417,-0.29016098380089,-0.54794609546661,-0.13973543047905,0.085673853755,0.31963524222374,0.3208230137825,1.11569797992706,1.80283391475677,7.33373928070068,7.84609842300415,8.51168632507324,0.99914646148682,0.892245054245,0.86903214454651,-2.51151752471924,-2.8658595085144,-3.4117374420166,SWING_RIGHT
-0.04031710699201,-0.03909537568688,-0.020158553496,-0.01206458825618,0.07101308554411,0.05329799279571,0.217872351408,0.40940847992897,0.40222588181496,9.80455493927002,9.74230575561523,9.45500183105469,0.10667234659195,-0.05887213721871,-0.17188221216202,2.27209734916687,4.28562116622925,6.88123512268066,-0.2981022298336,-0.29504790902138,-0.38606682419777,-0.69684451818466,-0.76403969526291,0.08628471940756,-0.19871874153614,1.03908348083496,0.90500825643539,10.0559463500977,11.7749834060669,12.9888439178467,-5.21762895584106,-8.15039348602295,-11.4374589920044,25.0155162811279,28.7528667449951,29.45436668396,1.11360728740692,2.36038327217102,2.64810085296631,4.2945351600647,3.17726278305054,-2.79638838768005,-20.5596084594727,-34.4705200195313,-41.4998970031738,5.6242790222168,-1.39581954479218,-1.7405846118927,-10.9970254898071,-5.11133861541748,-0.58849233388901,-28.5685119628906,-30.7328701019287,-14.3679037094116,1.16247653961182,1.14659404754639,0.59986966848373,-0.26862800121307,0.3911064863205,0.47784933447838,-8.88278770446777,-5.69849920272827,-1.9943699836731,11.3129024505615,7.00573348999023,4.79558610916138,2.83785080909729,2.01745891571045,1.3479505777359,-1.94648599624634,1.00317049026489,-1.15879356861115,0.16371189057827,0.2315179258585,0.10995574295521,0.36178493499756,0.05513058975339,-0.03711006417871,1.30244576931,0.78290396928787,1.01992988586426,8.6002721786499,8.26508331298828,8.49971485137939,1.9123899936676,1.88978803157806,1.76089537143707,-1.12766897678375,-0.71107792854309,-0.72544312477112,SWING_RIGHT
-0.22724187374115,-0.23945917189121,-0.28405234217644,-0.18493945896626,-0.22525656223297,-0.20326541364193,0.36631286144257,-0.01675941236317,0.03351882472634,9.92187118530273,9.93623638153076,9.95778369903564,0.25816693902016,0.09323330968618,-0.237244784832,3.54341840744019,4.70939493179321,5.83496904373169,-0.78496181964874,-0.53389620780945,-0.05131268128753,-0.52580225467682,-0.81351977586746,-0.7683157324791,-1.20428347587585,-2.60010313987732,-0.9720458984375,9.6513261795044,10.8603982925415,11.8563861846924,-2.69842076301575,-5.53894424438477,-9.38250827789307,23.3775844573975,28.5206279754639,28.7528667449951,1.54609990119934,2.88939261436462,2.85946011543274,6.94019269943237,4.71236705780029,-2.03891539573669,-17.5836162567139,-29.926025390625,-34.6883926391602,2.41335535049438,-5.10713148117065,2.07577276229858,-11.4655590057373,-6.25732183456421,-2.80348968505859,-23.2339324951172,-24.3831481933594,-17.3465900421143,0.32986724376678,0.75930547714233,0.83322018384933,0.67088276147842,-0.3798054754734,0.27626380324364,-10.3863458633423,-7.36246967315674,-4.12999773025513,9.42148303985596,11.1931924819946,9.09108352661133,0.74258303642273,1.04862654209137,1.14514327049255,-6.90757131576538,-4.98742151260376,-3.51229381561279,0.10384709388018,-0.25473082065582,-0.40989059209824,-0.30650162696838,0.14859296381474,0.25182920694351,1.31202256679535,1.78368031978607,1.98000478744507,7.12065505981445,7.55400562286377,8.42788887023926,0.43287438154221,0.35224017500877,0.2819906771183,-2.4396915435791,-2.29364514350891,-2.1475989818573,SWING_RIGHT
-0.16737708449364,-0.19181168079376,-0.14172074198723,0.17669276893139,0.20173825323582,0.17486017942429,0.8451532125473,0.79487496614456,0.67277067899704,9.26825428009033,9.28022480010986,8.90194129943848,-0.14561499655247,-0.05154175683856,0.02176207490265,2.62883353233337,3.43328523635864,5.15740966796875,-0.34880405664444,-0.4972442984581,-0.94989544153214,-0.5044219493866,-0.23075434565544,0.08139779418707,0.40701428055763,1.55383694171906,2.31279873847961,8.28663158416748,7.79821443557739,7.84609842300415,-4.52185344696045,-7.69590950012207,-11.2786340713501,26.8734169006348,30.4288063049316,29.9834861755371,-1.35489916801453,0.33414328098297,2.21988439559937,5.48999881744385,5.33178472518921,-0.74876809120178,-24.378360748291,-34.8847160339355,-41.9188804626465,7.05122327804565,1.45567464828491,4.72615432739258,-12.0159482955933,-6.51693964004517,-2.6513843536377,-27.105655670166,-27.2493076324463,-19.0919628143311,-0.41661009192467,0.04459316283464,0.527787566185,0.82176649570465,0.7838928103447,0.53771412372589,-9.65611457824707,-5.24838924407959,-5.24838924407959,10.8173027038574,11.0639057159424,11.0639057159424,0.72059190273285,0.71937018632889,0.75418949127197,-3.44765043258667,-3.23456645011902,-3.46919822692871,-0.52595496177673,-0.52962017059326,-0.29688051342964,0.94821560382843,1.01174557209015,0.69470649957657,1.06541979312897,0.68234747648239,0.19393034279346,9.50288581848144,9.77343082427978,9.71836376190186,1.32534849643707,1.49272561073303,1.63139200210571,-4.28083276748657,-3.93367338180542,-3.71580100059509,SWING_RIGHT
0.13194689154625,0.07208210229874,0.04092797264457,-0.02061670273542,0.01970040425658,0.01664607785642,0.73980832099915,0.26575639843941,0.12928688526154,9.56274127960205,9.67287445068359,9.76145935058594,0.01259909570217,0.04008803144097,0.03886630013585,1.30005156993866,1.68791222572327,3.07894349098206,-0.04398229718208,-0.07330382615328,-0.09590584039688,-0.14217889308929,-0.48670688271523,-1.35963332653046,0.35913026332855,0.15562310814857,0.70389527082443,8.45901393890381,8.29860210418701,10.573094367981,-2.77111387252808,-5.23167896270752,-8.97445011138916,22.4917297363281,29.2891674041748,31.4463424682617,0.7916813492775,2.07694172859192,3.26385307312012,5.14913606643677,5.91393899917603,-5.20930624008179,-12.2203044891357,-25.1208629608154,-36.5893859863281,9.50528049468994,0.09576806426048,4.95150852203369,-10.1748008728027,-5.3960018157959,-2.18040704727173,-26.0450229644775,-27.1272029876709,-17.1430835723877,-0.7739662528038,-0.37079519033432,-0.02565634064376,-0.2411390542984,0.09911288321018,-0.03039054572582,-12.0718641281128,-9.45021343231201,-5.65300941467285,13.6424608230591,13.1181306838989,11.5020446777344,1.64177668094635,1.92033123970032,1.90078353881836,-6.04805278778076,-2.84910011291504,-0.49320554733276,-0.14538592100143,-0.00183259579353,0.12278391420841,0.35323283076286,0.15775595605373,-0.05849034711719,1.83156430721283,1.98000478744507,1.60890352725983,9.40232944488525,9.44303035736084,10.1517143249512,0.5971971154213,0.64240115880966,0.71326154470444,-2.22181916236877,-2.20266556739807,-1.98718738555908,SWING_RIGHT
-0.05436700582504,-0.02138028293848,0.01221730466932,-0.09880745410919,-0.00962112750858,0.08872817456722,0.68474167585373,0.7972691655159,1.10612118244171,10.1014366149902,10.1062250137329,9.84046840667725,-0.74059772491455,-1.13888192176819,-1.84320950508118,6.50055694580078,7.87482881546021,9.54119300842285,-0.26450464129448,-0.17165313661098,0.04092797264457,-0.13851369917393,-0.99861198663712,-1.08291137218475,-0.60573303699493,-0.59376204013824,1.56820213794708,8.98813247680664,11.1548852920532,14.1548194885254,-7.60305786132813,-10.9426584243774,-13.907187461853,27.5677356719971,28.8127212524414,24.644416809082,1.50517201423645,1.15942227840424,-0.55527651309967,1.34772145748138,-1.56854927539825,0.2023491114378,-30.9962329864502,-32.9546890258789,-27.184663772583,1.21625447273254,6.01932239532471,12.8236436843872,-8.53707122802734,-4.49986267089844,-1.45775353908539,-25.594913482666,-24.1006336212158,-18.6298828125,0.53939402103424,0.75808376073837,0.76907932758331,0.10216721147299,-0.29245173931122,-0.50258940458298,-10.7837839126587,-6.35211658477783,-2.5282769203186,11.0567226409912,9.22755241394043,8.24832439422607,2.09992575645447,2.06816053390503,1.79693651199341,-4.42209053039551,-2.5282769203186,-1.67354702949524,0.04581489413977,0.01282817032188,-0.00366519158706,-0.101861782372,-0.11713340878487,-0.12263119965792,1.9943699836731,1.78846871852875,1.38624274730682,8.17410373687744,8.49732112884521,8.95940208435059,0.94905549287796,0.94722294807434,0.95455330610275,-2.38462495803833,-2.38462495803833,-2.04704236984253,SWING_RIGHT
0.24678955972195,0.18875735998154,0.13439035415649,-0.12568552792072,-0.07681630551815,-0.08903361111879,0.88346040248871,0.89543145895004,0.89782565832138,9.5723180770874,9.42627143859863,9.41908836364746,-0.29466611146927,-0.43088907003403,-0.5017494559288,3.51229381561279,3.91691398620605,5.13107347488403,0.22540926933289,0.53023105859756,0.63957589864731,-0.68401634693146,-1.4579826593399,-2.08106517791748,0.21308395266533,-0.18195933103561,0.8164227604866,10.1421375274658,9.5723180770874,9.66090297698975,-3.64098596572876,-6.69836664199829,-10.0569038391113,23.9282512664795,26.7034301757813,26.1264266967773,0.17165313661098,0.58276546001434,0.80878555774689,5.72212743759155,4.74229955673218,0.67027187347412,-16.1614608764648,-25.8032093048096,-32.5021858215332,0.33997663855553,-4.17788219451904,3.5960910320282,-12.1741628646851,-6.61712121963501,-2.44491171836853,-23.3823719024658,-30.5748538970947,-24.7617321014404,0.59253931045532,1.31152772903442,1.75257241725922,-0.35475999116898,-1.13239145278931,-1.16476726531982,-11.1165781021118,-7.04643487930298,-3.3734302520752,13.1181306838989,13.1731967926025,10.5252103805542,1.65338313579559,1.9545396566391,1.98813724517822,-5.54287624359131,-2.84431171417236,-0.28969839215279,0.13439035415649,-0.05803219974041,-0.09162978827953,-0.18555031716824,-0.06887505948544,0.26648995280266,3.64636921882629,4.12760353088379,3.75889658927917,7.59470701217651,8.8779993057251,9.29219627380371,0.31803172826767,0.31070134043694,0.5061782002449,-1.06063139438629,-1.84832370281219,-1.78128612041473,SWING_RIGHT
-0.18448130786419,-0.20830504596233,-0.24923302233219,-0.069485925138,-0.13973543047905,-0.29489520192146,0.50278234481812,0.34715923666954,0.28012159466743,9.34008026123047,9.02643966674805,8.94743061065674,-0.25557073950768,-0.4058435857296,-0.75586938858032,4.61602067947388,6.72561168670654,9.56992340087891,-0.41233405470848,-0.67867130041122,-0.75808376073837,-0.25396722555161,0.73196929693222,1.30923688411713,0.96486330032349,1.31681096553802,0.84275901317596,10.7622356414795,10.9633483886719,11.7941370010376,-6.45218801498413,-9.55843734741211,-12.186990737915,26.4352779388428,26.3993663787842,22.4462394714355,2.46484136581421,3.16611456871033,2.14535880088806,5.36416053771973,1.16934883594513,-4.21420669555664,-23.9689521789551,-30.0816478729248,-29.8398342132568,-0.45729252696037,-5.45189666748047,10.9489831924438,-9.57370948791504,-4.56889009475708,-1.67277812957764,-27.9723567962646,-22.5276432037354,-14.2314338684082,-0.0177150927484,-0.07819075137377,-0.26267206668854,-0.2215913683176,-0.19288070499897,-0.43233987689018,-8.82293224334717,-6.28986692428589,-3.19865345954895,8.38479328155518,7.51569843292236,8.5595703125,1.27770102024078,1.5079972743988,1.4890604019165,-5.77271938323975,-3.51947641372681,-1.44370365142822,-0.47830748558044,-0.4324925839901,-0.37812557816505,0.06551529467106,0.20967949926853,0.28053987026215,1.65199911594391,1.80522811412811,1.80522811412811,9.70160484313965,9.67526817321777,9.67526817321777,-0.05520694702864,0.00832303892821,0.18913915753365,-2.94726228713989,-3.63679242134094,-3.25132584571838,SWING_RIGHT
-0.30543261766434,-0.29626965522766,-0.26450464129448,-0.13057245314121,-0.09025534242392,-0.04138612002134,0.67277067899704,0.93134444952011,0.94092124700546,9.79976654052734,9.88356399536133,9.79737281799316,0.46830457448959,0.18486309051514,-0.15233452618122,4.71897172927856,5.33936929702759,6.000168800354,-0.4978551864624,-0.48197266459465,-0.3072652220726,0.2170098721981,-0.28084528446198,-0.77320265769958,0.0,-0.07661445438862,0.67755907773972,8.45661926269531,9.11502552032471,11.5044384002686,-4.11440658569336,-9.02148723602295,-12.2529640197754,19.5516490936279,27.5844955444336,25.1950817108154,1.47585046291351,1.56992363929749,1.4312572479248,4.95976781845093,2.08075976371765,-3.18856382369995,-25.9947452545166,-31.8988475799561,-28.5445709228516,0.3016694188118,-2.1284453868866,12.885892868042,-8.24629878997803,-3.68985509872436,-0.97761344909668,-28.6738567352295,-23.4158916473389,-14.4157876968384,0.81367248296738,0.81855940818787,0.81550508737564,-0.90148437023163,-0.47998735308647,-0.49525898694992,-7.90834760665894,-4.63756847381592,-1.4293384552002,11.4565544128418,9.74709415435791,8.68167495727539,1.27831184864044,1.24104905128479,1.02724623680115,-3.62721562385559,-1.83156430721283,-0.73501992225647,0.0500909499824,0.20708331465721,0.26206117868423,0.12660181522369,-0.02061670273542,0.05635231733322,2.41574954986572,1.92972660064697,1.72621941566467,9.16051483154297,9.51725101470947,9.4119062423706,0.30581441521645,0.38156169652939,0.3895029425621,-2.34392356872559,-2.14041638374329,-1.91057300567627,SWING_RIGHT
-0.16554448008537,-0.21502456068993,-0.30909782648087,-0.43478333950043,-0.409737855196,-0.40607267618179,2.05183076858521,1.83395850658417,1.87944829463959,9.28980159759522,8.96179580688477,8.70082855224609,0.1256091594696,-0.09735664725304,-0.44371724128723,4.47476291656494,5.66976881027222,7.18290424346924,-0.62063908576965,-0.56932640075684,-0.11850785464048,-0.79336124658585,-0.78908520936966,-0.38652497529984,1.44609785079956,2.12605118751526,2.75333189964294,9.13657283782959,11.2745952606201,12.2322759628296,-4.22191858291626,-6.4570746421814,-9.53094863891602,20.4375038146973,25.4752044677734,27.7449073791504,-0.52351152896881,-0.12522737681866,0.02687807008624,2.94452309608459,2.40390753746033,-0.1568396538496,-14.4876136779785,-25.3363399505615,-32.4566955566406,6.48619174957275,3.5314474105835,7.67132139205933,-11.5443601608276,-5.75030374526978,-1.90979385375977,-25.1448040008545,-29.100025177002,-21.474193572998,0.73181658983231,0.66156703233719,0.64385199546814,-1.06763970851898,-0.61498856544495,-0.25518894195557,-8.32493877410889,-5.32260942459106,-2.54503631591797,11.5882358551025,11.9210290908813,10.0750999450684,1.06084382534027,1.22516655921936,1.27709019184113,-5.63385581970215,-4.38617753982544,-3.19625926017761,0.22785273194313,0.04520402848721,0.04520402848721,-0.00839939713478,0.03252857550979,-0.00534507073462,2.05422496795654,2.52348852157593,2.88022470474243,8.00172138214111,8.5619649887085,8.96658420562744,0.90751665830612,0.88308209180832,0.92767524719238,-2.08534979820251,-2.13802218437195,-1.92254400253296,SWING_RIGHT
-0.32192599773407,-0.41599923372269,-0.48563787341118,-0.51969361305237,-0.39446622133255,-0.45005497336388,1.61608612537384,1.40060794353485,1.12766897678375,9.45500183105469,9.22037029266357,9.16051483154297,0.34552064538002,0.2080759704113,-0.0686459839344,4.0964789390564,5.40161848068237,6.85489892959595,-0.72082096338272,-0.34697145223618,-0.16615535318851,-0.31199941039085,-0.27412578463554,-0.566730260849,0.71586632728577,0.71586632728577,1.02471828460693,9.88595771789551,9.8500452041626,11.1213665008545,-4.72466087341309,-7.56762790679932,-10.6109580993652,22.8053703308105,26.1719169616699,24.0671138763428,1.35489916801453,1.78433740139008,0.91568702459335,2.97628808021545,3.05508971214294,1.61222612857819,-17.9810523986816,-25.0586128234863,-33.1725616455078,8.14297962188721,0.48602294921875,-3.47877502441406,-12.2138690948486,-5.71487331390381,-1.17125773429871,-28.532600402832,-32.5740127563477,-19.9059906005859,-0.61575216054916,0.47342056035995,1.04946649074554,0.5334380865097,-0.36942076683044,-0.61010164022446,-8.52365779876709,-6.72800588607788,-5.05685329437256,11.9521541595459,11.6217546463013,8.71519374847412,0.94722294807434,1.51044070720673,1.69370019435883,-7.91313600540161,-5.82539224624634,-3.67749381065369,-0.14172074198723,-0.15393804013729,-0.00610865233466,-0.15439619123936,-0.24358251690865,-0.42500948905945,1.09654438495636,1.60650932788849,1.36469495296478,8.23395919799805,8.82293224334717,9.09347724914551,0.52144986391068,0.5245041847229,0.64362287521362,-2.98317527770996,-3.33512306213379,-3.1196448802948,SWING_RIGHT
-0.0226020142436,0.00122173049022,0.01099557429552,-0.0713185146451,-0.12324206531048,-0.18616119027138,0.30885201692581,0.28730419278145,0.08140286058187,9.76624774932861,9.49809741973877,9.32571506500244,0.1561524271965,-0.03565925732255,-0.2592359483242,5.04488229751587,6.69209289550781,9.65850925445557,0.5406157374382,0.24068090319633,-0.52656584978104,-0.89781922101974,0.01175915636122,1.26830899715424,1.71664261817932,3.57214903831482,2.95923328399658,10.4007110595703,9.33050346374512,8.0831241607666,-7.66780948638916,-10.3366794586182,-12.6793479919434,24.5558300018311,24.3592071533203,24.1006336212158,-0.29321530461311,0.21624629199505,0.31337386369705,3.78201937675476,1.06489086151123,-2.029141664505,-24.7760963439941,-30.8669452667236,-30.4695091247559,1.09654438495636,0.81163436174393,15.7783880233765,-8.95184803009033,-4.52246427536011,-0.94401586055756,-30.5820369720459,-24.5797729492188,-15.7089557647705,0.83993971347809,1.10077917575836,1.29869949817657,-0.58688879013062,-0.2631302177906,-0.85383689403534,-9.71597003936768,-6.03847599029541,-2.35589456558228,12.2610063552856,9.0384111404419,8.02566337585449,2.12741446495056,2.31556105613709,2.02417826652527,-3.32075786590576,-0.35913026332855,0.97444009780884,0.03420845419168,0.01160643994808,0.08613199740648,-0.20815233886242,-0.24541510641575,-0.18860463798046,2.44208574295044,2.36307716369629,2.07337856292725,8.43986034393311,9.3735990524292,9.4909143447876,0.75418949127197,0.78473275899887,0.77251547574997,-0.36152446269989,-0.22026655077934,0.16280572116375,SWING_RIGHT
-0.32742378115654,-0.33658674359322,-0.3500257730484,-0.22525656223297,-0.11346822232008,-0.04749477282166,0.43574470281601,0.51954174041748,0.69192427396774,9.93384170532227,9.88356399536133,9.95778369903564,-0.1834886521101,-0.8383361697197,-1.62146544456482,7.77427196502686,8.78941345214844,9.42627143859863,-0.19547687470913,-0.11423180252314,0.11301007121801,0.41737368702888,0.55909442901611,0.6495024561882,0.01675941236317,-0.43095630407333,-0.11252748221159,10.9250411987305,11.4350061416626,12.3064956665039,-4.98000240325928,-7.04411602020264,-9.70565605163574,18.2396278381348,21.1509761810303,20.681713104248,1.09344875812531,1.88696277141571,0.86376345157623,4.12654733657837,1.50776815414429,-1.81228446960449,-13.9058227539063,-25.7002582550049,-31.673791885376,1.65918183326721,-2.70544791221619,1.95845699310303,-9.45581245422363,-3.34227275848389,-0.04909829422832,-32.3800811767578,-26.7632846832275,-14.1260890960693,0.04276056587696,0.38545596599579,0.72082096338272,-0.66752296686172,-0.31383201479912,-0.65958172082901,-9.32332038879394,-6.23240613937378,-2.55461311340332,13.0534868240356,11.4062757492065,10.051157951355,1.76822578907013,1.679039478302,1.23249697685242,-2.38941335678101,-0.05027823522687,0.58657944202423,0.42760565876961,0.42088615894318,0.39584067463875,-0.29184088110924,-0.36758816242218,-0.31932979822159,1.81959331035614,1.5179238319397,1.00795888900757,8.84448051452637,9.13417911529541,9.23952388763428,0.30520355701447,0.4414264857769,0.63690340518951,-1.47961664199829,-1.80762231349945,-1.22343707084656,SWING_RIGHT
-0.22724187374115,-0.20097467303276,-0.1148426681757,-0.60093867778778,-0.11896600574255,0.256716132164,1.21864867210388,1.41497325897217,0.29688102006912,10.5994300842285,10.4485950469971,9.71357536315918,-0.21647536754608,-0.39851322770119,-0.53717964887619,5.70089340209961,5.87806463241577,6.33056879043579,-0.04459316283464,0.05253441259265,0.06841690838337,0.03924809023738,0.1699732542038,0.56214874982834,-1.06302559375763,-1.02471828460693,0.98641109466553,9.33529186248779,9.11023712158203,10.2307233810425,-2.72285556793213,-5.69471502304077,-10.3470649719238,21.6729125976563,30.476692199707,33.0696105957031,0.40011674165726,0.86254173517227,1.19240891933441,4.9616003036499,3.89258599281311,-2.68643260002136,-19.7599449157715,-35.7538108825684,-42.9771194458008,2.24815535545349,-5.18374586105347,3.79002118110657,-12.2682361602783,-7.07099437713623,-1.81694233417511,-29.9882736206055,-31.6426677703857,-18.1366767883301,-0.36713001132011,0.19975294172764,0.93095862865448,0.12232576310635,0.56153786182404,-0.25518894195557,-10.312126159668,-6.52449893951416,-2.70784211158752,15.1822319030762,12.0407400131226,9.96017837524414,1.14880847930908,0.93744909763336,0.56543213129044,-1.2641384601593,-1.2641384601593,0.24899697303772,0.05558873713017,0.08735372871161,0.16798794269562,0.05513058975339,-0.00595593592152,0.01847867295146,1.53228902816772,1.01992988586426,0.25617957115173,9.10305404663086,9.61301898956299,9.40232944488525,0.35224017500877,0.43837216496468,0.37606391310692,-2.46123933792114,-1.87705409526825,-1.90099620819092,SWING_RIGHT
-0.38545596599579,-0.29749137163162,-0.18264870345592,-0.42378777265549,-0.30711251497269,-0.38224893808365,-0.01675941236317,0.56024318933487,1.84832370281219,9.38317584991455,9.20600509643555,9.6896333694458,0.65400761365891,0.02481640130281,-0.55550557374954,6.94827270507813,7.09431886672974,6.80701494216919,-0.5528330206871,-0.61636304855347,-0.62796944379807,0.06734789162874,-0.12140946835279,-0.30344730615616,0.49320554733276,-0.46447512507439,-1.47722244262695,8.91151809692383,9.10784244537354,9.64414405822754,-1.97637808322906,-2.35511469841003,-3.41374397277832,9.99609184265137,13.403039932251,18.1366767883301,-0.37812557816505,-0.2461786866188,0.55955255031586,3.83638644218445,5.71113204956055,5.51443338394165,-4.21618938446045,-12.9912376403809,-22.8580417633057,10.9585599899292,6.91714811325073,0.59376204013824,-14.2340002059937,-5.735032081604,-2.87312841415405,-4.51785850524902,-21.4215202331543,-17.1718139648438,-0.41416662931442,-0.15210545063019,0.18631389737129,1.26953065395355,0.31169399619102,0.03680463135242,-7.16614484786987,-5.33458089828491,-4.30238056182861,6.49098014831543,8.8564510345459,7.92031860351563,0.41515928506851,0.88980156183243,1.07550466060638,-6.89320611953735,-5.03769969940186,-3.26090264320374,-0.65057146549225,-0.84055060148239,-0.82344633340836,0.48212540149689,0.71486502885818,0.60490930080414,0.86670100688934,0.4955997467041,0.34715923666954,8.46140766143799,8.79420185089111,9.45021343231201,0.53916496038437,0.66683578491211,0.67050099372864,-4.22816038131714,-3.74931979179382,-3.23696064949036,SWING_RIGHT
0.02565634064376,0.1362229436636,0.27427849173546,-0.01267545390874,0.10888673365116,0.38805213570595,0.40940847992897,0.80924016237259,1.35032975673676,10.4366245269775,10.9920797348022,11.20276927948,0.14026993513107,-0.05337435007095,-0.25618159770966,3.55778384208679,3.82593441009521,4.71657752990723,0.45631635189056,0.76235979795456,1.53999125957489,0.08689557760954,-0.76587229967117,-1.76219356060028,0.12210428714752,-0.35194763541222,2.60489153862,9.77103614807129,11.394305229187,13.2330522537231,-3.44978523254395,-6.77289199829102,-10.0941667556763,23.2722396850586,24.6372337341309,22.2930107116699,0.34086281061172,-0.33964106440544,-0.67744958400726,1.39109289646149,1.45095765590668,-0.02244929783046,-15.953164100647,-28.3243045806885,-31.3050842285156,3.78283858299255,1.85790050029755,9.4119062423706,-11.7380046844482,-6.25121307373047,-2.34106469154358,-24.349630355835,-27.0841083526611,-19.8102226257324,0.23335053026676,0.18264870345592,0.35613444447517,0.56825739145279,0.72219544649124,0.86452704668045,-8.64336776733398,-6.21564674377441,-3.35427665710449,8.81814384460449,9.50767421722412,8.65773296356201,1.61673128604889,1.67293083667755,1.55259037017822,-6.16058015823364,-3.69185900688171,-2.87064790725708,-0.16493362188339,-0.38423424959183,-0.49357911944389,-0.33582317829132,-0.13484850525856,0.08872817456722,2.43490314483643,2.70544791221619,2.70544791221619,8.03763484954834,9.09826564788818,9.09826564788818,0.62774038314819,0.56298869848251,0.54771703481674,-2.6240451335907,-2.65995812416077,-2.57376670837402,SWING_RIGHT
-0.08918632566929,-0.03481931984425,0.032375857234,-0.16355916857719,-0.07009678333998,-0.01023199316114,0.86670100688934,0.66798228025436,0.15801730751991,10.5204219818115,10.5659112930298,10.1541090011597,-0.0979675129056,-0.34597879648209,-0.68623071908951,6.02411079406738,7.18769264221191,8.76547145843506,0.14110986888409,-0.01710422709584,-0.15882496535778,0.41737368702888,1.18706393241882,1.89322412014008,0.56981998682022,1.55144274234772,1.86508309841156,10.178050994873,10.0200338363647,8.62660789489746,-5.79734039306641,-8.45216083526611,-12.1271257400513,21.5939044952393,27.4839382171631,27.9268665313721,0.02932153269649,1.70736837387085,2.9846875667572,4.87607908248901,3.74597835540771,-1.78968250751495,-25.082555770874,-35.5000267028809,-38.9452819824219,7.11826086044312,0.9528923034668,10.9394063949585,-10.9793100357056,-4.2524619102478,-0.29100093245506,-35.114559173584,-29.049747467041,-17.3058891296387,0.31948253512383,0.88086766004562,1.11849427223206,-0.37125334143639,-0.44089198112488,-0.83001315593719,-8.88757610321045,-4.85544109344482,-1.18512988090515,11.1620674133301,8.736741065979,6.92193651199341,1.84030795097351,1.67659604549408,1.25876414775848,-1.87226569652557,-0.02873042039573,0.46447512507439,-0.43615779280663,-0.18325957655907,0.06963863968849,0.7722864151001,0.59513545036316,0.16019940376282,2.21463656425476,1.73579621315002,1.18034148216248,9.79737281799316,9.36641597747803,9.095871925354,0.18364135921001,0.29359710216522,0.39500072598457,-2.37504816055298,-2.45645093917847,-2.11168599128723,SWING_RIGHT
-0.28099802136421,-0.17409659922123,-0.22357667982578,-0.3236058652401,-0.6094908118248,-0.6956228017807,0.80445176362991,0.25617957115173,-0.42377370595932,10.0128507614136,9.68245124816894,9.36162757873535,-0.38873937726021,-0.52740579843521,-0.69661545753479,3.68228220939636,4.36702394485474,5.28190803527832,-0.72570788860321,-0.62613689899445,-0.32925635576248,-0.73716163635254,-0.7811439037323,-0.96562522649765,-0.60573303699493,-1.2258312702179,-1.12048637866974,10.8675804138184,11.2578353881836,13.3647327423096,-3.30439925193787,-5.0093240737915,-7.84434986114502,15.9220399856567,20.7104434967041,24.1221809387207,1.92605817317963,2.7324001789093,2.92482280731201,5.38737344741821,4.15403652191162,0.4338670372963,-9.68005657196045,-20.3680725097656,-31.0632705688477,6.36408758163452,-2.28406834602356,-3.56017804145813,-12.6518592834473,-6.6195650100708,-2.45529651641846,-24.3687839508057,-26.0138988494873,-17.9666881561279,-0.8167268037796,-0.95722585916519,-0.23823744058609,2.41123795509338,1.3800972700119,0.08445212244987,-6.87405252456665,-4.8602294921875,-3.47877502441406,7.29064321517944,9.0168628692627,10.4725370407104,0.25572347640991,0.66500318050385,0.96310544013977,-5.67455720901489,-4.44124412536621,-2.50194072723389,-0.2425135076046,-0.36590829491615,-0.34941491484642,0.41309762001038,0.38255435228348,0.24510967731476,1.20667767524719,1.73579621315002,1.69270062446594,8.55478191375732,8.96179580688477,9.76385402679443,-0.07780896127224,-0.07108944654465,0.04192062839866,-2.24815535545349,-2.99514627456665,-3.12682747840881,SWING_RIGHT
