gyro_x_0,gyro_y_0,gyro_z_0,acc_x_0,acc_y_0,acc_z_0,gyro_x_1,gyro_y_1,gyro_z_1,acc_x_1,acc_y_1,acc_z_1,gyro_x_2,gyro_y_2,gyro_z_2,acc_x_2,acc_y_2,acc_z_2,gyro_x_3,gyro_y_3,gyro_z_3,acc_x_3,acc_y_3,acc_z_3,gyro_x_4,gyro_y_4,gyro_z_4,acc_x_4,acc_y_4,acc_z_4,gyro_x_5,gyro_y_5,gyro_z_5,acc_x_5,acc_y_5,acc_z_5,gyro_x_6,gyro_y_6,gyro_z_6,acc_x_6,acc_y_6,acc_z_6,gyro_x_7,gyro_y_7,gyro_z_7,acc_x_7,acc_y_7,acc_z_7,gyro_x_8,gyro_y_8,gyro_z_8,acc_x_8,acc_y_8,acc_z_8,gyro_x_9,gyro_y_9,gyro_z_9,acc_x_9,acc_y_9,acc_z_9,gyro_x_10,gyro_y_10,gyro_z_10,acc_x_10,acc_y_10,acc_z_10,gyro_x_11,gyro_y_11,gyro_z_11,acc_x_11,acc_y_11,acc_z_11,gyro_x_12,gyro_y_12,gyro_z_12,acc_x_12,acc_y_12,acc_z_12,gyro_x_13,gyro_y_13,gyro_z_13,acc_x_13,acc_y_13,acc_z_13,gyro_x_14,gyro_y_14,gyro_z_14,acc_x_14,acc_y_14,acc_z_14,motion_type
0.100405998528,0.19629800319672,0.26427999138832,-0.11636400222778,-0.27382200956345,-0.37867501378059,4.61999988555908,4.85500001907349,4.85500001907349,8.81400012969971,8.9709997177124,9.04899978637695,0.07105699926615,-0.02199999988079,-0.17328999936581,1.37199997901917,2.23499989509583,3.01999998092651,0.51277500391006,0.51309901475906,0.40875399112701,-1.25682902336121,-1.88841199874878,-3.07877802848816,6.11100006103516,6.81699991226196,1.24600005149841,9.59799957275391,8.81400012969971,9.1269998550415,-0.10809099674225,2.87841701507568,5.43953084945679,-25.6159992218018,-36.3639984130859,-33.6969985961914,-9.48788642883301,-9.6528787612915,-8.6338586807251,7.23288011550903,5.87002277374268,4.06547212600708,-38.5299987792969,-39.6279983520508,-39.8639984130859,7.95100021362305,16.1100006103516,19.6410007476807,-0.60063397884369,-2.21192407608032,-3.97485709190369,32.4410018920898,38.1679992675781,37.8540000915527,-1.7856570482254,1.07879996299744,3.65588188171387,-8.907790184021,-10.3587532043457,-9.83114528656006,0.22599999606609,-2.91100001335144,-2.28299999237061,-1.93400001525879,4.65500020980835,8.3430004119873,-3.03910493850708,-1.90092194080353,0.12673899531364,13.5329999923706,12.121000289917,10.2379999160767,7.45539093017578,9.3886079788208,8.43611812591553,-1.58144903182983,-1.11170399188995,-0.88775599002838,-2.28299999237061,-1.49899995326996,-5.81400012969971,10.9320001602173,10.3830003738403,7.79400014877319,4.34841823577881,3.00950503349304,1.86668598651886,6.78599977493286,4.58900022506714,4.58900022506714,SWING_LEFT
0.1058330014348,0.00138999999035,-0.03902500122786,-0.3432599902153,-0.27765101194382,-0.33441999554634,3.12899994850159,3.12899994850159,3.20799994468689,9.75500011444092,9.83399963378906,9.59799957275391,-0.31595999002457,-0.50762397050858,-0.55726301670074,-0.58799999952316,-0.98000001907349,-0.58799999952316,0.20334300398827,0.20800000429153,0.11315400153399,-0.67337399721146,-0.59431099891663,-0.44880101084709,2.57999992370605,1.7960000038147,0.61900001764297,9.36299991607666,10.0690002441406,10.6180000305176,0.21764400601387,1.41914105415344,3.02158808708191,-12.121000289917,-30.7150001525879,-37.2270011901855,-7.9200439453125,-8.34549808502197,-7.83559799194336,5.16110801696777,4.29000997543335,2.88927006721497,-34.4500007629395,-39.2360000610351,-39.7849998474121,8.57800006866455,10.9320001602173,14.6979999542236,-1.82477200031281,-3.28060698509216,-4.70368099212646,29.5380001068115,37.3839988708496,39.3450012207031,-4.62642002105713,-2.99054288864136,0.03504699841142,-4.87775897979736,-7.41625022888184,-10.3166437149048,-13.5019998550415,-7.46099996566772,-4.16599988937378,-6.24900007247925,-0.52200001478195,5.12599992752075,-3.02512288093567,-2.78758192062378,-2.88458704948425,28.7530002593994,27.0270004272461,24.4379997253418,4.66790199279785,4.36072587966919,4.18537187576294,-6.89321088790894,-4.44650983810425,-3.46057200431824,-6.28399991989136,-7.22599983215332,-8.24600028991699,4.18499994277954,5.67500019073486,6.53800010681152,0.28620898723602,1.33894801139832,2.32077789306641,14.003999710083,13.6110000610352,11.4930000305176,SWING_LEFT
1.58686995506287,1.34317994117737,1.18849694728851,-0.7272139787674,-0.8619139790535,-0.8897460103035,1.95200002193451,2.10899996757507,1.95200002193451,9.52000045776367,10.1470003128052,10.1470003128052,-1.60209500789642,-1.24923896789551,-0.67042297124863,0.50900000333786,0.35199999809265,1.2940000295639,0.39370700716972,0.31600400805473,0.25776800513268,-0.53988999128342,-0.60711598396301,-0.63612401485443,2.34500002861023,1.95200002193451,0.54000002145767,10.3039999008179,10.0690002441406,10.4610004425049,-0.34805598855019,1.18673396110535,5.22156715393066,-6.86499977111816,-26.32200050354,-33.1469993591309,-7.85447597503662,-8.41488170623779,-7.23942089080811,4.92492723464966,3.48666405677795,2.24979400634766,-36.6469993591309,-39.7849998474121,-39.9420013427734,3.79200005531311,15.326000213623,14.8549995422363,-0.8640810251236,-2.89427590370178,-4.58060789108276,33.8530006408691,38.4819984436035,39.6590003967285,-3.26390290260315,-1.15143704414368,1.66339194774628,-5.50749111175537,-7.98684787750244,-9.97716045379639,-8.32400035858154,-5.2649998664856,-4.79400014877319,-1.69799995422363,4.34200000762939,8.10799980163574,-3.71222996711731,-3.56502199172974,-3.28900599479675,23.4179992675781,20.2019996643066,17.613000869751,4.78112411499023,5.07647180557251,5.94766616821289,-4.79944705963135,-3.43894910812378,-2.62023591995239,-2.12599992752075,-2.59699988365173,-2.51900005340576,4.81199979782104,6.14599990844727,7.55800008773804,1.22637903690338,2.99796199798584,4.91577816009521,4.90299987792969,1.05799996852875,-1.52999997138977,SWING_LEFT
-0.15277400612831,-0.13075099885464,-0.12055099755526,-0.1706719994545,-0.39952999353409,-0.68753397464752,2.42300009727478,2.57999992370605,2.65899991989136,10.6180000305176,10.6180000305176,11.0100002288818,-0.77772098779678,-1.52571296691895,-1.72930800914764,5.05999994277954,5.53000020980835,1.9210000038147,-0.09168499708176,-0.14171199500561,-0.35188600420952,-1.67454695701599,-1.41755199432373,-1.2474479675293,1.08899998664856,1.32500004768372,-1.10599994659424,10.7749996185303,11.08899974823,10.1470003128052,0.3911269903183,5.4258599281311,6.25567197799683,-25.6159992218018,-36.443000793457,-38.0120010375977,-7.74510288238525,-7.24603796005249,-6.4041600227356,6.73569107055664,5.85704183578491,4.78344011306763,-36.8040008544922,-39.5499992370605,-39.8639984130859,10.8540000915527,13.28600025177,11.4029998779297,-1.24147701263428,-3.40499591827393,-5.16626977920532,34.4809989929199,38.6389999389649,39.6590003967285,-4.55510187149048,-2.65702104568481,0.34982800483704,-4.00378179550171,-7.69604778289795,-10.3189210891724,-10.28600025177,-4.48000001907349,-1.18499994277954,-3.50300002098084,0.26199999451637,4.73400020599365,-4.29166793823242,-4.26796293258667,-4.3254771232605,19.9659996032715,13.2980003356934,7.57000017166138,4.27408504486084,5.75356817245483,10.9740314483643,-5.05717992782593,-3.20924496650696,-2.41828298568726,-1.73399996757507,-3.14599990844727,-3.61700010299683,8.5,10.3039999008179,12.6579999923706,7.84380578994751,9.48838233947754,9.6663007736206,0.90200001001358,2.31399989128113,2.39199995994568,SWING_LEFT
0.44767099618912,0.86284399032593,1.47332501411438,1.17403304576874,0.74120497703552,-0.29218098521233,0.93300002813339,2.34500002861023,3.05100011825562,10.3830003738403,10.6180000305176,11.3240003585815,-4.77782583236694,-5.10472393035889,-5.17808485031128,2.39199995994568,3.33400011062622,4.43200016021729,1.51844203472137,1.52637004852295,1.64534795284271,-2.80638003349304,-3.05737900733948,-2.30152988433838,5.9539999961853,6.26800012588501,5.71799993515015,11.246000289917,11.08899974823,8.81400012969971,-3.66688990592957,-3.3932740688324,-2.82742190361023,-0.03900000080466,-2.86299991607666,-10.5520000457764,1.52109396457672,-2.12903690338135,-5.54914999008179,3.06209301948547,7.0816011428833,7.83532094955444,-8.48099994659424,-15.3070001602173,-26.0550003051758,9.83399963378906,10.8540000915527,5.36199998855591,1.411700963974,-0.16592200100422,-1.41903698444366,-35.1870002746582,-18.632999420166,3.25500011444092,-6.36129283905029,-5.96563720703125,-4.9119668006897,3.87529301643372,2.25172591209412,-2.34453392028809,-39.8639984130859,-29.1940002441406,-31.3120002746582,6.61700010299683,7.79400014877319,15.168999671936,-5.97112798690796,-4.69086599349976,-3.25413608551025,31.7350006103516,30.2439994812012,26.2430000305176,2.57726693153381,3.23087692260742,3.61520600318909,-10.2885341644287,-9.18776702880859,-7.89804697036743,-3.14599990844727,-2.83200001716614,-2.83200001716614,2.30200004577637,4.10599994659424,6.30299997329712,-2.28976798057556,12.1931209564209,12.0486001968384,6.00099992752075,1.13699996471405,0.98000001907349,SWING_LEFT
1.45665097236633,1.54496502876282,1.67181694507599,1.46336102485657,1.19633996486664,0.93448597192764,-0.55699998140335,-0.24300000071526,0.14800000190735,7.71500015258789,7.71500015258789,8.57800006866455,-2.87876892089844,-3.16556692123413,-3.12351202964783,0.1169999986887,0.74500000476837,2.23499989509583,2.26035690307617,2.38893008232117,2.50610399246216,-1.38607501983643,-2.08169198036194,-2.58662700653076,4.85500001907349,7.60099983215332,10.4259996414185,16.738000869751,19.2479991912842,21.9939994812012,-3.39956593513489,-3.16161608695984,-2.76300406455994,6.70699977874756,5.29500007629395,2.78399991989136,1.53944504261017,0.57645601034164,-1.70175194740295,-1.58079600334167,-0.12606899440289,2.85850691795349,-8.24600028991699,-25.2709999084473,-31.2329998016357,19.4050006866455,4.10599994659424,-23.9799995422363,3.46891689300537,2.36362910270691,0.92311602830887,-37.5410003662109,-30.7940006256104,-17.5349998474121,-9.13714599609375,-7.60587978363037,-6.08523321151733,7.85181283950806,6.58253908157349,5.33206176757813,-39.9420013427734,-26.9969997406006,-19.8570003509521,6.85200023651123,16.3449993133545,20.0330009460449,-4.83135080337524,-6.02383613586426,-5.00988817214966,12.0419998168945,14.16100025177,19.8880004882813,3.8947548866272,4.38721179962158,4.62830781936646,-7.88458299636841,-7.89532709121704,-7.7624101638794,-7.38299989700317,-5.02899980545044,-5.7350001335144,17.5219993591309,16.5809993743896,15.0120000839233,0.46835601329803,0.40071699023247,0.13052000105381,11.96399974823,8.59000015258789,5.60900020599365,SWING_LEFT
0.75366002321243,1.02617394924164,1.35147798061371,0.15177200734615,-0.23889900743961,-0.78853499889374,-0.87099999189377,-0.71399998664856,0.54000002145767,10.3830003738403,11.08899974823,13.7559995651245,-3.15100407600403,-3.48357701301575,-3.50978708267212,4.11800003051758,4.58900022506714,3.25500011444092,1.66804504394531,1.37755799293518,1.01304697990417,-2.25074791908264,-1.83012104034424,-1.19912505149841,0.30500000715256,-1.57700002193451,-1.96899998188019,23.25,20.8169994354248,17.6009998321533,-0.83013099431992,0.85670799016953,3.66130304336548,-16.6720008850098,-34.1669998168945,-33.0690002441406,-7.55824518203735,-6.93833923339844,-5.82933521270752,6.2219500541687,5.66534805297852,4.7230920791626,-39.3139991760254,-39.6279983520508,-39.9420013427734,6.93100023269653,12.9720001220703,8.9709997177124,-2.54928588867188,-4.79635286331177,-6.43233919143677,33.6959991455078,38.4819984436035,39.6590003967285,-3.03300404548645,4.60101890563965,4.98141193389893,-4.66504096984863,-15.5166521072388,-12.8277378082275,-1.34200000762939,-9.3439998626709,-2.44000005722046,-2.40499997138977,10.1470003128052,7.79400014877319,-2.16908097267151,-2.62735891342163,1.01199197769165,9.68900012969971,2.07800006866455,-3.8050000667572,9.28536605834961,8.60112571716309,6.24611520767212,-5.90713500976563,-4.48540306091309,-2.73978090286255,-8.71700000762939,-7.38299989700317,-5.7350001335144,11.3240003585815,9.67700004577637,7.63700008392334,10.3823480606079,7.21105194091797,5.27319002151489,-0.35299998521805,5.37400007247925,6.23699998855591,SWING_LEFT
0.15129199624062,0.28480699658394,0.52981597185135,0.62457299232483,0.30303999781609,-0.20917999744415,-0.47900000214577,-0.40000000596046,-0.00800000037998,9.59799957275391,9.59799957275391,9.99100017547607,-1.93618905544281,-2.21014404296875,-2.59479904174805,1.52900004386902,3.17700004577637,5.9229998588562,0.67695999145508,0.5569069981575,0.40399599075317,-2.07411599159241,-2.16361904144287,-1.89517104625702,1.08899998664856,-0.00800000037998,0.46200001239777,19.1700000762939,16.6590003967285,16.5809993743896,-0.52165502309799,0.04329900071025,3.68163990974426,-3.25600004196167,-16.201000213623,-34.0890007019043,-1.62060797214508,-3.38375806808472,-3.85208892822266,9.21504783630371,10.4214668273926,9.04828929901123,-12.4820003509521,-21.8969993591309,-37.6669998168945,-0.12899999320507,4.10599994659424,29.6049995422363,-2.24915504455566,-4.51148080825806,-6.15670490264893,13.6110000610352,25.3010005950928,29.6159992218018,-3.87689900398254,-4.31549787521362,-2.51479506492615,-1.54051899909973,-6.25997495651245,-12.3231592178345,-16.6410007476807,-6.20599985122681,-4.08799982070923,-5.54300022125244,-7.11199998855591,-2.64000010490417,-0.53187102079391,-1.53060495853424,-3.31379890441895,27.2630004882813,24.0459995269775,7.96299982070923,1.6277619600296,3.45099091529846,6.15963411331177,-5.57070207595825,-3.80884099006653,-3.23149490356445,-5.89200019836426,-4.71500015258789,-3.93099999427795,8.26399993896484,8.42099952697754,9.44099998474121,7.08416223526001,8.41287899017334,8.79432964324951,-0.27399998903275,0.98000001907349,2.07800006866455,SWING_LEFT
1.38487899303436,1.15909600257874,0.97079402208328,-0.20933599770069,-0.16716299951077,-0.17718100547791,-0.24300000071526,0.22599999606609,0.77600002288818,10.539999961853,10.3039999008179,9.59799957275391,-1.89354598522186,-1.68644797801971,-1.50844204425812,-0.35299998521805,-0.195999994874,0.43099999427795,0.48649001121521,0.99531400203705,1.49152100086212,-0.25802299380302,-1.06994199752808,-2.16061401367188,3.44300007820129,7.91499996185303,11.0530004501343,13.128999710083,18.2280006408691,22.3080005645752,-3.75633192062378,-3.90065693855286,-3.96562910079956,5.60900020599365,4.03999996185303,-0.50999999046326,2.41294097900391,3.12722611427307,1.90393602848053,-2.46303391456604,-0.64307701587677,8.08921146392822,5.2480001449585,-8.63799953460693,-29.1940002441406,-1.77699995040894,-10.3290004730225,-4.99399995803833,3.91703009605408,-0.35589900612831,-2.44181108474731,-38.5610008239746,-26.0860004425049,-10.1599998474121,-6.8139009475708,-5.68253803253174,-4.36730194091797,7.58764410018921,5.00765991210938,-0.19803200662136,-39.9420013427734,-39.9420013427734,-35.8619995117188,15.7180004119873,21.4449996948242,0.65399998426437,-5.75645923614502,-4.80814504623413,-2.86615204811096,26.556999206543,28.9099998474121,30.0869998931885,0.11481799930334,1.39059996604919,2.42287802696228,-11.5822906494141,-10.9936304092407,-9.14937019348144,-1.34200000762939,-0.55699998140335,-4.48000001907349,7.24499988555908,7.08799982070923,7.79400014877319,-3.47870588302612,-2.83748292922974,-1.20173001289368,-0.50999999046326,-5.2960000038147,-5.5310001373291,SWING_LEFT
0.49692100286484,0.41968500614166,0.3920019865036,-0.13666999340057,-0.26386299729347,-0.42567199468613,0.46200001239777,0.61900001764297,0.69700002670288,9.36299991607666,10.8540000915527,12.2659997940063,-2.14876294136047,-2.04619097709656,-1.95097005367279,2.62800002098084,2.23499989509583,1.9210000038147,0.33854600787163,0.44704899191856,0.71932798624039,-0.69920402765274,-0.59882897138596,-0.65420401096344,2.26600003242493,4.54099988937378,5.71799993515015,14.3839998245239,15.2469997406006,16.1889991760254,-1.62940299510956,-1.9166020154953,-2.20938801765442,4.51000022888184,0.90200001001358,-6.47200012207031,3.39824295043945,4.68718576431274,-1.58719301223755,-0.23237100243568,7.51601123809814,14.0077753067017,8.07199954986572,-7.06899976730347,-29.3509998321533,-10.956000328064,-8.99499988555908,11.246000289917,1.58802902698517,-1.69030094146729,-3.59052610397339,-31.4209995269775,-23.261999130249,-18.7110004425049,-4.81243991851807,-4.19842386245728,-3.9061439037323,7.30039596557617,5.42037200927734,2.84500288963318,-39.7070007324219,-39.9420013427734,-39.9420013427734,-18.6450004577637,12.8929996490479,10.4610004425049,-7.1902961730957,-7.90107297897339,-7.22982120513916,28.4400005340576,29.6949996948242,29.8519992828369,-1.93824195861816,0.59240001440048,1.91586697101593,-13.1195573806763,-12.8962631225586,-11.9421710968018,-13.5019998550415,-8.01000022888184,-4.63700008392334,6.77400016784668,7.79400014877319,7.00899982452393,-4.09563207626343,-3.75670695304871,-2.7055549621582,15.4940004348755,9.60999965667725,6.55000019073486,SWING_LEFT
0.99716901779175,0.84031802415848,0.75008797645569,0.19680100679398,-0.14239400625229,-0.28140199184418,0.14800000190735,0.22599999606609,1.16799998283386,9.44099998474121,10.6969995498657,11.1669998168945,-2.19033098220825,-2.63950705528259,-2.92930889129639,4.03999996185303,5.13800001144409,5.29500007629395,0.99518501758575,1.20517897605896,1.45711696147919,-2.29548001289368,-2.6906840801239,-2.77585697174072,5.71799993515015,8.30700016021729,9.79800033569336,11.5600004196167,16.0319995880127,16.423999786377,-3.66456007957459,-3.82015895843506,-4.04811191558838,4.51000022888184,2.0,-4.19700002670288,2.68973088264465,3.60766696929932,-1.01436805725098,-1.29459095001221,2.68572902679443,12.279806137085,2.34500002861023,-10.6000003814697,-24.9570007324219,0.02700000070035,-0.12899999320507,9.52000045776367,3.26175308227539,-0.02438700012863,-1.81587994098663,-31.3430004119873,-22.6340007781982,-11.0229997634888,-6.71949005126953,-5.06460905075073,-4.64402723312378,5.89047908782959,2.3860969543457,0.78038197755814,-39.8639984130859,-33.2729988098145,-28.4090003967285,6.38199996948242,10.3039999008179,9.75500011444092,-5.44753503799438,-5.3529372215271,-4.4669041633606,21.0650005340576,23.8110008239746,24.0459995269775,-0.38875699043274,1.1674530506134,2.42320799827576,-8.40481567382813,-9.14102935791016,-8.76310253143311,-13.3450002670288,-8.79500007629395,-4.16599988937378,8.42099952697754,8.9709997177124,10.539999961853,-2.56653308868408,-2.22248601913452,-1.29122996330261,15.0240001678467,3.7260000705719,-0.195999994874,SWING_LEFT
0.68325501680374,0.70322197675705,0.84398597478867,-0.0074410000816,-0.27060601115227,-0.7597079873085,0.14800000190735,0.30500000715256,0.85399997234344,10.7749996185303,11.246000289917,11.9519996643066,-2.7308828830719,-2.86290192604065,-2.75064396858215,3.01999998092651,4.74599981307983,1.2940000295639,0.61919701099396,0.79899901151657,1.15569996833801,-1.49008905887604,-0.81449598073959,-0.09260399639606,0.93300002813339,4.69799995422363,6.97399997711182,14.0699996948242,15.4820003509521,14.8549995422363,-0.47534400224686,0.06218000128865,1.46068704128265,-4.03999996185303,-7.33500003814697,-12.0430002212524,2.16858601570129,-2.0925989151001,-4.36394691467285,5.21505784988403,10.5961532592773,11.6717367172241,2.73699998855591,-11.6979999542236,-30.3700008392334,-7.66099977493286,-10.4860000610352,1.36000001430511,-1.13942801952362,-3.69887590408325,-5.0679087638855,-27.2630004882813,-18.3190002441406,-4.03999996185303,-3.02800107002258,-2.60820198059082,-2.56958293914795,4.17984485626221,0.67206102609634,-2.45702600479126,-39.9420013427734,-34.6069984436035,-22.996000289917,-3.18899989128113,20.6609992980957,17.2870006561279,-7.46292304992676,-5.96190118789673,-4.56247520446777,33.4609985351563,29.4599990844727,24.4379997253418,2.72333598136902,3.70495510101318,3.93406009674072,-10.1871614456177,-8.9295654296875,-7.58116579055786,-2.98900008201599,-1.41999995708466,-2.91100001335144,8.81400012969971,9.28400039672852,8.6569995880127,-3.46806693077087,-2.05870699882507,2.82050490379334,3.01999998092651,-0.1169999986887,-0.58799999952316,SWING_LEFT
0.04533499851823,0.17008499801159,0.32298499345779,-0.01008499972522,-0.0578970015049,-0.10265000164509,0.30500000715256,0.46200001239777,1.48199999332428,9.44099998474121,9.36299991607666,11.08899974823,-1.29703605175018,-1.71663594245911,-2.01676797866821,3.41199994087219,5.21700000762939,7.88399982452393,1.26287305355072,1.39576005935669,1.39345800876617,-2.22452902793884,-2.72850704193115,-2.62022089958191,8.69999980926514,8.69999980926514,8.54300022125244,17.9150009155273,19.9540004730225,20.2679996490479,-2.65737009048462,-2.47951292991638,-2.22553896903992,6.00099992752075,5.29500007629395,1.37199997901917,0.72970300912857,-0.00045500000124,-2.12569308280945,-0.95988297462463,0.61100399494171,2.96299290657043,-6.12799978256226,-15.3070001602173,-26.6049995422363,7.79400014877319,3.16499996185303,-7.50400018692017,3.02147793769836,1.04495704174042,-0.26055100560188,-37.148998260498,-31.7350006103516,-20.7509994506836,-7.73229503631592,-6.20683002471924,-4.9459171295166,8.57862377166748,7.02325391769409,5.61395311355591,-39.8639984130859,-39.9420013427734,-39.9420013427734,5.75400018692017,6.85200023651123,7.95100021362305,-4.04769611358643,-5.5388879776001,-6.26781797409058,25.1439990997314,31.4209995269775,30.3229999542236,-0.45058500766754,0.83144599199295,2.75739002227783,-5.10170984268188,-7.34789323806763,-9.80240631103516,-18.367000579834,-16.9540004730225,-11.3059997558594,10.6969995498657,10.6969995498657,16.5020008087158,-2.29647898674011,-1.78295600414276,-1.52809000015259,23.0259990692139,18.0049991607666,12.5129995346069,SWING_LEFT
0.09556800127029,0.10658399760723,0.10012199729681,-0.08653999865055,-0.06516700237989,0.03872700035572,0.14800000190735,0.30500000715256,0.85399997234344,9.91199970245361,10.1470003128052,10.6969995498657,-0.70939499139786,-0.89002001285553,-1.43943798542023,1.37199997901917,3.56900000572205,5.37400007247925,0.91247999668121,1.1430469751358,1.33005595207214,-1.49366402626038,-1.95815300941467,-2.20882701873779,5.16900014877319,5.79699993133545,6.58099985122681,13.28600025177,12.4230003356934,12.9720001220703,-2.86892604827881,-2.54990100860596,-1.83265805244446,0.98000001907349,-2.70600008964539,-7.88500022888184,1.69305098056793,0.30073699355125,-3.82365703582764,1.42776703834534,4.89118480682373,7.84277296066284,-0.00800000037998,-14.7580003738403,-27.7029991149902,7.55800008773804,7.00899982452393,9.20600032806396,1.58938705921173,-0.39347299933434,-1.87200605869293,-27.7339992523193,-17.3780002593994,-6.62900018692017,-6.64910793304443,-6.02679777145386,-4.9659218788147,5.55480289459229,3.93679904937744,-0.47742500901222,-39.8639984130859,-39.9420013427734,-23.5450000762939,5.75400018692017,8.81400012969971,6.30299997329712,-6.12022113800049,-5.83224201202393,-4.66307401657104,27.4979991912842,26.7140007019043,27.2630004882813,1.27456700801849,2.54452991485596,3.00149893760681,-9.20956420898438,-8.83246517181396,-7.62486219406128,-9.02999973297119,-3.61700010299683,-0.94900000095367,9.20600032806396,8.6569995880127,9.04899978637695,-3.74127697944641,-3.50110292434692,-3.0677330493927,11.3360004425049,4.66699981689453,1.76499998569489,SWING_LEFT
-0.06095999851823,0.00368100008927,0.07810500264168,-0.01504299975932,-0.15817900002003,-0.27435800433159,-0.55699998140335,-0.24300000071526,-0.08600000292063,10.3039999008179,10.2259998321533,10.3039999008179,-0.47277998924255,-0.4382129907608,-0.53271400928497,0.74500000476837,0.74500000476837,4.66699981689453,0.43797099590302,0.58561998605728,0.59128099679947,-1.09794104099274,-1.68026196956635,-2.23396301269531,2.42300009727478,2.42300009727478,4.85500001907349,15.4040002822876,15.4040002822876,18.2280006408691,-3.00396203994751,-3.10596704483032,-2.80801296234131,12.5129995346069,8.35499954223633,2.70600008964539,0.70611202716827,1.18339002132416,1.6141129732132,-2.09374690055847,-0.83642101287842,1.61322498321533,2.97199988365173,-1.96899998188019,-17.1110000610352,9.1269998550415,1.9099999666214,-4.20900011062622,4.2648720741272,1.93941903114319,0.23020699620247,-35.5009994506836,-30.3229999542236,-8.82600021362305,-5.7053108215332,-4.93613195419312,-4.42772006988525,6.52656412124634,5.00870609283447,3.07310009002686,-39.9420013427734,-39.9420013427734,-39.9420013427734,4.89099979400635,3.63599991798401,13.28600025177,-5.2184739112854,-5.7329888343811,-5.52022409439087,33.068000793457,31.8129997253418,29.5380001068115,-1.02623403072357,1.01139402389526,2.43516898155212,-8.51220321655273,-9.46374988555908,-8.56557846069336,-12.326000213623,-8.5600004196167,-5.5,6.38199996948242,9.91199970245361,8.81400012969971,-3.33094501495361,-3.19105792045593,-2.28783392906189,14.4739999771118,9.92399978637695,5.68699979782104,SWING_LEFT
0.66816902160645,0.99804401397705,1.16265594959259,-1.61260199546814,-2.29146099090576,-2.68647694587708,5.56099987030029,7.13100004196167,7.99399995803833,13.6780004501343,16.8159999847412,18.5419998168945,-3.39006495475769,-3.42513203620911,-3.50213694572449,7.09999990463257,5.29500007629395,4.11800003051758,1.55693805217743,1.80808901786804,2.1465950012207,-2.18903207778931,-0.97095197439194,1.57106900215149,5.6399998664856,-0.16500000655651,-6.59800004959106,8.18599987030029,5.51900005340576,4.02799987792969,4.80603790283203,5.76543092727661,2.29556393623352,-23.4190006256104,-29.6949996948242,-30.2450008392334,-8.92037868499756,-6.58198881149292,-5.58920192718506,8.85449886322021,6.11407899856567,4.89275884628296,-39.1580009460449,-39.9420013427734,-39.9420013427734,2.77300000190735,1.20299994945526,5.51900005340576,-4.15136814117432,-5.15448808670044,-5.8097939491272,23.4969997406006,26.8700008392334,29.4599990844727,-2.55844211578369,-0.70117598772049,1.53618502616882,-5.10798311233521,-8.02432727813721,-9.11783981323242,-15.5419998168945,-14.3649997711182,-12.7180004119873,4.81199979782104,14.4619998931885,17.9150009155273,-3.42673492431641,-2.83100605010986,-2.16067600250244,19.0249996185303,15.4160003662109,11.7279996871948,4.48448610305786,5.43692111968994,7.16440486907959,-5.49947786331177,-4.82318210601807,-5.30646514892578,-4.71500015258789,-3.22499990463257,-3.61700010299683,7.16599988937378,8.0290002822876,7.71500015258789,6.10713911056519,8.26350879669189,8.6992244720459,1.76499998569489,2.0,3.56900000572205,SWING_LEFT
0.30673599243164,0.27770799398422,0.6646980047226,-2.38079690933228,-2.02701592445374,-1.25249195098877,1.71700000762939,3.5220000743866,4.07100009918213,13.0500001907349,15.326000213623,15.7959995269775,-0.80597698688507,0.26869800686836,1.16151404380798,-3.17700004577637,-3.09899997711182,-4.35400009155273,1.84691596031189,1.39162397384644,-0.28152000904083,3.19705891609192,4.6132550239563,6.53319501876831,2.03099989891052,-2.12599992752075,-10.9130001068115,6.38199996948242,4.34200000762939,4.65500020980835,3.22021293640137,0.49932301044464,-1.73967397212982,-32.3629989624023,-30.4799995422363,-26.3999996185303,-5.00060319900513,-4.4616961479187,-4.0783371925354,6.07563495635986,4.88628578186035,3.58519411087036,-39.3930015563965,-39.8639984130859,-39.9420013427734,7.79400014877319,7.63700008392334,8.81400012969971,-5.93395900726318,-6.71362018585205,-6.61148500442505,33.9309997558594,36.9129981994629,29.1459999084473,-1.74757695198059,0.31794801354408,1.97895896434784,-8.06905555725098,-9.77586364746094,-9.22666454315186,-17.9740009307861,-17.0330009460449,-12.2469997406006,13.5209999084473,19.9540004730225,17.3649997711182,-2.48904204368591,-2.03393197059631,-1.23479795455933,19.4169998168945,14.3170003890991,9.06099987030029,3.94070100784302,4.72723817825317,6.55160188674927,-4.71498680114746,-4.10237598419189,-4.42538404464722,-2.36199998855591,-2.98900008201599,-3.85199999809265,7.00899982452393,7.55800008773804,8.9709997177124,8.12061786651611,10.8041515350342,10.4959621429443,-1.21599996089935,-1.05900001525879,0.43099999427795,SWING_LEFT
0.82839298248291,1.14783501625061,1.18324303627014,-1.13379502296448,-2.15918493270874,-3.11619305610657,6.03200006484985,7.44399976730347,6.65999984741211,13.835000038147,15.5609998703003,16.3449993133545,-4.24492979049683,-3.935142993927,-3.21570706367493,8.27600002288818,6.23699998855591,2.0,0.4522559940815,0.17141099274158,-0.95775598287582,-1.85134899616241,-0.12921600043774,2.28085207939148,-4.08799982070923,-10.4429998397827,-14.2080001831055,13.9919996261597,11.5600004196167,7.79400014877319,4.94186019897461,4.78485202789307,2.99099206924438,-31.2639999389648,-33.3040008544922,-33.3040008544922,-7.20397806167603,-6.07724094390869,-5.2387490272522,8.07373142242432,6.93523406982422,5.67039203643799,-39.4710006713867,-39.8639984130859,-39.9420013427734,10.1470003128052,8.42099952697754,7.08799982070923,-2.55052900314331,-4.25498485565186,-5.49282217025757,28.4400005340576,31.8920001983643,28.0470008850098,-2.30982398986816,-0.99393600225449,1.14880800247192,-3.46540999412537,-5.62263488769531,-7.49473285675049,-19.9360008239746,-16.5620002746582,-12.0900001525879,12.6579999923706,19.9540004730225,17.6790008544922,-3.42462301254272,-2.29952597618103,-1.61316704750061,19.496000289917,16.2000007629395,12.7480001449585,4.44765996932983,4.92990922927856,9.6272497177124,-4.50903415679932,-3.46301794052124,-5.36911678314209,-2.04800009727478,-3.7739999294281,-4.08799982070923,8.57800006866455,9.04899978637695,9.44099998474121,11.3878870010376,11.1956949234009,9.9375810623169,0.43099999427795,0.35199999809265,-0.35299998521805,SWING_LEFT
1.47532999515533,1.34674394130707,1.31156301498413,-1.31691598892212,-1.071702003479,-0.59249401092529,4.93400001525879,4.93400001525879,3.5220000743866,11.9519996643066,10.539999961853,7.79400014877319,-0.34347298741341,0.01085499953479,0.3592129945755,-2.0,-2.94199991226196,-6.62900018692017,-0.82972198724747,-2.98889088630676,-5.09321117401123,2.87470602989197,4.78974485397339,6.18813610076904,-4.40100002288818,-9.26599979400635,-12.0120000839233,7.87200021743774,8.0290002822876,7.16599988937378,0.23969599604607,-0.74129998683929,-1.61660301685333,-26.556999206543,-24.2029991149902,-13.8470001220703,-5.73797798156738,-5.22337293624878,-4.76724195480347,5.22907781600952,3.93694591522217,2.49477100372314,-39.4710006713867,-39.8639984130859,-39.9420013427734,7.48000001907349,9.67700004577637,14.8549995422363,-5.36395883560181,-6.0670862197876,-6.03290176391602,31.3419990539551,33.3819999694824,29.1459999084473,-0.58575701713562,0.92799299955368,2.58585691452026,-6.27268981933594,-7.98700618743896,-8.80537700653076,-16.1700000762939,-12.6389999389648,-9.57999992370606,7.71500015258789,10.9320001602173,11.7950000762939,-2.02958297729492,-1.66281795501709,-1.36277496814728,18.2399997711182,15.2589998245239,11.3360004425049,4.40339803695679,5.36069202423096,9.48061466217041,-5.62041997909546,-4.71070623397827,-5.71497011184692,-2.51900005340576,-1.81200003623962,-1.49899995326996,8.18599987030029,8.9709997177124,8.9709997177124,10.1961240768433,11.0142784118652,9.83429145812988,2.54900002479553,0.58799999952316,0.19499999284744,SWING_LEFT
1.16916596889496,1.10327196121216,0.91406697034836,-1.96261703968048,-2.22219395637512,-2.27807998657227,5.2480001449585,3.91400003433228,1.95200002193451,16.0319995880127,13.7559995651245,12.1870002746582,-2.12394189834595,-1.14924597740173,0.28946000337601,0.19499999284744,-3.64800000190735,-5.60900020599365,-0.56754398345947,-2.45800089836121,-4.62318086624146,1.74788296222687,3.5237820148468,5.24740314483643,-9.57999992370606,-12.7959995269775,-16.7980003356934,9.20600032806396,6.14599990844727,3.63599991798401,2.80802798271179,1.68179297447205,0.54998397827148,-31.5,-29.617000579834,-19.3390007019043,-5.41124820709229,-4.84038209915161,-4.25118494033813,6.5491418838501,5.43148183822632,4.01746702194214,-39.5499992370605,-39.8639984130859,-39.9420013427734,3.71399998664856,8.57800006866455,14.6979999542236,-3.91202688217163,-5.08418321609497,-5.71936416625977,24.2029991149902,28.6749992370605,26.2430000305176,-1.04388701915741,0.43150898814201,2.05720901489258,-4.65334415435791,-6.90395784378052,-8.21257209777832,-19.6219997406006,-19.6219997406006,-12.7959995269775,9.04899978637695,9.04899978637695,12.8929996490479,-2.63702988624573,-2.53344297409058,-2.30850791931152,22.8689994812012,18.3190002441406,12.5909996032715,4.17266893386841,6.21698617935181,12.1035652160645,-5.1696891784668,-3.49547004699707,-5.53045177459717,-2.98900008201599,-2.91100001335144,-3.14599990844727,9.99100017547607,11.6379995346069,10.6180000305176,11.3032026290894,11.1498403549194,8.83400344848633,-1.76499998569489,-1.45099997520447,1.9210000038147,SWING_LEFT
0.06576000154018,0.07885400205851,0.22586500644684,-0.44343000650406,-0.41203999519348,-0.54641097784042,1.16799998283386,1.95200002193451,2.18799996376038,10.3830003738403,11.246000289917,10.7749996185303,-1.29610800743103,-1.49092602729797,-2.00497007369995,1.9210000038147,2.94099998474121,3.88299989700317,1.58304703235626,1.69941604137421,1.67846298217773,-1.75680100917816,-1.6827689409256,-1.38464200496674,7.36600017547607,6.81699991226196,6.89499998092651,15.4820003509521,15.4820003509521,16.8159999847412,-2.04059791564941,-1.34744501113892,-0.35616600513458,-0.27399998903275,-1.52999997138977,-6.94299983978271,-0.06905800104141,-1.70437502861023,-5.95849990844727,1.87774097919464,3.80589604377747,6.50360488891602,-4.40100002288818,-22.3680000305176,-35.1559982299805,7.79400014877319,-4.67999982833862,-0.60000002384186,1.38964796066284,-0.04309200122952,-1.03073394298553,-34.9519996643066,-22.9479999542236,-3.09899997711182,-7.32146787643433,-6.39827394485474,-4.33053922653198,5.47395706176758,3.75836801528931,-1.12601804733276,-39.9420013427734,-39.9420013427734,-21.3479995727539,-1.07099997997284,13.128999710083,7.32299995422363,-6.15716600418091,-6.18571186065674,-5.34916877746582,34.3240013122559,29.3810005187988,28.4400005340576,2.4315390586853,3.37806296348572,3.9554660320282,-7.86536121368408,-7.3952579498291,-6.63534021377563,-8.79500007629395,-5.10799980163574,-2.67499995231628,10.7749996185303,7.00899982452393,7.40100002288818,-2.82806801795959,-1.85915100574493,-0.79147100448608,11.8070001602173,3.01999998092651,-1.37300002574921,SWING_LEFT
0.09675300121307,0.13183499872684,0.23122499883175,-0.16329799592495,-0.28060099482536,-0.43011599779129,0.46200001239777,0.93300002813339,2.18799996376038,10.4610004425049,10.6969995498657,11.5600004196167,-0.89332699775696,-1.43102502822876,-2.10801792144775,3.96099996566772,6.94299983978271,6.23699998855591,1.54303395748138,1.65342605113983,1.6363719701767,-2.19099688529968,-2.16962909698486,-2.10761308670044,7.36600017547607,7.75799989700317,7.36600017547607,14.7760000228882,15.168999671936,13.5209999084473,-2.59363603591919,-2.39659690856934,-1.66022002696991,1.60800004005432,-2.23600006103516,-8.82600021362305,1.2360600233078,-2.55776691436768,-8.31917572021484,2.16873598098755,7.76273012161255,9.30087661743164,-12.6389999389648,-22.996000289917,-30.6060009002686,2.06599998474121,5.44000005722046,7.79400014877319,2.10319495201111,0.26966199278831,-0.90584599971771,-21.2220001220703,-15.1029996871948,-3.7260000705719,-5.68017387390137,-5.09231615066528,-4.25990676879883,2.28986501693726,0.33407700061798,-1.7772730588913,-33.6660003662109,-23.7800006866455,-15.5419998168945,8.6569995880127,13.0500001907349,11.6379995346069,-4.25496101379395,-4.1784930229187,-3.87955188751221,18.8680000305176,18.9459991455078,18.5540008544922,1.63524794578552,2.91756701469421,3.47707509994507,-7.07156610488892,-6.60260009765625,-5.9932599067688,-7.53999996185303,-4.48000001907349,-1.96899998188019,11.3240003585815,9.1269998550415,7.63700008392334,-1.62142097949982,-0.97924000024796,0.73277097940445,6.78599977493286,4.98099994659424,3.80399990081787,SWING_LEFT
1.22311103343964,1.19317400455475,1.05860996246338,-1.82579398155212,-1.72923600673676,-1.55071604251862,5.16900014877319,4.77699995040894,4.14900016784668,15.0120000839233,14.9329996109009,14.1490001678467,-1.65194296836853,-1.36876702308655,-0.45532101392746,3.88299989700317,0.82300001382828,-5.21700000762939,0.13717700541019,-0.44173601269722,-1.41111195087433,1.28485095500946,2.99923706054688,4.74738311767578,-1.41999995708466,-2.44000005722046,-2.91100001335144,10.0690002441406,4.18499994277954,0.65399998426437,4.27550792694092,1.15202605724335,-0.48124301433563,-23.261999130249,-30.7940006256104,-17.6919994354248,-5.10360622406006,-4.68090009689331,-4.27436017990112,5.32991695404053,4.0139741897583,2.38845705986023,-39.6279983520508,-39.8639984130859,-39.9420013427734,6.30299997329712,7.79400014877319,14.0699996948242,-4.77729797363281,-5.25749206542969,-5.14471197128296,26.1639995574951,30.2439994812012,30.1660003662109,0.48957198858261,2.19276809692383,3.29660892486572,-9.17162418365478,-9.2932596206665,-8.4767894744873,-10.2069997787476,-8.48099994659424,-7.69700002670288,9.36299991607666,11.0100002288818,11.1669998168945,-1.87000894546509,-1.33866000175476,-0.41231799125671,12.9049997329712,10.8649997711182,7.96299982070923,5.60076999664307,8.687331199646,9.27054786682129,-4.5825400352478,-4.96089315414429,-4.76972007751465,-3.30299997329712,-3.85199999809265,-3.7739999294281,8.6569995880127,7.48000001907349,7.79400014877319,8.05184745788574,7.13736391067505,6.34006500244141,0.35199999809265,0.35199999809265,1.9210000038147,SWING_LEFT
0.46316599845886,0.56558102369308,0.95667600631714,-1.48298001289368,-1.19736695289612,-0.52476197481155,2.65899991989136,3.5220000743866,4.85500001907349,9.75500011444092,9.75500011444092,10.4610004425049,-0.3894650042057,-0.3593829870224,-0.75950998067856,0.27399998903275,-0.1169999986887,-1.68700003623962,2.23688197135925,2.06018900871277,1.89833295345306,0.94707298278809,0.51144200563431,0.11065600067377,8.38599967956543,8.54300022125244,6.34600019454956,13.9130001068115,9.44099998474121,6.77400016784668,-1.17203497886658,0.66773998737335,3.04857206344604,-10.7869997024536,-22.7910003662109,-23.8110008239746,-5.6398458480835,-7.29052591323853,-7.438392162323,8.27477264404297,6.93053579330444,5.33625411987305,-21.8190002441406,-23.9370002746582,-28.4869995117188,11.8730001449585,13.128999710083,9.99100017547607,-3.20967602729797,-3.51139497756958,-4.11437892913818,-20.6730003356934,-13.6899995803833,6.78599977493286,-5.17961883544922,-4.98828077316284,-4.80619812011719,0.00593499979004,-1.10200500488281,-3.06504106521606,-32.2529983520508,-29.2719993591309,-24.1720008850098,4.9689998626709,2.14499998092651,4.42000007629395,-4.12587976455688,-3.97451496124268,-3.80107808113098,26.7919998168945,27.1840000152588,25.6940002441406,1.88021802902222,3.20934295654297,4.22607612609863,-9.59573745727539,-8.61148643493652,-7.26757097244263,-7.38299989700317,-5.10799980163574,-5.5,9.44099998474121,9.59799957275391,8.42099952697754,-2.08014988899231,-0.60425698757172,2.09287810325623,7.57000017166138,4.90299987792969,3.4909999370575,SWING_LEFT
0.50370401144028,0.58846497535706,0.5441489815712,-0.99816399812698,-1.47087895870209,-1.53563499450684,1.71700000762939,1.95200002193451,1.16799998283386,11.4809999465942,10.8540000915527,10.3039999008179,-1.49258005619049,-0.865827023983,0.06078699976206,-2.23600006103516,-2.31399989128113,-2.47099995613098,0.99116599559784,1.1869649887085,1.36990201473236,1.19643199443817,2.11509490013123,2.74795794487,4.38500022888184,6.03200006484985,7.36600017547607,10.7749996185303,10.7749996185303,11.0100002288818,1.12981200218201,-1.60141098499298,-2.51982092857361,-1.52999997138977,-1.2940000295639,-7.02199983596802,2.50969791412354,-0.33006298542023,-5.1191201210022,0.74468302726746,4.90453290939331,7.65777683258057,-5.57800006866455,-9.8149995803833,-24.4860000610352,3.40000009536743,2.92899990081787,3.87100005149841,-1.63649296760559,-3.47518110275269,-4.24933290481567,-12.6700000762939,-12.6700000762939,-4.98199987411499,-6.50864601135254,-5.82623815536499,-5.31729412078857,2.78524208068848,1.5403059720993,0.16220200061798,-24.1720008850098,-17.9740009307861,-14.7580003738403,3.16499996185303,0.73299998044968,0.49700000882149,-5.19201612472534,-4.8298487663269,-4.34493780136108,3.09800004959106,4.19700002670288,6.47200012207031,-1.78191602230072,0.05416600033641,1.5234409570694,-4.67053604125977,-5.2806921005249,-5.18472194671631,-18.1310005187988,-16.0130004882813,-14.3649997711182,18.621000289917,19.0130004882813,18.9340000152588,-0.86024302244186,-0.52315098047256,-0.29659900069237,12.9840002059937,13.5329999923706,11.8850002288818,SWING_LEFT
1.28296196460724,1.37264800071716,1.29663300514221,-1.53189694881439,-1.59980702400208,-1.51317095756531,4.61999988555908,5.2480001449585,3.99200010299683,15.7959995269775,18.2280006408691,16.9729995727539,-2.39614391326904,-2.41647100448608,-1.94613301753998,4.82399988174438,4.98099994659424,1.52900004386902,-0.30718401074409,-1.86122095584869,-5.68682479858398,-1.2695529460907,-0.58379799127579,1.58113503456116,-5.02899980545044,-13.7379999160767,-28.4869995117188,6.14599990844727,2.22300004959106,2.06599998474121,3.79989910125732,2.90917801856995,2.03050208091736,-36.3639984130859,-31.9710006713867,-16.75,-5.90201282501221,-4.93651676177979,-4.17829513549805,6.18853616714478,5.33044910430908,4.10885810852051,-39.9420013427734,-39.9420013427734,-39.9420013427734,1.36000001430511,4.34200000762939,15.0900001525879,-3.30102896690369,-5.43868112564087,-5.15291023254395,35.5009994506836,35.9710006713867,32.3619995117188,1.79380798339844,3.32813405990601,4.16639184951782,-7.66080284118652,-7.72146320343018,-7.37143087387085,-15.3070001602173,-11.1490001678467,-7.69700002670288,16.1889991760254,12.0299997329712,6.14599990844727,-1.69974899291992,-1.14174795150757,-0.43972998857498,14.003999710083,10.0019998550415,8.51200008392334,5.34587812423706,6.70444679260254,9.24148464202881,-4.18550491333008,-3.96976590156555,-4.42483186721802,-3.38199996948242,-4.48000001907349,-4.63700008392334,11.4029998779297,10.8540000915527,10.2259998321533,9.14912796020508,10.1575689315796,8.509108543396,-0.98000001907349,-0.35299998521805,1.9210000038147,SWING_LEFT
-0.12272900342941,0.33689600229263,0.5076180100441,0.21263299882412,-0.53133600950241,-0.8561310172081,-0.87099999189377,-0.32199999690056,-0.00800000037998,10.2259998321533,11.5600004196167,12.1870002746582,-2.34776210784912,-2.87204194068909,-3.20190691947937,4.74599981307983,4.90299987792969,3.80399990081787,1.2184339761734,1.36911594867706,1.38448095321655,-1.81711995601654,-1.76372098922729,-2.01907110214233,5.32600021362305,7.67999982833862,6.42399978637695,19.2479991912842,21.367000579834,21.6019992828369,-3.65530705451965,-2.91988205909729,-1.70922696590424,6.39300012588501,0.66600000858307,-4.51100015640259,0.04518900066614,-1.37871503829956,-5.88290214538574,0.02930800057948,1.42466497421265,3.67490792274475,-16.3269996643066,-27.6240005493164,-34.6069984436035,7.00899982452393,-6.4060001373291,-6.56300020217896,6.69032382965088,5.15782880783081,2.9899480342865,-33.7750015258789,-22.242000579834,-7.17799997329712,-6.96512222290039,-5.56479978561401,-4.16161489486694,4.08069181442261,2.98971104621887,1.51779401302338,-39.9420013427734,-38.7649993896484,-31.2329998016357,7.08799982070923,11.08899974823,9.83399963378906,-3.4620258808136,-4.71370077133179,-5.33454513549805,26.1639995574951,26.7919998168945,26.3999996185303,1.01085996627808,2.55365395545959,3.50730490684509,-5.97104120254517,-6.95743703842163,-6.81268501281738,-17.6609992980957,-9.97200012207031,-5.34299993515015,14.3839998245239,11.9519996643066,9.59799957275391,-3.25764608383179,-2.76436305046082,-1.929643034935,14.2390003204346,14.2390003204346,4.11800003051758,SWING_LEFT
1.22412300109863,1.10028994083405,0.78715699911118,-2.12767004966736,-2.71433210372925,-2.81834292411804,4.54099988937378,2.89400005340576,1.16799998283386,19.4839992523193,20.6609992980957,19.2479991912842,-3.4538938999176,-2.9272289276123,-2.50311398506165,7.25600004196167,6.39300012588501,5.05999994277954,-0.18348699808121,-0.70837301015854,-2.0933690071106,-1.85299003124237,-1.26162695884705,0.46073600649834,-5.4210000038147,-14.1300001144409,-19.4650001525879,3.71399998664856,4.10599994659424,3.94899988174438,6.39178323745728,6.28959083557129,4.72605991363525,-37.3839988708496,-30.951000213623,-20.2019996643066,-7.33101415634155,-5.59244585037231,-4.63122510910034,5.77474880218506,5.19115018844604,4.38928985595703,-39.8639984130859,-39.9420013427734,-39.9420013427734,-4.75799989700317,3.24300003051758,3.24300003051758,-2.57241296768188,-4.43557500839233,-5.60988187789917,31.7350006103516,37.7760009765625,35.5009994506836,-0.23942999541759,1.54643905162811,3.52594804763794,-4.34275913238525,-5.7765851020813,-7.13541221618652,-15.8559999465942,-15.3850002288818,-15.3850002288818,10.2259998321533,16.0319995880127,16.0319995880127,-2.983069896698,-2.27663493156433,-1.4758620262146,22.1630001068115,14.3170003890991,10.6300001144409,5.30895280838013,7.66265201568604,10.6250410079956,-4.7885160446167,-4.46825122833252,-5.82491302490234,-2.20499992370605,-3.30299997329712,-3.22499990463257,7.63700008392334,7.00899982452393,7.71500015258789,10.3242177963257,10.6809043884277,8.6284351348877,-0.1169999986887,0.43099999427795,1.2940000295639,SWING_LEFT
1.08818697929382,0.865473985672,0.59673297405243,-2.61177492141724,-3.17245888710022,-3.08944511413574,3.5220000743866,1.63900005817413,1.48199999332428,17.6009998321533,18.306999206543,17.6009998321533,-3.36394000053406,-2.71220302581787,-1.8284410238266,4.74599981307983,-0.27399998903275,-6.55100011825562,0.36770099401474,0.03267500177026,-2.27112197875977,0.20644800364971,2.81675910949707,5.46521902084351,-4.00899982452393,-8.8730001449585,-14.6009998321533,7.63700008392334,6.69500017166138,7.08799982070923,7.59185600280762,5.30339479446411,2.83014893531799,-30.2450008392334,-25.2229995727539,-16.3579998016357,-5.23515510559082,-4.50856685638428,-4.0246729850769,5.43749094009399,4.43581485748291,3.34801602363586,-39.5499992370605,-39.8639984130859,-39.9420013427734,9.04899978637695,7.63700008392334,8.57800006866455,-4.06152820587158,-5.1268138885498,-5.6384482383728,24.2029991149902,29.5380001068115,28.0470008850098,-2.047602891922,-0.80940699577332,1.1187150478363,-3.84035706520081,-6.30060720443726,-8.13476371765137,-16.9540004730225,-12.0120000839233,-7.85400009155273,1.98800003528595,6.53800010681152,10.6180000305176,-3.17065596580505,-2.89297294616699,-2.61588501930237,18.8680000305176,13.1409997940063,6.86399984359741,4.11034917831421,4.95455121994019,7.96067380905151,-4.80239009857178,-3.59357500076294,-4.51604604721069,-6.91200017929077,-6.83400011062622,-4.55800008773804,7.79400014877319,8.5,9.99100017547607,10.0536022186279,11.5451431274414,11.657865524292,0.82300001382828,1.37199997901917,0.66600000858307,SWING_LEFT
1.55436897277832,1.44607305526733,1.26001703739166,-2.67876696586609,-2.88790392875671,-2.96609902381897,4.30600023269653,5.32600021362305,5.32600021362305,16.1100006103516,17.5219993591309,16.9729995727539,-3.74050688743591,-3.02528095245361,-2.2969810962677,7.09999990463257,3.96099996566772,-0.82400000095367,0.52766597270966,-0.05786300078034,-1.99550294876099,-0.7264249920845,0.72854101657867,2.96893692016602,-6.67700004577637,-13.8950004577637,-24.4080009460449,11.4029998779297,8.6569995880127,3.32200002670288,5.93700313568115,4.62679719924927,2.9185209274292,-33.7750015258789,-28.753999710083,-24.3600006103516,-6.92378807067871,-5.94403314590454,-5.11565685272217,5.99576187133789,5.19489479064941,4.0973219871521,-39.8639984130859,-39.9420013427734,-39.9420013427734,5.28299999237061,6.46000003814697,9.59799957275391,-3.2392361164093,-4.86372900009155,-5.70281505584717,32.8330001831055,34.951000213623,32.5979995727539,-1.31679403781891,2.26733899116516,3.65143299102783,-4.41783094406128,-7.8077597618103,-7.83580017089844,-20.0139999389648,-9.73700046539307,-7.53999996185303,8.9709997177124,12.4230003356934,11.6379995346069,-2.1555290222168,-1.88929605484009,-1.53559994697571,16.9850006103516,11.7279996871948,7.02099990844727,4.59854984283447,5.57123804092407,14.2125835418701,-3.97050404548645,-3.48131608963013,-7.79602098464966,-4.32299995422363,-5.02899980545044,-5.10799980163574,8.42099952697754,9.75500011444092,9.83399963378906,11.0324869155884,11.0615119934082,10.4184274673462,-0.50999999046326,-0.58799999952316,0.43099999427795,SWING_LEFT
0.83049201965332,0.80840498209,0.99762898683548,-1.80104196071625,-1.87186098098755,-1.84922802448273,2.34500002861023,4.54099988937378,6.34600019454956,13.3640003204346,12.9720001220703,13.5209999084473,-2.20175504684448,-2.06939601898193,-1.55181002616882,0.82300001382828,-3.01999998092651,-7.41400003433228,2.47627806663513,2.22807288169861,-0.78971999883652,1.40469896793365,4.41697692871094,7.32447385787964,2.18799996376038,-5.34299993515015,-13.3450002670288,4.89099979400635,8.10799980163574,12.3439998626709,5.43525218963623,2.66632890701294,0.0949530005455,-30.5580005645752,-24.2029991149902,-16.1219997406006,-6.42122316360474,-5.78965902328491,-5.22501087188721,5.01289796829224,3.8802170753479,2.7262270450592,-39.7070007324219,-39.8639984130859,-39.9420013427734,5.51900005340576,8.5,12.8929996490479,-5.44631814956665,-6.25708103179932,-6.33343076705933,29.6949996948242,32.5190010070801,32.3619995117188,-2.32147097587585,0.12110099941492,2.25611090660095,-6.18677186965942,-9.50101852416992,-10.4064693450928,-15.3070001602173,-9.89299964904785,-7.22599983215332,7.40100002288818,7.87200021743774,8.9709997177124,-1.80952799320221,-1.69621694087982,-1.72701704502106,20.5160007476807,15.1020002365112,9.68900012969971,4.9517388343811,5.74973106384277,11.3689956665039,-5.49874210357666,-4.35528182983398,-5.59880876541138,-3.7739999294281,-6.36299991607666,-7.14699983596802,6.30299997329712,5.91099977493286,6.69500017166138,9.98042011260986,10.4915761947632,10.5753583908081,-3.8050000667572,-0.27399998903275,0.90200001001358,SWING_LEFT
0.87705099582672,1.05825901031494,1.05055701732636,-1.67918598651886,-2.61205291748047,-3.51100993156433,7.20900011062622,10.0329999923706,8.14999961853027,17.9930000305176,18.7779998779297,18.7779998779297,-4.64376783370972,-3.91916799545288,-2.97303295135498,6.70699977874756,4.82399988174438,2.0,0.62015599012375,0.41402399539948,-0.21394799649715,-1.11944997310638,0.07790800184011,2.44431900978088,-2.12599992752075,-3.30299997329712,-10.835000038147,8.0290002822876,7.16599988937378,4.9689998626709,4.85192203521729,5.78098297119141,4.00607204437256,-27.1060009002686,-30.5580005645752,-23.7329998016357,-7.77510023117065,-6.46248722076416,-5.36836576461792,6.84089517593384,5.68533802032471,4.62169408798218,-39.3139991760254,-39.7849998474121,-39.9420013427734,12.5799999237061,10.3039999008179,9.44099998474121,-2.72502303123474,-4.04202604293823,-4.86272287368774,18.3190002441406,20.4370002746582,21.8490009307861,-1.86619901657104,-0.06954500079155,1.85496497154236,-3.89718890190125,-6.94578886032104,-8.21133422851563,-15.6990003585815,-13.5019998550415,-11.4630002975464,11.6379995346069,14.7760000228882,14.6190004348755,-1.4482409954071,-1.02965295314789,-0.69845801591873,19.2600002288818,16.8279991149902,14.8669996261597,5.13177394866943,5.43571996688843,8.26345062255859,-5.57310009002686,-5.01614189147949,-6.05330276489258,-4.87200021743774,-5.18599987030029,-4.71500015258789,6.22499990463257,5.83199977874756,7.79400014877319,8.21176624298096,9.30120754241943,9.23195743560791,2.07800006866455,1.68599998950958,0.90200001001358,SWING_LEFT
0.49994501471519,0.51079100370407,0.60143798589706,-2.33757710456848,-2.48367500305176,-2.30984592437744,3.12899994850159,3.99200010299683,5.09100008010864,14.5410003662109,15.4040002822876,15.4040002822876,-2.62805390357971,-2.56602501869202,-2.5562379360199,4.19700002670288,2.31399989128113,-0.50999999046326,1.96902394294739,2.05808901786804,1.34870004653931,-0.56556701660156,0.67009198665619,3.53536200523376,1.87399995326996,-3.30299997329712,-8.71700000762939,7.79400014877319,8.6569995880127,8.5,4.76904487609863,4.31444978713989,1.82877898216248,-20.5939998626709,-23.9680004119873,-23.7329998016357,-8.0776834487915,-6.89321422576904,-6.43093490600586,5.48636484146118,4.04709100723267,3.00783705711365,-39.0789985656738,-39.9420013427734,-39.9420013427734,12.5799999237061,-2.71799993515015,13.4429998397827,-3.86639094352722,-4.79811000823975,-5.60133695602417,36.3639984130859,37.9329986572266,28.0470008850098,0.80173301696777,2.55250310897827,3.46888494491577,-6.40484094619751,-6.29854679107666,-5.89003086090088,-14.7580003738403,-9.89299964904785,-4.08799982070923,18.5419998168945,13.7559995651245,6.30299997329712,-2.42469191551209,-1.93791496753693,-1.45898497104645,14.003999710083,8.11900043487549,4.66699981689453,3.01268291473389,2.80814290046692,6.26332712173462,-2.78368806838989,-1.43215894699097,-1.22358298301697,-2.83200001716614,-1.96899998188019,-0.94900000095367,10.1470003128052,10.2259998321533,9.28400039672852,15.6795101165771,15.3705787658691,13.4271717071533,0.66600000858307,1.2940000295639,2.0,SWING_LEFT
0.5576239824295,0.75633102655411,1.41902005672455,0.10674899816513,0.06433200091124,-0.37840101122856,0.93300002813339,3.12899994850159,4.38500022888184,11.4809999465942,13.835000038147,15.326000213623,-1.50534296035767,-1.4106559753418,-1.09516096115112,-0.82400000095367,-3.01999998092651,-3.25600004196167,1.87186694145203,1.50056195259094,1.20188701152802,-0.42204800248146,-0.36155399680138,-0.28191900253296,1.32500004768372,2.03099989891052,0.38299998641014,14.2270002365112,12.5010004043579,12.3439998626709,-0.50839000940323,-0.19683200120926,-0.02059900015593,-5.21700000762939,-18.3980007171631,-25.5370006561279,-7.21577215194702,-7.91101789474487,-7.82321214675903,4.50986480712891,4.90822982788086,4.46425819396973,-39.3139991760254,-39.7849998474121,-39.9420013427734,-9.54399967193604,-9.93599987030029,0.88999998569489,-3.61955690383911,-4.77383422851563,-5.62322998046875,31.1070003509521,33.7750015258789,30.6359996795654,-0.93074101209641,0.87393701076508,2.64077401161194,-5.52863693237305,-6.82663917541504,-7.95044898986816,-23.8589992523193,-19.1509990692139,-12.4820003509521,9.91199970245361,8.89200019836426,2.77300000190735,-2.79872798919678,-2.86404395103455,-2.75253391265869,31.8920001983643,22.242000579834,22.242000579834,3.28878903388977,1.80165004730225,-0.98797601461411,-6.12169218063354,-4.2700891494751,-1.82331001758575,-4.55800008773804,-4.71500015258789,-4.55800008773804,6.77400016784668,8.5,9.91199970245361,-4.03837585449219,12.3192863464355,12.2237148284912,-1.37300002574921,-1.76499998569489,-0.27399998903275,SWING_LEFT
1.11950099468231,1.23246896266937,1.16723001003265,-1.64730703830719,-2.04693794250488,-2.34427189826965,4.54099988937378,5.16900014877319,5.09100008010864,16.1100006103516,16.9729995727539,16.423999786377,-3.51581311225891,-3.16745495796204,-1.06062304973602,10.0019998550415,6.47200012207031,-1.2940000295639,-0.59285700321198,-1.48350703716278,-3.3529839515686,-0.4692989885807,0.5460410118103,1.65936195850372,-9.3439998626709,-17.8169994354248,-30.3700008392334,12.6579999923706,13.6780004501343,11.0100002288818,5.39376878738403,4.8303427696228,3.50684189796448,-27.3419990539551,-28.2049999237061,-14.4750003814697,-6.29885005950928,-5.80289077758789,-5.38140821456909,5.09661817550659,4.60161781311035,3.78471207618713,-39.8639984130859,-39.9420013427734,-39.9420013427734,2.53699994087219,2.30200004577637,7.32299995422363,-2.74398398399353,-4.53265905380249,-5.50672006607056,38.2470016479492,39.5800018310547,37.8540000915527,0.61873602867126,2.78749489784241,4.07249402999878,-5.42870187759399,-6.75664806365967,-6.54731178283691,-3.7739999294281,-4.24499988555908,-5.2649998664856,3.00799989700317,7.55800008773804,9.67700004577637,-3.37827610969543,-3.11081504821777,-2.92587208747864,14.2390003204346,5.8439998626709,3.25500011444092,1.49017405509949,2.13796496391296,11.7233076095581,-1.00765800476074,0.48129799962044,-6.02842903137207,-4.55800008773804,-4.87200021743774,-4.95100021362305,8.3430004119873,9.52000045776367,11.08899974823,13.1308517456055,13.2938022613525,12.126615524292,-3.01999998092651,-2.15700006484985,-0.58799999952316,SWING_LEFT
1.08110904693604,1.37834799289703,1.52290105819702,-1.05086195468903,-1.27291297912598,-2.04966592788696,5.875,6.97399997711182,9.95499992370606,12.8149995803833,12.8929996490479,15.0120000839233,-5.29137706756592,-4.79103517532349,-3.92326903343201,6.78599977493286,2.07800006866455,-1.13699996471405,1.22248005867004,0.1509869992733,-1.78480005264282,-1.15997695922852,1.81200802326202,3.84047698974609,0.22599999606609,-9.57999992370606,-15.2279996871948,13.4429998397827,15.875,21.9160003662109,6.82192420959473,5.85482406616211,2.68688702583313,-15.7299995422363,-15.7299995422363,-17.8479995727539,-7.49755477905273,-6.84275007247925,-6.24123287200928,4.2132568359375,3.58466291427612,2.90614008903503,-39.7849998474121,-39.9420013427734,-39.9420013427734,6.53800010681152,7.55800008773804,7.24499988555908,-3.6171760559082,-4.6897611618042,-5.16157913208008,27.7329998016357,33.9309997558594,34.0099983215332,1.80354905128479,3.43728303909302,4.45259523391724,-7.14136409759521,-7.55528688430786,-7.37797212600708,-8.71700000762939,-8.71700000762939,-6.04899978637695,7.87200021743774,7.87200021743774,7.16599988937378,-2.7057569026947,-1.65606999397278,-0.12728899717331,12.0419998168945,4.82399988174438,3.17700004577637,17.4680576324463,15.8906450271606,11.9108724594116,-10.1383590698242,-9.48210620880127,-6.72361898422241,-3.7739999294281,-3.30299997329712,-3.06800007820129,7.08799982070923,8.18599987030029,8.89200019836426,8.16083335876465,7.14195585250854,6.09424209594727,3.09800004959106,3.25500011444092,3.25500011444092,SWING_LEFT
0.2281170040369,0.1906870007515,0.19970600306988,-0.40995401144028,-0.40626698732376,-0.55216401815414,-1.02799999713898,-0.40000000596046,0.85399997234344,10.3830003738403,10.539999961853,11.246000289917,-1.63557696342468,-2.46623492240906,-2.97944188117981,6.39300012588501,6.94299983978271,6.70699977874756,0.71798199415207,0.70653402805328,0.75552302598953,-1.94806396961212,-2.03676509857178,-2.14346694946289,3.44300007820129,5.875,6.26800012588501,19.9540004730225,19.1700000762939,15.9530000686646,-3.06069493293762,-2.52081704139709,-2.18768191337585,4.27500009536743,-1.92200005054474,-11.414999961853,1.69374096393585,1.21207404136658,-4.2802038192749,0.90621602535248,5.56121921539307,8.08767414093018,-5.97100019454956,-11.8549995422363,-27.7810001373291,8.10799980163574,10.4610004425049,13.3640003204346,6.84482383728027,4.03438997268677,0.02299799956381,-26.2430000305176,-17.6919994354248,0.74500000476837,-5.3804497718811,-5.01889419555664,-4.65475177764893,2.87640810012817,1.7885639667511,0.54208099842072,-35.3129997253418,-29.6639995574951,-25.5849990844727,4.02799987792969,5.36199998855591,7.48000001907349,-4.4283881187439,-4.81517791748047,-4.45273494720459,22.3980007171631,25.0659999847412,23.6539993286133,0.43822100758553,2.17793703079224,3.70830106735229,-7.51144886016846,-7.56456422805786,-5.63785123825073,-9.97200012207031,-9.02999973297119,-7.38299989700317,10.9320001602173,10.3039999008179,11.7170000076294,-1.48110294342041,0.30234798789024,4.19760322570801,6.55000019073486,2.62800002098084,1.52900004386902,SWING_LEFT
1.49805498123169,1.53751695156097,1.4456969499588,-1.24534499645233,-1.24054896831512,-1.05816304683685,3.28600001335144,2.34500002861023,-0.47900000214577,10.539999961853,11.1669998168945,11.5600004196167,-0.7054859995842,0.34563300013542,1.51257300376892,-5.68800020217896,-8.35499954223633,-9.76799964904785,-2.12120890617371,-2.89761209487915,-3.06660008430481,3.60949993133545,4.28918218612671,4.42966508865356,-3.7739999294281,-2.04800009727478,-1.89100003242493,9.44099998474121,8.57800006866455,8.10799980163574,1.88134300708771,1.41478002071381,1.36675298213959,-10.3170003890991,-24.2029991149902,-28.6749992370605,-4.503258228302,-4.98380422592163,-4.80882978439331,4.77084922790527,4.14110088348389,3.15524792671204,-36.1759986877441,-39.0009994506836,-39.7070007324219,3.55699992179871,8.5,20.6609992980957,-3.42294692993164,-4.19107389450073,-4.91276121139526,18.1620006561279,27.1840000152588,26.0860004425049,-2.11652994155884,-1.25805103778839,0.20054300129414,-4.04799222946167,-6.27097415924072,-8.17586517333984,-16.7189998626709,-16.7980003356934,-15.9350004196167,-0.99199998378754,6.61700010299683,12.4230003356934,-2.16821193695068,-1.73399794101715,-1.69486594200134,22.3980007171631,20.2800006866455,16.4360008239746,3.6620180606842,4.07139921188354,4.46031284332275,-6.65979623794556,-5.27656888961792,-4.22944784164429,-0.16500000655651,0.07000000029802,-0.71399998664856,1.28199994564056,2.8510000705719,7.00899982452393,-0.5668939948082,4.08056879043579,10.9861574172974,0.82300001382828,-0.74500000476837,-1.2940000295639,SWING_LEFT
0.9493790268898,0.25638198852539,-0.8201180100441,0.89764797687531,1.28547203540802,1.89411902427673,-1.10599994659424,-2.67499995231628,-3.46000003814697,9.1269998550415,9.59799957275391,10.0690002441406,0.54711902141571,0.12709699571133,-0.35492399334908,-1.37300002574921,-0.58799999952316,0.1169999986887,-1.21683204174042,-0.85888600349426,-0.02825199998915,1.02318501472473,0.76874899864197,0.32818499207497,0.46200001239777,-0.79299998283386,-3.61700010299683,5.51900005340576,8.26399993896484,10.0690002441406,-0.74695301055908,0.29120498895645,0.15012200176716,-16.9069995880127,-17.0639991760254,-16.9850006103516,-5.40022897720337,-5.59742879867554,-5.43825387954712,4.29240703582764,3.79204392433167,3.10852289199829,-36.3330001831055,-39.0789985656738,-39.7070007324219,7.71500015258789,7.55800008773804,11.246000289917,-2.80024003982544,-3.66609001159668,-4.32373380661011,22.1630001068115,33.3040008544922,31.8920001983643,-2.78052806854248,0.09214700013399,1.8452240228653,-4.5812349319458,-6.80594778060913,-7.86993598937988,-15.5419998168945,-13.423999786377,-9.02999973297119,8.81400012969971,6.61700010299683,5.51900005340576,-3.08422589302063,-2.1099910736084,-1.31031799316406,18.0049991607666,14.003999710083,10.081000328064,5.20608901977539,6.20685482025146,8.63041019439697,-5.34699392318726,-4.47135019302368,-3.73723101615906,-2.98900008201599,-2.98900008201599,-1.34200000762939,5.20499992370605,7.16599988937378,9.52000045776367,5.31857395172119,7.01915216445923,7.15252208709717,4.66699981689453,4.98099994659424,4.82399988174438,SWING_LEFT
0.80006897449493,0.80228501558304,0.76670199632645,-0.97922301292419,-1.09717297554016,-0.74471497535706,3.59999990463257,2.42300009727478,0.61900001764297,14.1490001678467,16.6590003967285,17.4440002441406,-0.6589959859848,0.69638097286224,1.68826103210449,-2.0789999961853,-3.25600004196167,-5.9229998588562,-0.7284579873085,-1.61071705818176,-2.47787809371948,2.73416090011597,3.73461890220642,4.77617311477661,-4.63700008392334,-4.79400014877319,-8.48099994659424,9.91199970245361,8.57800006866455,5.28299999237061,1.48158800601959,0.07296299934387,-1.19448900222778,-16.5930004119873,-20.2019996643066,-19.6529998779297,-3.91237592697144,-3.97314310073853,-4.18763780593872,6.06673192977905,5.23397207260132,3.77409791946411,-38.7649993896484,-39.6279983520508,-39.8639984130859,9.28400039672852,7.40100002288818,12.8149995803833,-3.20874905586243,-3.79485392570496,-4.08566188812256,24.1240005493164,30.4790000915527,32.8330001831055,-3.42941999435425,-1.57921898365021,0.6340029835701,-5.97738695144653,-9.419508934021,-10.6669797897339,-22.4459991455078,-16.4050006866455,-11.3059997558594,3.40000009536743,6.38199996948242,5.83199977874756,-2.58258008956909,-2.51394605636597,-1.84930396080017,22.6340007781982,17.298999786377,6.86399984359741,5.50744581222534,8.38081169128418,11.0677614212036,-5.54636096954346,-5.41723394393921,-5.11295700073242,-2.59699988365173,-3.46000003814697,-4.16599988937378,9.1269998550415,10.1470003128052,11.0100002288818,7.07125186920166,8.18130683898926,7.96682405471802,-0.03900000080466,1.13699996471405,2.0,SWING_LEFT
1.10331702232361,0.9152489900589,0.71120202541351,-2.17752408981323,-2.23768091201782,-1.96841096878052,3.05100011825562,0.85399997234344,0.07000000029802,16.738000869751,15.9530000686646,14.8549995422363,-1.34377503395081,-0.44172498583794,1.05677902698517,4.90299987792969,3.01999998092651,2.15700006484985,0.34453299641609,-0.72009897232056,-2.72959208488464,0.26398900151253,1.19353199005127,2.265625,-10.3640003204346,-18.9939994812012,-23.4659996032715,16.5809993743896,15.0120000839233,12.2659997940063,4.92669010162354,3.74010109901428,1.17769694328308,-25.7730007171631,-27.2630004882813,-18.3190002441406,-4.36703109741211,-3.78561997413635,-3.95103406906128,7.18197584152222,5.99880695343018,4.18852090835571,-39.4710006713867,-39.9420013427734,-39.9420013427734,7.87200021743774,6.93100023269653,13.9130001068115,-4.81435489654541,-5.09243011474609,-4.6670560836792,38.6389999389649,39.6590003967285,31.5779991149902,0.28060400485992,1.70605397224426,3.61116194725037,-6.9902548789978,-6.84672689437866,-6.94287490844727,-13.2670001983643,-9.73700046539307,-6.67700004577637,15.4820003509521,19.7980003356934,16.5809993743896,-0.84720999002457,-0.19232100248337,1.22500097751617,12.4350004196167,6.23699998855591,1.60800004005432,5.88267517089844,5.80958795547485,5.23682498931885,-3.81785297393799,-3.43818092346191,-2.91165590286255,-5.97100019454956,-4.55800008773804,-2.67499995231628,11.7950000762939,12.3439998626709,10.3830003738403,7.63395309448242,8.05256938934326,8.06252956390381,0.03900000080466,-0.27399998903275,-0.66699999570847,SWING_LEFT
0.46231898665428,0.45535698533058,0.62652999162674,-0.82387501001358,-0.91924899816513,-1.39673900604248,-0.00800000037998,0.69700002670288,1.40299999713898,11.7170000076294,13.3640003204346,13.835000038147,-1.8050639629364,-1.96238303184509,-2.35600996017456,4.74599981307983,4.74599981307983,5.9229998588562,1.52690100669861,1.64931702613831,1.67373096942902,-2.84517598152161,-3.19279909133911,-3.00806593894959,8.38599967956543,6.65999984741211,6.65999984741211,12.7360000610352,12.9720001220703,12.9720001220703,-1.74247300624847,0.32313400506973,2.51132607460022,-3.7260000705719,-7.33500003814697,-16.9069995880127,-2.18446493148804,-4.77858877182007,-5.81380414962769,5.43005323410034,7.10632276535034,7.50232410430908,-16.6410007476807,-23.7019996643066,-30.3700008392334,15.6389999389648,11.4029998779297,1.9099999666214,-0.29442399740219,-1.7148779630661,-2.54030609130859,-22.5559997558594,-12.9060001373291,-1.05900001525879,-4.82457399368286,-5.00791883468628,-5.25265979766846,5.01322603225708,2.90685391426086,-0.19629299640656,-39.9420013427734,-29.8999996185303,-22.4459991455078,12.5799999237061,9.91199970245361,5.20499992370605,-4.55518198013306,-4.34337282180786,-3.5018949508667,20.6720008850098,20.2019996643066,18.9459991455078,1.07472896575928,2.39281392097473,3.17728805541992,-8.85152244567871,-8.45978927612305,-7.5897331237793,-11.6979999542236,-8.32400035858154,-5.57800006866455,14.3839998245239,10.3830003738403,7.24499988555908,-0.40193000435829,0.19362600147724,0.71554297208786,10.6300001144409,8.43299961090088,5.21700000762939,SWING_LEFT
0.2671209871769,0.39335200190544,0.6293820142746,-0.6798290014267,-0.95871102809906,-1.4972380399704,0.54000002145767,2.10899996757507,2.57999992370605,11.7170000076294,13.128999710083,13.5989999771118,-2.550537109375,-2.67985510826111,-2.87485504150391,6.07999992370605,7.09999990463257,6.39300012588501,1.10806596279144,1.21331894397736,1.44952201843262,-2.1444571018219,-1.56798803806305,-0.3478490114212,5.40500020980835,2.34500002861023,1.40299999713898,13.5209999084473,13.7559995651245,11.7950000762939,0.15987800061703,1.87811601161957,3.81212902069092,-5.60900020599365,-14.710000038147,-26.3999996185303,-3.09390091896057,-4.85297584533691,-5.53628778457642,7.14856195449829,8.34212589263916,8.48161315917969,-18.5240001678467,-28.0170001983643,-36.7249984741211,7.16599988937378,-0.91399997472763,1.75300002098084,-1.37811803817749,-2.44624400138855,-4.06930303573608,-12.9060001373291,-6.15899991989136,11.1009998321533,-4.49449920654297,-4.09411716461182,-3.26012992858887,1.35320699214935,-1.27091801166534,-4.1401538848877,-33.9790000915527,-20.0139999389648,-16.4050006866455,4.73400020599365,7.48000001907349,9.91199970245361,-3.69626998901367,-3.17189598083496,-2.83326101303101,20.7509994506836,18.7110004425049,14.8669996261597,4.07258319854736,4.49793100357056,5.07102298736572,-7.23268222808838,-6.24771022796631,-5.47890710830688,-4.00899982452393,-3.06800007820129,-2.98900008201599,5.75400018692017,7.40100002288818,7.95100021362305,0.98303800821304,3.41753697395325,8.33566379547119,2.31399989128113,0.58799999952316,1.05799996852875,SWING_LEFT
0.75442600250244,1.00019800662994,1.08429598808289,-1.40709900856018,-2.19092297554016,-2.89351892471313,3.44300007820129,4.93400001525879,3.28600001335144,15.2469997406006,18.3850002288818,19.0130004882813,-3.05880689620972,-2.52089500427246,-2.05842590332031,2.15700006484985,0.82300001382828,0.82300001382828,1.43687605857849,1.7746969461441,2.27647399902344,-0.8296599984169,0.30766400694847,2.34365797042847,5.71799993515015,3.91400003433228,0.22599999606609,8.57800006866455,3.32200002670288,2.6159999370575,4.17668390274048,4.69065189361572,-0.4551599919796,-15.3380002975464,-24.125,-24.4389991760254,-4.71584320068359,-4.36279106140137,-4.14059400558472,7.20193481445313,5.29703378677368,3.80998206138611,-35.0779991149902,-35.3919982910156,-37.9020004272461,12.6579999923706,7.79400014877319,5.83199977874756,-5.37474822998047,-5.82108783721924,-5.74392080307007,9.45300006866455,16.9850006103516,16.9850006103516,-3.80204391479492,-3.18092203140259,-1.65699100494385,-4.2496018409729,-7.82733917236328,-10.1355667114258,-20.798999786377,-17.9740009307861,-15.7779998779297,4.02799987792969,4.10599994659424,5.20499992370605,-1.60362601280212,-1.33679294586182,-1.11420595645905,17.0629997253418,15.9650001525879,15.1020002365112,3.7720000743866,4.66262483596802,5.73503017425537,-8.21880054473877,-6.92078018188477,-5.99798822402954,-5.34299993515015,-5.10799980163574,-5.2649998664856,8.89200019836426,7.87200021743774,7.71500015258789,2.92232298851013,5.04244089126587,7.42540121078491,1.05799996852875,0.43099999427795,1.68599998950958,SWING_LEFT
1.02641499042511,1.35792696475983,1.54408204555511,-1.48315799236298,-2.13020706176758,-2.72094702720642,6.11100006103516,7.83699989318848,7.99399995803833,12.5799999237061,14.7760000228882,14.9329996109009,-3.48918104171753,-3.51381206512451,-3.22103905677795,7.72700023651123,7.64900016784668,5.68699979782104,1.07212197780609,0.80722498893738,0.17357900738716,-2.3326199054718,-1.315220952034,1.37073600292206,-0.24300000071526,-8.08899974822998,-21.8190002441406,9.20600032806396,10.8540000915527,13.5989999771118,5.02912616729736,4.62419986724854,2.74866104125977,-37.3839988708496,-33.226001739502,-23.8110008239746,-8.17190647125244,-6.81383180618286,-5.80664110183716,7.64946794509888,6.61059188842773,5.42816591262817,-39.8639984130859,-39.9420013427734,-39.9420013427734,7.32299995422363,8.0290002822876,5.59700012207031,-2.43525791168213,-3.74232006072998,-4.3207631111145,31.1860008239746,32.8330001831055,30.9500007629395,-2.65535593032837,-1.10944795608521,0.61085897684097,-5.86933708190918,-7.35204219818115,-7.78792476654053,-27.6240005493164,-9.02999973297119,-3.30299997329712,6.38199996948242,9.99100017547607,5.83199977874756,-4.24368715286255,-3.91630101203919,-3.64663290977478,23.1049995422363,13.5329999923706,5.8439998626709,3.09774088859558,3.38964009284973,5.40881681442261,-4.74265909194946,-3.17600297927856,-2.82563400268555,-7.22599983215332,-9.73700046539307,-10.0500001907349,9.99100017547607,11.08899974823,11.8730001449585,8.87950134277344,12.1033811569214,12.2809562683105,-6.39400005340576,-2.31399989128113,0.66600000858307,SWING_LEFT
0.91166698932648,1.07552802562714,1.27340602874756,-0.74472498893738,-0.45666900277138,-0.00395799987018,3.5220000743866,3.59999990463257,4.07100009918213,11.9519996643066,11.9519996643066,12.3439998626709,-0.85197901725769,-0.32519599795341,0.76411199569702,-0.195999994874,-2.47099995613098,-6.31500005722046,1.12606000900269,-0.23071900010109,-2.09138989448547,2.39589500427246,3.8946681022644,5.06372499465942,-2.91100001335144,-6.83400011062622,-10.6000003814697,10.3039999008179,10.6180000305176,9.67700004577637,2.55167293548584,0.80383497476578,-0.91480499505997,-11.414999961853,-11.6499996185303,-12.8269996643066,-4.93261003494263,-4.88699913024902,-5.09793376922607,4.52988481521606,3.61617994308472,2.60167694091797,-32.0180015563965,-36.1759986877441,-37.5880012512207,10.8540000915527,5.75400018692017,2.77300000190735,-4.13522100448608,-3.90998911857605,-3.38863110542297,12.121000289917,19.4169998168945,24.9090003967285,-3.18485999107361,-1.62409603595734,0.10308200120926,-6.54791688919067,-8.17250537872314,-8.90484046936035,-12.168999671936,-10.0500001907349,-7.30399990081787,4.18499994277954,1.67400002479553,7.24499988555908,-2.96964192390442,-3.09457802772522,-3.1605110168457,22.4769992828369,18.7110004425049,14.8669996261597,4.74978399276733,5.41529321670532,8.94450759887695,-5.60657787322998,-4.43141222000122,-4.38567495346069,-1.49899995326996,-2.75399994850159,-3.6949999332428,9.04899978637695,9.20600032806396,8.81400012969971,7.75888204574585,9.40043830871582,9.44058132171631,0.50900000333786,-0.03900000080466,-0.03900000080466,SWING_LEFT
1.76706600189209,1.86297905445099,1.83156394958496,-1.99739897251129,-2.37426209449768,-2.62302994728088,6.34600019454956,6.81699991226196,6.34600019454956,13.9130001068115,13.2069997787476,12.9720001220703,-3.44630408287048,-2.73580598831177,-1.34627401828766,7.09999990463257,4.51000022888184,-3.33400011062622,0.7464240193367,-0.59483802318573,-3.60310292243958,0.16182699799538,2.66601800918579,4.79301118850708,-10.5209999084473,-18.9939994812012,-25.2709999084473,16.1889991760254,13.2069997787476,3.47900009155273,4.47811508178711,2.59540891647339,0.81198000907898,-28.5179996490479,-25.1450004577637,-17.1420001983643,-6.12392711639404,-5.63739490509033,-5.44286584854126,7.49505090713501,6.31988382339478,4.78671503067017,-39.7070007324219,-39.9420013427734,-39.9420013427734,3.94899988174438,3.32200002670288,4.89099979400635,-3.69054388999939,-4.44387912750244,-4.74909019470215,24.2810001373291,28.0470008850098,28.8320007324219,-1.76035702228546,0.33861899375916,2.15160989761353,-6.84693813323975,-9.50136756896973,-9.80939865112305,-17.4249992370605,-16.0130004882813,-9.89299964904785,6.85200023651123,8.57800006866455,10.539999961853,-2.5929811000824,-2.35029006004334,-1.95708501338959,18.8680000305176,15.1020002365112,12.8269996643066,5.52201223373413,6.61084079742432,8.70359897613525,-5.94260120391846,-5.49759292602539,-5.84919881820679,-4.24499988555908,-5.02899980545044,-5.4210000038147,5.83199977874756,7.79400014877319,8.42099952697754,6.03729915618896,7.58067893981934,8.35826873779297,0.58799999952316,0.66600000858307,1.84300005435944,SWING_LEFT
-0.23014099895954,-0.16316600143909,-0.01240099966526,0.64666801691055,0.53390699625015,0.40270501375198,-0.32199999690056,-0.16500000655651,0.38299998641014,9.83399963378906,10.3830003738403,10.6969995498657,-0.03683499991894,-0.27727499604225,-0.68603402376175,0.03900000080466,1.45099997520447,2.31399989128113,1.67837297916412,2.17759490013123,2.43761992454529,-1.10859394073486,-1.51924896240234,-1.89518904685974,7.83699989318848,9.95499992370606,9.5629997253418,16.8159999847412,21.1310005187988,25.3680000305176,-2.43037295341492,-2.04850888252258,-1.42660701274872,6.62900018692017,5.29500007629395,-1.76499998569489,-0.17204999923706,-1.51125299930573,-5.33832597732544,-1.28397595882416,0.39052098989487,3.91855692863464,-11.3059997558594,-21.5830001831055,-29.1940002441406,2.38000011444092,2.45900011062622,-6.17000007629395,2.75642800331116,0.66154700517654,-0.05235200002789,-35.8930015563965,-24.5960006713867,-10.7869997024536,-6.17483806610107,-5.15619802474976,-4.41717004776001,6.85922479629517,5.45287609100342,3.84094095230103,-39.8639984130859,-39.9420013427734,-36.4900016784668,1.04700005054474,5.44000005722046,12.5010004043579,-4.58656883239746,-5.49462509155273,-5.19835615158081,21.7709999084473,22.7119998931885,24.2029991149902,0.32113000750542,1.99064803123474,3.24790811538696,-9.87994575500488,-11.4935531616211,-11.3479671478271,-22.0540008544922,-14.7580003738403,-9.10900020599365,9.91199970245361,7.55800008773804,6.22499990463257,-1.62711894512177,-1.50807094573975,-1.44807696342468,18.9459991455078,14.7880001068115,9.60999965667725,SWING_LEFT
-0.12383700162172,-0.06372199952602,0.12257999926805,0.19602100551128,0.12316299974918,-0.10636399686337,-1.96899998188019,-1.18499994277954,-0.16500000655651,10.1470003128052,11.4029998779297,12.8929996490479,-1.20287704467773,-1.74360799789429,-2.47519111633301,3.09800004959106,5.05999994277954,7.64900016784668,1.37846899032593,1.35167002677917,1.2723970413208,-2.10294198989868,-2.10470294952393,-1.63148403167725,3.05100011825562,0.77600002288818,0.46200001239777,17.2870006561279,16.9729995727539,16.0319995880127,-1.83214700222015,-0.11875200271606,3.62065291404724,-6.39400005340576,-20.9869995117188,-31.3430004119873,-2.52543807029724,-4.54919195175171,-5.14509201049805,5.11137676239014,6.04217576980591,6.02705478668213,-19.6219997406006,-22.5249996185303,-32.1749992370605,10.539999961853,11.0100002288818,9.04899978637695,1.86444103717804,-1.2296450138092,-2.71313691139221,-27.9689998626709,11.1789999008179,18.8680000305176,-5.6755051612854,-5.97874689102173,-4.65035676956177,0.01821500062943,-4.25731182098389,-8.89985847473145,-28.6439990997314,-25.5849990844727,-19.7000007629395,1.125,0.88999998569489,4.10599994659424,-4.66867685317993,-4.7758469581604,-4.66887187957764,28.2830009460449,22.8689994812012,16.2000007629395,2.59071397781372,3.46653509140015,4.93961811065674,-7.06571483612061,-5.64020013809204,-4.78537178039551,-5.81400012969971,-5.2649998664856,-4.32299995422363,9.75500011444092,9.04899978637695,9.1269998550415,1.53939604759216,5.67927598953247,8.17979335784912,0.35199999809265,-0.50999999046326,-0.58799999952316,SWING_LEFT
-0.14201000332832,-0.101916000247,-0.04419999942183,0.02374700084329,-0.00286299991421,-0.05169900134206,-0.79299998283386,-0.16500000655651,-0.16500000655651,9.75500011444092,10.2259998321533,10.2259998321533,0.05530399829149,-0.21302199363708,-0.52376300096512,3.33400011062622,3.25500011444092,3.01999998092651,1.4954149723053,1.68646001815796,1.73481094837189,-1.3556569814682,-1.43581998348236,-1.49358797073364,3.99200010299683,4.46299982070923,2.81500005722046,13.9919996261597,14.2270002365112,14.6979999542236,-0.81756997108459,0.12199799716473,1.38872396945953,-2.94199991226196,-10.7089996337891,-18.632999420166,-1.08513498306274,-2.73687696456909,-3.98475503921509,3.70644998550415,5.25895977020264,6.2608962059021,-10.7559995651245,-12.7180004119873,-25.5060005187988,11.6379995346069,10.8540000915527,5.98899984359741,-0.26149898767471,-1.47867596149445,-2.44165992736816,-10.7089996337891,-3.41300010681152,-1.21599996089935,-5.39798402786255,-5.34445381164551,-5.34814405441284,3.14053606987,1.63630104064941,-0.72922402620316,-26.4479999542236,-21.3479995727539,-17.4249992370605,5.44000005722046,3.71399998664856,1.8309999704361,-3.77192807197571,-3.7255539894104,-3.38296699523926,14.5530004501343,17.5340003967285,18.9459991455078,-0.43083599209785,1.28044199943542,2.50551104545593,-8.76774311065674,-8.18301486968994,-7.06171607971191,-11.3839998245239,-7.61800003051758,-4.48000001907349,10.2259998321533,11.6379995346069,9.20600032806396,-2.48778700828552,-1.54272699356079,0.45236301422119,9.76700019836426,5.8439998626709,2.70600008964539,SWING_LEFT
0.18471999466419,0.17502300441265,0.2199500054121,-0.25594899058342,-0.30276799201965,-0.44678199291229,-0.47900000214577,0.30500000715256,1.16799998283386,9.91199970245361,10.539999961853,11.4809999465942,-0.58929002285004,-0.90652298927307,-1.00607395172119,2.86299991607666,2.15700006484985,3.01999998092651,0.85172700881958,0.9734759926796,0.92858600616455,-1.23356294631958,-1.59780299663544,-2.00674700737,3.44300007820129,4.30600023269653,1.87399995326996,15.6389999389648,15.7959995269775,12.7360000610352,-1.9846750497818,-1.13770794868469,0.33462101221085,-0.66699999570847,-3.64800000190735,-4.43200016021729,0.4721400141716,0.2817830145359,-2.07463598251343,0.66704797744751,2.17842793464661,5.44134998321533,1.24600005149841,-5.97100019454956,-17.3470001220703,9.75500011444092,9.83399963378906,9.20600032806396,3.80018496513367,0.37048900127411,-1.0456999540329,-34.1669998168945,-13.2200002670288,-7.57100009918213,-4.53470611572266,-4.02094221115112,-4.08108806610107,5.70269393920898,4.77907991409302,2.74217391014099,-39.8639984130859,-39.9420013427734,-33.5089988708496,6.06799983978271,10.7749996185303,12.0299997329712,-5.28140115737915,-5.36067819595337,-5.34556007385254,24.5170001983643,26.3209991455078,24.4379997253418,-0.98865902423859,0.77567899227142,2.07918310165405,-6.23108577728271,-7.37268686294556,-7.36602020263672,-13.7379999160767,-11.3059997558594,-8.08899974822998,10.9320001602173,11.6379995346069,9.67700004577637,-3.63329792022705,-2.88431191444397,-1.66276097297668,12.0419998168945,8.35499954223633,6.47200012207031,SWING_LEFT
1.02980697154999,1.12582004070282,1.03190505504608,-1.32469999790192,-1.41131603717804,-1.60409200191498,2.89400005340576,2.97199988365173,3.28600001335144,15.0120000839233,14.7760000228882,14.1490001678467,-6.20062017440796,-7.34421920776367,-7.88048076629639,3.80399990081787,2.39199995994568,-0.66699999570847,-0.18439599871635,-1.04314005374908,-2.40312790870667,-1.65819001197815,1.30372500419617,1.43876397609711,-2.75399994850159,-8.63799953460693,-11.7760000228882,13.28600025177,10.8540000915527,11.246000289917,17.5001773834229,12.3128843307495,4.58535623550415,-21.6140003204346,-16.5149993896484,-9.5319995880127,-5.02714681625366,-4.18467712402344,-3.75873303413391,4.05940389633179,3.72874188423157,2.88917803764343,-28.7229995727539,-32.0960006713867,-32.0960006713867,8.0290002822876,10.3830003738403,10.3830003738403,-3.14213991165161,-3.72191691398621,-3.77301406860352,10.7089996337891,15.2589998245239,17.1420001983643,-1.38805198669434,-0.71937298774719,0.40062001347542,-3.35582208633423,-5.87336206436157,-7.8711109161377,-20.7199993133545,-18.9160003662109,-15.6990003585815,4.73400020599365,7.79400014877319,13.128999710083,-1.01699197292328,-0.64153599739075,-0.3829480111599,18.2399997711182,17.2199993133545,16.2789993286133,4.42660188674927,5.51132822036743,6.96314287185669,-7.00141382217407,-6.2203049659729,-5.99098587036133,-2.75399994850159,-1.96899998188019,-2.04800009727478,9.67700004577637,8.9709997177124,8.6569995880127,4.05901002883911,7.11820507049561,8.68070507049561,4.03999996185303,2.70600008964539,1.37199997901917,SWING_LEFT
0.51336997747421,0.57855701446533,0.74662601947784,-0.52144300937653,-0.49321699142456,-0.59295099973679,0.46200001239777,1.16799998283386,2.50200009346008,10.0690002441406,10.4610004425049,11.08899974823,0.76773399114609,0.85558897256851,1.01036500930786,5.4520001411438,2.78399991989136,2.39199995994568,1.85928201675415,2.37441205978394,2.74095106124878,-0.77258002758026,-0.41995400190353,0.10110100358725,5.9539999961853,7.44399976730347,7.60099983215332,11.4029998779297,10.4610004425049,9.75500011444092,-0.47259899973869,-1.59031403064728,-3.04708909988403,-6.62900018692017,-13.1409997940063,-16.0440006256104,1.76781404018402,0.57229697704315,-1.48270201683044,5.39342784881592,7.33232307434082,7.99294185638428,-5.89200019836426,-24.3290004730225,-34.2929992675781,2.53699994087219,4.34200000762939,9.36299991607666,-8.41488933563232,-7.44347381591797,-6.85825300216675,-15.4949998855591,-7.17799997329712,3.41199994087219,-5.8887882232666,-5.7763729095459,-5.26023817062378,0.70187902450562,-1.58511197566986,-4.12656211853027,-36.7249984741211,-30.6840000152588,-30.6840000152588,6.93100023269653,11.6379995346069,11.6379995346069,-4.71294498443604,-4.32084608078003,-4.26875591278076,29.6949996948242,28.7530002593994,21.1429996490479,1.55367004871368,1.80991494655609,1.91237902641296,-7.36005401611328,-6.12100982666016,-4.93238115310669,-3.14599990844727,-3.22499990463257,-4.40100002288818,5.98899984359741,7.08799982070923,7.24499988555908,-3.97973108291626,-2.96527004241943,1.49864399433136,4.43200016021729,0.82300001382828,-0.82400000095367,SWING_LEFT
0.69170701503754,0.59572201967239,0.51584500074387,-1.3259140253067,-1.11604702472687,-0.91268199682236,0.46200001239777,0.61900001764297,0.77600002288818,9.59799957275391,9.75500011444092,10.0690002441406,0.28500598669052,0.30327099561691,0.20210799574852,3.41199994087219,4.90299987792969,6.23699998855591,1.18228697776794,1.41475105285645,1.42907500267029,-1.73658299446106,-2.35042190551758,-2.67630004882813,6.42399978637695,6.03200006484985,3.75699996948242,13.0500001907349,13.28600025177,11.0100002288818,-0.6156399846077,-0.81895399093628,-0.87132102251053,-0.43099999427795,-2.31399989128113,-3.88299989700317,-0.07220300287008,-1.69739997386932,-3.21892309188843,0.77770298719406,3.59287190437317,6.39695692062378,-6.51999998092651,-10.5209999084473,-19.6219997406006,16.8950004577637,20.2679996490479,23.4060001373291,-1.11524498462677,-1.02782201766968,-1.07079005241394,-27.0279998779297,-13.0629997253418,0.74500000476837,-6.95217514038086,-6.91910123825073,-6.76004600524902,4.07330083847046,2.15323209762573,0.0716340020299,-39.9420013427734,-32.7239990234375,-23.3090000152588,9.36299991607666,8.73499965667725,-0.60000002384186,-4.67611598968506,-4.68411588668823,-2.93377208709717,19.7310009002686,17.298999786377,19.496000289917,1.60425400733948,2.51438808441162,2.96048307418823,-9.08522033691406,-8.76305294036865,-7.79146194458008,-11.5410003662109,-4.63700008392334,-2.51900005340576,9.28400039672852,-0.83499997854233,-0.36500000953674,-1.52421295642853,-2.53136706352234,-2.14873003959656,8.66899967193604,4.27500009536743,3.09800004959106,SWING_LEFT
0.33638599514961,0.41199299693108,0.44041800498962,-0.92641097307205,-1.20914697647095,-1.49837803840637,0.69700002670288,0.93300002813339,1.24600005149841,12.9720001220703,14.3059997558594,13.2069997787476,-1.31623494625092,-1.48688900470734,-1.5566600561142,5.05999994277954,6.07999992370605,4.66699981689453,0.28172999620438,0.12718600034714,0.38634398579597,-2.00010895729065,-1.17183494567871,0.26741600036621,-0.87099999189377,1.32500004768372,2.73699998855591,10.8540000915527,10.7749996185303,14.6979999542236,1.42237901687622,2.12692403793335,1.84096395969391,-20.0450000762939,-31.5,-35.3440017700195,-2.08618497848511,-2.71977400779724,-3.64021396636963,7.90321397781372,7.72043085098267,6.95938920974731,-23.9370002746582,-29.5860004425049,-34.8419990539551,0.73299998044968,-2.64000010490417,4.73400020599365,-2.72723007202148,-3.55764698982239,-4.47085905075073,-14.0830001831055,-3.64800000190735,8.82600021362305,-4.48497009277344,-3.89533495903015,-3.2607250213623,2.29917597770691,0.40656501054764,-2.09216499328613,-35.548999786377,-24.4080009460449,-17.9740009307861,8.73499965667725,8.57800006866455,3.79200005531311,-6.00023984909058,-5.36156606674194,-4.31733798980713,24.3600006103516,21.6919994354248,19.5739994049072,3.06381297111511,4.02706623077393,4.20734596252441,-9.87201118469238,-8.88946628570557,-7.87250804901123,-5.81400012969971,-4.55800008773804,-4.24499988555908,7.32299995422363,1.98800003528595,0.88999998569489,-1.66786098480225,-0.07887999713421,1.64738297462463,2.62800002098084,0.03900000080466,-0.195999994874,SWING_LEFT
0.27008301019669,0.80874800682068,1.29955804347992,-0.09320300072432,-0.45706498622894,-0.8517330288887,2.57999992370605,3.91400003433228,5.16900014877319,11.0100002288818,12.7360000610352,14.5410003662109,-0.12188500165939,-0.24769100546837,-0.28918901085854,5.21700000762939,5.60900020599365,3.56900000572205,1.90477705001831,1.65129005908966,1.09847295284271,-1.22982704639435,-0.67927199602127,0.82396197319031,3.28600001335144,0.69700002670288,-5.97100019454956,11.7170000076294,12.5799999237061,12.9720001220703,-0.50457602739334,-1.51788699626923,-3.07277011871338,-26.6359996795654,-27.1060009002686,-22.242000579834,-4.82429504394531,-5.21221208572388,-5.77577114105225,8.33207607269287,7.72188711166382,6.27327013015747,-31.5470008850098,-33.0379981994629,-35.0779991149902,-1.46300005912781,1.20299994945526,3.94899988174438,-4.27770709991455,-4.44001913070679,-4.58870077133179,10.081000328064,17.5340003967285,22.7910003662109,-4.97185802459717,-3.19612789154053,-1.36727094650269,-5.00452280044556,-6.79365396499634,-8.66364097595215,-22.8390007019043,-18.367000579834,-13.1099996566772,6.69500017166138,4.02799987792969,4.9689998626709,-2.79263401031494,-2.71539688110352,-2.71151494979858,17.9260005950928,15.0240001678467,11.3360004425049,3.36609792709351,4.22520923614502,5.74243307113647,-5.87204790115356,-4.09834623336792,-4.12248802185059,-1.34200000762939,-1.73399996757507,-3.14599990844727,5.28299999237061,6.61700010299683,8.0290002822876,8.38735198974609,9.85657119750977,9.32577037811279,1.45099997520447,0.43099999427795,-0.195999994874,SWING_LEFT
0.51706099510193,0.70531898736954,0.9380099773407,-0.60632997751236,-0.74792802333832,-1.06642603874207,1.40299999713898,1.95200002193451,1.95200002193451,10.9320001602173,10.9320001602173,10.9320001602173,-1.06561398506165,-1.49293601512909,-1.27381205558777,2.54900002479553,0.58799999952316,-2.54999995231628,1.52285599708557,1.6210470199585,0.84045302867889,-0.31303998827934,0.99422699213028,3.13605403900146,4.30600023269653,1.32500004768372,-8.63799953460693,12.9720001220703,12.6579999923706,17.3649997711182,4.12495613098145,2.39728999137878,0.23052099347115,-24.9099998474121,-19.0249996185303,-13.6120004653931,-5.22301912307739,-5.19272994995117,-5.08176279067993,5.09059381484985,4.87395620346069,4.23865604400635,-39.3930015563965,-39.7070007324219,-39.8639984130859,4.9689998626709,4.10599994659424,5.51900005340576,-4.94260787963867,-5.39474391937256,-4.89912796020508,24.988000869751,32.4410018920898,31.5779991149902,-4.50062990188599,-2.4854838848114,-0.07773400098085,-6.86386203765869,-8.83149814605713,-9.82192420959473,-18.5240001678467,-14.2869997024536,-2.59699988365173,-0.05099999904633,2.45900011062622,7.63700008392334,-4.0677170753479,-4.35708618164063,-5.00248289108276,19.8090000152588,13.6110000610352,2.07800006866455,-9.61361885070801,-19.0144805908203,-15.7410135269165,5.18875980377197,9.75611114501953,10.1382322311401,-4.95100021362305,-4.55800008773804,-4.00899982452393,11.5600004196167,10.8540000915527,10.2259998321533,-14.0685367584229,-12.5072765350342,-10.3526067733765,-0.03900000080466,-0.35299998521805,0.19499999284744,SWING_LEFT
1.47918105125427,1.53388798236847,1.4578469991684,-2.22545409202576,-2.27067708969116,-2.03866291046143,7.13100004196167,6.97399997711182,5.48299980163574,14.3839998245239,14.4619998931885,13.9919996261597,-2.77010893821716,-2.21564793586731,-1.71185898780823,2.39199995994568,1.9210000038147,0.66600000858307,0.36212798953056,-0.07788600027561,-0.61371201276779,-0.27293300628662,0.6191999912262,1.389240026474,1.55999994277954,-0.24300000071526,-2.44000005722046,13.6780004501343,12.6579999923706,11.246000289917,1.93893194198608,2.9732620716095,3.55507707595825,-6.78599977493286,-9.14000034332275,-22.242000579834,-5.96262311935425,-6.98247909545898,-7.10761785507202,4.94142723083496,5.29838705062866,4.77208423614502,-28.8799991607666,-37.1959991455078,-39.2360000610351,12.5799999237061,9.83399963378906,13.4429998397827,-2.23531103134155,-3.34515404701233,-4.25406312942505,22.6340007781982,26.3999996185303,26.4780006408691,-3.33382105827332,0.26319700479507,2.15178108215332,-3.88498210906982,-8.07503890991211,-8.95550346374512,-22.6030006408691,-10.6000003814697,-6.20599985122681,8.3430004119873,12.1090002059937,8.42099952697754,-1.43268001079559,-1.55522799491882,-2.2336049079895,20.5160007476807,20.5160007476807,8.74699974060059,3.4692120552063,13.358434677124,19.8772487640381,-3.00827407836914,-5.20920276641846,-6.23597002029419,-1.10599994659424,-1.26300001144409,-1.57700002193451,11.08899974823,9.59799957275391,9.28400039672852,11.4675121307373,10.1068620681763,8.6749267578125,4.03999996185303,3.88299989700317,3.7260000705719,SWING_LEFT
0.59318798780441,0.52522397041321,0.37851798534393,-0.12946599721909,-0.04104600101709,-0.08675599843264,2.03099989891052,0.69700002670288,-2.98900008201599,13.128999710083,11.08899974823,9.04899978637695,-0.43128201365471,0.06328400224447,1.03678095340729,5.05999994277954,0.74500000476837,-8.11999988555908,-4.85197782516479,-6.4411449432373,-6.89934682846069,0.93207097053528,2.85178208351135,4.59036111831665,-16.4050006866455,-15.3070001602173,-12.4040002822876,7.48000001907349,5.51900005340576,3.08599996566772,2.51497507095337,1.8604040145874,1.47219502925873,-11.1009998321533,-14.003999710083,-19.4179992675781,-2.67309188842773,-2.77787208557129,-2.7138979434967,6.70636796951294,5.50698089599609,3.6869809627533,-37.8240013122559,-39.4710006713867,-39.8639984130859,2.8510000705719,8.81400012969971,12.5799999237061,-5.43020820617676,-5.95975017547607,-4.85124397277832,36.3639984130859,36.9910011291504,20.3589992523193,4.55723285675049,5.65011978149414,7.31414890289307,-9.7966136932373,-8.9925537109375,-6.70659685134888,-8.5600004196167,-6.51999998092651,-4.08799982070923,15.0120000839233,15.7180004119873,10.1470003128052,3.07485294342041,5.4928731918335,7.3089280128479,3.33400011062622,-0.82400000095367,-2.0,7.03804779052734,5.32674407958984,4.05226898193359,-4.01468181610107,-2.26810693740845,-0.49909800291061,-4.16599988937378,-1.26300001144409,-0.71399998664856,7.63700008392334,8.89200019836426,8.5,7.98187303543091,7.06770086288452,5.91745805740356,-2.0,-1.21599996089935,0.50900000333786,SWING_LEFT
0.48844599723816,0.70760601758957,0.86447101831436,-1.32343697547913,-1.56013000011444,-1.62306296825409,3.91400003433228,4.14900016784668,4.77699995040894,13.128999710083,13.0500001907349,13.3640003204346,-1.87191200256348,-2.04753303527832,-1.81545197963715,7.41300010681152,5.76599979400635,3.41199994087219,0.54046499729156,0.42533001303673,0.18516699969769,-1.44626104831696,-0.8763399720192,-0.50627702474594,2.73699998855591,1.71700000762939,2.18799996376038,10.539999961853,12.4230003356934,15.326000213623,-0.33182299137115,0.77610301971436,2.15643191337585,0.50900000333786,-0.90200001001358,-4.66800022125244,-1.43017101287842,-3.00334095954895,-5.62737083435059,2.65007090568542,3.20579195022583,4.31573915481567,-11.5410003662109,-20.7199993133545,-33.9790000915527,8.73499965667725,6.38199996948242,2.06599998474121,5.06151294708252,3.71739888191223,1.83671903610229,-35.9720001220703,-23.1830005645752,-14.3179998397827,-7.13391876220703,-5.60700416564941,-4.4993109703064,6.58125114440918,5.7827320098877,4.46080207824707,-39.9420013427734,-38.8440017700195,-32.4099998474121,7.95100021362305,16.0319995880127,19.1700000762939,-5.30256414413452,-6.46603202819824,-6.32474088668823,25.6940002441406,25.3010005950928,25.4580001831055,1.41009104251862,2.91059708595276,3.79647994041443,-4.52873420715332,-6.55494022369385,-7.30174922943115,-16.7189998626709,-10.3640003204346,-5.34299993515015,15.7180004119873,10.4610004425049,6.38199996948242,-1.68232405185699,-1.94331097602844,-2.20468497276306,19.4169998168945,13.0620002746582,11.2580003738403,SWING_LEFT
0.05896899849176,0.04858100041747,0.6366840004921,-0.01027499977499,0.01525100041181,-0.35079500079155,1.24600005149841,2.81500005722046,5.01200008392334,10.539999961853,12.0299997329712,14.6979999542236,-0.54936200380325,-1.22950994968414,-1.82681000232697,5.4520001411438,7.80600023269653,7.25600004196167,1.8023020029068,1.50988805294037,1.07180404663086,-2.28898096084595,-1.63933801651001,-0.22100900113583,3.05100011825562,-2.28299999237061,-12.326000213623,18.8560009002686,14.8549995422363,12.6579999923706,3.92481994628906,4.91773080825806,1.35605299472809,-33.8530006408691,-33.8530006408691,-15.1809997558594,-7.8534688949585,-6.9043550491333,-6.03509902954102,7.28777694702148,6.45047378540039,5.38037300109863,-34.2929992675781,-39.4710006713867,-39.8639984130859,-6.95499992370605,3.55699992179871,8.26399993896484,-4.19035291671753,-5.42109680175781,-5.64880180358887,27.5769996643066,30.8719997406006,29.2240009307861,-1.80846405029297,0.44110798835754,2.6217200756073,-8.05225944519043,-10.2952899932861,-10.8352499008179,-15.2279996871948,-9.8149995803833,-6.28399991989136,4.18499994277954,8.6569995880127,9.59799957275391,-3.07139897346497,-2.79732298851013,-2.19004392623901,15.7299995422363,10.7089996337891,7.17799997329712,5.71571779251099,7.87500715255737,9.88810443878174,-5.9078631401062,-5.59194803237915,-5.8321270942688,-4.63700008392334,-4.48000001907349,-4.48000001907349,8.42099952697754,9.28400039672852,9.36299991607666,6.98772621154785,7.83176279067993,7.94540405273438,2.23499989509583,1.76499998569489,1.68599998950958,SWING_LEFT
0.8425920009613,0.98295402526855,1.02393102645874,-1.37351596355438,-1.78599298000336,-1.89249396324158,4.61999988555908,4.38500022888184,3.28600001335144,14.6190004348755,15.326000213623,14.9329996109009,-1.42055296897888,-1.00233805179596,-0.65688902139664,1.76499998569489,1.13699996471405,-1.37300002574921,0.69359999895096,0.21712200343609,-1.02520000934601,0.09449300169945,1.6121209859848,3.52080893516541,-0.87099999189377,-4.24499988555908,-8.79500007629395,10.7749996185303,9.04899978637695,5.83199977874756,5.17768383026123,4.15480518341064,2.4006130695343,-24.125,-20.5939998626709,-13.9259996414185,-6.34059000015259,-5.8048300743103,-5.27252006530762,6.17752408981323,4.87471485137939,3.35239005088806,-24.5650005340576,-28.4090003967285,-31.7830009460449,9.99100017547607,11.08899974823,7.87200021743774,-3.4416389465332,-4.078125,-4.03139400482178,15.4160003662109,21.2999992370605,22.9479999542236,-3.07816910743713,-1.15288698673248,0.56306397914886,-7.82984781265259,-10.4827518463135,-10.7610712051392,-18.2099990844727,-14.1300001144409,-14.1300001144409,3.63599991798401,7.08799982070923,7.08799982070923,-2.1111159324646,-2.3459529876709,-2.14313888549805,21.378999710083,19.2600002288818,15.7299995422363,4.6932430267334,6.01110887527466,8.67420768737793,-6.22391605377197,-5.88180208206177,-6.16930484771729,-3.14599990844727,-2.91100001335144,-2.98900008201599,6.38199996948242,5.83199977874756,6.38199996948242,4.26132583618164,5.57317399978638,6.02724504470825,5.21700000762939,5.21700000762939,2.15700006484985,SWING_LEFT
-0.04172300174832,-0.05852900072932,-0.06205400079489,0.08173000067472,0.07827199995518,0.06401599943638,-0.32199999690056,-0.32199999690056,-0.16500000655651,9.99100017547607,9.99100017547607,9.75500011444092,-0.13646599650383,-0.11944500356913,-0.15880499780178,-0.43099999427795,0.19499999284744,1.2150000333786,0.02771800011396,0.64175701141357,1.16523802280426,-0.32720100879669,-1.12868499755859,-2.06020402908325,2.65899991989136,3.99200010299683,6.50299978256226,11.08899974823,11.8730001449585,13.835000038147,-2.92950391769409,-3.70372700691223,-3.68116807937622,11.96399974823,8.35499954223633,2.78399991989136,1.04405605792999,1.07754898071289,0.67873901128769,-3.08625197410584,-1.45545601844788,1.37720501422882,1.40299999713898,-4.16599988937378,-16.5620002746582,15.4040002822876,17.1299991607666,17.9930000305176,4.53757286071777,4.88749313354492,3.66228103637695,-33.3040008544922,-27.8910007476807,-21.92799949646,-8.04771995544434,-7.91752195358276,-7.45710897445679,6.46638584136963,5.43874979019165,3.89554309844971,-35.7840003967285,-39.3139991760254,-35.9410018920898,-5.15100002288818,7.00899982452393,10.0690002441406,-0.79472398757935,-3.38841509819031,-4.12187910079956,11.7279996871948,20.5939998626709,24.5949993133545,-2.10796093940735,-0.46856099367142,1.04990100860596,-4.84100580215454,-6.87813282012939,-7.90735816955566,-16.0909996032715,-11.7760000228882,-7.53999996185303,8.73499965667725,8.10799980163574,7.00899982452393,-3.43356609344482,-3.40651893615723,-3.29290199279785,14.4739999771118,10.7089996337891,9.2180004119873,SWING_LEFT
0.21947699785233,0.42919999361038,0.7839919924736,-0.38699799776077,-0.63621401786804,-1.37413096427917,-0.00800000037998,1.24600005149841,3.59999990463257,10.7749996185303,12.5010004043579,15.4820003509521,-2.61013388633728,-2.91163301467896,-2.72503590583801,7.72700023651123,5.4520001411438,6.23699998855591,0.90587401390076,0.87395298480988,0.73881202936172,-2.72648906707764,-2.6305570602417,-2.08708000183105,3.67799997329712,1.63900005817413,0.22599999606609,15.7180004119873,13.2069997787476,10.0690002441406,0.32085800170898,2.44667911529541,4.52103710174561,-15.8090000152588,-27.1849994659424,-34.9519996643066,-6.31483221054077,-6.84119415283203,-6.09894323348999,7.79842805862427,7.26524496078491,6.01804304122925,-31.4689998626709,-39.2360000610351,-39.7849998474121,-5.22900009155273,1.51699995994568,17.1299991607666,-2.20817494392395,-3.86344599723816,-5.33650398254395,22.6340007781982,33.7750015258789,32.3619995117188,-2.67071509361267,-0.74275499582291,1.19368803501129,-4.18166399002075,-7.3266978263855,-8.87697505950928,-21.4260005950928,-18.367000579834,-11.1490001678467,10.539999961853,12.5799999237061,11.8730001449585,-2.607008934021,-1.84341502189636,-1.52821898460388,25.5370006561279,20.5160007476807,15.2589998245239,4.80975723266602,5.10534477233887,5.63983583450317,-7.60798692703247,-6.23033380508423,-4.99889087677002,0.38299998641014,-0.94900000095367,-2.20499992370605,5.83199977874756,7.63700008392334,8.18599987030029,0.60311299562454,6.8804349899292,8.63121318817139,0.98000001907349,1.45099997520447,2.47099995613098,SWING_LEFT
-0.02475799992681,-0.3044910132885,-0.71265602111816,-1.06248795986176,-0.12182299792767,0.88454401493073,-1.89100003242493,-2.28299999237061,-1.49899995326996,15.2469997406006,12.4230003356934,10.8540000915527,1.24415194988251,1.62155997753143,2.36497688293457,-2.62800002098084,-5.21700000762939,-7.88500022888184,-1.61030304431915,-2.30525207519531,-3.14500403404236,3.40482211112976,4.1926908493042,5.07954692840576,-5.97100019454956,-9.3439998626709,-12.6389999389648,9.59799957275391,6.85200023651123,2.6159999370575,2.20380210876465,1.08787500858307,-0.16750699281693,-24.2819995880127,-27.1849994659424,-19.4179992675781,-3.69292807579041,-3.44723892211914,-3.28915691375732,5.67754888534546,4.49678182601929,2.90860199928284,-39.0789985656738,-39.7070007324219,-36.7249984741211,4.34200000762939,5.98899984359741,2.69400000572205,-5.90133285522461,-6.64268112182617,-5.60828876495361,37.0699996948242,39.2669982910156,39.8160018920898,1.92418694496155,4.00868082046509,5.01784515380859,-13.8376312255859,-13.7258796691895,-12.1882820129395,-8.95199966430664,-4.87200021743774,-3.46000003814697,1.67400002479553,-0.75700002908707,0.65399998426437,-2.86415100097656,-2.52505707740784,-1.93221998214722,12.9840002059937,7.57000017166138,4.66699981689453,7.30658721923828,10.0871047973633,10.2703094482422,-6.62264776229858,-5.71437788009644,-3.5294189453125,-2.67499995231628,-3.14599990844727,-3.22499990463257,7.87200021743774,9.1269998550415,10.539999961853,7.3204231262207,7.75501489639282,7.03034496307373,1.45099997520447,2.23499989509583,2.47099995613098,SWING_LEFT
0.48469099402428,0.50088399648666,0.60379898548126,-0.26470699906349,-0.23485000431538,-0.35689601302147,0.38299998641014,1.95200002193451,2.89400005340576,12.5010004043579,12.0299997329712,13.5209999084473,-0.58419901132584,0.05784799903631,0.9190359711647,1.37199997901917,0.66600000858307,0.43099999427795,1.34323704242706,1.29301905632019,0.67128300666809,0.70801097154617,1.44607603549957,2.54578590393066,1.40299999713898,-1.10599994659424,-8.40299987792969,17.6790008544922,15.2469997406006,15.4820003509521,4.38252305984497,3.41968488693237,1.7236909866333,-24.0459995269775,-28.5970001220703,-25.0659999847412,-5.61862182617188,-5.10866212844849,-5.37638711929321,7.52358818054199,7.05736589431763,5.63641214370728,-36.9609985351563,-39.7070007324219,-36.2550010681152,-2.79699993133545,-0.60000002384186,7.40100002288818,-4.74230813980103,-5.95162105560303,-6.12350177764893,31.6560001373291,30.9500007629395,26.7919998168945,-0.75540298223495,1.10988104343414,2.71847200393677,-7.16224718093872,-8.16088676452637,-8.27027797698975,-10.3640003204346,-6.44099998474121,-3.93099999427795,0.73299998044968,4.18499994277954,5.98899984359741,-4.00857496261597,-3.99153995513916,-4.14775800704956,14.2390003204346,11.4930000305176,8.35499954223633,1.29636096954346,-4.01674318313599,-20.2191371917725,-2.14712595939636,2.37267088890076,10.6939001083374,-3.85199999809265,-5.02899980545044,-4.71500015258789,7.95100021362305,9.52000045776367,10.8540000915527,-13.2903537750244,-11.8466081619263,-10.0322284698486,4.43200016021729,5.29500007629395,5.37400007247925,SWING_LEFT
0.25981000065804,0.19298699498177,0.14255100488663,-0.62226301431656,-0.49129998683929,-0.3793860077858,-0.55699998140335,-1.02799999713898,-1.89100003242493,9.59799957275391,9.59799957275391,9.1269998550415,-0.06846600025892,0.53784197568893,0.99203097820282,-1.92200005054474,-1.37300002574921,0.35199999809265,-0.31886199116707,0.24406500160694,1.04565095901489,0.66569799184799,0.27237299084663,-0.37071499228477,1.7960000038147,1.7960000038147,4.46299982070923,11.7950000762939,11.7950000762939,14.9329996109009,-0.83406800031662,-1.12724494934082,-0.82360899448395,2.78399991989136,1.52900004386902,-2.15700006484985,1.87769305706024,1.28001403808594,0.2766430079937,-0.47845900058746,0.58516401052475,1.84118402004242,-0.08600000292063,-2.91100001335144,-2.91100001335144,16.423999786377,15.168999671936,15.168999671936,2.05534791946411,1.14755499362946,-0.04246700182557,-17.4559993743896,-13.7690000534058,-8.9040002822876,-4.610680103302,-4.62755918502808,-5.17604780197144,4.17630290985107,3.9716579914093,3.47177195549011,-11.9329996109009,-12.0120000839233,-12.7180004119873,-0.52200001478195,-5.30700016021729,-5.93499994277954,-3.73350405693054,-4.29545021057129,-4.30634880065918,12.1990003585815,17.5340003967285,21.0650005340576,-2.290452003479,0.50230801105499,2.50728392601013,-12.211329460144,-11.3726348876953,-9.87766933441162,-11.0699996948242,-8.8730001449585,-6.36299991607666,7.00899982452393,6.53800010681152,6.38199996948242,-2.47198700904846,-1.74227297306061,-1.11250400543213,16.9069995880127,12.1990003585815,9.29599952697754,SWING_LEFT
0.65458297729492,0.63033002614975,0.80608999729156,-1.39089894294739,-0.87306100130081,0.4120090007782,0.93300002813339,1.32500004768372,1.32500004768372,10.9320001602173,10.7749996185303,10.7749996185303,1.76568102836609,2.38491106033325,2.00911903381348,-8.98299980163574,-11.7290000915527,-14.3959999084473,-1.38490903377533,-1.93884801864624,-2.44481897354126,6.27847719192505,6.76203918457031,6.56578683853149,-8.08899974822998,-12.2469997406006,-13.0319995880127,6.85200023651123,6.46000003814697,12.5799999237061,-2.38827991485596,-3.14040899276733,-3.47080111503601,-5.37400007247925,-10.6309995651245,-10.3170003890991,-3.03748202323914,-3.7415509223938,-4.16287183761597,1.71119797229767,0.40951400995255,-1.11660003662109,-32.8030014038086,-34.4500007629395,-33.6660003662109,9.1269998550415,7.55800008773804,6.53800010681152,-3.26578807830811,-2.99706506729126,-2.93054103851318,21.2220001220703,24.5949993133545,26.1639995574951,-3.09021806716919,-1.77904605865479,-0.6462060213089,-7.96818780899048,-8.567795753479,-8.29845333099365,-15.8559999465942,-9.57999992370606,-7.06899976730347,-2.32599997520447,-1.69799995422363,-0.52200001478195,-4.29198694229126,-4.62165307998657,-4.61576986312866,14.3170003890991,7.41300010681152,2.62800002098084,-1.59539604187012,-1.61672294139862,17.2546043395996,-1.24913704395294,1.80790305137634,-10.8208599090576,-5.18599987030029,-5.4210000038147,-5.34299993515015,12.1090002059937,13.9919996261597,14.1490001678467,11.7784843444824,11.5478744506836,10.3965082168579,1.60800004005432,3.25500011444092,3.7260000705719,SWING_LEFT
-0.56774300336838,-0.24677300453186,0.34385201334953,1.09692001342773,0.737124979496,0.23507399857044,-0.47900000214577,1.16799998283386,1.16799998283386,10.3830003738403,11.4809999465942,11.4809999465942,-0.30602699518204,-0.49865698814392,-0.23084899783134,0.66600000858307,-1.60800004005432,-6.78599977493286,0.86248397827148,0.11707799881697,-1.06205296516418,0.4926629960537,1.52283596992493,2.37963199615479,-2.44000005722046,-5.7350001335144,-12.168999671936,16.0319995880127,15.875,12.9720001220703,3.44683599472046,1.84249401092529,0.79509502649307,-15.5729999542236,-13.9259996414185,-8.7480001449585,-6.07886600494385,-6.48752212524414,-6.65430784225464,2.8737370967865,1.94002199172974,0.49818199872971,-32.7239990234375,-31.4689998626709,-28.2520008087158,3.00799989700317,0.02700000070035,-4.83699989318848,-3.77126002311707,-4.46988677978516,-4.61088991165161,27.0270004272461,28.2040004730225,26.4780006408691,-2.18921709060669,0.97056102752686,1.55885398387909,-11.2585067749023,-9.40045166015625,-7.40675020217896,-13.6590003967285,-5.7350001335144,-5.65700006484985,-6.09200000762939,5.59700012207031,6.06799983978271,-3.99524307250977,-2.57961201667786,7.03527116775513,3.80399990081787,3.33400011062622,3.17700004577637,11.807806968689,9.68476867675781,7.16836786270142,-6.59988498687744,-5.1331090927124,-4.29718399047852,-4.79400014877319,-4.71500015258789,-4.79400014877319,8.9709997177124,8.42099952697754,5.91099977493286,6.20763111114502,5.2031888961792,4.33145618438721,5.4520001411438,5.37400007247925,5.4520001411438,SWING_LEFT
0.65316599607468,0.61120200157166,0.52601498365402,-0.84572899341583,-0.85560500621796,-0.79986798763275,0.22599999606609,0.07000000029802,-0.00800000037998,10.1470003128052,10.3039999008179,10.3830003738403,-0.73651099205017,-0.76608502864838,-0.91881102323532,-0.03900000080466,0.98000001907349,1.2940000295639,0.7384290099144,0.99040102958679,1.27527296543121,-0.93972998857498,-1.29927694797516,-1.92583501338959,4.07100009918213,7.60099983215332,6.97399997711182,18.0709991455078,25.132999420166,26.7800006866455,-3.16179203987122,-2.90071296691895,-2.56038403511047,8.51200008392334,5.4520001411438,-2.31399989128113,0.68770599365234,0.30082300305367,-1.32036602497101,-1.47337198257446,0.40820598602295,3.1415638923645,-5.34299993515015,-11.9329996109009,-21.3479995727539,13.28600025177,10.1470003128052,4.89099979400635,6.60519409179688,5.63239908218384,3.51824188232422,-33.3040008544922,-27.1849994659424,-15.4160003662109,-8.03059005737305,-7.22581481933594,-6.45088386535645,6.04319715499878,5.10031318664551,3.95329594612122,-37.9020004272461,-35.3129997253418,-29.0370006561279,-2.01200008392334,0.88999998569489,3.08599996566772,-4.03855609893799,-5.59712982177734,-5.05197286605835,25.3010005950928,23.6539993286133,22.7910003662109,0.15350200235844,1.98003494739532,2.86918902397156,-11.4623689651489,-11.6783723831177,-10.8239412307739,-21.3479995727539,-16.6410007476807,-12.875,6.46000003814697,3.63599991798401,1.51699995994568,-1.09520196914673,-0.71128398180008,-0.57996600866318,14.4739999771118,11.6499996185303,9.45300006866455,SWING_LEFT
1.20449995994568,1.31040000915527,1.17314100265503,-1.55135703086853,-1.92168796062469,-1.89865005016327,5.9539999961853,5.71799993515015,4.85500001907349,15.5609998703003,16.738000869751,20.2679996490479,-1.38907098770142,-1.1143159866333,-0.71709400415421,4.27500009536743,1.68599998950958,-3.25600004196167,-0.00320499995723,-0.4988400042057,-1.61235594749451,1.78909802436829,3.14961791038513,5.56518316268921,-1.18499994277954,-2.36199998855591,-5.02899980545044,8.10799980163574,-1.46300005912781,-2.875,3.09708094596863,1.04954695701599,-0.62845802307129,-29.6949996948242,-22.242000579834,-13.1409997940063,-6.48045301437378,-5.69769287109375,-5.13331985473633,7.17980813980103,5.80731391906738,4.08527088165283,-35.4700012207031,-39.0789985656738,-39.5499992370605,-13.0749998092651,-1.14900004863739,4.73400020599365,-6.31434202194214,-7.26335382461548,-6.51582622528076,29.6159992218018,33.068000793457,34.5589981079102,0.33532899618149,2.48813390731812,3.7850980758667,-12.4416017532349,-12.2189674377441,-11.102201461792,-13.1890001296997,-6.36299991607666,-9.10900020599365,4.73400020599365,4.49900007247925,6.53800010681152,-2.59633207321167,-1.52724897861481,4.29169511795044,6.00099992752075,-1.37300002574921,2.31399989128113,7.39741802215576,5.87004280090332,5.31231784820557,-8.06061172485352,-6.19121885299683,-5.14403295516968,-3.30299997329712,-2.67499995231628,-2.75399994850159,8.26399993896484,6.38199996948242,5.36199998855591,7.75504302978516,6.28753805160522,4.99338293075562,5.13800001144409,4.90299987792969,4.82399988174438,SWING_LEFT
0.59516501426697,0.68544799089432,0.73210299015045,-0.91481697559357,-0.93902599811554,-0.95129400491714,1.08899998664856,1.48199999332428,1.48199999332428,9.83399963378906,9.67700004577637,9.36299991607666,-1.09269797801971,-0.95891600847244,-0.85854798555374,0.1169999986887,0.58799999952316,1.52900004386902,0.71291202306747,0.79272902011871,0.90008300542831,-0.83854699134827,-0.98993098735809,-1.44935095310211,2.73699998855591,3.28600001335144,4.54099988937378,10.6180000305176,13.5209999084473,15.875,-1.56522595882416,-1.97298800945282,-2.00966095924377,6.62900018692017,6.31500005722046,0.82300001382828,0.87528598308563,0.65420097112656,-0.63473802804947,-1.36661696434021,0.10722800344229,2.71510910987854,1.71700000762939,-11.0699996948242,-31.7830009460449,17.6009998321533,11.8730001449585,11.0100002288818,4.31749105453491,3.68647909164429,2.47581696510315,-38.7179985046387,-31.5779991149902,-3.09899997711182,-7.58393478393555,-7.50455188751221,-7.16229391098022,4.39297389984131,2.66580009460449,0.42157399654388,-39.9420013427734,-39.9420013427734,-35.8619995117188,3.32200002670288,3.24300003051758,2.14499998092651,-3.75867390632629,-4.43193292617798,-4.54073715209961,39.8160018920898,39.9729995727539,39.8160018920898,-0.33028200268745,1.55613994598389,2.23933911323547,-10.2899646759033,-9.8242826461792,-8.36119270324707,1.32500004768372,-1.18499994277954,-6.91200017929077,-1.07099997997284,2.14499998092651,4.5770001411438,-4.00400018692017,-3.5688419342041,-2.54791903495789,-0.98000001907349,-3.01999998092651,-0.82400000095367,SWING_LEFT
0.25760099291801,0.68097901344299,0.89741402864456,-0.63191699981689,-1.12525701522827,-1.39576900005341,2.50200009346008,4.30600023269653,6.50299978256226,11.08899974823,13.5209999084473,15.9530000686646,-1.33778595924377,-1.54235005378723,-1.50443005561829,2.78399991989136,1.76499998569489,0.43099999427795,1.44754600524902,1.40751004219055,1.11557805538177,-1.5321569442749,-1.07520997524261,0.19870199263096,9.64099979400635,5.9539999961853,-5.02899980545044,20.1110000610352,18.8560009002686,14.4619998931885,2.12715792655945,3.95564389228821,3.07580709457397,-31.9710006713867,-31.9710006713867,-19.6529998779297,-8.13720512390137,-8.05778503417969,-7.56492710113525,5.15554809570313,4.38482999801636,3.3874819278717,-39.2360000610351,-39.7849998474121,-39.9420013427734,6.30299997329712,2.69400000572205,0.02700000070035,-3.76149606704712,-4.75824594497681,-4.7404088973999,22.3199996948242,28.5179996490479,28.9890003204346,-3.67853593826294,-0.48108100891113,1.63739097118378,-9.7709846496582,-13.9812746047974,-13.0260877609253,-18.5240001678467,-14.2080001831055,-9.26599979400635,5.12599992752075,6.38199996948242,10.3830003738403,-1.12455999851227,-1.39126098155975,-1.35994303226471,20.7509994506836,16.0440006256104,11.2580003738403,4.80857181549072,7.70951700210571,12.5022611618042,-6.32576513290405,-6.47564601898193,-7.69829416275024,-3.85199999809265,-4.71500015258789,-5.57800006866455,6.30299997329712,6.53800010681152,6.46000003814697,8.2326831817627,8.03070545196533,7.25844097137451,-0.43099999427795,-1.13699996471405,1.52900004386902,SWING_LEFT
0.22572900354862,0.18993000686169,0.26978498697281,-0.26458099484444,-0.24307000637054,-0.42470100522041,-0.55699998140335,0.30500000715256,0.30500000715256,10.2259998321533,10.539999961853,10.539999961853,-0.96184402704239,-1.13304305076599,-1.316202044487,0.03900000080466,0.27399998903275,3.33400011062622,0.73411399126053,1.00452399253845,1.11227905750275,-1.44567394256592,-1.99228096008301,-2.03055310249329,4.69799995422363,4.93400001525879,4.61999988555908,19.7189998626709,19.7980003356934,19.3269996643066,-1.69477903842926,-1.4577169418335,-1.38334798812866,2.31399989128113,2.31399989128113,-1.68700003623962,1.28466403484344,0.48361098766327,-2.19731688499451,-0.73129600286484,1.08305096626282,4.15509510040283,-5.10799980163574,-15.1499996185303,-22.3680000305176,11.246000289917,8.73499965667725,7.08799982070923,3.97678208351135,0.21529899537563,-1.06571102142334,-32.5979995727539,-10.2379999160767,2.94099998474121,-5.75038719177246,-5.40700578689575,-5.16960000991821,4.50151395797729,3.49538493156433,1.35679197311401,-35.548999786377,-29.4290008544922,-25.42799949646,-3.42400002479553,2.22300004959106,13.5989999771118,-5.62724494934082,-4.83838701248169,-3.55075907707214,31.4990005493164,29.0669994354248,26.7140007019043,2.44690895080566,4.21799898147583,4.58116388320923,-10.2644109725952,-7.00312423706055,-5.81903696060181,-11.4630002975464,-0.71399998664856,-1.18499994277954,9.20600032806396,9.75500011444092,9.44099998474121,-0.82212799787521,1.0310560464859,7.58164405822754,3.41199994087219,1.37199997901917,0.66600000858307,SWING_LEFT
0.95302402973175,0.70800298452377,0.49801498651505,-1.02860105037689,-0.79330497980118,0.11633300036192,0.61900001764297,1.40299999713898,3.5220000743866,10.6180000305176,9.20600032806396,8.73499965667725,-0.39148101210594,-0.16138499975204,-0.28227299451828,-1.92200005054474,-0.90200001001358,0.19499999284744,2.06984901428223,2.40866088867188,2.17424297332764,0.53448402881622,0.03737299889326,-0.08542700111866,6.73799991607666,5.16900014877319,3.5220000743866,12.1090002059937,13.0500001907349,12.3439998626709,2.04114294052124,2.05621695518494,-0.1056239977479,-28.2830009460449,-30.4799995422363,-28.2049999237061,-7.48747110366821,-6.68428611755371,-6.10580492019653,7.31366300582886,5.91421699523926,4.9061861038208,-39.1580009460449,-39.7849998474121,-39.9420013427734,10.7749996185303,0.34000000357628,3.71399998664856,-5.02423620223999,-6.16231679916382,-6.4992527961731,27.1060009002686,34.7159996032715,30.4790000915527,-1.36155903339386,1.30358004570007,2.99202394485474,-10.1332635879517,-11.3431444168091,-10.3301820755005,-13.423999786377,-9.10900020599365,-6.99100017547607,11.8730001449585,12.3439998626709,11.08899974823,-2.91407895088196,-2.5691249370575,-1.89708495140076,17.1420001983643,12.5909996032715,8.82600021362305,4.66235113143921,6.01580905914307,9.42937660217285,-5.01496982574463,-4.859206199646,-6.18067598342896,-5.65700006484985,-6.67700004577637,-6.51999998092651,6.77400016784668,6.93100023269653,7.55800008773804,7.72670793533325,8.56214141845703,8.47186470031738,0.58799999952316,0.90200001001358,1.37199997901917,SWING_LEFT
