gyro_x_0,gyro_y_0,gyro_z_0,acc_x_0,acc_y_0,acc_z_0,gyro_x_1,gyro_y_1,gyro_z_1,acc_x_1,acc_y_1,acc_z_1,gyro_x_2,gyro_y_2,gyro_z_2,acc_x_2,acc_y_2,acc_z_2,gyro_x_3,gyro_y_3,gyro_z_3,acc_x_3,acc_y_3,acc_z_3,gyro_x_4,gyro_y_4,gyro_z_4,acc_x_4,acc_y_4,acc_z_4,gyro_x_5,gyro_y_5,gyro_z_5,acc_x_5,acc_y_5,acc_z_5,gyro_x_6,gyro_y_6,gyro_z_6,acc_x_6,acc_y_6,acc_z_6,gyro_x_7,gyro_y_7,gyro_z_7,acc_x_7,acc_y_7,acc_z_7,gyro_x_8,gyro_y_8,gyro_z_8,acc_x_8,acc_y_8,acc_z_8,gyro_x_9,gyro_y_9,gyro_z_9,acc_x_9,acc_y_9,acc_z_9,gyro_x_10,gyro_y_10,gyro_z_10,acc_x_10,acc_y_10,acc_z_10,gyro_x_11,gyro_y_11,gyro_z_11,acc_x_11,acc_y_11,acc_z_11,gyro_x_12,gyro_y_12,gyro_z_12,acc_x_12,acc_y_12,acc_z_12,gyro_x_13,gyro_y_13,gyro_z_13,acc_x_13,acc_y_13,acc_z_13,gyro_x_14,gyro_y_14,gyro_z_14,acc_x_14,acc_y_14,acc_z_14,motion_type
-0.28503748774529,-0.17283749580383,0.19497500360012,4.62195014953613,5.139000415802,4.89195013046265,0.28215000033379,0.3603875041008,0.31707498431206,0.12636250257492,0.1142624989152,0.15331250429153,2.51700019836426,2.45700001716614,2.33205008506775,7.26300048828125,7.13295030593872,7.64295053482056,1.12901246547699,1.28741252422333,1.5274875164032,4.18395042419434,6.25695037841797,12.0510005950928,0.14533749222755,2.17717504501343,4.15854978561401,-0.2072124928236,-1.85817503929138,-4.28326225280762,-3.23295021057129,-12.256950378418,-16.4140510559082,9.45300006866455,-2.04299998283386,-12.5040006637573,6.92780017852783,6.77723741531372,6.40818738937378,41.4670524597168,37.2270011901855,5.93100023269653,3.99836254119873,5.91662502288818,7.6382622718811,-5.38078737258911,-5.66995000839233,-7.9432373046875,-44.1250534057617,-6.52800035476685,0.06495000422001,39.6450004577637,28.5670509338379,19.9360504150391,14.1923370361328,14.8229122161865,14.9622001647949,-11.2369508743286,-15.0559511184692,-3.17505025863647,5.162024974823,6.22599983215332,7.390625,-3.185462474823,-1.61947500705719,-2.9632625579834,1.44600009918213,1.81305003166199,2.84505009651184,6.35805034637451,1.57605004310608,-2.35199999809265,5.88307476043701,3.97705006599426,4.22193765640259,-0.59205001592636,-11.053050994873,-14.8549509048462,6.06113767623901,4.09736251831055,2.94346237182617,3.19178748130798,3.69806241989136,2.96876239776611,2.84895014762878,3.73095011711121,3.7590000629425,12.985050201416,12.7620010375977,9.99405002593994,SWING_RIGHT
1.62263751029968,1.78585004806519,2.34368753433228,-0.12300000339746,0.69000005722046,0.23805001378059,-0.40342500805855,-0.52511250972748,-0.33962500095367,-1.02244997024536,-1.2418999671936,-1.76687502861023,1.22400009632111,2.96700024604797,2.65305018424988,9.5710506439209,8.68200016021729,9.85305023193359,4.00001239776611,3.9010124206543,3.90362501144409,0.75495004653931,1.44900012016296,2.59095001220703,0.19415000081062,0.24777500331402,0.2216500043869,-0.41882500052452,-0.16005000472069,0.07768750190735,2.31795001029968,1.95405006408691,2.20995020866394,6.90300035476685,7.9980001449585,8.33505058288574,3.63563752174377,3.83872509002686,3.92768740653992,0.95595002174377,1.58295011520386,4.0570502281189,0.78828752040863,2.03527498245239,1.5827624797821,0.23787499964237,-0.8457624912262,-0.15881249308586,6.30000019073486,2.48805022239685,0.20595000684261,23.7949504852295,6.32895040512085,7.43295049667358,4.87739992141724,4.70181226730347,4.36919975280762,3.13500022888184,2.56005001068115,2.36400008201599,0.97955000400543,-0.05747500061989,-0.95232498645782,0.70166248083115,1.00759994983673,0.64487498998642,1.78395009040833,0.34005001187325,0.50295001268387,9.02205085754394,11.1480007171631,12.1540508270264,-5.56792497634888,-8.59361267089844,-9.6949872970581,4.588050365448,3.28305006027222,1.5040500164032,-2.80101251602173,-1.84098744392395,-0.35722500085831,-1.06177496910095,-1.68959999084473,-1.75532495975494,1.44195008277893,3.86505007743835,4.0489501953125,8.24400043487549,3.96300029754639,4.00395011901855,SWING_RIGHT
-1.40786254405975,-5.56792497634888,-8.59361267089844,1.29105007648468,4.588050365448,3.28305006027222,-3.0657000541687,-2.80101251602173,-1.84098744392395,-1.03207504749298,-1.06177496910095,-1.68959999084473,1.91595005989075,1.44195008277893,3.86505007743835,9.21405029296875,8.24400043487549,3.96300029754639,-2.57427501678467,0.21532499790192,2.67575001716614,4.08494997024536,5.27295017242432,1.34205007553101,3.66643738746643,3.85907506942749,3.36489987373352,-0.23581250011921,0.87092500925064,1.15499997138977,4.81500005722046,1.51095008850098,4.33395004272461,7.53300046920776,6.91305017471313,7.2480001449585,3.15053749084473,8.92443752288818,16.6237506866455,20.7520503997803,41.0869522094727,-9.83895015716553,11.1889247894287,8.57216262817383,1.74487495422363,-6.19808769226074,-7.56456232070923,-8.35161209106445,-9.00405025482178,4.70504999160767,2.2390501499176,46.8109512329102,-14.6800508499146,22.0519504547119,17.4696502685547,16.1490993499756,14.4520750045776,-5.32800006866455,-0.24705001711845,-4.51395034790039,5.45709991455078,4.09612512588501,3.69476246833801,6.31358766555786,-2.01698756217957,-4.06271266937256,-2.757000207901,-2.26800012588501,-2.37600016593933,9.46500015258789,14.3040008544922,14.9239511489868,2.44901251792908,1.76549994945526,1.20120000839233,0.59895002841949,1.73895013332367,1.87995004653931,2.32622504234314,2.22048759460449,2.05603742599487,-3.45344996452332,-2.31123757362366,-1.92046248912811,1.68600010871887,1.13505005836487,1.40100002288818,9.52500057220459,10.1839504241943,9.85095024108887,SWING_RIGHT
0.06655000150204,0.01017499994487,0.07177499681711,2.91495013237,2.44800019264221,2.52705001831055,-0.01773750036955,0.03904999792576,0.06998749822378,-0.01938750036061,-0.03286249935627,0.00659999996424,1.73595011234283,1.73400008678436,1.73895013332367,9.38400077819824,9.23805046081543,9.34305000305176,0.1567499935627,0.11302500218153,0.01842499896884,2.50305008888245,2.21805000305176,0.88005006313324,-0.0489500015974,-0.08497499674559,0.03712499886751,0.3089624941349,0.82967501878738,0.83421248197556,2.26500010490417,2.54295015335083,3.16305017471313,9.77205085754394,9.89595031738281,9.12795066833496,-0.12471249699593,9.05588722229004,13.6939001083374,27.480001449585,46.3039512634277,-14.812050819397,6.00778770446777,7.7178750038147,6.66916227340698,-8.54026222229004,-8.78061199188232,-9.0608377456665,-15.9880504608154,23.9070014953613,7.79100036621094,47.5579528808594,2.55495023727417,-35.3449516296387,16.2243118286133,16.7992000579834,15.5696744918823,-4.92300033569336,-1.99005007743835,-4.28205013275146,1.94988751411438,3.04576253890991,3.00217509269714,-3.72721242904663,-7.08221244812012,-7.03711223602295,-4.73699998855591,-3.35805010795593,-1.34895002841949,15.1710004806519,16.1089515686035,13.9909505844116,1.97752499580383,1.6718624830246,2.19917488098145,-3.08895015716553,-0.82905006408691,-1.60005009174347,1.83315002918243,1.55704998970032,1.1921249628067,-0.98078751564026,-0.7569375038147,-0.73768746852875,0.51495003700256,0.6280500292778,0.59205001592636,9.421950340271,9.58695030212402,8.75699996948242,SWING_RIGHT
1.77814996242523,1.65907502174377,1.20683753490448,2.16300010681152,2.12205004692078,1.48995006084442,0.16252499818802,0.09927500039339,0.05101250112057,0.30882498621941,0.41194999217987,0.56594997644424,1.9780501127243,2.0830500125885,1.81500005722046,9.30705070495606,9.28605079650879,9.75705051422119,0.42652499675751,0.58354997634888,0.71114999055862,1.56705009937286,0.79305005073547,1.00604999065399,0.1385999917984,0.19786250591278,0.31226250529289,0.4476999938488,0.48716250061989,0.58932501077652,2.42805004119873,2.5860002040863,2.06895017623901,10.1689500808716,10.4209508895874,9.73095035552978,0.6982250213623,4.6571249961853,10.0132999420166,18.7579517364502,39.3840026855469,55.3300514221191,3.72102499008179,5.29993724822998,3.80270004272461,-8.89253711700439,-7.23992490768433,-7.98558759689331,-22.981050491333,11.076000213623,3.06300020217896,57.495002746582,24.810001373291,11.0290508270264,16.9886741638184,17.1312618255615,11.9470996856689,-5.54595041275024,-10.2150001525879,-4.27695035934448,2.40129995346069,2.41656255722046,2.09824991226196,-2.6504499912262,-3.30687499046326,-4.14383745193481,-1.08300006389618,-0.7579500079155,0.25605002045631,13.9519510269165,13.5600004196167,12.0870008468628,1.38008749485016,1.14839994907379,0.82665002346039,-0.09900000691414,2.53605008125305,1.05705010890961,0.83022499084473,0.63277500867844,0.59372502565384,-2.43828749656677,-1.88113749027252,-1.53601253032684,0.53205001354218,0.86205005645752,0.56505000591278,9.0799503326416,9.54195022583008,9.42495059967041,SWING_RIGHT
0.55632501840591,0.39283749461174,0.90530002117157,1.6189501285553,2.8090500831604,3.49605011940002,1.22388744354248,1.43453752994537,-0.45801249146461,0.18603749573231,0.45856249332428,0.57928746938705,3.79005026817322,1.01805007457733,3.02400016784668,7.95000028610229,9.68295001983643,8.47395038604736,0.90694999694824,0.74882501363754,0.50696247816086,3.00300025939941,4.1380500793457,4.9549503326416,-1.39754998683929,-0.36891248822212,-0.08497499674559,-0.14368750154972,0.31377500295639,0.93486249446869,2.007000207901,4.35495042800903,3.78795027732849,12.7309503555298,6.99705028533936,8.01705074310303,0.2923249900341,7.31953763961792,14.5564374923706,16.0810508728027,42.0949516296387,27.6139507293701,10.4387245178223,10.9712619781494,6.66050004959106,-5.63117504119873,-4.62041234970093,-7.25821256637573,-31.8570022583008,-13.7730007171631,3.91500020027161,63.6619529724121,-7.8919506072998,5.79000043869019,16.2482376098633,14.7670869827271,10.9210748672485,-12.3340501785278,-10.3530006408691,-9.91095066070557,3.92438745498657,3.77767491340637,3.30371236801147,-0.92619997262955,-2.07308745384216,-2.82796239852905,-0.60405004024506,-0.61200004816055,0.56295001506805,12.9229507446289,12.211950302124,9.24000072479248,1.90918743610382,0.89141249656677,0.18328750133514,2.17695021629334,2.60595011711121,1.45905005931854,2.26132488250732,1.98549997806549,1.7795250415802,-3.953125,-3.19921255111694,-1.08185005187988,1.71705007553101,1.7650500535965,1.47795009613037,9.6709508895874,10.0230007171631,8.59095001220703,SWING_RIGHT
3.91214990615845,3.96563744544983,3.81108736991882,2.83095002174377,2.22795009613037,1.65300011634827,1.10783743858337,1.12763750553131,1.24327504634857,1.0480250120163,1.05778753757477,0.91341251134872,2.46900010108948,2.34705018997192,1.82205009460449,9.10395050048828,8.2900505065918,7.46595048904419,3.6007125377655,3.83033752441406,3.83185005187988,1.99005007743835,1.63605010509491,2.206050157547,0.6044499874115,0.28352499008179,0.13433749973774,0.63827496767044,0.82719999551773,0.99123752117157,1.68600010871887,1.94205009937286,1.88205003738403,9.7669506072998,10.1089506149292,10.8130502700806,1.86051249504089,1.88856244087219,3.12771248817444,2.54805016517639,3.25905013084412,16.114049911499,3.00629997253418,3.51780009269714,3.25063753128052,-2.98402500152588,-4.61147499084473,-6.62860012054443,-23.451000213623,-65.0509567260742,-78.4000549316406,36.8059501647949,10.1790008544922,13.2319507598877,13.1557245254517,14.1644248962402,13.3364000320435,-46.7899513244629,-33.9919509887695,-24.4729518890381,0.62727499008179,2.25073742866516,3.77616238594055,1.29222500324249,4.78637504577637,2.45300006866455,-5.64000034332275,-1.7940000295639,-2.92500019073486,2.96700024604797,9.61905002593994,11.6440505981445,6.24346256256104,4.99111270904541,3.37053751945496,-2.35199999809265,-1.17105007171631,1.16895008087158,3.41948747634888,3.24926257133484,2.35166239738464,-4.62330007553101,-5.16271257400513,-4.42351245880127,-1.62900006771088,-1.27500009536743,-0.74295002222061,9.13005065917969,9.70995044708252,10.1839504241943,SWING_RIGHT
1.66388750076294,1.51566255092621,1.45914995670319,-2.16300010681152,-0.81195002794266,1.54305005073547,-1.28136253356934,-0.51782500743866,-0.15798750519753,-2.22736239433289,-3.55506253242493,-3.85660004615784,-0.8770500421524,-0.89895004034042,-0.68595004081726,10.1140508651733,11.8279504776001,12.1039505004883,3.4985499382019,3.60634994506836,3.65708756446838,3.58695006370544,3.20205020904541,2.05305004119873,1.32192504405975,1.23035001754761,1.34392499923706,-0.88838750123978,-0.67938750982285,-0.18067499995232,1.51605010032654,1.70295011997223,1.88700008392334,8.83995056152344,8.24400043487549,7.82505035400391,1.15431249141693,2.99928736686707,8.46119976043701,6.96105051040649,11.8140001296997,51.9310531616211,10.8615369796753,15.2730875015259,13.6780872344971,-3.36421251296997,-4.78156232833862,-7.10668754577637,-76.7020568847656,-78.4000549316406,-35.3580017089844,6.10605049133301,18.7890014648438,13.1310005187988,13.2979001998901,13.3326873779297,13.2881374359131,-32.251953125,-37.9759521484375,-16.5859508514404,3.89386248588562,4.34170007705688,3.80393743515015,5.99458742141724,4.06436252593994,0.54532498121262,-1.79895007610321,-3.03195023536682,-3.24105024337769,-0.13995000720024,12.7840509414673,7.27005052566528,1.45186245441437,-2.35812497138977,-2.67726254463196,6.91800022125244,3.48000025749207,2.64900016784668,3.1988000869751,3.37933754920959,3.6287624835968,-6.66050004959106,-5.30832481384277,-1.6241500377655,1.33605003356934,1.66905009746552,1.37205004692078,8.01195049285889,10.782000541687,9.01995086669922,SWING_RIGHT
0.81592500209808,1.18882501125336,1.47633743286133,-5.51895046234131,-4.81800031661987,0.55200004577637,-0.81496250629425,-0.95700001716614,-0.61778748035431,0.14863750338554,-1.22374999523163,-2.44571256637573,-0.73095005750656,0.35505002737045,0.7590000629425,10.2940502166748,9.70500087738037,9.85605049133301,1.83933746814728,2.91967487335205,2.94525003433228,-0.64905005693436,-1.80300009250641,0.09405000507832,0.23870000243187,0.2441999912262,0.13144999742508,-0.01979999989271,0.776187479496,1.16077494621277,1.32195007801056,0.80505001544952,0.94605004787445,8.16300010681152,7.88295030593872,7.76805019378662,2.69376254081726,9.2963752746582,16.0311241149902,15.2740507125854,61.4740524291992,57.9430541992188,20.1524124145508,14.1026878356934,10.8876628875732,-3.03957509994507,-6.36336231231689,-6.52904987335205,-78.4000549316406,-47.9520034790039,-20.3449516296387,-10.4470500946045,27.9040508270264,18.4219512939453,13.5768871307373,13.422474861145,12.4166622161865,-38.170051574707,-19.10205078125,-12.9630002975464,4.79050016403198,4.48318767547607,4.04566240310669,4.64282512664795,1.65233743190765,-0.31735000014305,-1.38300001621246,-3.38700008392334,-3.18795013427734,7.82295036315918,9.72105026245117,9.41295051574707,-2.28992509841919,-2.82452487945557,-1.55113744735718,2.66295003890991,0.00795000046492,-0.29295000433922,3.42856240272522,3.24293756484985,2.29006242752075,-1.97560000419617,-0.91836249828339,-0.07026249915361,0.9700500369072,0.82605004310608,1.18800008296967,9.4150505065918,9.48000049591064,8.68695068359375,SWING_RIGHT
1.2196249961853,1.51469993591309,1.40813744068146,-4.29795026779175,-2.53095006942749,-1.36305010318756,-0.90502500534058,-0.99976247549057,-0.79172497987747,0.22742499411106,-0.30002498626709,-0.64776247739792,-0.44595003128052,0.27300000190735,0.46995002031326,10.8319501876831,9.78900051116943,10.0260000228882,1.83548748493195,2.49149990081787,2.72387504577637,-0.96795004606247,-1.3050000667572,-0.90795004367828,0.22412499785423,0.26949998736382,0.01581249944866,-0.27774998545647,-0.35378751158714,0.80176252126694,1.06605005264282,0.61995005607605,-0.60000002384186,8.73495006561279,7.68900012969971,9.31695079803467,1.21165001392365,-1.65330004692078,-7.24240016937256,0.82395005226135,39.8659515380859,55.9219512939453,-6.66118764877319,-7.27815008163452,-5.89971256256104,-6.41629981994629,-1.47331249713898,3.74302506446838,-78.4000549316406,-39.5239524841309,-4.11705017089844,1.78695011138916,25.1689510345459,0.07005000114441,3.18436241149902,2.98746252059937,3.69833755493164,-28.3270511627197,-14.4520511627197,-9.24300003051758,4.75667476654053,4.30787515640259,3.47778749465942,7.99067497253418,2.79702496528625,-2.19986248016357,-1.88100004196167,-2.03595018386841,-1.85205006599426,6.42495012283325,11.94105052948,11.5939502716064,-3.03627490997314,-3.28817486763,-2.52188754081726,1.22205007076263,-1.62900006771088,-1.22400009632111,2.41436243057251,2.35798740386963,2.27631258964539,-3.07202506065369,-1.94521248340607,-0.91011250019073,0.68700003623962,0.75000005960464,0.4650000333786,9.11100006103516,9.07005023956299,7.17900037765503,SWING_RIGHT
0.69464999437332,0.83490002155304,0.94558751583099,-2.38800001144409,-3.12000012397766,-1.66905009746552,-0.43202498555183,-0.42198750376701,-0.4268000125885,0.10422500222921,0.11508750170469,0.09968750178814,0.30900001525879,0.40995001792908,0.35205000638962,10.2360000610352,9.90795040130615,9.83895015716553,1.55897498130798,1.73346245288849,1.79808747768402,-4.95705032348633,-6.57000017166138,-5.93100023269653,-1.28314995765686,-1.74377501010895,-2.01286244392395,1.4942125082016,1.99127495288849,1.91331243515015,-3.24105024337769,-3.51405024528503,-3.05895018577576,8.12700080871582,8.48099994659424,9.26205062866211,0.69946247339249,0.20638750493526,0.09569999575615,5.11005020141602,15.0610504150391,32.6920509338379,-9.5772876739502,-4.84907484054565,-3.94679999351501,-1.54151248931885,-2.70943737030029,-3.05291247367859,-52.8210029602051,-78.4000549316406,-71.4490509033203,26.5129508972168,-2.80695009231567,15.3960008621216,3.99616241455078,6.88875007629395,6.71770000457764,-41.3500518798828,-23.1720008850098,-15.456000328064,4.49322509765625,4.38899993896484,4.1637749671936,7.06997489929199,6.48175001144409,1.380499958992,-1.557000041008,-1.72995007038116,-3.01995015144348,6.43905019760132,8.06205081939697,10.7130002975464,-0.35186249017715,-1.91427493095398,-2.94456243515015,3.68595027923584,2.81700015068054,0.42195001244545,2.59077501296997,2.77213740348816,2.4507999420166,-3.46761250495911,-2.34148740768433,-0.78677499294281,0.99900007247925,0.64695000648499,0.78600001335144,9.7669506072998,8.44799995422363,9.1399507522583,SWING_RIGHT
0.58520001173019,0.55811250209808,0.54477500915527,-0.63300001621246,-0.59700000286102,-0.59700000286102,-0.11563749611378,-0.09239999949932,-0.10353749990463,-0.57323747873306,-0.33770000934601,-0.14946250617504,0.7590000629425,0.3120000064373,0.37605002522469,9.5440502166748,11.5650005340576,10.6770000457764,1.20202493667603,1.2196249961853,1.21797502040863,-1.47105002403259,-2.67495012283325,-0.28305000066757,-0.6318125128746,-0.72118747234344,-1.0729124546051,-0.26730000972748,-0.15977500379086,-0.74896252155304,-0.91605001688004,-1.46400010585785,-1.77300012111664,9.35805034637451,11.0140504837036,9.54705047607422,1.66251254081726,1.85570001602173,0.15963749587536,-4.57095003128052,-0.30195000767708,33.8010025024414,-6.38797473907471,-8.5893497467041,-6.94072484970093,-4.10987520217896,-2.72057509422302,-0.69629997014999,-40.5049514770508,-70.1749496459961,-69.7900543212891,9.76200008392334,-9.45600032806396,13.9999504089355,-0.04193750023842,2.75123739242554,5.04570007324219,-56.0869522094727,-46.6390533447266,-46.2529525756836,-2.59710001945496,2.8582124710083,4.76396226882935,5.67036247253418,8.43191242218018,8.30348777770996,-3.74595022201538,-1.6840500831604,-0.90405005216599,14.9910011291504,-0.67800003290176,3.14895009994507,3.94817495346069,-3.04150009155273,-6.2543249130249,8.16300010681152,8.92695045471191,4.47300004959106,3.55299997329712,3.91269993782043,4.02325010299683,-6.59408760070801,-3.35060000419617,-1.46272504329681,2.28000020980835,1.47000002861023,1.0440000295639,11.2560005187988,9.83400058746338,9.88200092315674,SWING_RIGHT
0.78154999017715,0.77701246738434,0.77522498369217,-4.22595024108887,-3.81195020675659,-5.67300033569336,-1.10714995861053,-1.38104999065399,-1.29868745803833,1.4690500497818,1.02987504005432,-0.71307498216629,-1.71795010566711,-0.97995007038116,0.45795002579689,9.19500064849854,8.425950050354,9.81705093383789,1.14881253242493,1.41556251049042,1.94672501087189,1.39695012569427,1.01595008373261,-1.15200006961823,0.59661251306534,0.82829999923706,0.86171251535416,-1.96185004711151,-1.04321253299713,0.36684998869896,1.7410501241684,1.89195013046265,1.36695003509521,8.4859504699707,7.27695035934448,5.89095020294189,3.22189998626709,4.08636236190796,24.1796493530273,9.61905002593994,22.4830513000488,64.8259506225586,17.8553371429443,15.8010873794556,10.4383125305176,0.56980001926422,-2.42893743515015,-2.78313755989075,-78.4000549316406,-66.3280563354492,-2.37405014038086,-9.11100006103516,26.8330516815186,-11.6179504394531,15.4185628890991,15.8256998062134,13.2237873077393,-30.1900520324707,-23.9910011291504,-10.6240501403809,5.00362491607666,4.86543750762939,5.03868770599365,5.71821260452271,4.58906269073486,2.29006242752075,-0.78600001335144,0.4240500330925,-0.48000001907349,5.05305004119873,5.78505039215088,7.24305057525635,5.38243770599365,2.47994995117188,1.08803749084473,-1.63095009326935,2.47395014762878,3.76200008392334,3.20223736763,2.32196259498596,2.25293755531311,-5.22541236877441,-4.19361257553101,-3.29202508926392,0.19905000925064,1.14705002307892,1.399050116539,10.7220001220703,9.71205043792725,10.9230003356934,SWING_RIGHT
1.00622498989105,1.11485004425049,0.96318751573563,-4.84905004501343,-1.39200007915497,-0.31905001401901,-1.16709995269775,-1.06617498397827,-0.853600025177,-0.23347499966621,-0.67787498235703,-1.83095002174377,-0.49395000934601,-0.28095000982285,-0.48000001907349,9.47205066680908,8.50305080413818,8.46195030212402,1.54508745670319,2.08174991607666,2.47926259040833,2.69700002670288,1.34595000743866,1.66500008106232,0.14561249315739,0.34581249952316,0.32890000939369,-1.69743752479553,-1.22787499427795,0.11879999935627,0.3829500079155,0.08895000070333,-0.58095002174377,8.89305019378662,7.8870005607605,8.14095020294189,1.52831244468689,-0.21394999325275,-7.18561267852783,-3.61605024337769,7.15005016326904,64.1220016479492,-6.23699998855591,-7.91161251068115,-6.6929497718811,-5.29278755187988,-4.76423740386963,-1.68561244010925,-76.5460510253906,-78.4000549316406,-11.0700006484985,-12.6330003738403,-15.5830507278442,23.2879505157471,2.58829998970032,4.12101268768311,3.42251253128052,-36.9229507446289,-24.2790012359619,-17.6029510498047,5.08419990539551,4.7577748298645,4.13091230392456,9.45106220245361,5.87427473068237,1.70018744468689,-0.82500004768372,-1.63395011425018,-2.00999999046326,4.81995010375977,5.87100028991699,13.252950668335,-0.43614998459816,-2.88832497596741,-2.48709988594055,0.70695000886917,0.99900007247925,-1.13295006752014,2.12451243400574,2.24386239051819,2.23478746414185,-3.43158745765686,-1.65880000591278,-0.56773751974106,1.37700009346008,1.58100008964539,1.65705013275146,9.39600086212158,9.27405071258545,9.0130500793457,SWING_RIGHT
0.28462499380112,0.43436250090599,0.83682501316071,-2.5770001411438,-3.98895025253296,-5.16300010681152,0.28572499752045,0.13695000112057,0.02529999986291,1.63432502746582,1.79341244697571,1.75601243972778,1.73595011234283,1.45395004749298,0.91305005550385,9.86295032501221,9.61605072021484,9.17100048065186,0.82555001974106,0.69547498226166,0.75047498941422,-1.98495006561279,-1.38000011444092,-2.40705013275146,-0.73191249370575,-0.73658752441406,-0.7627124786377,-1.0535249710083,-1.0448625087738,-0.68818747997284,1.09200000762939,0.7590000629425,0.4120500087738,9.88395023345947,10.3320007324219,11.5290002822876,2.98677492141724,3.93181252479553,3.9282374382019,-3.77895021438599,3.03900003433228,10.1209506988525,-1.33430004119873,0.60224997997284,0.12567499279976,-8.81113719940186,-10.6316375732422,-10.5022497177124,-28.5510005950928,-78.4000549316406,-75.984001159668,47.6160011291504,-16.7299499511719,28.8370513916016,13.9277877807617,14.2511873245239,15.0462121963501,-53.5080032348633,-49.8330039978027,-21.9709510803223,-1.86216247081757,-2.11103749275208,5.07429981231689,-9.3373498916626,-6.36542510986328,-4.24751234054565,-2.78595018386841,-2.78805017471313,-1.87305009365082,4.77495002746582,5.86695051193237,8.63700008392334,-5.97286224365234,-6.05563735961914,-3.73051238059998,6.06600046157837,4.71495008468628,-0.5460000038147,4.90531253814697,4.78774976730347,4.15112495422363,-2.2864875793457,0.33934998512268,2.88007497787476,2.48100018501282,2.32995009422302,1.93500006198883,8.7610502243042,8.63895034790039,8.89995002746582,SWING_RIGHT
1.19886255264282,0.85346251726151,0.66976249217987,-1.98300004005432,-3.02505016326904,-3.88395023345947,-0.16747500002384,-0.89319998025894,-1.455437541008,0.15111249685287,1.99828743934631,2.60493755340576,2.10195016860962,2.8090500831604,2.67495012283325,10.0999507904053,9.88695049285889,9.13500022888184,5.94714975357056,5.57823753356934,5.34985017776489,-5.96205043792725,-5.22300004959106,-4.92600011825562,-2.22021245956421,-2.35949993133545,-2.98691248893738,1.95469999313354,1.65371251106262,1.27627503871918,1.7940000295639,1.62795007228851,1.11105000972748,8.67795085906982,7.80405044555664,5.68995046615601,5.94206237792969,5.46342515945435,8.92856216430664,-4.85595035552979,4.38495016098022,42.4609527587891,0.90667498111725,1.24533748626709,-0.7070249915123,-9.39798736572266,-8.8439998626709,-7.47298765182495,-28.8499507904053,-71.5330505371094,-44.0130004882813,52.4670028686523,-18.6949501037598,57.5980529785156,12.4201002120972,15.7425127029419,15.7418251037598,-60.3679542541504,-38.4580535888672,-9.04395008087158,-0.13681249320507,-0.6374499797821,7.93443727493286,-2.31329989433289,0.4988499879837,-5.67421245574951,-3.57105016708374,-3.79605007171631,-1.90905010700226,4.08795022964478,7.36605024337768,12.3409509658813,-6.10939979553223,-3.83982491493225,-2.7607250213623,6.91995048522949,0.67800003290176,-1.86300003528595,5.14373731613159,4.41925001144409,3.64306259155273,0.6210874915123,2.98223757743835,3.02348756790161,2.68905019760132,2.16195011138916,1.58295011520386,9.43395042419434,9.39105033874512,10.1740503311157,SWING_RIGHT
3.51862502098084,4.10107517242432,6.97688722610474,-2.04105019569397,-3.22800016403198,-1.89705014228821,-1.38517498970032,-1.84153747558594,-1.49338746070862,1.74570000171661,2.13015007972717,1.63405001163483,2.10195016860962,2.31105017662048,2.91405010223389,9.36195087432861,9.94395065307617,8.81205081939697,8.85389995574951,7.29080009460449,6.67397499084473,-1.18305003643036,0.19200000166893,0.86295002698898,-0.77082496881485,-0.89045000076294,-0.61668747663498,0.21161249279976,0.18411250412464,-1.32536244392395,0.83805006742477,0.96795004606247,1.37700009346008,6.99900054931641,7.28895044326782,4.08300018310547,5.59652519226074,6.17374992370605,4.53942489624023,35.134952545166,60.378002166748,12.1690502166748,-10.6643629074097,-11.2061128616333,-7.71842479705811,-1.25482499599457,7.60347509384155,12.8544626235962,-78.4000549316406,-8.73495006561279,-9.67200088500977,13.5280504226685,1.73205006122589,-0.41700002551079,-10.2568120956421,-11.2384252548218,-6.44957494735718,-43.5550537109375,-31.9519519805908,-11.1750001907349,7.44920015335083,6.98981237411499,2.6889500617981,7.65008735656738,4.90503740310669,-2.68386244773865,-2.59200000762939,-3.43695020675659,-1.83795011043549,9.95400047302246,10.135950088501,8.6850004196167,-5.19089984893799,-3.70796251296997,-1.86821246147156,4.78200006484985,2.59095001220703,-1.39395010471344,2.71947503089905,3.12276244163513,3.0109748840332,-2.84418749809265,0.1182499974966,0.93761247396469,3.02700018882751,2.84700012207031,2.62695002555847,10.6290006637573,8.778000831604,8.7180004119873,SWING_RIGHT
1.01007497310638,1.1785124540329,1.29112493991852,-2.5770001411438,-2.64405012130737,-2.54100012779236,-0.23251250386238,-0.22591249644756,-0.31239998340607,0.16458749771118,0.16307500004768,0.65876251459122,2.34405016899109,2.30805015563965,2.84505009651184,9.64005088806152,9.16605091094971,10.8780002593994,1.86175000667572,2.07267498970032,1.92321252822876,-5.40900039672852,-9.1230001449585,-4.18095016479492,-0.77948749065399,-0.74263751506805,-0.7039999961853,2.01602506637573,1.39370000362396,1.53133749961853,1.80600011348724,2.20800018310547,0.02205000072718,5.14800024032593,1.28895008563995,3.69495010375977,3.42347502708435,5.80937480926514,7.71759986877441,2.82795023918152,11.6269502639771,55.0600509643555,-0.45484998822212,-3.09966254234314,-6.44434976577759,-6.95241260528564,-6.70298767089844,-2.09453749656677,-38.427001953125,-68.2339553833008,-33.1669502258301,20.098051071167,-3.5179500579834,25.8349514007568,-0.46502500772476,-2.9250373840332,-3.83006238937378,-45.0660018920898,-31.8250522613525,-14.3809509277344,7.0086498260498,6.76871252059937,5.93243741989136,11.9616746902466,7.62726259231567,4.61779975891113,-2.71905016899109,-0.55395001173019,-1.06695008277893,7.81995058059692,6.1279501914978,10.1140508651733,-4.03933763504028,-4.59043741226196,-3.93126249313354,1.01400005817413,3.58500027656555,0.31395000219345,1.94988751411438,1.68382501602173,2.00131249427795,-5.07553768157959,-4.31873750686646,-3.04328751564026,0.93195003271103,1.56105005741119,2.11005020141602,10.9980001449585,10.3560009002686,9.73800086975098,SWING_RIGHT
0.83586251735687,0.89292502403259,0.86294996738434,-3.1800000667572,-4.30305004119873,-5.32305002212524,-0.39379999041557,-0.42913749814034,-0.5850625038147,0.32436248660088,0.95961248874664,2.08326244354248,1.94895005226135,2.17005014419556,1.08705008029938,10.6240501403809,10.0849504470825,10.9590005874634,1.5358749628067,1.27022504806519,1.09724998474121,-10.7410507202148,-6.27405023574829,0.1489500105381,-1.69455003738403,-0.88398748636246,-0.1348875015974,-0.32051250338554,-1.49118745326996,-1.85405004024506,4.31205034255981,4.19700002670288,3.71595025062561,3.69300007820129,5.08095026016235,8.78295040130615,7.70247507095337,5.96777486801147,3.9261748790741,1.35600006580353,-2.50695013999939,6.36705017089844,0.39820000529289,8.55703735351563,11.2754125595093,-4.79269981384277,-4.99221229553223,-3.92136240005493,-7.48800039291382,-74.9230499267578,-21.3559513092041,24.7939510345459,-4.99305009841919,34.5070533752441,17.2386493682861,17.7791614532471,17.908275604248,-35.5050010681152,-27.6310520172119,-16.1839504241943,2.99777507781982,1.42876243591309,1.15114998817444,-0.75006252527237,1.96542501449585,3.56894993782043,-2.14904999732971,-3.40305018424988,-2.68695020675659,12.5730009078979,7.40595054626465,7.02105045318604,7.49539995193481,5.02837514877319,2.75508737564087,-6.68805027008057,-4.88505029678345,-1.98105013370514,3.26644992828369,2.98141241073608,2.76567506790161,-3.32186245918274,-3.7118124961853,-3.95408749580383,-0.39105001091957,-0.11805000901222,0.02700000070035,10.6600503921509,9.89400005340576,8.9170503616333,SWING_RIGHT
0.99632501602173,1.19707500934601,1.4001624584198,-3.52500009536743,-4.01805019378662,-4.61205005645752,-0.35804998874664,-0.40823748707771,-0.45045000314713,-0.2245374917984,-0.59441250562668,-0.6708624958992,2.57205009460449,2.29200005531311,2.51895022392273,10.8610506057739,10.1620502471924,11.0220003128052,1.5246000289917,1.47592496871948,1.48266243934631,-4.84905004501343,-5.11695003509521,-6.6589503288269,0.02598750032485,0.03588749840856,0.0354750007391,0.68598747253418,1.1785124540329,1.37417495250702,2.77005004882813,2.65305018424988,1.73895013332367,8.11995029449463,7.42995023727417,4.97805023193359,0.85745000839233,1.10220003128052,2.5590124130249,1.35105001926422,10.5259504318237,34.5859527587891,1.40428745746613,7.35982513427734,9.17757511138916,-5.49326229095459,-3.78358745574951,-3.83212494850159,-7.20105028152466,-54.868953704834,-60.7009544372559,19.0999507904053,-4.08494997024536,7.84200048446655,16.9845504760742,16.7976875305176,17.1138000488281,-26.9550018310547,-42.9130516052246,-41.7859535217285,6.87774991989136,3.74013757705688,3.62229990959167,-4.91370010375977,-2.70160007476807,0.28077501058578,0.56505000591278,0.50100004673004,-1.25595009326935,-2.77305006980896,7.81605052947998,15.0780010223389,14.8345994949341,10.8299121856689,8.25893783569336,-12.4890003204346,-3.44400024414063,-2.90205025672913,4.65107488632202,4.17752504348755,3.81947493553162,-1.16820001602173,-2.57454991340637,-3.93525004386902,-0.40095001459122,-0.30300000309944,-0.51600003242493,10.4160003662109,8.99100017547607,9.45300006866455,SWING_RIGHT
3.19481253623962,3.32529997825623,3.35376238822937,-0.63705003261566,-0.1950000077486,-2.75895023345947,-0.47354999184608,-0.19346250593662,0.04675000160933,-0.94861251115799,-0.59014999866486,-0.39407500624657,3.57705020904541,3.72300028800964,3.96495008468628,8.93895053863525,8.10300064086914,7.89495038986206,2.66310000419617,2.39126253128052,1.95703744888306,-0.44100001454353,-1.15200006961823,-0.81000006198883,0.91547501087189,0.83737498521805,0.74057501554489,-0.67416250705719,-0.89952498674393,-1.02932500839233,4.30500030517578,4.30995035171509,4.73400020599365,8.88300037384033,7.98795032501221,7.14795017242432,-1.75876247882843,-2.18322491645813,-1.5778124332428,0.3649500310421,12.9589509963989,45.7600517272949,-4.71845006942749,-12.9102878570557,-12.9007997512817,-8.62578773498535,-3.89193749427795,-1.19528746604919,-27.0180015563965,-49.2589530944824,-23.1780014038086,30.8419513702393,-15.657000541687,14.6370010375977,-3.77891254425049,2.03747487068176,3.88107490539551,-37.6939506530762,-21.9199504852295,-18.8749504089355,2.80513739585876,2.96504998207092,3.99313735961914,6.17471265792847,2.36582493782043,-1.36248743534088,-1.17705011367798,-2.77095007896423,-2.41500020027161,7.12395048141479,12.3070507049561,12.025050163269,-3.47283744812012,-4.25301265716553,-3.79334998130798,-0.21105000376701,-1.43205010890961,-3.13500022888184,2.35991239547729,1.8243499994278,1.2751749753952,-2.28071260452271,-0.71953749656677,0.63690000772476,2.59995007514954,2.68905019760132,2.36100006103516,6.80505037307739,6.58500051498413,6.67800045013428,SWING_RIGHT
1.30391252040863,1.13066244125366,0.47107499837875,-1.57800006866455,-2.54295015335083,-2.86695003509521,0.32367500662804,0.48317500948906,0.48826250433922,-0.30305001139641,-0.31281250715256,-0.64762496948242,4.02705001831055,4.10400009155273,4.57800006866455,8.70405006408691,8.71305084228516,8.7180004119873,-0.41662499308586,-0.94201248884201,-1.05806255340576,-2.19900012016296,-0.26895001530647,-1.46100008487701,0.81441247463226,0.89429998397827,0.72380000352859,-1.14853751659393,-0.94201248884201,-0.14492499828339,4.94700002670288,4.89705038070679,4.75995016098022,7.52595043182373,7.45905017852783,5.87400007247925,0.21532499790192,1.51662504673004,4.22633743286133,6.11295032501221,17.5440006256104,48.1860008239746,-0.80561250448227,0.39146250486374,18.9329242706299,-5.75080013275146,-5.94742488861084,-7.22590017318726,-56.5900535583496,-57.4879531860351,-31.651050567627,1.84905004501343,-4.99005031585693,24.7099514007568,14.7540245056152,15.7999877929688,15.1215620040894,-48.7360534667969,-36.4300498962402,-13.1599502563477,4.29274988174438,4.85237503051758,5.79452514648438,2.74037504196167,1.44649994373322,-2.44117498397827,-2.37600016593933,-1.86900007724762,-0.85305005311966,7.42995023727417,8.49600028991699,10.2820501327515,1.0700249671936,-0.87945002317429,-1.35877501964569,1.32495009899139,0.07995000481606,-2.63895010948181,3.5871000289917,2.81984996795654,1.53670001029968,-2.35936260223389,-0.91973751783371,0.95342499017715,1.4389500617981,1.10895001888275,1.10205006599426,8.61300086975098,8.6850004196167,6.81705045700073,SWING_RIGHT
2.06456255912781,1.74886250495911,1.64573752880096,-1.79100012779236,-0.68805003166199,-0.6730500459671,0.22206249833107,0.25093749165535,0.25258749723434,-0.71568751335144,-0.74923747777939,-0.9092875123024,3.56505012512207,3.4699501991272,3.66600012779236,9.36195087432861,8.22300052642822,7.52805042266846,0.0749375000596,-0.2389750033617,-0.38637501001358,0.10905000567436,-0.15105000138283,-0.52995002269745,0.74153751134872,1.28081250190735,-0.89471250772476,-0.94751250743866,-1.98866248130798,-5.14002513885498,4.9830002784729,-0.4870500266552,-7.05900049209595,5.19405031204224,13.4280004501343,26.0580005645752,-5.32248735427856,-4.85828733444214,-2.71589994430542,59.0850028991699,36.8539505004883,16.4899501800537,-9.73334980010986,-9.04708766937256,-9.4602746963501,-4.9678750038147,-1.91014993190765,3.83597493171692,-70.6039505004883,-35.7139511108398,-12.4039506912231,24.3529510498047,39.7200012207031,1.31805002689362,0.06159999966621,0.54092502593994,0.85428750514984,-33.2359504699707,-25.6290016174316,-9.5149507522583,5.46163749694824,5.07677507400513,3.13981246948242,8.43424987792969,4.69878768920898,-1.23873746395111,-2.9320502281189,-2.90805006027222,-1.68900012969971,9.87705039978027,11.4880504608154,10.1569509506226,-3.98062491416931,-2.83153748512268,-0.56196248531342,0.7140000462532,-0.83895003795624,-1.7650500535965,2.51171255111694,2.21113753318787,1.50534999370575,-0.75789999961853,0.29782500863075,1.18937504291534,1.5660001039505,1.4800500869751,1.54500007629395,9.58995056152344,9.12795066833496,8.91195011138916,SWING_RIGHT
1.86353743076324,1.97573745250702,2.09206247329712,-2.66805005073547,-2.46705007553101,-2.64900016784668,-0.61723750829697,-0.45429998636246,-0.32463750243187,-0.20528750121593,-0.19057500362396,-0.18590000271797,2.15505003929138,2.19600009918213,2.36295008659363,9.75495052337646,9.19200038909912,8.81595039367676,2.67602491378784,2.54801249504089,2.4479124546051,-3.63000011444092,-2.11500000953674,-1.74795007705688,-0.18576249480247,-0.35640001296997,-0.36286249756813,0.20143750309944,-0.5157625079155,-0.598537504673,2.09805011749268,2.37105011940002,2.56500005722046,10.3219509124756,8.72294998168945,7.71000051498413,2.32581257820129,2.19092488288879,2.09275007247925,-2.32305002212524,0.62295001745224,6.09195041656494,-2.31439995765686,-16.1004257202148,-13.6629619598389,-5.63296270370483,-1.21577501296997,-0.36231249570847,-17.4820499420166,-67.3619995117188,-48.7800025939941,35.6110534667969,-11.9869508743286,33.9589500427246,-4.63553762435913,-2.94923758506775,0.51988750696182,-28.9039516448975,-33.9439506530762,-35.7229499816895,5.425612449646,5.57713747024536,5.04858732223511,10.2625875473022,8.72437477111816,5.30598735809326,-3.21405005455017,-2.53395009040833,-3.11100006103516,3.6540002822876,7.97100019454956,11.7349510192871,-2.16218757629395,-3.71002507209778,-3.03971242904663,3.54195022583008,3.40305018424988,0.79305005073547,1.79464995861053,2.05713748931885,2.11213755607605,-4.74856233596802,-3.77313756942749,-1.08735001087189,0.92895007133484,1.36695003509521,1.40805006027222,8.23200035095215,9.38205051422119,9.51600074768066,SWING_RIGHT
1.61122500896454,1.62084996700287,1.69922494888306,-3.73095011711121,-3.53700017929077,-3.26595020294189,-0.41854998469353,-0.46103748679161,-0.40988749265671,0.06888750195503,0.08126249909401,0.09886249899864,0.64200001955032,0.99600005149841,0.53895002603531,10.9549503326416,9.33105087280273,10.021050453186,1.85074996948242,1.70926249027252,1.59211254119873,-3.07695007324219,-5.14605045318604,-5.06400012969971,-0.26001250743866,-0.1913999915123,0.3466374874115,0.41139999032021,0.7870500087738,0.38830000162125,1.40295004844666,1.37205004692078,3.91995024681091,8.02200031280518,6.27600049972534,0.67095005512238,3.0599250793457,-26.3389492034912,-9.00570011138916,27.7699508666992,44.275951385498,-12.621000289917,-9.22501277923584,-5.38835000991821,-0.74470001459122,-2.00296258926392,6.91583728790283,13.3234748840332,-26.8939514160156,-7.79700040817261,4.6279501914978,45.0949516296387,-17.4310512542725,-2.40000009536743,1.77485001087189,2.98017501831055,2.46056246757507,-23.3190002441406,-1.08495008945465,10.8010501861572,6.84282493591309,2.80774998664856,2.48228740692139,-0.98037499189377,-12.0209369659424,-8.78377532958984,-0.29595002532005,3.63705015182495,4.57305002212524,9.39105033874512,8.23200035095215,7.69605016708374,-0.79860001802444,2.73336243629456,3.08591246604919,-2.24205017089844,-3.95100021362305,-4.81995010375977,2.49081254005432,0.86624997854233,-0.08263749629259,3.25049996376038,3.02802491188049,2.28318738937378,4.0489501953125,2.84895014762878,2.38005018234253,8.56995010375977,8.81595039367676,9.52995014190674,SWING_RIGHT
2.5058000087738,2.50593757629395,2.36225008964539,-2.2150502204895,-2.19105005264282,-1.51605010032654,-0.04523750022054,0.07273750007153,0.23402500152588,0.30305001139641,0.38747498393059,0.45856249332428,2.95005011558533,2.84505009651184,2.9479501247406,9.19200038909912,9.05805015563965,8.7810001373291,2.13028740882874,1.9852249622345,1.80771243572235,-1.84395003318787,-2.07195019721985,-1.95195007324219,0.51631247997284,0.61930000782013,0.83544999361038,0.13887499272823,-0.06379999965429,-0.4629625082016,3.69195008277893,3.60105013847351,3.92700028419495,8.44995021820068,8.70900058746338,6.54705047607422,-2.73941254615784,-3.91476249694824,-2.54911255836487,2.77095007896423,6.91095018386841,20.5249500274658,-3.6201000213623,-3.76282501220703,-5.9042501449585,-6.66696262359619,-5.88431262969971,-6.00517511367798,-25.1119518280029,-49.5100517272949,-55.8220520019531,36.8490028381348,-9.90105056762695,10.5760507583618,4.8107123374939,5.33169984817505,6.01039981842041,-21.4150505065918,-32.9680519104004,-28.5400505065918,-4.68971252441406,3.98749995231628,8.64696216583252,7.56813764572144,21.0095882415771,14.888500213623,-6.43200016021729,-3.46095013618469,-1.9980001449585,10.7059507369995,14.0839509963989,2.0789999961853,-3.2792375087738,-3.16456246376038,-4.03507518768311,-2.51700019836426,1.7700001001358,6.16605043411255,2.43361258506775,1.92843747138977,1.41129994392395,-6.52506256103516,-6.39127492904663,-4.45170021057129,-0.09000000357628,-0.01500000059605,-0.01095000095665,11.4810009002686,12.5950508117676,10.0830001831055,SWING_RIGHT
2.98911237716675,3.17446255683899,3.53815007209778,-1.56900012493134,-1.53495001792908,-1.34400010108948,0.34979999065399,0.47107499837875,0.61696249246597,-0.11646249890327,0.04193750023842,0.07315000146627,3.7350001335144,3.57495021820068,3.34305024147034,8.01705074310303,8.01195049285889,9.38895034790039,2.75522494316101,2.60535001754761,2.10553741455078,-0.66600000858307,-1.41795003414154,-1.54500007629395,0.16376249492168,0.342375010252,0.77880001068115,-0.08937499672174,0.43669998645782,1.26266252994537,4.15904998779297,4.35495042800903,4.30800008773804,7.61205053329468,5.29005002975464,2.99100017547607,0.51878750324249,1.37678754329681,4.11798763275146,-0.91005003452301,24.0799503326416,45.1710014343262,-3.07614994049072,-7.23566246032715,-9.6810998916626,-7.5147876739502,-7.43324995040894,-4.59511232376099,-28.7329521179199,-56.311954498291,-49.4550018310547,23.3689517974854,2.80200004577637,26.5320014953613,-2.46784996986389,-1.3498375415802,-2.5972375869751,-44.7550506591797,-29.1340522766113,-23.0119514465332,6.81161260604858,7.39557504653931,6.47762489318848,10.8249626159668,9.14141273498535,6.43445014953613,0.30405002832413,0.72105002403259,0.47205001115799,6.33405017852783,4.54005002975464,4.95705032348633,-2.36472487449646,-2.37077498435974,-3.02005004882813,0.10605000704527,1.77495002746582,1.7940000295639,3.28638744354248,1.76824998855591,1.58070003986359,-5.23861265182495,-4.9652624130249,-4.48414993286133,0.86505001783371,0.79995006322861,1.43400001525879,9.91305065155029,9.62595081329346,8.03595066070557,SWING_RIGHT
1.70981252193451,1.60490000247955,1.43852496147156,-2.71095013618469,-2.3970000743866,-2.79900002479553,0.10724999755621,0.13914999365807,0.12155000120401,0.90310001373291,0.85208749771118,0.6044499874115,2.12895011901855,2.1739501953125,2.20305013656616,10.4920501708984,9.77205085754394,9.6739501953125,1.2780624628067,1.28287494182587,1.27421247959137,-2.74200010299683,-3.22800016403198,-1.31700003147125,0.20638750493526,0.20047499239445,0.16224999725819,0.35681250691414,0.40645000338554,0.53556251525879,2.48100018501282,2.64600014686584,3.19695019721985,8.67495059967041,8.57205009460449,6.64695024490356,1.30226254463196,1.294562458992,1.57423746585846,-3.45600008964539,4.33004999160767,22.2720012664795,-1.42807495594025,13.0384378433228,14.2481622695923,-3.73422503471375,-0.36712500452995,-2.99846243858337,-6.74805021286011,-41.0440521240234,-41.2810516357422,37.8970527648926,-18.9679508209229,7.02105045318604,19.2285499572754,17.9119873046875,17.3031368255615,-16.2049503326416,-37.0330505371094,-36.9439506530762,2.30257487297058,2.82741236686707,3.83061242103577,-3.43035006523132,1.28727495670319,5.81308746337891,-0.89895004034042,-0.32700002193451,-0.39600002765656,11.3830509185791,9.63105010986328,5.45505046844482,11.4155244827271,8.87314987182617,3.06638741493225,1.82505011558533,5.29500007629395,4.64805030822754,5.05092477798462,4.32918739318848,3.769700050354,-7.05952501296997,-7.84052515029907,-7.14972496032715,0.09600000083447,0.7620000243187,1.47000002861023,12.5989503860474,11.332950592041,9.90795040130615,SWING_RIGHT
2.22145009040833,2.16026258468628,2.06305003166199,-1.39605009555817,-1.07100009918213,-0.87195003032684,0.09831249713898,0.10037499666214,0.08387500047684,0.13598750531673,-0.10133749991655,-0.03712499886751,2.17905020713806,2.54295015335083,2.77005004882813,10.252950668335,9.45600032806396,9.03404998779297,1.81005001068115,1.6797000169754,1.6076500415802,-0.8890500664711,-1.44900012016296,-1.06605005264282,0.28627499938011,0.23264999687672,0.2374625056982,0.42721250653267,0.23388749361038,0.171187505126,2.83500003814697,3.14895009994507,3.34500026702881,8.77305030822754,8.01000022888184,8.82600021362305,0.81482499837875,-0.40906250476837,-0.93898749351501,-2.56695008277893,1.99305009841919,16.2940502166748,0.04069999977946,-9.08407497406006,-11.0969371795654,-3.68829989433289,-7.60113763809204,-5.63777494430542,-7.71795034408569,-41.8150520324707,-45.5140533447266,31.6360511779785,-13.2990007400513,13.6150503158569,-5.28728723526001,-4.23967504501343,-3.70053744316101,-18.295051574707,-37.7389526367188,-42.2980537414551,-7.2294750213623,-4.30801248550415,1.67131245136261,7.50791263580322,10.6892499923706,9.28015041351318,-3.50400018692017,-2.72595024108887,-4.10700035095215,-5.83305025100708,5.60295009613037,14.1799507141113,2.32512497901917,1.18717503547668,-2.21154999732971,-3.46305012702942,-2.30100011825562,-0.22095000743866,3.04699993133545,2.70709991455078,3.34922504425049,-1.46739995479584,-3.79445004463196,-4.52649974822998,0.0430500023067,0.49395000934601,1.02495002746582,9.66405010223389,8.53395080566406,9.8100004196167,SWING_RIGHT
2.48228740692139,2.69293737411499,2.96491241455078,-0.77400004863739,-0.36705002188683,-0.12495000660419,-0.21285000443459,-0.1055999994278,-0.04509999975562,-0.97460001707077,-0.78196251392365,-0.59606248140335,2.36100006103516,2.51700019836426,2.61705017089844,9.69300079345703,9.78900051116943,9.26700019836426,2.94882488250732,2.77846240997314,2.49383759498596,1.07295000553131,0.4200000166893,0.2710500061512,0.15482500195503,-0.01608750037849,-0.03189999982715,-0.61943751573563,-0.67292499542236,-0.75927501916885,2.43495011329651,3.00000023841858,3.46200013160706,10.5589504241943,9.11295032501221,8.27505016326904,-4.35407495498657,-6.01370000839233,-6.88091230392456,0.60900002717972,6.69495010375977,22.4809513092041,-1.25042498111725,-5.39989995956421,-6.42633724212646,-5.76908731460571,-7.70577478408813,-7.35927486419678,-13.3800010681152,-42.3060035705566,-46.7830505371094,30.0300006866455,-13.4350509643555,21.1039505004883,1.51511251926422,-1.65096247196198,-1.0922999382019,-43.7490005493164,-32.7640533447266,-26.4649505615234,0.64707499742508,4.34912490844727,4.69947481155396,12.437837600708,10.5973997116089,8.61135005950928,-3.58800005912781,-2.67300009727478,-1.90695011615753,16.3390502929688,3.64200019836426,4.32000017166138,-2.33172488212585,-2.9412624835968,-2.76471257209778,-0.75000005960464,0.16605000197887,-0.22095000743866,2.73460006713867,2.29130005836487,2.05576252937317,-4.10753726959229,-2.92668747901917,-2.11681246757507,1.24995005130768,1.85805010795593,1.93500006198883,8.56305027008057,9.97500038146973,10.2870006561279,SWING_RIGHT
1.71462500095367,1.24066245555878,0.99316251277924,-2.29395008087158,-2.44500017166138,-0.53700000047684,0.04124999791384,-0.03107500076294,-0.14808750152588,0.91327500343323,0.68048751354218,0.39737498760223,1.62795007228851,1.81995010375977,1.7410501241684,9.74295043945312,9.07695007324219,9.79095077514648,1.36730003356934,1.54770004749298,1.52762496471405,0.88005006313324,0.54195004701614,0.23100000619888,-0.1104125007987,0.28352499008179,1.17974996566772,-0.75721251964569,-1.86230003833771,-1.66622495651245,2.20500016212463,3.42195010185242,3.11505007743835,8.09805011749268,6.85305023193359,8.03400039672852,-11.4182748794556,-3.2548999786377,1.01199996471405,26.556001663208,45.5500526428223,10.1209506988525,-3.22643756866455,-4.94408750534058,-7.12855005264282,-6.20537519454956,0.43986248970032,7.09637498855591,-35.3430023193359,-4.59600019454956,0.78600001335144,55.2150039672851,-15.0610504150391,-4.10895013809204,-0.05706249922514,-1.31202495098114,-6.19011259078979,-19.6390514373779,-11.1990003585815,-1.72695004940033,5.62787485122681,3.05745005607605,-0.87064999341965,2.87237501144409,-0.15427500009537,-6.27549982070923,-0.90600001811981,0.20595000684261,0.59595000743866,9.07695007324219,9.70500087738037,10.2649507522583,7.26838731765747,7.2855749130249,6.6336874961853,0.80505001544952,-0.09405000507832,-2.31105017662048,0.14038750529289,0.06764999777079,0.04523750022054,-0.55632501840591,0.46681249141693,1.12804996967316,1.88895010948181,1.85595011711121,1.74795007705688,10.2600002288818,9.87195014953613,9.31005001068115,SWING_RIGHT
1.32866251468658,1.05187499523163,0.93981248140335,-3.93900012969971,-3.882000207901,-3.49605011940002,-0.12127500027418,-0.26922500133514,-0.44852501153946,0.27678748965263,0.25602498650551,0.33164998888969,1.5330001115799,1.75500011444092,1.89195013046265,9.02205085754394,8.91195011138916,9.08205032348633,1.97037494182587,2.04696249961853,2.0286750793457,-4.05194997787476,-4.54305028915405,-5.11005020141602,-0.58300000429153,-0.598812520504,-0.65051251649857,0.70936250686646,0.69959998130798,0.81372499465942,2.0590500831604,2.08800005912781,1.69500005245209,8.95500087738037,9.96105003356934,9.68805027008057,2.31550002098084,3.50501251220703,4.50133752822876,-0.09195000678301,-0.91005003452301,10.0590000152588,-2.30147504806519,-5.46974992752075,-6.15092515945435,-11.3804626464844,-10.25475025177,-7.67772483825684,-22.3420505523682,-44.9059524536133,-33.2790031433105,23.2560005187988,6.75705051422119,40.4790000915527,1.95525002479553,3.09746241569519,5.1473126411438,-31.1329517364502,-35.1940498352051,-35.6869506835938,-1.73346245288849,-7.54682493209839,-9.4499626159668,6.98568725585938,-1.80069994926453,-2.93741250038147,2.23695015907288,-1.18095004558563,-1.38705003261566,14.1390008926392,6.20895051956177,4.87305021286011,11.696849822998,11.3642377853394,14.8127374649048,1.65000009536743,4.28700017929077,4.37505006790161,-2.59847497940063,-2.03307509422302,-1.59940004348755,-6.98307514190674,-5.25607490539551,-3.83982491493225,1.73400008678436,2.23695015907288,2.57205009460449,9.61905002593994,10.6429500579834,10.3339500427246,SWING_RIGHT
0.65890002250671,1.19226253032684,1.40841245651245,-2.18204998970032,-1.27695000171661,-1.41795003414154,-0.46213749051094,-0.434087485075,-0.30786249041557,-0.25382500886917,-0.06613750010729,0.09556250274181,2.3730001449585,2.69400024414063,2.7199501991272,10.3249502182007,9.50100040435791,8.81595039367676,1.56433749198914,1.29923748970032,1.17534995079041,-2.58900022506714,-3.75705027580261,-4.30995035171509,-0.07150000333786,-0.22976249456406,-0.89869999885559,1.12103748321533,1.39823746681213,2.80472493171692,2.68395018577576,2.30805015563965,1.32900011539459,10.3390502929688,8.34195041656494,4.89495038986206,1.56296253204346,1.08583748340607,1.85666251182556,21.4320011138916,64.5169525146484,37.6680030822754,-6.2022123336792,-6.61691236495972,-6.0868501663208,-8.8427619934082,-3.42113757133484,3.82208752632141,-63.469051361084,-34.2709503173828,-3.79095029830933,32.9629516601563,31.6150512695313,18.5400009155273,7.47876262664795,11.3378372192383,14.3338251113892,-18.5040016174316,-9.75300025939941,-0.29700002074242,-4.26772499084473,-3.47118759155273,-0.93706250190735,-6.50801229476929,-9.54841232299805,-12.9933376312256,-2.25195002555847,-2.2300500869751,-0.2790000140667,10.1910009384155,6.85995054244995,7.80600023269653,18.7633876800537,12.4097871780396,7.550950050354,4.56704998016357,0.21900001168251,-0.28305000066757,0.61902499198914,0.31845000386238,0.23086249828339,1.07923746109009,2.48874998092651,2.3339250087738,2.1979501247406,2.42295002937317,2.72295022010803,9.36495018005371,9.75,9.74100017547607,SWING_RIGHT
3.01152491569519,2.79578757286072,2.31110000610352,-0.49395000934601,0.11100000888109,0.96300005912781,0.36739999055862,0.432712495327,0.43147498369217,-0.19359999895096,-0.08002500236034,0.00302499998361,1.98300004005432,2.08605003356934,2.26995015144348,9.84405040740967,9.55395030975342,8.87895011901855,1.3474999666214,1.23420000076294,1.1614625453949,1.1910001039505,1.28205001354218,0.83400005102158,0.30524998903275,0.30373749136925,0.43559998273849,-0.19580000638962,-0.15812499821186,0.08030000329018,2.43795013427734,2.60805010795593,3.47205018997192,9.02700042724609,9.12495040893555,7.64295053482056,1.65893745422363,1.29923748970032,1.65976250171661,3.09195017814636,12.4440002441406,54.1159515380859,-1.35203754901886,-3.76117491722107,-4.16171264648438,-6.05618762969971,-7.82196235656738,-4.88867473602295,-23.5870513916016,-43.1890525817871,-24.4660511016846,3.28305006027222,33.1519508361816,43.7250022888184,3.99011254310608,7.00823736190796,10.6643629074097,-30.5250015258789,-20.9670009613037,-16.0830001831055,-7.45442485809326,-6.20248746871948,-3.3072874546051,-0.92757499217987,-2.61648750305176,-4.95261240005493,-0.76005005836487,-1.04505002498627,-0.14699999988079,6.39600038528442,7.0420503616333,10.2820501327515,10.811487197876,13.3007869720459,14.0515375137329,4.00200033187866,4.65105009078979,2.84505009651184,0.38499999046326,0.67306250333786,0.51507496833801,-3.7725875377655,-2.53852510452271,-0.19634999334812,2.88105010986328,2.69400024414063,2.425950050354,9.96795082092285,9.94905090332031,9.76200008392334,SWING_RIGHT
0.84177500009537,0.74731248617172,0.73246252536774,-1.26195001602173,-1.23600006103516,-0.33600002527237,0.23141250014305,0.18026250600815,0.14313749969006,0.67416250705719,0.57695001363754,0.54285001754761,2.0830500125885,2.14995002746582,2.31600022315979,8.90295028686523,9.42900085449219,10.2750005722046,1.39026248455048,1.49118745326996,1.66484999656677,-0.81495004892349,0.61905002593994,2.07195019721985,-0.22866250574589,-0.15289999544621,-0.03286249935627,-0.85841250419617,-1.08212494850159,-1.03551244735718,2.08605003356934,2.15505003929138,2.64600014686584,9.60900020599365,10.2289505004883,10.2000007629395,1.12695002555847,0.77660000324249,-0.19428749382496,-3.1039502620697,0.7219500541687,27.7339515686035,-0.83214998245239,-2.70146250724792,-4.08911228179932,-4.07275009155273,-7.59907484054565,-8.54699993133545,-14.3430004119873,-32.9920501708984,-48.4450531005859,20.9599514007568,-8.52405071258545,1.09200000762939,3.23523759841919,4.06986236572266,4.85952520370483,6.34095048904419,-32.9910011291504,-47.3839530944824,-5.55774974822998,-2.77653741836548,-1.2167375087738,0.2924624979496,5.97574996948242,2.94827508926392,-4.89300012588501,-5.889000415802,-3.72405028343201,9.84105014801025,20.002950668335,14.3070011138916,15.6226119995117,13.0091495513916,9.61069965362549,-12.0319509506226,-1.14300000667572,4.75605010986328,-2.26806259155273,-1.60833752155304,-0.31391251087189,-7.0303750038147,-9.72620010375977,-8.59141254425049,0.01200000010431,1.11795008182526,1.90095007419586,10.3060503005981,8.03595066070557,9.39795017242432,SWING_RIGHT
0.94187498092651,0.89952498674393,0.88440001010895,-0.66405004262924,-0.63000005483627,-0.5059500336647,0.04441250115633,-0.00797499995679,-0.02268750034273,0.16321249306202,0.14822499454021,0.2714250087738,1.69305002689362,1.95405006408691,1.80300009250641,9.99405002593994,10.0450506210327,9.80805015563965,0.36011248826981,0.42542499303818,0.56072497367859,-1.87995004653931,-6.02895021438599,-6.91800022125244,0.07919999957085,-0.14973749220371,-0.52167499065399,2.16809988021851,2.63450002670288,3.28088736534119,2.13405013084412,1.68795013427734,0.95595002174377,8.62695026397705,7.65300035476685,6.96300029754639,3.19027495384216,4.42708730697632,3.56564998626709,-8.20800018310547,0.88395005464554,64.302001953125,-2.85367488861084,-0.63634997606277,-7.29850006103516,-8.64448738098145,-14.5066623687744,-3.48259997367859,-30.363000869751,-50.8129539489746,-7.48605012893677,-8.43795013427734,23.9790019989014,14.4649505615234,0.93774998188019,5.38518762588501,7.33809995651245,-31.7539520263672,-31.3920021057129,-21.6229515075684,-6.9030499458313,-9.96338748931885,-8.8364372253418,-3.74838757514954,-5.20121240615845,-5.12036228179932,-1.33695006370544,-2.2129499912262,-0.86100006103516,4.7989501953125,3.68100023269653,7.61505031585693,13.5676746368408,12.7005996704102,17.8358116149902,7.92405033111572,10.9159507751465,11.3740501403809,0.16692499816418,0.47382500767708,0.1717374920845,-10.1916370391846,-5.30021238327026,-2.98361253738403,1.36305010318756,3.05505013465881,3.10095024108887,9.175950050354,11.7880506515503,10.2960004806519,SWING_RIGHT
0.44591251015663,0.24695000052452,0.14946250617504,-1.35105001926422,-1.54995012283325,-1.73895013332367,0.21449999511242,0.21326249837875,0.17077499628067,1.03125,1.15073752403259,1.26802504062653,2.80395007133484,2.9520001411438,3.07695007324219,10.6270503997803,11.377950668335,10.8660001754761,0.72448748350143,1.29676246643066,1.63226246833801,-3.19005012512207,-4.28400039672852,-4.34100008010864,-0.65174996852875,-1.26073753833771,-1.67145001888275,2.28703737258911,3.37892508506775,3.99904990196228,2.59605002403259,1.63605010509491,0.02205000072718,7.20000028610229,1.67205011844635,0.70695000886917,4.40962505340576,3.91806244850159,2.97783756256104,13.7269506454468,59.2590026855469,44.4630012512207,-4.78403759002686,-4.13819980621338,-4.73481225967407,-9.43456268310547,-4.52938747406006,-2.02716255187988,-62.1880531311035,-19.2820510864258,-8.02395057678223,26.7229518890381,20.8000507354736,7.91895055770874,7.41303730010986,8.25041198730469,14.1615371704102,-30.8920516967773,-24.2590503692627,-8.33505058288574,-5.44802474975586,-3.33093738555908,-2.65416240692139,-1.72672498226166,-3.22561240196228,-9.69925022125244,-1.11705005168915,-0.89400005340576,0.27600002288818,7.15500020980835,10.2390003204346,11.2060508728027,16.127649307251,14.4611501693726,10.4083375930786,5.11305046081543,3.77400016784668,0.08895000070333,-0.51108747720718,-0.22577500343323,0.3951750099659,-1.20532500743866,-0.09143749624491,1.34268748760223,2.98605012893677,3.01905012130737,3.13005018234253,9.89595031738281,9.10905075073242,8.57205009460449,SWING_RIGHT
0.85772502422333,0.41786250472069,0.19855000078678,-1.49505007266998,-0.75705003738403,-1.42500007152557,0.06696250289679,0.14932499825954,0.05775000154972,0.54793751239777,1.16806244850159,1.3171124458313,3.69000005722046,3.05505013465881,0.48600003123283,11.2180509567261,11.0550003051758,8.14605045318604,-0.24255000054836,-0.46694999933243,-0.09844999760389,-3.550950050354,5.33505010604858,0.8770500421524,-0.5741999745369,0.00921249948442,0.3091000020504,-1.87769997119904,-1.99842500686646,-1.98151254653931,3.07500004768372,2.73900008201599,2.46195006370544,7.28400039672852,9.23100090026856,9.34995079040527,4.51660013198853,4.70634984970093,5.30089998245239,2.79705023765564,12.9199504852295,24.4150505065918,0.07535000145435,-0.92344999313354,-1.72672498226166,-3.79513740539551,-5.17495012283325,-6.25157499313354,-15.2500505447388,-31.3830013275146,-46.4599533081055,31.0350017547607,8.95995044708252,-9.48705005645752,5.70322513580322,5.64904975891113,5.25016260147095,4.29900026321411,-35.425952911377,-37.2250518798828,-7.05237483978271,-4.30196237564087,-6.77036237716675,5.40581226348877,5.19722509384155,-7.83090019226074,-4.88100004196167,-3.26505017280579,-2.9389500617981,21.0229511260986,13.1449508666992,4.51200008392334,16.8403129577637,14.0111122131348,11.6929998397827,-8.50305080413818,-0.80505001544952,5.09595012664795,-3.6403124332428,-1.96446251869202,-0.47891250252724,-5.87482500076294,-13.3185253143311,-15.3808870315552,-0.3870000243187,-0.88200002908707,-0.44895002245903,12.7099504470825,8.778000831604,9.68100070953369,SWING_RIGHT
3.83473753929138,4.81937503814697,5.50536251068115,-2.3970000743866,-0.62505000829697,0.88005006313324,-1.15802502632141,-0.83888751268387,-0.13062499463558,-0.57076251506805,-0.24832500517368,0.23787499964237,3.71895027160645,3.9100501537323,3.27300024032593,8.80905055999756,10.03005027771,9.03404998779297,4.24393749237061,3.93029999732971,2.82328748703003,1.14105010032654,-0.1710000038147,-0.04800000041723,0.79667496681213,0.83682501316071,0.79681247472763,-0.07273750007153,0.4475624859333,0.55632501840591,4.10205030441284,3.5269501209259,4.546950340271,7.18800020217896,6.74505043029785,4.13295030593872,-1.30941247940063,0.26743748784065,4.38391256332397,13.6030502319336,40.3350028991699,32.5510520935059,-5.89201259613037,-4.98024988174438,-5.61728763580322,-5.01104974746704,-1.54123747348785,1.59348750114441,-30.6840019226074,-6.79395055770874,-1.93095004558563,53.1829528808594,-0.56595003604889,10.8469505310059,17.0666370391846,18.1586627960205,13.831262588501,-10.8469505310059,-9.15405082702637,-2.05695009231567,-4.22949981689453,-3.09801244735718,-2.45272493362427,-8.44029998779297,-8.94712448120117,-9.18486213684082,-1.54095005989075,-0.24495001137257,0.92700004577637,6.73800039291382,8.43795013427734,10.0450506210327,10.8560371398926,10.7211503982544,9.84403705596924,2.07195019721985,0.41505002975464,-0.7140000462532,1.18992495536804,0.97886252403259,0.8122124671936,-4.21107482910156,-0.43518748879433,0.33989998698235,2.74695014953613,2.36295008659363,2.04495000839233,8.89995002746582,9.52305030822754,8.69204998016357,SWING_RIGHT
2.52271246910095,2.46922492980957,2.37916254997253,-3.12000012397766,-2.92905020713806,-2.61495018005371,-0.46406251192093,-0.46612501144409,-0.47836250066757,0.51397502422333,0.43559998273849,0.38348749279976,1.78200006484985,1.74795007705688,2.29395008087158,10.4850006103516,9.91995048522949,9.16394996643066,2.22007489204407,2.22378754615784,2.05108737945557,-2.51505017280579,-2.35905003547669,-1.76805007457733,0.05169999971986,0.40590000152588,0.44316250085831,0.13736249506474,0.37001249194145,0.31831249594688,3.32100009918213,3.38595008850098,3.24495005607605,8.96295070648193,9.25500011444092,9.43200016021728,1.19927501678467,1.26610004901886,3.05552506446838,-3.28095006942749,-0.63495004177094,34.6369514465332,-1.51635003089905,-4.64543724060059,-5.10991239547729,-5.54056262969971,-9.00240039825439,-7.71402502059937,-14.7979507446289,-50.9730033874512,-42.8779525756836,29.3590507507324,3.57105016708374,25.3920021057129,5.3663501739502,5.62993764877319,7.43737506866455,-33.9109497070313,-43.243953704834,-30.2160015106201,-6.37064981460571,-4.43533754348755,-6.84131240844727,3.79554986953735,-1.73758745193481,-5.43564987182617,-3.79395008087158,-1.51200008392334,-0.2569500207901,18.7290000915527,12.8340005874634,5.5770001411438,13.4589128494263,11.5644378662109,9.99405002593994,-4.16205024719238,0.19695000350475,4.2960000038147,-1.91620004177094,-1.34887504577637,-0.75638747215271,-6.77104997634888,-11.4830369949341,-10.428412437439,-2.14904999732971,-0.56894999742508,0.66105002164841,12.3820505142212,10.6840505599976,9.83595085144043,SWING_RIGHT
3.02830004692078,2.31783747673035,2.01134991645813,-0.52995002269745,-0.40305000543594,-0.4120500087738,0.22041249275208,0.23471249639988,0.28132501244545,-0.38499999046326,-0.20913749933243,-0.14753749966621,3.48405027389526,3.73995018005371,3.96000027656555,9.59700012207031,8.81895065307617,8.67300033569336,0.63634997606277,0.49293750524521,0.35804998874664,-0.68295001983643,-0.68295001983643,-0.68505001068115,0.58643752336502,0.76367497444153,0.83819997310638,0.12182500213385,-0.07122500240803,-0.598812520504,4.389000415802,4.09905004501343,3.90795016288757,7.44195032119751,7.19295024871826,6.89595031738281,-0.57090002298355,2.21182489395142,4.30938768386841,24.8800506591797,36.6210021972656,18.2239513397217,0.02791249938309,5.35493755340576,6.07571268081665,-5.36387491226196,-7.03477478027344,-10.5876379013062,-18.375,-10.8450002670288,-7.73895025253296,25.5210018157959,-5.8759503364563,-3.03705024719238,17.4361000061035,15.3245124816895,12.7610998153687,-26.3659515380859,-14.532000541687,-9.14895057678223,2.13936257362366,2.71521258354187,3.15906238555908,-1.79753744602203,-4.06230020523071,-6.77283763885498,-1.27500009536743,-0.69300001859665,0.20100000500679,10.2340507507324,10.1209506988525,9.16800022125244,2.53714990615845,3.38703751564026,4.00743770599365,1.14105010032654,-0.07200000435114,-0.66600000858307,2.74037504196167,1.82270002365112,1.3611124753952,-4.11798763275146,-0.34869998693466,0.77536249160767,1.71495008468628,1.92495012283325,1.675950050354,9.17100048065186,10.6270503997803,9.27600002288818,SWING_RIGHT
1.45309996604919,1.56805002689362,1.69729995727539,-2.88300013542175,-2.65095019340515,-2.6010000705719,-0.35172501206398,-0.34196248650551,-0.14753749966621,0.19332499802113,0.04042499884963,-0.20074999332428,3.07500004768372,3.15795016288757,3.60405015945435,9.7140007019043,9.26205062866211,9.17100048065186,1.73634994029999,1.64394998550415,1.54522502422333,-1.89000010490417,-2.46405005455017,-3.28800010681152,0.38362500071526,0.31941249966621,0.25093749165535,0.34416249394417,0.62466251850128,1.03523755073547,3.66405010223389,3.58005023002625,3.39795017242432,8.30595016479492,7.52805042266846,8.85705089569092,1.09216248989105,1.26829993724823,2.23643755912781,-2.34195017814636,0.76695001125336,37.8949508666992,-4.2127251625061,-5.87991237640381,-3.40669989585876,-9.34010028839111,-9.16946220397949,-5.81308746337891,-31.8880519866943,-42.763053894043,-33.1600532531738,-1.49505007266998,6.51600027084351,23.0580005645752,9.171799659729,8.36783790588379,-10.4708995819092,-31.488000869751,-24.5200519561768,-17.5150508880615,7.96083736419678,9.94578742980957,8.33566284179688,14.8548126220703,12.0318002700806,8.38653755187988,-1.89705014228821,-0.33900001645088,-0.34095001220703,3.14400005340576,1.84200012683868,5.96700048446655,-7.33356237411499,-6.15532493591309,-5.48556232452393,1.14105010032654,1.56705009937286,1.66005003452301,1.52240002155304,0.60211247205734,0.55220001935959,-5.36208724975586,-3.95408749580383,-3.48713755607605,0.08400000631809,0.87900006771088,1.06605005264282,8.79300022125244,9.97095012664795,10.1070003509521,SWING_RIGHT
1.78626251220703,1.84360003471375,1.93503749370575,-3.82200026512146,-3.37395024299622,-2.52705001831055,-0.33989998698235,-0.33467498421669,-0.36904999613762,0.50503748655319,0.32642498612404,0.12677499651909,1.932000041008,2.25300002098084,2.12595009803772,11.0190000534058,12.0060005187988,10.1740503311157,1.48197495937347,1.3639999628067,1.39328753948212,-2.30400013923645,-0.96795004606247,-0.40305000543594,-0.41126251220703,-0.3272500038147,0.04647500067949,-0.92138749361038,-0.93403750658035,-0.80327498912811,2.04000020027161,2.89995002746582,4.35300016403198,9.3120002746582,7.50705051422119,6.53895044326782,2.32993745803833,2.70091247558594,8.30348777770996,4.4040002822876,20.8450508117676,47.6110534667969,1.4522750377655,-1.16311252117157,14.7736873626709,-6.83484983444214,-4.5115122795105,-14.3158121109009,-48.7249526977539,-21.7390518188477,-3.19005012512207,37.2940521240234,18.1489505767822,3.97305011749268,18.9953498840332,16.6359882354736,11.5153503417969,-17.814001083374,-14.2390508651733,-6.14400005340576,5.43743753433228,4.90696239471436,4.37868738174438,3.55588746070862,0.48551249504089,-4.55908727645874,-1.14105010032654,0.32805001735687,0.82395005226135,6.86505031585693,10.3920001983643,8.54100036621094,3.78839993476868,4.18412494659424,4.35957479476929,2.32095003128052,1.44000005722046,-0.12300000339746,2.19986248016357,1.57836246490479,1.29470002651215,-1.8631249666214,0.07782500237226,0.62919998168945,1.98795008659363,2.31105017662048,2.12895011901855,9.82200050354004,8.72294998168945,9.02700042724609,SWING_RIGHT
1.26788747310638,1.24753749370575,1.20642495155334,-1.30305004119873,-1.54695010185242,-2.92605018615723,0.16843749582767,0.2606999874115,0.40191251039505,0.01553750038147,-0.11384999752045,-0.64198750257492,2.05695009231567,1.93500006198883,2.61495018005371,9.2790002822876,9.14205074310303,8.50305080413818,1.22223746776581,1.21591246128082,1.19322502613068,-0.66405004262924,-0.07995000481606,0.65400004386902,0.42611250281334,0.45003750920296,0.42129999399185,-1.02396249771118,-0.79433751106262,-0.59358751773834,2.81805014610291,3.09405016899109,3.44295024871826,9.30495071411133,9.35295009613037,9.08505058288574,0.56361252069473,-0.73988747596741,-1.47839999198914,-2.89005017280579,2.49600005149841,27.0130519866943,-2.97247505187988,-6.67837476730347,-7.58903741836548,-10.3388996124268,-8.08362483978271,-5.50233745574951,-30.7200012207031,-51.4830017089844,-35.1280517578125,3.22305011749268,1.75800013542175,12.6810007095337,3.63371253013611,2.81517505645752,-3.65213751792908,-43.9570503234863,-24.7669506072998,-16.9759502410889,8.80728721618652,6.64510011672974,4.55977487564087,10.579662322998,7.06832504272461,3.85151243209839,-2.61795020103455,-2.16795015335083,-1.6560001373291,5.99400043487549,9.19005012512207,9.42000007629394,-3.36929988861084,-1.60490000247955,0.50888746976852,4.88505029678345,2.72595024108887,-0.30000001192093,2.26132488250732,2.16067504882813,1.8825124502182,-2.14431238174438,-0.51493752002716,0.69987499713898,1.65000009536743,1.74795007705688,1.52295005321503,9.62295055389404,9.9660005569458,9.23295021057129,SWING_RIGHT
2.12231254577637,2.36472487449646,2.62061238288879,1.26000010967255,1.11195003986359,3.01005005836487,0.4493499994278,0.6737499833107,0.8564875125885,-1.94081246852875,-1.62648749351501,-1.14069998264313,2.10705018043518,2.43795013427734,2.99295020103455,9.20700073242188,10.9500007629395,9.5440502166748,1.7331874370575,0.83118748664856,-0.38018751144409,1.36095011234283,-0.20205001533031,-2.10000014305115,1.54659998416901,1.88828754425049,1.98701250553131,0.83036249876022,1.25413751602173,1.74583745002747,5.12895011901855,5.92605018615723,6.09900045394897,7.56705045700073,7.66500043869019,6.76500034332275,-2.19408750534058,-2.2074248790741,-2.22199988365173,-4.0489501953125,4.18395042419434,14.7019510269165,-4.70029973983765,-6.73145008087158,-6.87197494506836,-8.70058727264404,-8.44332504272461,-6.0405125617981,-26.0770511627197,-45.528003692627,-47.5830039978027,30.8269519805908,2.85705018043518,14.2060508728027,4.78953742980957,5.66238737106323,3.95642495155334,-43.0309524536133,-39.7410011291504,-39.6070518493652,4.5916748046875,10.2272500991821,9.82643699645996,16.6244373321533,12.2165994644165,9.89945030212402,-1.74405002593994,-2.30400013923645,-2.3860502243042,4.12395000457764,7.31805038452148,6.20895051956177,-6.00751256942749,-3.52481245994568,-0.25437501072884,5.96295022964478,7.68600034713745,6.21405029296875,1.14138746261597,1.49173748493195,2.02729988098145,-8.30004978179932,-6.45260000228882,-4.42282485961914,1.71495008468628,2.0350501537323,2.53605008125305,9.40500068664551,9.40305042266846,10.300950050354,SWING_RIGHT
1.10481250286102,1.16600000858307,1.26926255226135,2.52195000648499,-0.11505000293255,-0.30195000767708,-0.2058375030756,0.55783748626709,0.67333751916885,-1.73346245288849,-0.38334998488426,-0.14863750338554,2.47605013847351,2.82105016708374,3.04605007171631,10.4490003585815,10.0930500030518,9.67605018615723,2.65925002098084,1.40841245651245,0.37482500076294,-0.96105003356934,-0.98895007371902,-2.30100011825562,1.34117496013641,1.30982494354248,1.13987493515015,0.49390000104904,1.05022501945496,0.62273746728897,3.04305005073547,1.70295011997223,2.44005012512207,6.70500040054321,9.56595039367676,9.88905048370361,-2.69692492485046,-2.60452508926392,-6.09152507781982,8.29200077056885,46.9890022277832,44.0340003967285,-9.22171211242676,-7.53719997406006,-6.51488733291626,-6.14253759384155,-0.28998750448227,2.46193742752075,-51.2149505615234,-8.84805011749268,-5.47695016860962,21.6070518493652,13.3249502182007,1.96605014801025,2.85669994354248,2.26283740997314,2.21924996376038,-19.045051574707,-12.5710506439209,-9.42405033111572,3.22657489776611,2.93273758888245,2.72029995918274,4.05226230621338,2.12313747406006,-1.2783374786377,-0.85605001449585,-0.32205000519753,0.44295001029968,4.71000003814697,7.96905040740967,8.96700000762939,-2.67231249809265,-2.51088738441467,-0.86432498693466,3.84600019454956,2.94300007820129,0.34605002403259,2.39923739433289,2.17538738250732,1.56749999523163,-1.60902500152588,-0.04289999976754,1.00842499732971,2.40405011177063,2.38695001602173,2.26500010490417,9.68100070953369,9.73800086975098,10.2750005722046,SWING_RIGHT
0.98642498254776,1.10673749446869,1.1672375202179,-2.46705007553101,-2.33295011520386,-2.65605020523071,-0.10917499661446,0.00054999999702,0.14794999361038,0.21257500350475,0.2073500007391,0.24213749170303,2.18400001525879,2.24400019645691,2.75100016593933,9.91305065155029,10.1449508666992,8.55300045013428,1.3136750459671,1.30789995193481,1.20793747901917,-3.08205008506775,-4.0090503692627,-3.3139500617981,0.25396248698235,0.2389750033617,0.24626250565052,0.94847500324249,0.73713749647141,0.73479998111725,2.66295003890991,2.64795017242432,2.27700018882751,7.86600017547607,8.778000831604,10.1689500808716,0.57639998197556,0.17462499439716,-0.04303750023246,-1.81095004081726,4.56195020675659,29.8549518585205,-5.23627519607544,-7.7361626625061,-5.53808736801147,-10.9727745056152,-6.85176229476929,-1.80991244316101,-11.017050743103,-39.0420036315918,-19.8330001831055,21.6619510650635,26.203950881958,14.0500507354736,-0.69973748922348,3.21873736381531,4.92030000686646,-30.6499519348145,-27.5010013580322,-14.2320003509521,1.33718752861023,2.76636242866516,2.63697504997253,8.47481250762939,4.7011251449585,-1.03853750228882,-1.79895007610321,-1.41105008125305,-0.05895000323653,7.19595050811768,8.11500072479248,11.0790004730225,-1.28548753261566,-3.34963750839233,-1.87591254711151,5.49600028991699,2.24895000457764,1.22400009632111,2.96339988708496,2.90606260299683,2.73528742790222,-2.64811253547669,0.55137497186661,1.20573747158051,3.07005023956299,2.90205025672913,2.50905013084412,8.91000080108643,8.44500064849854,8.09295082092285,SWING_RIGHT
0.72434997558594,0.48936250805855,0.45223748683929,-1.3050000667572,-3.9060001373291,-5.06700038909912,0.07933750003576,0.20116250216961,0.28325000405312,0.60582500696182,1.21233749389648,2.32416248321533,2.02095007896423,2.425950050354,2.73195004463196,10.3630504608154,9.50595092773438,8.87895011901855,0.95424997806549,0.862399995327,0.69574999809265,-7.60500049591064,-7.33395051956177,-6.44100046157837,0.26496249437332,0.24928750097752,0.24172499775887,1.60049998760223,1.13918745517731,0.76532500982285,2.91195011138916,3.27105021476746,2.43795013427734,7.07100009918213,6.53895044326782,5.06505012512207,0.62314999103546,0.78471249341965,5.15735006332397,-2.67495012283325,4.42799997329712,26.6160011291504,4.97378730773926,11.2463998794556,9.44075012207031,11.8329753875732,8.90999984741211,5.09602499008179,-6.29805040359497,-44.7720031738281,-26.8150520324707,20.9719505310059,6.04905033111572,29.9410514831543,16.4348239898682,16.4495372772217,13.4959001541138,-33.154052734375,-26.1199512481689,-17.239049911499,1.69207501411438,3.07504987716675,3.34358739852905,8.04663753509521,6.15807485580444,4.41650009155273,-0.29595002532005,-1.3950001001358,-1.24095010757446,5.96205043792725,4.57395029067993,6.87495040893555,2.9053750038147,-0.87738752365112,-1.49861252307892,1.10699999332428,2.07705020904541,1.44495010375977,2.3813624382019,1.90588748455048,1.94837498664856,-4.26346254348755,-2.82644987106323,-1.70362496376038,0.78300005197525,1.49700009822845,1.59195005893707,9.82005023956299,10.0780506134033,10.0180501937866,SWING_RIGHT
1.28122496604919,1.37115001678467,1.45640003681183,-3.89805006980896,-3.27105021476746,-4.06605005264282,0.12347500026226,0.29631251096725,0.3573625087738,0.15056249499321,0.3227125108242,0.37111249566078,2.89695024490356,3.30000019073486,3.57300019264221,9.16394996643066,8.31405067443848,7.81095027923584,1.97972500324249,2.40308737754822,2.1984875202179,-2.84295010566711,-2.79900002479553,-2.71605014801025,1.2002375125885,1.3278374671936,1.32976245880127,0.55316251516342,0.57090002298355,0.52291250228882,4.84200000762939,4.68600034713745,4.93995046615601,6.33405017852783,5.99100017547607,5.92695045471191,0.61283749341965,0.57571250200272,1.08322501182556,-2.12400007247925,-1.9690500497818,1.48995006084442,0.63964998722076,-12.2128877639771,-13.5249128341675,-1.86147499084473,-11.011549949646,-7.58587503433228,-9.17100048065186,-35.8909530639648,-48.4609527587891,34.2940521240234,-10.0090503692627,7.76805019378662,-4.44358730316162,-2.40350008010864,2.20673751831055,-40.1290512084961,-38.8789520263672,-29.9440517425537,1.19226253032684,2.65127491950989,3.58476257324219,8.11126232147217,7.94062519073486,5.98702478408813,-1.17195010185242,-0.93705004453659,-0.94005006551743,8.37795066833496,4.55205011367798,6.88395023345947,0.57447499036789,-0.55054998397827,-4.41031265258789,3.69495010375977,5.83995008468628,4.53105020523071,2.40171241760254,2.4554750919342,3.002037525177,-7.14051246643066,-4.984375,-2.28854990005493,2.45895004272461,2.74695014953613,3.07200002670288,9.70005035400391,9.58995056152344,8.59395027160645,SWING_RIGHT
1.13849997520447,1.23461246490479,1.43591248989105,-3.23805022239685,-2.31600022315979,-2.71800017356873,-0.07108750194311,0.16761249303818,0.2404875010252,-0.17820000648499,0.18590000271797,0.47437500953674,2.50905013084412,2.86605024337769,2.84895014762878,10.0999507904053,9.02700042724609,7.95705032348633,1.87976253032684,1.65343749523163,1.47235000133514,-4.44705009460449,-2.40900015830994,-2.51205015182495,0.35241249203682,0.33715000748634,0.35653749108315,0.37578749656677,-1.25661253929138,-1.65164995193481,3.36705017089844,3.3360002040863,3.41895008087158,8.73705005645752,8.66295051574707,8.18895053863525,0.28104999661446,0.94146251678467,2.32141256332397,2.30895018577576,2.98605012893677,7.30305051803589,2.48476243019104,-18.4383373260498,-15.0261373519897,-4.24146270751953,-7.14738750457764,-4.36493730545044,-7.59105014801025,-55.9440040588379,-52.5820541381836,23.9509506225586,2.07195019721985,33.8730010986328,-1.18181252479553,1.214674949646,1.77966248989105,-27.6160507202148,-30.8920516967773,-29.263952255249,2.82466244697571,3.53801250457764,3.83185005187988,10.2865123748779,9.10373783111572,5.58978748321533,-2.01900005340576,-2.33595013618469,-1.1290500164032,5.57205009460449,4.27395009994507,7.50195026397705,-0.48276248574257,-1.5497624874115,-3.16167497634888,2.8050000667572,4.81800031661987,4.00200033187866,2.49026250839233,2.27589988708496,2.00804996490479,-6.38027477264404,-5.65372514724731,-4.67843770980835,0.97500002384186,1.64505004882813,2.13795018196106,10.4010000228882,9.53505039215088,9.06300067901611,SWING_RIGHT
1.37004995346069,1.52446246147156,1.06053745746613,-8.06895065307617,-9.14700031280518,-10.0489501953125,-1.33856248855591,-1.22017502784729,-1.69784998893738,0.32793748378754,1.12199997901917,1.33443748950958,1.84395003318787,4.68795013427734,5.72505044937134,7.94505023956299,4.72005033493042,3.34995007514954,5.580162525177,8.43961238861084,10.1953496932983,7.96200037002563,2.67495012283325,-8.76405048370361,5.46535015106201,4.35696268081665,0.27252501249313,6.090012550354,4.07714986801147,1.22526252269745,1.96095013618469,2.76600003242493,6.01995038986206,0.09600000083447,2.53395009040833,-3.38895010948181,-3.04713749885559,-2.83428740501404,-1.57822501659393,-28.560001373291,-59.1679534912109,-32.1079521179199,-15.4171876907349,-13.7938623428345,-10.0728378295898,-0.88591247797012,-2.90138745307922,-2.25830006599426,-60.471004486084,-19.1029510498047,-6.48705053329468,-24.6739521026611,-22.5880508422852,-20.9599514007568,-11.8376502990723,-9.95252513885498,-5.31602478027344,13.1260509490967,4.39005041122437,-8.23200035095215,-8.09710025787354,-7.18671226501465,-3.13004994392395,0.16596250236034,-4.9366626739502,-7.72323751449585,1.07805001735687,2.42295002937317,2.13795018196106,-2.00505018234253,-2.9479501247406,-7.22700023651123,6.62846231460571,-3.53608751296997,-4.1027250289917,2.45295000076294,2.57895016670227,3.48495006561279,-1.93421244621277,-1.08473753929138,-0.86432498693466,4.79407501220703,1.77347493171692,0.51383751630783,1.03905010223389,1.44900012016296,2.24100017547607,-10.91100025177,-9.43395042419434,-10.4329500198364,SWING_RIGHT
0.85978752374649,0.63607501983643,0.40686249732971,-5.79495048522949,-6.73800039291382,-6.73800039291382,-0.51906251907349,-1.87192499637604,-1.97381246089935,0.62191247940063,0.44742500782013,0.65917497873306,4.2960000038147,4.37505006790161,4.34100008010864,-3.73800015449524,-6.51600027084351,-7.03800010681152,-0.37358748912811,1.38668751716614,2.09384989738464,-5.08395004272461,-4.81305027008057,-5.68695020675659,4.9091625213623,6.36226224899292,7.15275001525879,-2.69665002822876,-4.55551242828369,-5.80758762359619,4.59705018997192,4.80300045013428,5.94795036315918,-4.71495008468628,-4.76295042037964,-2.55495023727417,7.60498762130737,0.72723752260208,-1.87178754806519,-23.1840019226074,-49.9480514526367,-24.6760520935059,5.30420017242432,2.55268740653992,1.77842497825623,-3.65131258964539,3.65268754959106,8.32768726348877,-39.117000579834,-9.77505016326904,-11.998950958252,-52.4569511413574,-21.0540008544922,-18.681001663208,-6.81958723068237,-5.1357626914978,-4.57668733596802,3.87000012397766,5.95500040054321,1.21200001239777,-3.24527502059937,-4.06230020523071,-3.14641237258911,1.03894996643066,-3.67427492141724,-5.98853731155396,0.21795001626015,3.7110002040863,5.1670503616333,-4.80600023269653,-1.74900007247925,-2.44305014610291,8.49419975280762,-3.94776248931885,-2.3231999874115,2.16300010681152,0.70695000886917,1.50000011920929,-0.79145002365112,0.04166249930859,0.01471249945462,3.30357503890991,-0.24241249263287,-0.2788499891758,2.76300024986267,1.43205010890961,1.31205010414124,8.94795036315918,9.33405017852783,9.54195022583008,SWING_RIGHT
-1.41473746299744,-0.84452497959137,0.51081252098083,-4.94205045700073,-3.39300012588501,-2.12205004692078,-0.9013124704361,-2.11048746109009,-2.30711245536804,-0.71692502498627,-0.42996248602867,0.52346247434616,2.80605006217957,1.94700014591217,0.81195002794266,4.00395011901855,2.11199998855591,3.72900009155273,8.2321252822876,7.0882625579834,5.8139123916626,-6.38100051879883,-5.10000038146973,-3.02895021438599,0.30648750066757,4.04318761825562,4.90462493896484,-0.69396251440048,-0.8095999956131,-0.60926252603531,-0.87300002574921,-0.61605000495911,0.76905006170273,8.08395004272461,7.50405025482178,5.60805034637451,-8.54150009155273,-2.79124999046326,-2.78217506408691,-7.96905040740967,2.65800023078919,30.3600006103516,-1.62964999675751,-3.94363737106323,-6.9048376083374,-5.81336259841919,-10.6288871765137,-3.80297493934631,-49.4119529724121,-68.4900054931641,-17.8669509887695,35.2690505981445,-24.2070007324219,23.275951385498,-3.45441246032715,3.30467486381531,9.72922515869141,-37.8810005187988,-30.8989505767822,-29.2540512084961,-10.4953746795654,-7.85056257247925,-7.85619974136353,-13.6789121627808,-6.82907485961914,-11.2755498886108,-6.19800043106079,-2.3449501991272,-4.69905042648315,3.72105026245117,6.42705011367798,13.1290502548218,7.43751239776611,7.98764991760254,8.17038726806641,7.50705051422119,5.83305025100708,2.32095003128052,-2.00323748588562,-1.4473249912262,-1.16764998435974,-13.6217126846313,-11.2466745376587,-9.17413711547852,-1.60005009174347,-1.72500002384186,-1.27995002269745,10.3489503860474,11.0809507369995,9.69495010375977,SWING_RIGHT
10.9971122741699,9.60684967041016,7.41798734664917,-0.19005000591278,-0.3529500067234,-0.36000001430511,0.25822499394417,0.27500000596046,0.21903750300407,-0.2374625056982,-0.03533750027418,-0.00989999994636,0.18000000715256,-0.11805000901222,-0.85095006227493,9.10095024108887,9.51300048828125,9.58305072784424,4.10836267471313,3.69022488594055,3.31911253929138,1.90905010700226,2.00999999046326,1.72695004940033,-0.63552498817444,-0.8234875202179,-0.72820001840591,-1.35959994792938,-1.08858752250671,-0.76340001821518,-2.1889500617981,-1.62900006771088,-1.00394999980927,9.58005046844482,9.09705066680908,8.59095001220703,3.16593742370605,3.45895004272461,3.85178756713867,-2.1889500617981,-3.49905014038086,-2.08095002174377,-0.60857498645782,-3.98887491226196,-6.24634981155396,-1.6076500415802,-5.03525018692017,-4.35311269760132,-25.2030010223389,-60.8539543151855,-44.1160507202149,50.9629516601563,-16.5019512176514,-15.5440511703491,-1.11828744411469,4.92772483825684,11.7801752090454,-30.2860507965088,-32.0239524841309,-12.6259508132935,-2.15847492218018,0.12017499655485,1.64257502555847,0.91987496614456,-0.58410000801086,-4.05638742446899,-4.19805002212524,-3.1470000743866,-2.90100002288818,4.61700010299683,12.1330509185791,12.3960008621216,1.75230002403259,-1.08239996433258,-10.3921127319336,-1.75800013542175,-0.89805006980896,-2.08395004272461,5.44747495651245,4.51935005187988,1.76233744621277,0.42322498559952,0.1868624985218,-0.90034997463226,-1.15500009059906,-0.81795001029968,-0.40800002217293,9.32595062255859,9.29505062103272,7.96200037002563,SWING_RIGHT
2.43966245651245,2.55461239814758,2.68386244773865,-1.300950050354,-1.09200000762939,-1.32495009899139,-0.75473749637604,-0.80822497606277,-0.81551247835159,-0.17531250417233,0.0331375002861,0.26207500696182,1.96605014801025,2.41605019569397,2.99295020103455,9.17805004119873,8.9170503616333,8.46195030212402,4.49693727493286,5.1415376663208,5.63846254348755,-2.72295022010803,-3.26895022392273,-1.69095003604889,-1.05270004272461,-1.22704994678497,-1.33663749694824,1.4748250246048,1.32178747653961,-0.02846249938011,-0.19695000350475,-1.04700005054474,-0.76695001125336,8.05995082855225,9.7069501876831,9.68595027923584,-18.0914249420166,-16.337474822998,-12.3527250289917,4.13100004196167,1.45905005931854,1.93305003643036,-2.76388740539551,-3.80984997749329,-6.62076234817505,-4.80562496185303,-6.2022123336792,-6.79208755493164,-24.1639518737793,-51.6319541931152,-49.855052947998,37.7470512390137,3.89400029182434,3.48405027389526,1.35643744468689,1.6825875043869,5.98963737487793,-34.6630516052246,-31.0140018463135,-63.2070045471191,-7.32228755950928,-9.04034996032715,-6.0054497718811,-3.78647494316101,-6.69955015182495,-7.13171243667603,-5.47905015945435,-12.7789506912231,-6.13005018234253,7.32000017166138,8.40900039672852,15.6520509719849,4.26992511749268,1.25702500343323,1.83452498912811,0.8440500497818,-1.95705008506775,-2.98095011711121,3.54131245613098,0.83586251735687,-0.80437499284744,-9.31012535095215,-5.67682504653931,-2.0208375453949,0.45795002579689,0.18900001049042,-0.10905000567436,7.38000011444092,7.72005033493042,7.92105054855347,SWING_RIGHT
0.25451248884201,0.32188749313354,0.35791251063347,-1.83495008945465,-2.38500022888184,-2.76600003242493,-0.64721250534058,-0.62150001525879,-0.46502500772476,-0.02144999988377,0.04386249929667,0.02158750034869,-0.90405005216599,-0.52305001020432,-0.28395000100136,8.41200065612793,8.14395046234131,7.93995046615601,0.2773374915123,0.08195000141859,0.18521249294281,-1.40100002288818,0.76500004529953,-0.79995006322861,-0.68956249952316,-0.89457499980927,-1.03400003910065,-1.16421246528625,-0.86680001020432,0.02914999984205,-2.0310001373291,-1.99995005130768,-1.99605011940002,8.87400054931641,8.52705001831055,9.25005054473877,0.69107496738434,-0.50050002336502,-0.20239999890327,-4.38195037841797,-2.67705011367798,48.5640029907227,-3.78784990310669,-5.08653736114502,-2.01616239547729,-6.55407476425171,-7.41633749008179,-10.3696994781494,-78.4000549316406,-68.1880569458008,-22.8469505310059,-19.6939506530762,-4.53495025634766,-13.9309511184692,8.30830001831055,6.18461227416992,8.37127494812012,-51.4470024108887,-36.5400009155273,-4.06605005264282,-0.73576247692108,-2.57537508010864,-2.46647500991821,6.76940011978149,-2.91417503356934,-10.4296503067017,-7.79700040817261,-2.27805018424988,-2.52705001831055,9.25005054473877,13.123950958252,15.1230010986328,4.22977495193481,6.81518745422363,5.8678126335144,-0.64500004053116,-2.96895003318787,-3.03195023536682,-0.85497498512268,-0.93018752336502,-0.86954998970032,-3.68568754196167,-0.97762501239777,-0.5490375161171,-0.89895004034042,-1.60005009174347,-2.47695016860962,7.61205053329468,8.12895011901855,8.77305030822754,SWING_RIGHT
-0.48317500948906,-0.18562500178814,-0.13213749229908,-0.36000001430511,-0.88200002908707,-0.66105002164841,0.08332499861717,0.27114999294281,0.29892501235008,-0.15908749401569,-0.10807500034571,-0.08332499861717,-0.11400000751019,0.29700002074242,0.2710500061512,9.05805015563965,10.3219509124756,10.3320007324219,-0.05499999970198,-0.29479998350143,-0.30662500858307,-0.32400000095367,-1.58295011520386,-2.94300007820129,0.60252499580383,0.06173750013113,-1.10605001449585,0.29851248860359,0.38678750395775,0.23608750104904,-1.73895013332367,-2.35005021095276,-2.95095014572144,12.8629503250122,12.2400007247925,11.2729501724243,-1.09147500991821,-0.82183748483658,0.1190750002861,0.08700000494719,-1.37700009346008,8.66295051574707,-1.30088746547699,-2.09123754501343,1.19047498703003,-5.06701231002808,-6.43857479095459,-11.2175245285034,-42.0880508422851,-59.1540031433105,-18.1260013580322,27.0130519866943,-14.4690008163452,17.4930000305176,10.517237663269,12.9870128631592,4.43739986419678,-26.3350505828857,-28.3609504699707,-21.5470504760742,1.43123745918274,1.11292505264282,0.60513746738434,11.6406126022339,9.68962478637695,7.09486246109009,-3.68595027923584,-3.77505016326904,-2.37105011940002,6.24495029449463,2.40000009536743,5.83800029754639,2.72359991073608,2.81434988975525,4.04552507400513,-3.4459502696991,-1.3819500207901,1.5619500875473,-1.56818747520447,-1.77154994010925,-2.00488758087158,-7.17502498626709,-6.38989973068237,-5.70391225814819,-2.40495014190674,-1.90695011615753,-1.40895009040833,10.4760007858276,10.6290006637573,10.4710502624512,SWING_RIGHT
0.07617499679327,0.08332499861717,0.01801249943674,-1.83900010585785,-2.11005020141602,-3.42000007629395,-0.05321250110865,-0.04867500066757,-0.04455000162125,0.4130499958992,0.56980001926422,0.6239749789238,-0.16395001113415,-0.02295000106096,0.1489500105381,10.9999504089355,10.5040502548218,10.0090503692627,0.44151249527931,0.73837500810623,1.03386247158051,-2.74695014953613,-2.53605008125305,-3.30900025367737,0.52827501296997,1.51304996013641,4.37016248703003,0.39558750391006,0.35502499341965,-0.342375010252,0.41400003433228,-0.37200000882149,0.0409500002861,8.22705078125,8.27295017242432,8.6419506072998,-10.1505250930786,-6.86784982681274,0.33082500100136,-3.09195017814636,-3.52995014190674,33.4660530090332,1.41844999790192,-8.69343757629395,-10.7111120223999,-8.68848705291748,-5.99211263656616,-0.80767500400543,-50.077953338623,-61.9770011901855,-30.1039505004883,9.99705028533936,-23.5290012359619,25.267951965332,-4.89060020446777,0.35626250505447,2.10911250114441,-27.7290019989014,-35.3230514526367,-24.8149509429932,1.24286246299744,2.32154989242554,-0.98890000581741,10.3349123001099,7.75073766708374,3.96316242218018,-4.10700035095215,-4.57395029067993,-2.51295018196106,10.4059505462646,4.02795028686523,4.81305027008057,4.64337491989136,4.53310012817383,9.39042472839356,4.24095010757446,3.89400029182434,1.7370001077652,-1.52569997310638,-1.43879997730255,-1.3914999961853,-10.5445995330811,-8.95496273040771,-5.50192499160767,-2.81400012969971,-2.34300017356873,-1.00005006790161,9.85995006561279,9.35805034637451,9.91995048522949,SWING_RIGHT
-4.88743734359741,-4.42117500305176,-3.90018749237061,-2.2129499912262,-2.71305012702942,-2.6340000629425,0.84177500009537,0.24406249821186,-0.08731249719858,-0.26138749718666,-0.46172499656677,-0.5322625041008,-1.0639500617981,-0.89895004034042,-1.02795004844666,11.260950088501,11.2129507064819,10.6720504760742,-1.30666244029999,-1.56928753852844,2.54237508773804,-2.01195001602173,-0.6280500292778,-1.57395005226135,-1.41968750953674,-1.57808744907379,-1.62098753452301,-0.97074997425079,-1.06383752822876,-0.90653747320175,-0.5020500421524,-0.55905002355576,1.32195007801056,8.94105052947998,9.06795024871826,8.49795055389404,9.7741870880127,8.57339954376221,7.15921258926392,9.18795013427734,30.2599506378174,50.9010009765625,-2.04256248474121,-4.11083745956421,-5.91772508621216,-7.66163730621338,-6.69501256942749,-3.32021236419678,-64.126953125,-50.3820037841797,-2.79000020027161,4.03995037078857,-11.2060508728027,0.17805001139641,8.28863716125488,9.49258708953857,7.40011262893677,-26.3140506744385,-22.8319511413574,-11.3020505905151,5.01696252822876,4.37016248703003,3.10804986953735,5.09382486343384,3.34056258201599,-1.30996251106262,-0.0709500014782,-0.69300001859665,-2.79300022125244,4.21005010604858,8.9839506149292,11.4859504699707,0.55825001001358,1.0723625421524,1.67805004119873,1.6840500831604,0.93195003271103,-0.58995002508163,0.58121252059937,0.55481249094009,0.86253750324249,-3.67056250572205,-2.3483624458313,-0.02791249938309,-2.01705002784729,-1.56495010852814,-1.03995001316071,10.5310506820679,10.2000007629395,8.71305084228516,SWING_RIGHT
0.86638748645782,0.8760125041008,0.88288748264313,-2.66505002975464,-3.49605011940002,-4.60500001907349,0.15565000474453,0.29370000958443,0.42927500605583,0.57736247777939,1.22457504272461,1.31505000591278,0.94605004787445,0.54900002479553,0.82605004310608,10.8040504455566,10.2240009307861,7.05900049209595,-21.3559494018555,-21.2486991882324,-17.691162109375,-4.34400033950806,-1.20495009422302,0.30000001192093,5.51127481460571,5.41942501068115,8.74376201629639,-1.3860000371933,-1.47152495384216,-1.54659998416901,0.49395000934601,-0.19305001199245,-0.30795001983643,8.94600009918213,8.13195037841797,6.15195035934448,-23.6721382141113,-19.0377006530762,-15.7440252304077,-2.68695020675659,9.50400066375732,42.6220512390137,-4.93625020980835,-3.46018743515015,-4.53131246566772,-7.00906229019165,-7.60650014877319,-7.10888767242432,-18.1830005645752,-59.8200035095215,-63.6559524536133,45.844051361084,1.91100013256073,-17.7499504089355,-3.33726239204407,-2.26861238479614,-1.63020002841949,-9.74100017547607,-32.0670013427734,-32.1199531555176,-4.82666254043579,-5.56751251220703,-2.17318749427795,2.3310375213623,5.31602478027344,8.42407512664795,-8.13495063781738,-10.771050453186,-6.46605014801025,-3.10095024108887,-0.73605000972748,9.90105056762695,6.9800500869751,6.97001266479492,5.90768766403198,-20.5410003662109,-14.2470006942749,-7.95405054092407,1.39136254787445,1.21976244449615,1.47675001621246,4.83532476425171,2.67643737792969,-0.09102500230074,-4.64100027084351,-5.09400033950806,-4.11705017089844,4.99305009841919,10.300950050354,17.5799999237061,SWING_RIGHT
0.64171248674393,-0.02241249941289,-1.15637505054474,-7.20705032348633,-6.73305034637451,-5.70600032806396,1.10962498188019,2.09701251983643,2.08958745002747,0.71596246957779,0.74621248245239,0.72874999046326,0.30900001525879,1.0440000295639,1.82205009460449,8.51700019836426,8.40705013275146,7.27005052566528,-3.21227502822876,-2.33213758468628,-0.24488750100136,-6.99195051193237,-6.80505037307739,-4.82505035400391,2.67739987373352,4.02847480773926,4.27129983901978,2.16273736953735,3.80572509765625,5.19749975204468,6.24705028533936,4.29795026779175,4.47000026702881,-1.57395005226135,-3.45795011520386,-1.83705008029938,0.4989874958992,-0.21340000629425,-0.79076248407364,-9.17505073547363,-10.9420509338379,-44.7040519714355,-3.51092505455017,-5.10991239547729,-5.43496227264404,0.56237500905991,-1.62744998931885,-1.14537501335144,-19.8469505310059,-10.771050453186,-29.1780014038086,24.1690502166748,3.45105028152466,-9.61905002593994,-5.26501226425171,-10.0039501190186,-11.395037651062,14.3520002365112,25.8640518188477,13.4230508804321,-7.50172519683838,-6.03061246871948,-5.52351236343384,0.37606251239777,0.69203752279282,0.19923749566078,-10.0600500106812,-3.88500022888184,-1.1620500087738,-14.3539505004883,-7.80105018615723,-5.51505041122437,-3.03049993515015,-1.7323625087738,-1.01942503452301,-4.80405044555664,-3.93000030517578,-3.79800009727478,-5.2586874961853,-3.32213759422302,-2.62542510032654,-3.8373498916626,-0.87656247615814,-0.00742499995977,0.73995006084442,0.43800002336502,0.34500002861023,-10.0639505386353,-8.00699996948242,-7.87095022201538,SWING_RIGHT
-0.27390000224113,-0.16623750329018,-0.07438749819994,-3.70695018768311,-4.13595008850098,-3.40800023078919,-1.277512550354,-1.3309999704361,-1.43701243400574,-0.2578125,-0.14630000293255,0.16348749399185,5.89005041122437,6.33600044250488,6.82395029067993,-5.62500047683716,-5.68005037307739,-5.8759503364563,0.53377497196198,0.82816249132156,0.73589998483658,-1.36500000953674,-5.9170503616333,-8.26605033874512,-1.55704998970032,-0.84603750705719,0.21889999508858,-0.67938750982285,-0.4147000014782,0.0671000033617,3.32100009918213,2.47605013847351,3.76395010948181,-8.7180004119873,-8.50995063781738,-4.86105012893677,-0.7067499756813,-2.02798748016357,-4.58438730239868,-12.2640008926392,-33.2170524597168,-66.6840057373047,-4.06642484664917,-6.95749998092651,-7.55369997024536,-5.78875017166138,-5.68603754043579,-4.89692497253418,-24.9829521179199,-36.1639518737793,-41.2380027770996,30.492000579834,5.06700038909912,-5.425950050354,-6.93371248245239,-2.9991500377655,1.89199995994568,-3.09195017814636,55.105052947998,49.9360542297363,-20.4118747711182,-15.8318872451782,-11.2286624908447,-15.0056495666504,-16.4539375305176,-16.1528129577637,-24.9450016021729,-22.7250003814697,-13.8310508728027,-27.9180011749268,-11.6110506057739,1.11405003070831,-4.52759981155396,-6.09784984588623,-5.48968744277954,17.5050010681152,6.22800016403198,-2.21805000305176,-4.22138738632202,-2.92971253395081,-2.71562504768372,-4.94257497787476,-1.97958743572235,-1.87783753871918,6.1560001373291,5.93595027923584,5.47605037689209,-4.34400033950806,-9.29805088043213,-11.4450006484985,SWING_RIGHT
-2.08573746681213,-2.17442488670349,-2.17442488670349,-4.51605033874512,-4.89705038070679,-4.76295042037964,-1.32343745231628,-1.37156248092651,-1.29305005073547,-0.10436250269413,0.01993750035763,0.16994999349117,5.64405012130737,5.7679500579834,5.35605049133301,-5.11995029449463,-6.08895015716553,-7.4040002822876,-1.80454993247986,-1.58427500724792,-1.48486244678497,-3.75195026397705,-4.37505006790161,-3.96105027198792,0.23278750479221,0.06104999780655,-0.00343749998137,1.49489998817444,1.35341250896454,1.16256248950958,5.14800024032593,5.36100006103516,6.32100009918213,-7.53300046920776,-7.61895036697388,-7.93095016479492,-0.94971251487732,-0.45897498726845,-1.59307503700256,-3.22995018959045,-28.0039520263672,-59.2639541625977,-0.68873751163483,-0.3814249932766,-2.10732507705688,-5.26789999008179,-5.54578733444214,-3.96357488632202,-19.9120502471924,-11.2830009460449,-23.7570018768311,0.74295002222061,-6.90795040130615,-2.91195011138916,-7.71553754806519,-9.55487537384033,-17.0772247314453,23.613000869751,26.9560508728027,28.8019504547119,-2.3559250831604,-1.68904995918274,-1.62277495861053,-0.81922501325607,1.39782500267029,2.65210008621216,-14.2300510406494,-9.37995052337646,-2.65395021438599,-4.39200019836426,1.5619500875473,4.4800500869751,-10.0040874481201,-8.03123760223389,-7.45208740234375,4.00200033187866,2.41200017929077,2.11304998397827,-4.63443756103516,-11.016224861145,-6.77710008621216,0.80148750543594,-3.86828756332397,-4.70483732223511,3.82605028152466,3.06000018119812,1.92300009727478,-8.83605003356934,-7.81605052947998,-9.54195022583008,SWING_RIGHT
0.4687374830246,0.34801250696182,-0.05321250110865,-5.05995035171509,-5.20800018310547,-5.42400026321411,0.16664999723434,0.23553749918938,0.10999999940395,-0.68777501583099,0.06531249731779,0.47231251001358,8.01600074768066,7.22100019454956,7.40595054626465,0.90300005674362,0.30000001192093,1.26000010967255,0.38692501187325,0.17366249859333,0.12361250072718,-5.48805046081543,-5.47200012207031,-3.37905025482178,-2.33351254463196,-1.4392124414444,-2.14678740501404,3.03861236572266,3.96880006790161,4.24242496490479,5.00700044631958,3.99195027351379,4.18305015563965,-3.26700019836426,0.33300000429153,0.73605000972748,-2.69816255569458,-2.96986246109009,-2.91665005683899,-11.4930009841919,-11.9119501113892,-47.8740005493164,-8.02436256408691,-8.25164985656738,-8.36096286773682,-0.30469998717308,-1.07910001277924,-1.61438751220703,-23.5920009613037,-31.560001373291,-36.8010025024414,34.4860534667969,20.320951461792,2.02095007896423,-3.53718757629395,-3.98763751983643,-8.49736213684082,22.0620002746582,37.0330505371094,23.0910015106201,-8.6191873550415,-7.21875,-5.36703729629517,-8.04319953918457,-6.00269985198975,-3.44574999809265,-7.23405027389526,-2.26395010948181,3.01005005836487,-3.48405027389526,-5.27805042266846,-10.8300008773804,-4.50601243972778,-4.37786245346069,-5.4522876739502,-0.05100000277162,0.45300000905991,-5.38500022888184,-6.15999984741211,-5.26982498168945,-4.21547508239746,-9.94221210479736,-9.61991214752197,-8.1239128112793,0.7140000462532,0.6319500207901,1.53000009059906,-8.96700000762939,-10.4659509658813,-9.28095054626465,SWING_RIGHT
-0.62163752317429,-0.59276247024536,-0.50269997119904,-5.27505016326904,-4.98795032501221,-5.58900022506714,-0.67457497119904,-0.32986250519753,-0.1907124966383,0.65284997224808,1.01667499542236,1.07937502861023,3.40995025634766,3.55800008773804,3.3469500541687,-7.44900035858154,-8.10300064086914,-7.86795043945313,-0.40163749456406,-0.4463250041008,-0.43395000696182,-5.13600015640259,-5.41395044326782,-5.73495006561279,-0.28091248869896,-0.60664999485016,-0.67540001869202,0.35365000367165,-0.11797499656677,-0.21972499787807,3.90300011634827,3.98400020599365,4.21905040740967,-6.04395008087158,-6.14895009994507,-6.22305011749268,-0.02516249939799,0.2576749920845,-0.76821249723434,-4.75305032730103,-10.2190504074097,-34.4500503540039,-1.59128749370575,-1.00870001316071,-1.71173751354218,-4.05968761444092,-3.72666239738464,-2.94799995422363,-7.171950340271,-24.9090003967285,-28.7730007171631,-2.34705018997192,-9.72195053100586,5.51700019836426,-7.94708728790283,-10.7886629104614,-14.5344371795654,35.0119514465332,30.0780010223389,25.5840015411377,-3.72514986991882,-3.60772490501404,-4.09296226501465,-4.98533725738525,-3.39789986610413,-2.49589991569519,-9.83895015716553,-5.12505006790161,-1.02795004844666,-11.7139501571655,-5.81895017623901,-2.11695003509521,-7.78277492523193,-6.77104997634888,-4.81593751907349,-4.02495002746582,-6.66900014877319,-4.01805019378662,-9.84665012359619,-4.89486265182495,-4.640625,-7.85496234893799,-3.64925003051758,-1.13987493515015,3.3469500541687,2.54805016517639,1.98000013828278,-9.54705047607422,-9.04905033111572,-9.04200077056885,SWING_RIGHT
-2.68248748779297,-2.72566246986389,-2.31838750839233,-1.10895001888275,0.17805001139641,-2.93595004081726,-1.02960002422333,-0.86308747529984,-0.36616250872612,-0.03341250121593,0.0244750007987,-0.43697500228882,4.77195024490356,4.87305021286011,4.26705026626587,-7.2049503326416,-7.22400045394897,-8.07705020904541,-1.82998752593994,-1.54838752746582,-1.4108874797821,-1.09200000762939,-2.15295004844666,-1.45605003833771,-0.11233749985695,-0.12072499841452,-0.24681249260902,0.57433748245239,0.69767498970032,0.75308752059937,4.2810001373291,4.77000045776367,4.54200029373169,-7.72695016860962,-7.09695053100586,-6.59895038604736,-1.24698746204376,-2.02606248855591,-4.06422519683838,-7.88505029678345,-24.3700504302979,-50.4510040283203,-2.84432506561279,-2.01355004310608,-1.1171875,-5.95718765258789,-6.28828763961792,-4.97158765792847,-16.2130508422852,-26.4700508117676,-19.6770000457764,-3.682950258255,-19.9549503326416,-13.3060503005981,-6.64083766937256,-7.45291233062744,-8.86380004882813,-20.5270519256592,22.8330001831055,47.1010513305664,-4.80617475509644,-3.67482495307922,-2.16507506370544,-4.67596244812012,-7.80917501449585,-5.56118726730347,-21.3100509643555,-15.01305103302,-10.3800001144409,-24.0660018920898,-12.1159505844116,-4.27200031280518,-12.1763124465942,-8.18070030212402,-7.17722511291504,8.81400012969971,-0.68805003166199,-3.64695024490356,-7.37233734130859,-11.5718622207642,-7.98572492599487,-6.65073728561401,-6.61347484588623,-4.12981224060059,3.25695013999939,3.55800008773804,3.58905005455017,-9.2590503692627,-8.3899507522583,-7.27200031280518,SWING_RIGHT
-2.89272499084473,-2.31329989433289,-1.23255002498627,-5.02605009078979,-3.37905025482178,-2.49300003051758,-1.28342497348785,-0.29906249046326,-0.64597499370575,-0.90956246852875,-0.21834999322891,-0.27046251296997,5.74695014953613,4.94895029067993,4.98000001907349,-6.73305034637451,-4.0570502281189,-2.65095019340515,-2.59270000457764,-3.18339991569519,-2.89245009422302,-7.81305027008057,-7.67700052261353,-6.54195022583008,-2.82713747024536,-2.53027486801147,-2.0355498790741,-1.28493750095367,-1.06617498397827,-0.62837499380112,5.49495029449463,5.38500022888184,5.76600027084351,-3.59205007553101,-4.70100021362305,-5.01900005340576,-0.03011249937117,0.39146250486374,-0.18328750133514,-2.95005011558533,-5.02395009994507,-43.653003692627,-0.7235249876976,-0.80451250076294,-2.04531240463257,-2.49163746833801,-2.77997493743896,-2.92366242408752,-30.0610523223877,-20.6689510345459,-30.1380004882813,-2.03595018386841,-4.33395004272461,2.52195000648499,-8.72203731536865,-12.7510623931885,-15.2971496582031,35.998950958252,34.5619506835938,19.7940006256104,-5.97437477111816,-5.51017475128174,-3.07161259651184,-1.13918745517731,0.20556250214577,2.60479998588562,-3.94200015068054,0.98205006122589,4.96395015716553,-0.17295001447201,1.35600006580353,-2.72295022010803,-4.96842479705811,-8.52486228942871,18.777961730957,-7.4040002822876,-7.46595048904419,-5.85000038146973,-7.50241231918335,-7.19358730316162,-6.72553730010986,-9.13687515258789,-6.58363723754883,-4.20529985427856,5.1259503364563,5.671950340271,5.1340503692627,-7.21695041656494,-6.44400024414063,-6.82200050354004,SWING_RIGHT
-1.48018753528595,-1.78365004062653,-2.12011241912842,1.1050500869751,0.93195003271103,0.50400000810623,-0.13447499275208,-0.04784999787807,-0.05775000154972,0.74442499876022,0.66728746891022,0.41112500429153,4.35495042800903,4.30800008773804,4.56105041503906,-8.56005001068115,-7.85205030441284,-7.83495044708252,-4.89389991760254,-4.81016254425049,-4.39628744125366,-2.73705005645752,-2.73705005645752,-3.51495027542114,-1.34736251831055,-1.27723753452301,-0.74153751134872,0.1870000064373,0.2744500041008,0.89416247606277,5.83500051498413,5.89305019378662,6.22305011749268,-6.62100028991699,-7.08495044708252,-8.22300052642822,-0.2953499853611,0.27376249432564,-0.56072497367859,0.90795004367828,-7.87995052337646,-40.8109512329102,-2.18680000305176,-1.91881251335144,-2.73363757133484,-4.90448760986328,-5.12297487258911,-4.31612491607666,-20.3530502319336,-13.4329509735107,-31.4449520111084,-5.01000022888184,-4.42095041275024,2.32305002212524,-10.1069374084473,-15.3421125411987,-16.7209625244141,43.9050025939941,39.5190010070801,13.1430006027222,-2.93658757209778,-3.17528748512268,-3.50226259231567,-0.17984999716282,0.70537501573563,1.05751252174377,-8.08695030212402,-1.61205005645752,3.64005017280579,-3.99195027351379,0.24000000953674,2.46705007553101,-7.39433765411377,-8.73496246337891,-17.4707508087158,-0.4650000333786,-3.03705024719238,-3.68805027008057,6.89534997940063,14.8268995285034,14.1651124954224,3.56152486801147,13.3834247589111,16.3873882293701,4.84395027160645,4.06800031661987,3.78300023078919,-9.79605007171631,-9.14205074310303,-8.45700073242188,SWING_RIGHT
-2.48709988594055,-2.24289989471436,-2.19546246528625,1.75800013542175,1.33905005455017,1.1620500087738,0.53748750686646,0.70015001296997,0.80519998073578,0.62713748216629,0.25671249628067,0.11728750169277,5.57400035858154,5.5620002746582,5.53095006942749,-7.8400502204895,-8.28495025634766,-7.98105049133301,-1.34420001506805,-0.87656247615814,-0.87064999341965,2.12205004692078,-0.24705001711845,-0.3570000231266,0.23911249637604,-0.28242498636246,-2.96477508544922,-0.1119249984622,-1.09876251220703,-3.15067505836487,5.95500040054321,7.78200054168701,-0.54195004701614,-7.171950340271,-0.83400005102158,1.68900012969971,-10.0952501296997,-8.82502460479736,-9.74173736572266,-39.0319519042969,-15.657000541687,38.7090034484863,-5.17866230010986,-2.13936257362366,-1.15610003471375,-2.67932510375977,0.56911247968674,2.20068740844727,-25.4479503631592,-19.1050510406494,-11.8890008926392,-32.5150527954102,-9.86505031585693,-0.45105001330376,-11.4923877716064,-6.62722492218018,-7.63070011138916,-3.81000018119812,-5.42100048065186,-5.85495042800903,-11.3962745666504,-7.39048767089844,-6.70766258239746,-10.363374710083,-0.76216250658035,0.90530002117157,6.04800033569336,4.45605039596558,3.8689501285553,-5.713050365448,-4.34205007553101,-5.61105012893677,-14.4692621231079,-8.78432464599609,-6.56177473068237,5.46000003814697,2.95500016212463,4.2480001449585,0.52071249485016,0.01539999991655,0.27252501249313,2.09288740158081,0.09886249899864,0.18232500553131,4.30500030517578,4.17600011825562,4.08704996109009,-8.92200088500977,-10.7650508880615,-9.08895015716553,SWING_RIGHT
-2.51652503013611,-2.71204996109009,-2.57908749580383,-1.88505005836487,-1.65000009536743,-1.31505000591278,-0.6377249956131,-0.72159999608994,-0.81730002164841,0.16871249675751,0.16018749773502,0.15193749964237,6.3070502281189,6.39495038986206,6.4699501991272,-6.17295026779175,-6.52800035476685,-6.94200038909912,-1.02877497673035,-0.79254996776581,-0.45718750357628,-0.52995002269745,0.1710000038147,0.19995000958443,-0.06998749822378,0.07122500240803,0.19621250033379,0.46708750724792,0.5682874917984,0.72448748350143,6.53205013275146,6.36195039749146,5.11905002593994,-7.86600017547607,-7.82805013656616,-6.463050365448,1.73373746871948,2.1984875202179,2.05480003356934,5.15295028686523,5.86695051193237,-27.856050491333,-4.94711256027222,-4.50711250305176,-3.34427499771118,-6.48147487640381,-6.86702489852905,-5.34105014801025,-36.097053527832,-34.0139999389648,-45.7819519042969,11.2680006027222,9.94695091247559,-9.0730504989624,-11.6103620529175,-14.9084377288818,-15.6351251602173,63.4609527587891,51.7369537353516,15.6070508956909,-4.69053745269775,-4.49088764190674,-3.84642505645752,2.33502507209778,3.46335005760193,3.83185005187988,-4.70100021362305,1.92105007171631,7.05405044555664,2.02395009994507,3.69495010375977,-4.546950340271,-7.11906242370605,-10.038049697876,20.7457256317139,-2.52195000648499,-5.68905019760132,-7.2049503326416,-9.70268726348877,-7.93993759155273,-4.07811260223389,-5.93683767318726,-4.05404996871948,-3.96343755722046,6.48900032043457,6.42405033111572,5.713050365448,-4.61700010299683,-3.78105020523071,-7.96695041656494,SWING_RIGHT
-0.01278750039637,-0.44041249155998,-0.61998748779297,-7.86795043945313,-8.13899993896484,-8.40705013275146,-1.14097499847412,-2.15943741798401,-3.61941242218018,2.44694995880127,2.19037508964539,1.15678751468658,4.28595018386841,4.08000040054321,4.41495037078857,3.97800016403198,5.54805040359497,5.29005002975464,-0.4629625082016,-0.24722500145435,-0.10188750177622,-8.38800048828125,-8.89995002746582,-5.50995016098022,-0.76422500610352,-0.01526249945164,-3.58627486228943,0.57529997825623,0.54917502403259,1.98660004138947,6.59895038604736,4.22100019454956,-30.949951171875,2.67495012283325,7.89495038986206,13.4760007858276,-3.49469995498657,-4.11180019378662,-5.65729999542236,-42.8250007629395,-7.7839503288269,60.6240043640137,-9.61551284790039,-8.54672527313232,-7.56786251068115,-2.19697499275208,-0.60774999856949,2.87196254730225,-12.0349502563477,-17.6299514770508,-0.13800001144409,-53.6400032043457,-24.9829521179199,5.8690505027771,-5.73622512817383,-2.75233745574951,-3.46678757667542,4.24095010757446,-2.98605012893677,-9.94200038909912,-10.4609994888306,-7.33053731918335,-5.67806243896484,-5.94673728942871,-7.15976238250732,-6.61498737335205,4.28595018386841,5.04000043869019,6.17295026779175,-9.03000068664551,-4.91895008087158,-2.40705013275146,0.91960000991821,1.19982504844666,1.13148748874664,-2.05200004577637,-3.84600019454956,-5.23905038833618,-5.33403730392456,-4.35806226730347,-3.04521250724792,-2.17827486991882,0.15950000286102,1.49930000305176,4.66200017929077,4.92105007171631,4.91805028915405,-6.87705039978027,-6.74100017547607,-8.07705020904541,SWING_RIGHT
-5.9773998260498,-5.40539979934692,-4.83903741836548,-3.38595008850098,-3.50100016593933,-3.00105023384094,-1.00526249408722,-0.948062479496,-1.01433753967285,1.40841245651245,1.29071247577667,1.17534995079041,6.01200008392334,6.21105051040649,6.00795030593872,-6.19200038909912,-6.23505020141602,-7.67895030975342,-3.14709997177124,-2.52436256408691,-1.89172494411469,-2.81400012969971,-1.44405007362366,-2.15295004844666,-0.72558748722076,-0.84163749217987,-1.02355003356934,1.71599996089935,1.94961249828339,1.20697498321533,4.58505010604858,4.39604997634888,3.49605011940002,-5.97000026702881,-3.75300025939941,-0.77895003557205,-7.84905004501343,-7.90913724899292,-7.62685012817383,-53.8099517822266,-6.5779504776001,3.96795010566711,-4.33001232147217,-5.92473745346069,-5.87138748168945,-5.26473760604858,-4.0020751953125,-1.42436254024506,-19.4160003662109,-11.1150007247925,-9.64500045776367,-39.5730018615723,-29.8429508209229,-13.3230009078979,-10.1993370056152,-6.67026233673096,-5.47731256484985,6.60405015945435,3.69300007820129,-0.59205001592636,-7.36381244659424,-9.2602128982544,-6.42551231384277,0.13461250066757,-3.66217494010925,-6.5503625869751,3.48900008201599,4.30500030517578,5.09505033493042,-8.71395015716553,-7.81305027008057,-7.66200017929077,-0.6375874876976,-1.0396374464035,-4.53392505645752,-1.3050000667572,-0.79095005989075,0.24300001561642,-2.12093758583069,-1.7627500295639,-1.1279125213623,3.0240375995636,3.18326258659363,2.84996247291565,4.52505016326904,4.54500007629395,4.6360502243042,-7.5120005607605,-7.96200037002563,-7.83000040054321,SWING_RIGHT
-4.75653743743896,-5.51526260375977,-5.27903747558594,-4.2049503326416,-3.30000019073486,-2.97900009155273,-2.76237487792969,-2.81311249732971,-2.01189994812012,-0.03918749839067,0.088275000453,0.27967500686646,6.62805032730103,6.56295013427734,6.53205013275146,-5.25600004196167,-6.08205032348633,-6.39600038528442,-0.09748750180006,-0.01883750036359,0.04771250113845,-2.77800011634827,-1.80300009250641,-0.74295002222061,-0.00398749997839,0.02076249942183,-0.00439999997616,0.59757500886917,0.54670000076294,0.43518748879433,6.15795040130615,5.68695020675659,5.82600021362305,-6.99000024795532,-7.72005033493042,-6.56805038452148,-1.2971750497818,-1.25908744335175,-1.20037496089935,-0.79305005073547,-4.36094999313354,-28.5790519714355,-1.55320000648499,-2.21581244468689,-1.4218875169754,-1.56805002689362,-4.48236227035522,-4.85732507705688,-3.77895021438599,-30.6600017547607,-9.09705066680908,-2.64405012130737,-2.34195017814636,26.9800510406494,-7.60182476043701,-7.36381244659424,-8.38199996948242,5.55300045013428,7.86405038833618,27.5539512634277,-9.45724964141846,-8.52101230621338,-7.91092491149902,-2.26146245002747,4.00839996337891,4.3217625617981,-10.288950920105,-10.2180004119873,-5.9800500869751,-41.2609519958496,-15.7000503540039,-1.78395009040833,-6.35222482681274,-4.00537490844727,0.24323749542236,-6.00300025939941,-10.8589506149292,-8.3569507598877,-8.51248741149902,-7.91353750228882,-8.04100036621094,-13.6564998626709,-10.7740879058838,-7.15618753433228,6.3139500617981,6.40305042266846,5.7679500579834,-0.75000005960464,-1.84200012683868,-4.23600006103516,SWING_RIGHT
-1.58826243877411,-1.75807499885559,-1.90520000457764,-1.9450501203537,-2.39505004882813,-3.03195023536682,-1.07071244716644,-1.02561247348785,-0.9590625166893,0.50146251916885,0.38005000352859,0.34306249022484,6.22500038146973,6.55095052719116,6.49095010757446,-6.64500045776367,-6.41700029373169,-6.52005052566528,-1.89530003070831,-1.81101250648499,-0.61297500133514,-1.98300004005432,-0.60900002717972,-1.66005003452301,-0.27252501249313,-0.66742497682571,-1.43165004253387,1.52116250991821,0.13474999368191,-3.15438747406006,6.02205038070679,6.40305042266846,-16.651050567627,-5.08605003356934,-8.06505012512207,4.09500026702881,-8.05736255645752,-8.54411220550537,-10.7512626647949,5.28495025634766,29.6950511932373,39.0919532775879,-6.26367473602295,-4.03273725509644,-3.45578742027283,-2.64508748054504,-1.51277494430542,3.7453625202179,-10.6290006637573,-9.24300003051758,-1.75605010986328,-34.2319526672363,-23.3430004119873,-2.8090500831604,-9.46728706359863,-8.0188627243042,-7.14821243286133,2.16300010681152,0.9250500202179,-5.29005002975464,-11.4243249893188,-8.57711219787598,-4.22977495193481,-7.45648765563965,-5.60931253433228,-3.57926249504089,4.63800001144409,4.98795032501221,4.98000001907349,-6.17100048065186,-5.66295003890991,-7.17405033111572,-1.80454993247986,-3.9368999004364,-5.62113761901855,0.12300000339746,-0.37605002522469,-1.17105007171631,-0.29342499375343,-0.05692499876022,-0.07562500238419,3.26136255264282,3.16442489624023,3.26617503166199,4.49895000457764,4.83405017852783,4.43505001068115,-9.6739501953125,-8.33295059204102,-8.51700019836426,SWING_RIGHT
-3.97567486763,-3.57445001602173,-2.77997493743896,-1.85595011711121,-1.18095004558563,-0.63000005483627,-0.86721247434616,-0.30483749508858,-0.09295000135899,1.01653754711151,1.53463745117188,1.47881245613098,5.02395009994507,4.82505035400391,4.7509503364563,-8.25600051879883,-9.18795013427734,-8.11005020141602,-0.67498749494553,-0.44426250457764,0.09638749808073,0.37200000882149,4.40595006942749,9.11295032501221,0.73672497272491,1.3199999332428,-0.37248748540878,3.20086240768433,-3.34496259689331,-8.14701271057129,-0.88200002908707,-11.5630502700806,-25.123950958252,-13.9230003356934,-7.32195043563843,0.69000005722046,-7.14518737792969,-6.76623725891113,-7.3295750617981,-8.80905055999756,-1.34400010108948,23.6419506072998,-2.79358744621277,-2.26091241836548,-2.36403751373291,-7.09087514877319,-3.15301251411438,-1.10302495956421,-22.677001953125,-15.7650003433228,-7.71105051040649,-36.0630035400391,-7.80600023269653,0.51794999837875,-10.0938749313354,-6.30217504501343,-5.76221227645874,8.1870002746582,-4.86300039291382,-8.22000026702881,-12.9791746139526,-10.3280372619629,-7.30949974060059,-5.95292520523071,-6.72443723678589,-6.82261228561401,4.34805011749268,4.93995046615601,5.32305002212524,-5.14800024032593,-4.85400009155273,-5.42400026321411,6.72677516937256,23.0993118286133,21.0137119293213,-1.75995004177094,-1.14000010490417,-0.90600001811981,3.07078742980957,2.48215007781982,1.41281247138977,-2.68331241607666,-1.89791250228882,-0.88123750686646,4.588050365448,4.47495031356812,4.75305032730103,-8.12205028533936,-7.8870005607605,-7.71000051498413,SWING_RIGHT
