gyro_x_0,gyro_y_0,gyro_z_0,acc_x_0,acc_y_0,acc_z_0,gyro_x_1,gyro_y_1,gyro_z_1,acc_x_1,acc_y_1,acc_z_1,gyro_x_2,gyro_y_2,gyro_z_2,acc_x_2,acc_y_2,acc_z_2,gyro_x_3,gyro_y_3,gyro_z_3,acc_x_3,acc_y_3,acc_z_3,gyro_x_4,gyro_y_4,gyro_z_4,acc_x_4,acc_y_4,acc_z_4,gyro_x_5,gyro_y_5,gyro_z_5,acc_x_5,acc_y_5,acc_z_5,gyro_x_6,gyro_y_6,gyro_z_6,acc_x_6,acc_y_6,acc_z_6,gyro_x_7,gyro_y_7,gyro_z_7,acc_x_7,acc_y_7,acc_z_7,gyro_x_8,gyro_y_8,gyro_z_8,acc_x_8,acc_y_8,acc_z_8,gyro_x_9,gyro_y_9,gyro_z_9,acc_x_9,acc_y_9,acc_z_9,gyro_x_10,gyro_y_10,gyro_z_10,acc_x_10,acc_y_10,acc_z_10,gyro_x_11,gyro_y_11,gyro_z_11,acc_x_11,acc_y_11,acc_z_11,gyro_x_12,gyro_y_12,gyro_z_12,acc_x_12,acc_y_12,acc_z_12,gyro_x_13,gyro_y_13,gyro_z_13,acc_x_13,acc_y_13,acc_z_13,gyro_x_14,gyro_y_14,gyro_z_14,acc_x_14,acc_y_14,acc_z_14,motion_type
-1.64307403564453,-2.65339493751526,-5.57044315338135,3.25500011444092,6.31500005722046,8.27600002288818,-1.02183103561401,-1.35931694507599,-1.19255399703979,-5.37538623809814,-6.58175086975098,-6.69005489349365,9.72000026702881,9.0920000076294,7.28700017929077,10.9320001602173,7.79400014877319,3.24300003051758,-6.76754379272461,-4.82571506500244,-3.13735389709473,4.43200016021729,-2.31399989128113,-11.8070001602173,0.31075701117516,-16.505672454834,-10.4600448608398,-1.59171998500824,13.6886787414551,10.3601408004761,-20.4850006103516,-22.5249996185303,-17.1110000610352,-5.07200002670288,-5.77799987792969,1.51699995994568,-0.56633198261261,-1.23739898204803,-2.04994797706604,2.07800006866455,14.003999710083,31.8920001983643,12.0959329605103,13.206166267395,11.7262277603149,-15.572359085083,-12.0930643081665,-9.47971534729004,39.2980003356934,32.7070007324219,18.742000579834,4.10599994659424,5.51900005340576,9.44099998474121,-1.18583798408508,-1.01460003852844,-0.44141501188278,8.98200035095215,-1.2940000295639,-12.9060001373291,3.15222907066345,-4.44548320770264,-11.3315725326538,-0.7661389708519,4.40412282943726,9.6522274017334,-30.9200000762939,-31.2329998016357,-27.5459995269775,2.69400000572205,-5.62099981307983,-5.85699987411499,-0.68033999204636,-1.18760895729065,-1.40261101722717,-6.23699998855591,4.51000022888184,9.13899993896484,-6.60599803924561,8.41269111633301,12.3477449417114,7.47325277328491,-12.6268243789673,-10.6510372161865,20.3899993896484,37.3359985351563,33.8059997558594,13.28600025177,12.5010004043579,5.12599992752075,SHAKE
-1.596146941185,-0.74234998226166,0.27344000339508,15.6510000228882,30.3229999542236,27.6550006866455,11.8247604370117,10.4555835723877,8.74804782867432,-9.75617980957031,-7.88778305053711,-6.33125114440918,30.1180000305176,16.3099994659424,2.81500005722046,8.6569995880127,10.0690002441406,12.7360000610352,-1.00454294681549,-0.25205400586128,1.51446902751923,-0.66699999570847,-10.7089996337891,-24.7530002593994,-4.75088596343994,-12.1665811538696,-9.49344444274902,4.08646583557129,9.78083610534668,10.1760749816895,-34.1360015869141,-30.6060009002686,-13.1890001296997,-7.66099977493286,-8.36699962615967,4.65500020980835,-1.30072999000549,-1.59864497184753,-2.56068992614746,10.6300001144409,10.6300001144409,30.8719997406006,3.35784292221069,11.939151763916,11.7095336914063,-13.1214046478271,-11.6740655899048,-9.15830230712891,38.1209983825684,37.0219993591309,26.2740001678467,11.6379995346069,7.71500015258789,8.0290002822876,-2.30781006813049,-2.03458595275879,-1.38094699382782,14.003999710083,6.78599977493286,-0.58799999952316,5.1623067855835,2.34626293182373,-7.62788581848145,-2.60893511772156,0.11343199759722,5.6357889175415,-24.7220001220703,-33.4300003051758,-33.9010009765625,8.3430004119873,-0.28600001335144,-5.69999980926514,2.22780108451843,0.70215302705765,0.01927999965847,-20.3589992523193,-2.86299991607666,7.09999990463257,-7.51946783065796,-4.59097194671631,8.73053359985352,8.41244506835938,1.02660799026489,-12.8254928588867,2.18799996376038,34.6689987182617,38.7480010986328,9.1269998550415,13.9919996261597,8.81400012969971,SHAKE
-1.10173404216766,-2.919105052948,-3.29502010345459,30.5580005645752,26.3209991455078,20.3589992523193,9.54555797576904,7.9912519454956,6.47681188583374,-6.55355978012085,-5.21109294891357,-4.03968477249146,11.0530004501343,-0.24300000071526,-11.2270002365112,8.73499965667725,10.7749996185303,12.8149995803833,-0.67692500352859,2.28019595146179,6.65437984466553,-12.9060001373291,-28.5179996490479,-33.6969985961914,-11.8788290023804,-10.5066909790039,-8.80672168731689,10.7101421356201,11.2263803482056,10.160138130188,-28.173999786377,-19.2299995422363,-14.6789999008179,-4.52299976348877,0.26199999451637,3.16499996185303,-0.2281229943037,-0.80903297662735,-2.08301210403442,11.3360004425049,20.1229991912842,30.7929992675781,6.41934013366699,11.6969900131226,9.70061111450195,-12.3403158187866,-10.5472621917725,-6.80762577056885,38.1209983825684,36.4729995727539,14.4270000457764,12.5799999237061,8.3430004119873,9.36299991607666,-2.64808797836304,-1.99063098430634,-0.8095999956131,10.1590003967285,2.23499989509583,-8.11999988555908,2.56876301765442,-3.7713840007782,-10.8551177978516,-0.31199699640274,3.38794088363647,8.05507755279541,-29.1940002441406,-32.5670013427734,-30.3700008392334,5.28299999237061,-2.09100008010864,-4.05200004577637,2.32046604156494,1.0998500585556,0.25093701481819,-12.7489995956421,2.07800006866455,7.33500003814697,-6.30167722702026,-4.96217679977417,-0.97902798652649,8.07398223876953,5.73323822021484,-4.10735988616943,7.36600017547607,25.4109992980957,36.3950004577637,10.2259998321533,15.0120000839233,15.0900001525879,SHAKE
-0.15633399784565,-1.15302705764771,-2.01271295547485,14.4739999771118,23.0259990692139,29.6159992218018,11.1003522872925,9.84481906890869,8.31291484832764,-8.3971529006958,-6.70882081985474,-5.33531284332275,34.5900001525879,23.056999206543,9.5629997253418,10.1470003128052,11.08899974823,13.4429998397827,-1.82161104679108,0.46108600497246,3.44621706008911,6.39300012588501,-14.6319999694824,-28.9109992980957,-8.98324584960938,-11.9159641265869,-10.6051530838013,6.08912801742554,10.0117750167847,10.1132354736328,-35.548999786377,-28.7229995727539,-17.3470001220703,-1.85500001907349,0.73299998044968,2.14499998092651,1.07909405231476,0.38222399353981,0.00778899993747,6.94299983978271,18.1620006561279,18.1620006561279,-0.46858900785446,10.3211097717285,10.6414070129395,-3.39838409423828,-9.43375873565674,-8.38808822631836,38.1209983825684,37.0219993591309,26.3519992828369,15.2469997406006,12.9720001220703,13.2069997787476,-4.2079439163208,-3.46741199493408,-2.517657995224,13.2980003356934,7.33500003814697,0.50900000333786,1.92559194564819,-5.64647579193115,-10.7043724060059,0.41938701272011,4.63052082061768,8.50541591644287,-32.3320007324219,-33.1160011291504,-26.9969997406006,2.06599998474121,-0.36500000953674,-0.83499997854233,2.31497406959534,1.49811995029449,0.78443098068237,-16.9069995880127,0.03900000080466,6.47200012207031,-5.69742584228516,-3.90578699111938,11.922550201416,7.16383600234985,4.46490001678467,-10.0992946624756,13.0150003433228,30.5890007019043,36.3950004577637,11.4809999465942,17.5219993591309,12.1870002746582,SHAKE
0.29640299081802,-0.39338698983192,-3.19856905937195,13.6899995803833,27.8120002746582,26.1639995574951,11.3991718292236,9.89730644226074,8.17893600463867,-8.57232475280762,-6.86352682113647,-5.41518688201904,27.8430004119873,15.6820001602173,3.44300007820129,11.08899974823,11.1669998168945,12.2659997940063,-1.71113300323486,-0.78876602649689,1.09588897228241,4.19700002670288,-8.82600021362305,-21.7709999084473,-4.36479520797729,-11.6926460266113,-10.03089427948,3.8347749710083,10.163516998291,9.26270198822022,-35.3129997253418,-24.4860000610352,-14.4440002441406,-7.66099977493286,-1.46300005912781,4.49900007247925,0.31687799096107,-0.20936000347137,-1.0517270565033,9.45300006866455,18.5540008544922,24.5949993133545,2.87810397148132,11.05735206604,11.2375497817993,-7.93286800384521,-9.96160125732422,-8.47281837463379,37.8849983215332,37.101001739502,33.3349990844727,14.6190004348755,7.87200021743774,5.44000005722046,-3.49225807189941,-3.12039303779602,-2.39190697669983,16.6709995269775,10.6300001144409,2.07800006866455,5.61148500442505,3.57873010635376,-3.63686490058899,-3.66101598739624,-1.55287396907806,3.31391596794128,-21.4260005950928,-31.3120002746582,-34.6860008239746,11.08899974823,7.08799982070923,2.45900011062622,5.00110483169556,3.00184988975525,1.75201904773712,-25.6940002441406,-11.5719995498657,1.45099997520447,-7.44607210159302,-4.54060792922974,3.93612599372864,8.68027496337891,4.39216709136963,-10.6002941131592,-6.59800004959106,32.2360000610352,38.1209983825684,4.49900007247925,10.0690002441406,8.5,SHAKE
0.08638799935579,-0.10451100021601,-1.72501194477081,2.78399991989136,8.11900043487549,29.3810005187988,9.17454147338867,11.9942083358765,10.2705545425415,-11.8238792419434,-9.99652767181396,-7.35490608215332,37.257999420166,33.8059997558594,23.5279998779297,12.2659997940063,6.46000003814697,6.53800010681152,-2.02184891700745,-1.24662005901337,0.05872400105,6.70699977874756,-1.76499998569489,-15.4160003662109,-9.79071617126465,-11.8652925491333,-10.4257659912109,7.36277484893799,10.7008190155029,10.7947378158569,-31.8610000610352,-27.7029991149902,-27.7029991149902,1.9099999666214,-0.05099999904633,-0.05099999904633,-0.19886699318886,-0.92433601617813,-1.38385498523712,9.76700019836426,16.5930004119873,25.6940002441406,-4.50773191452026,11.2627277374268,12.3203325271606,-0.56068199872971,-13.9363145828247,-10.8334112167358,36.7080001831055,38.5909996032715,31.2950000762939,7.24499988555908,3.79200005531311,1.75300002098084,-2.9755699634552,-2.71445608139038,-2.06478905677795,19.0249996185303,12.5129995346069,4.74599981307983,6.21910095214844,4.51110410690308,-12.3705272674561,-3.7247040271759,-1.87249100208282,10.890851020813,-19.1509990692139,-29.8999996185303,-31.6259994506836,10.4610004425049,7.16599988937378,-0.20800000429153,0.06753099709749,-0.8320699930191,-1.56999397277832,-14.4750003814697,1.37199997901917,15.4160003662109,-5.51468706130981,-4.57756280899048,12.3095636367798,6.52032423019409,-3.06848001480103,-14.3816661834717,15.289999961853,35.923999786377,38.6699981689453,7.95100021362305,9.44099998474121,8.26399993896484,SHAKE
-1.0966659784317,0.44568198919296,3.03006291389465,-7.80600023269653,-24.8309993743896,-29.6949996948242,-11.1632041931152,-9.26762962341309,-6.43456888198853,12.6452970504761,11.8227987289429,8.8262996673584,-24.1720008850098,-14.6789999008179,7.36600017547607,-2.24799990653992,-0.83499997854233,6.93100023269653,-2.23120498657227,-4.58098983764648,0.56679898500443,19.5739994049072,33.3819999694824,30.7929992675781,12.5647735595703,10.9955024719238,9.23977661132812,-10.4284658432007,-7.81738615036011,-5.95608711242676,32.4720001220703,21.0170001983643,8.9350004196167,7.63700008392334,9.36299991607666,11.6379995346069,-1.09998297691345,-0.35435199737549,4.29793405532837,7.33500003814697,-2.15700006484985,-34.4029998779297,-12.012321472168,-12.2012882232666,-10.2817354202271,8.29772758483887,12.4876527786255,12.1190519332886,-35.548999786377,-24.1720008850098,-13.3450002670288,-4.20900011062622,-4.99399995803833,-0.28600001335144,-1.36527895927429,-1.7112979888916,-1.71137595176697,17.3770008087158,28.5960006713867,31.8920001983643,12.2365798950195,10.7235460281372,9.05957412719727,-9.7177267074585,-7.52920913696289,-5.94353294372559,29.4909992218018,16.7019996643066,4.38500022888184,4.42000007629395,6.69500017166138,9.52000045776367,-1.43005299568176,-0.52652502059937,1.22507297992706,3.96099996566772,-7.64900016784668,-24.5960006713867,-2.98328709602356,-12.2029447555542,-11.0259618759155,3.2503490447998,10.1200504302979,11.87868309021,-31.8610000610352,-26.6049995422363,-17.2679996490479,2.45900011062622,-1.07099997997284,-1.69799995422363,SHAKE
4.22206497192383,1.19874894618988,-1.25343203544617,-31.2639999389648,-23.6539993286133,-10.5520000457764,-9.35741996765137,-7.86851596832275,-6.62346410751343,10.0078773498535,8.93674755096436,7.71556520462036,-10.7559995651245,-0.79299998283386,5.40500020980835,0.18400000035763,0.26199999451637,0.96799999475479,-3.32738590240479,2.93265891075134,-0.84568500518799,26.0860004425049,30.8719997406006,28.2830009460449,11.5445356369019,9.90307521820068,8.20872783660889,-10.0671730041504,-7.67196178436279,-5.7385950088501,28.863000869751,17.7220001220703,6.89499998092651,5.59700012207031,6.85200023651123,10.3830003738403,-1.01557099819183,-0.20218500494957,1.23625898361206,4.58900022506714,-5.05999994277954,-21.6140003204346,-1.86244702339172,-12.1072511672974,-8.85979080200195,3.15681004524231,11.8341665267944,10.5190410614014,-34.1360015869141,-31.1550006866455,-11.3839998245239,5.0479998588562,3.40000009536743,-0.05099999904633,-1.98767900466919,-2.24126291275024,-3.51489806175232,14.4739999771118,20.9860000610352,20.9860000610352,6.8233847618103,12.8454265594482,11.7580604553223,-17.6780605316162,-12.4510269165039,-9.29466438293457,38.1209983825684,35.2179985046387,25.8819999694824,6.85200023651123,6.53800010681152,6.61700010299683,-2.11068105697632,-1.86210799217224,-1.23991799354553,13.6110000610352,8.59000015258789,2.15700006484985,5.25993680953979,3.23448991775513,-5.16113376617432,-1.99561095237732,0.24426199495792,5.54145622253418,-19.386999130249,-29.1149997711182,-32.3320007324219,6.85200023651123,5.36199998855591,4.9689998626709,SHAKE
-2.63012909889221,-2.46932697296143,-0.13480399549007,12.5129995346069,7.80600023269653,-19.4179992675781,1.17002201080322,-9.34025859832764,-11.1070213317871,2.71634292602539,8.14305591583252,9.76433372497559,-37.9020004272461,-32.7239990234375,-20.5629997253418,14.9329996109009,6.61700010299683,1.59599995613098,0.59524101018906,-0.57776099443436,-0.78453302383423,13.4540004730225,22.7119998931885,27.3409996032715,-3.55005502700806,9.86425399780273,10.2421493530273,-4.71481323242188,-10.6573038101196,-8.75378799438477,38.2779998779297,38.1209983825684,28.3139991760254,6.77400016784668,6.53800010681152,5.98899984359741,-3.91238498687744,-3.55436301231384,-2.88176298141479,12.4350004196167,7.96299982070923,5.4520001411438,2.65106296539307,-9.23142242431641,-11.6226530075073,1.95347797870636,8.8926830291748,10.1434946060181,-38.1380004882813,-35.3129997253418,-21.3479995727539,17.2870006561279,9.1269998550415,2.38000011444092,1.91489994525909,2.20182204246521,3.84884405136108,19.3390007019043,27.0270004272461,33.9309997558594,-0.62971299886703,8.38591289520264,7.72879123687744,-7.32368993759155,-10.0511484146118,-6.48558521270752,38.7480010986328,36.7080001831055,12.6219997406006,5.12599992752075,4.02799987792969,5.44000005722046,-4.80885791778564,-3.62028908729553,-0.60511702299118,10.1590003967285,3.4909999370575,-11.414999961853,0.7012130022049,-7.4154372215271,-9.10743999481201,1.16234195232391,5.89436483383179,7.16479921340942,-35.548999786377,-34.1360015869141,-24.2509994506836,10.6969995498657,4.5770001411438,-1.14900004863739,SHAKE
-9.11548233032227,-4.14719676971436,-1.50720000267029,12.8269996643066,4.74599981307983,-1.52999997138977,2.20837807655334,-8.44047737121582,-7.95169687271118,2.36080098152161,6.7733359336853,4.82150983810425,-33.8219985961914,-23.5450000762939,-7.77500009536743,12.5010004043579,1.43900001049042,-0.36500000953674,8.90205574035645,6.01312685012817,1.7926230430603,22.3199996948242,26.0860004425049,28.1259994506836,4.31704807281494,3.74668192863464,3.48456192016602,-5.72487878799438,-6.26831912994385,-5.16400194168091,39.3759994506836,32.7859992980957,26.5879993438721,5.44000005722046,5.91099977493286,6.06799983978271,-7.54145383834839,-4.57678413391113,-1.01864004135132,9.92399978637695,-2.23600006103516,-25.8509998321533,-0.32499501109123,-6.71883106231689,-7.41092681884766,4.69613981246948,7.23682689666748,5.66167593002319,-36.1759986877441,-28.173999786377,-15.1499996185303,7.63700008392334,0.34000000357628,-3.03200006484985,10.4219331741333,8.50437355041504,5.76907205581665,19.181999206543,23.1049995422363,28.1259994506836,-1.23544502258301,1.00045800209045,0.98346501588821,-3.25674295425415,-5.58627986907959,-4.68173694610596,38.4339981079102,37.4150009155273,26.8229999542236,5.28299999237061,4.9689998626709,5.51900005340576,-11.9692058563232,-9.8244514465332,-2.4379301071167,15.1020002365112,10.1590003967285,-18.0049991607666,5.06801509857178,-4.05463981628418,-7.02452087402344,5.33198022842407,8.44582843780518,7.37196493148804,-34.0579986572266,-28.7229995727539,-16.7980003356934,11.8730001449585,1.8309999704361,0.02700000070035,SHAKE
-11.9692058563232,-9.8244514465332,-2.4379301071167,15.1020002365112,10.1590003967285,-18.0049991607666,5.06801509857178,-4.05463981628418,-7.02452087402344,5.33198022842407,8.44582843780518,7.37196493148804,-34.0579986572266,-28.7229995727539,-16.7980003356934,11.8730001449585,1.8309999704361,0.02700000070035,8.80988216400146,6.68835687637329,1.97697901725769,18.3190002441406,24.9090003967285,27.9689998626709,-1.59689199924469,-2.33382296562195,-3.32415103912354,-5.55102491378784,-4.95792388916016,-4.55204677581787,30.6669998168945,19.6840000152588,7.91499996185303,2.8510000705719,3.40000009536743,6.61700010299683,-9.99166202545166,-7.79300212860107,-0.75590997934341,9.92399978637695,-4.19700002670288,-28.8320007324219,4.56814098358154,-3.00809502601624,-4.17271089553833,7.33916521072388,6.05477619171143,4.07937097549438,-36.4119987487793,-25.742000579834,-10.2069997787476,4.73400020599365,-0.60000002384186,0.02700000070035,11.775218963623,9.38060569763184,6.68022680282593,20.2800006866455,21.5349998474121,25.6149997711182,2.61289405822754,-3.48188090324402,-4.5813889503479,-3.49172401428223,-3.40238189697266,-3.11833596229553,38.7480010986328,21.9589996337891,10.1899995803833,4.5770001411438,5.20499992370605,8.5,-10.0800256729126,-8.37833976745605,5.74782180786133,8.11900043487549,-0.66699999570847,-16.201000213623,11.0830411911011,1.69932997226715,-2.40250396728516,9.05442333221436,7.22590589523315,5.31113290786743,-30.1350002288818,-30.1350002288818,-25.0349998474121,7.16599988937378,7.16599988937378,2.14499998092651,SHAKE
-12.2713813781738,-9.92654609680176,-7.57874917984009,11.3360004425049,6.23699998855591,-5.2960000038147,0.59334599971771,11.4613571166992,3.16002702713013,3.02641892433167,7.55693101882935,4.60421514511108,-28.2520008087158,-28.4090003967285,-20.4850006103516,15.0120000839233,9.91199970245361,4.5770001411438,15.8912191390991,13.1394147872925,10.3339376449585,2.23499989509583,14.3959999084473,20.3589992523193,2.14216804504395,12.3698892593384,2.12732291221619,3.32070708274841,-2.15542101860046,-6.37428379058838,35.375,36.8650016784668,29.2549991607666,0.34000000357628,-2.64000010490417,-1.30599999427795,-12.0522708892822,-9.72979640960693,-6.64882707595825,13.8470001220703,7.80600023269653,-8.27700042724609,6.06613397598267,2.80062294006348,-3.22071194648743,3.48309588432312,6.71104001998901,6.60482597351074,-35.6269989013672,-32.7239990234375,-21.3479995727539,16.423999786377,6.61700010299683,0.88999998569489,12.6621751785278,10.6858549118042,8.74524116516113,4.51000022888184,15.5729999542236,21.2220001220703,-2.76248693466187,5.18431520462036,-3.37372398376465,2.70965909957886,-6.43226623535156,-6.91845321655273,34.0410003662109,33.492000579834,25.4109992980957,-2.71799993515015,-2.875,0.57599997520447,-14.182017326355,-10.6800746917725,-8.20629978179932,17.8479995727539,12.2779998779297,5.8439998626709,5.72407293319702,7.80137395858765,3.02466297149658,2.88257598876953,6.01395511627197,7.26964521408081,-22.6030006408691,-22.6030006408691,-27.0750007629395,18.2280006408691,18.2280006408691,7.00899982452393,SHAKE
-10.6800746917725,-8.20629978179932,-3.96325707435608,12.2779998779297,5.8439998626709,-5.9229998588562,7.80137395858765,3.02466297149658,-2.30407905578613,6.01395511627197,7.26964521408081,7.72892189025879,-22.6030006408691,-27.0750007629395,-27.0750007629395,18.2280006408691,7.00899982452393,7.00899982452393,11.2299766540527,9.19424438476562,5.43822908401489,-2.62800002098084,6.55000019073486,15.0240001678467,10.2119798660278,8.46924304962158,5.9580659866333,1.20817399024963,-9.62588787078857,-8.97474193572998,33.9620018005371,28.3139991760254,19.1340007781982,-0.67900002002716,-0.75700002908707,1.36000001430511,-8.76403617858887,-6.92408514022827,-2.04037499427795,11.7279996871948,6.62900018692017,-24.125,1.45530498027802,-8.93353271484375,-8.656813621521,5.2115797996521,9.91464614868164,9.12028884887695,-32.5670013427734,-25.8980007171631,-0.16500000655651,10.6969995498657,6.22499990463257,5.59700012207031,2.35337400436401,1.04881596565247,1.00362694263458,13.1409997940063,25.1439990997314,25.7719993591309,9.72928142547607,8.54800224304199,6.99943017959595,-9.37299537658691,-9.27076721191406,-7.9472541809082,31.8439998626709,23.2140007019043,13.25,-1.85500001907349,0.41899999976158,4.49900007247925,-6.08433723449707,-4.83815908432007,-2.89704895019531,6.39300012588501,-1.52999997138977,-17.1420001983643,3.65591907501221,-6.24028396606445,-9.80919647216797,3.65138101577759,9.41232109069824,10.1472406387329,-29.2719993591309,-28.9580001831055,-18.7590007781982,12.5010004043579,10.3039999008179,4.5770001411438,SHAKE
-6.08433723449707,-4.83815908432007,-2.89704895019531,6.39300012588501,-1.52999997138977,-17.1420001983643,3.65591907501221,-6.24028396606445,-9.80919647216797,3.65138101577759,9.41232109069824,10.1472406387329,-29.2719993591309,-28.9580001831055,-18.7590007781982,12.5010004043579,10.3039999008179,4.5770001411438,4.24141693115234,3.11098408699036,1.22751796245575,4.35400009155273,12.5909996032715,19.181999206543,-4.34918403625488,5.92823696136475,7.53093290328979,3.40594601631165,-8.36325454711914,-9.40527629852295,30.5100002288818,33.1780014038086,21.8799991607666,-0.60000002384186,-2.56100010871887,-0.99199998378754,-6.54324197769165,-5.52587223052979,-4.20882606506348,14.003999710083,9.76700019836426,2.94099998474121,3.4303150177002,-5.98590993881226,-9.98036956787109,2.36299300193787,8.64027976989746,10.565634727478,-32.7239990234375,-30.2140007019043,-21.5049991607666,10.6180000305176,6.69500017166138,5.67500019073486,5.53470802307129,3.95520401000977,1.35637903213501,4.51000022888184,9.29599952697754,19.496000289917,5.13188695907593,9.46476364135742,8.15338325500488,-6.97653293609619,-9.96094131469727,-9.08171558380127,34.9819984436035,29.882999420166,25.80299949646,-4.99399995803833,-5.54300022125244,-4.20900011062622,-6.84961700439453,-5.81591320037842,-4.44988584518433,12.3559999465942,7.33500003814697,3.56900000572205,3.12410593032837,-8.00988006591797,-9.96038722991943,3.46584796905518,9.83847045898438,10.6022520065308,-31.2329998016357,-27.4680004119873,-18.2880001068115,12.8149995803833,8.89200019836426,5.44000005722046,SHAKE
-4.49628496170044,-2.66669988632202,9.64082336425781,5.29500007629395,-10.6309995651245,-28.5970001220703,-9.55257034301758,-9.32979679107666,-8.12790107727051,9.91258335113525,9.64686870574951,8.49646282196045,-24.0149993896484,-13.581000328064,-0.63599997758865,5.51900005340576,4.65500020980835,5.83199977874756,2.4180428981781,1.14453899860382,0.46700701117516,19.4169998168945,24.4379997253418,25.8509998321533,8.73238754272461,7.48471307754517,6.06702184677124,-9.33437061309814,-8.44708919525146,-7.32189083099365,31.8439998626709,24.1550006866455,24.1550006866455,-4.36600017547607,-3.18899989128113,-3.18899989128113,-6.23031616210938,-4.98385715484619,-3.25592494010925,10.3950004577637,4.82399988174438,4.82399988174438,-2.53468298912048,-9.35775375366211,-9.25853824615478,7.57317686080933,10.6267061233521,10.3675222396851,-31.6259994506836,-24.7999992370605,-13.6590003967285,10.7749996185303,6.30299997329712,3.87100005149841,5.02304887771606,2.20725297927856,1.25083994865417,12.3559999465942,17.8479995727539,24.2029991149902,-0.6207270026207,8.75349044799805,8.05068969726563,-3.3827109336853,-9.78447246551514,-9.07464790344238,34.5900001525879,32.943000793457,32.943000793457,-0.28600001335144,-3.89499998092651,-3.89499998092651,-6.46153783798218,-5.08100605010986,-3.19065809249878,12.4350004196167,4.90299987792969,-9.92399978637695,3.86958694458008,-1.74263596534729,-8.23568725585938,0.68421798944473,6.4767689704895,9.61069774627686,-31.0769996643066,-31.5470008850098,-24.3290004730225,13.0500001907349,10.1470003128052,7.00899982452393,SHAKE
-3.19065809249878,0.3605700135231,8.9194917678833,-9.92399978637695,-27.3419990539551,-28.9890003204346,-8.23568725585938,-8.49181270599365,-7.5306510925293,9.61069774627686,9.80430603027344,8.82448101043701,-24.3290004730225,-13.1890001296997,-2.75399994850159,7.00899982452393,4.73400020599365,2.92899990081787,0.64591497182846,0.49044799804688,-6.23215484619141,24.5170001983643,29.6949996948242,28.0470008850098,8.62311553955078,7.25400400161743,5.97250413894653,-9.49296760559082,-8.02820205688477,-6.48857402801514,26.8229999542236,16.4669990539551,5.6399998664856,-1.77699995040894,2.6159999370575,7.32299995422363,-4.90381813049316,-3.19878506660461,-0.19093599915504,7.41300010681152,-1.92200005054474,-19.8880004882813,0.03558100014925,-7.42216300964355,-8.83438873291016,4.34207105636597,8.30803775787354,9.73537826538086,-34.0579986572266,-29.1940002441406,-19.1509990692139,11.1669998168945,7.08799982070923,4.02799987792969,4.77793884277344,2.33703708648682,0.76153898239136,4.43200016021729,10.8649997711182,15.5729999542236,-4.32812976837158,5.57367515563965,9.25577545166016,5.09752893447876,-9.17069339752197,-9.96539211273193,31.9230003356934,34.7470016479492,34.1189994812012,3.00799989700317,1.04700005054474,-3.50300002098084,-8.01151943206787,-7.19882678985596,-5.97912120819092,18.632999420166,15.3369998931885,10.7869997024536,4.75475406646729,3.91840195655823,-6.38140678405762,-4.52836084365845,-2.61187410354614,8.21824169158936,-12.9530000686646,-25.8980007171631,-31.0769996643066,13.9919996261597,15.168999671936,9.1269998550415,SHAKE
2.33703708648682,0.76153898239136,-0.0292329993099,10.8649997711182,15.5729999542236,28.2830009460449,5.57367515563965,9.25577545166016,8.23041439056396,-9.17069339752197,-9.96539211273193,-8.62371921539307,34.7470016479492,34.1189994812012,23.2919998168945,1.04700005054474,-3.50300002098084,-3.42400002479553,-7.19882678985596,-5.97912120819092,-4.52579689025879,15.3369998931885,10.7869997024536,1.76499998569489,3.91840195655823,-6.38140678405762,-9.7776288986206,-2.61187410354614,8.21824169158936,10.5883636474609,-25.8980007171631,-31.0769996643066,-23.7019996643066,15.168999671936,9.1269998550415,6.14599990844727,4.77067184448242,3.14578700065613,1.22146904468536,3.4909999370575,11.4930000305176,20.3589992523193,2.77011489868164,9.74369430541992,8.80842590332031,-7.81916904449463,-10.0511512756348,-8.91570854187012,37.3359985351563,32.8639984130859,23.371000289917,-1.77699995040894,-5.54300022125244,-2.09100008010864,-6.46893501281738,-5.47950077056885,-4.17188215255737,15.6510000228882,9.8459997177124,-0.35299998521805,3.92176795005798,2.50893688201904,-7.13203716278076,-2.51520609855652,1.92550301551819,8.63837432861328,-22.996000289917,-31.6259994506836,-26.8400001525879,15.326000213623,10.0690002441406,6.61700010299683,6.77954483032227,4.34533405303955,2.749351978302,-6.0019998550415,0.74500000476837,7.57000017166138,-5.04373979568481,3.18861293792725,10.4350366592407,6.10608196258545,-8.43560123443604,-9.93799495697022,26.117000579834,34.0410003662109,32.6290016174316,5.59700012207031,3.55699992179871,0.49700000882149,SHAKE
-2.12597393989563,0.80933797359467,8.6253547668457,-5.2960000038147,-20.6730003356934,-26.7919998168945,-9.72406482696533,-9.50018310546875,-8.14107322692871,9.34365558624268,10.3041372299194,9.84111404418945,-28.4090003967285,-17.6609992980957,-17.6609992980957,4.81199979782104,3.24300003051758,3.24300003051758,-0.05471500009298,-0.80647498369217,-1.44285595417023,14.5530004501343,21.8490009307861,25.7719993591309,10.2602300643921,8.44929695129395,7.02509689331055,-10.4253416061401,-7.91784620285034,-6.58813810348511,33.492000579834,18.2709999084473,7.67999982833862,-2.79699993133545,0.41899999976158,4.89099979400635,-4.4563159942627,-3.03537201881409,-0.5803490281105,8.35499954223633,-1.60800004005432,-20.2810001373291,1.23479795455933,-8.56516647338867,-10.1204032897949,3.22845697402954,8.55754089355469,10.5133047103882,-30.2919998168945,-30.2919998168945,-19.2299995422363,7.55800008773804,7.55800008773804,4.65500020980835,3.93544101715088,1.77711498737335,0.57902300357819,3.7260000705719,9.06099987030029,14.7880001068115,-4.79961681365967,2.17707300186157,10.2053375244141,5.64601182937622,-7.29285287857056,-9.83382511138916,26.0380001068115,31.3729991912842,34.0410003662109,6.85200023651123,5.44000005722046,-0.75700002908707,-6.16322708129883,-5.26564884185791,-4.07026386260986,17.3770008087158,12.6700000762939,6.62900018692017,4.50573492050171,3.67059397697449,0.04134099930525,-3.4057788848877,-0.87707197666168,3.54510998725891,-18.2880001068115,-26.7609996795654,-30.3700008392334,13.28600025177,9.99100017547607,5.91099977493286,SHAKE
-0.08715800195932,-0.3286620080471,-5.23836803436279,23.4969997406006,26.3999996185303,24.0459995269775,8.20522880554199,6.79811382293701,5.57087278366089,-7.30251312255859,-6.01070976257324,-4.79619216918945,16.7019996643066,5.56099987030029,-5.81400012969971,1.8309999704361,5.98899984359741,10.6969995498657,-2.60555601119995,0.04733199998736,6.6390118598938,-4.27600002288818,-20.0450000762939,-27.6550006866455,-9.1344404220581,-10.183295249939,-8.94264888763428,8.21275615692139,10.1997289657593,10.0686740875244,-27.3889999389648,-24.0149993896484,-10.9130001068115,4.65500020980835,4.18499994277954,3.55699992179871,2.01746010780334,0.81624299287796,0.1087149977684,7.72700023651123,14.6309995651245,24.3600006103516,1.83781599998474,10.0570201873779,9.59743595123291,-6.08912992477417,-9.42750358581543,-8.46665954589844,34.5900001525879,34.0410003662109,27.6079998016357,4.02799987792969,-1.62000000476837,-2.09100008010864,-6.68326616287231,-5.74452114105225,-4.53358221054077,16.6709995269775,12.2779998779297,5.29500007629395,4.59749603271484,3.81512904167175,-0.09514400362968,-3.41339302062988,-0.43929800391197,5.01872682571411,-18.1310005187988,-26.9179992675781,-29.1149997711182,15.2469997406006,11.246000289917,6.46000003814697,9.00757884979248,6.16228580474854,3.94979810714722,-19.1040000915527,-5.4520001411438,4.27500009536743,-7.32523202896118,-5.87563419342041,-4.56150722503662,8.69839477539063,8.03457260131836,4.03452587127686,0.69700002670288,13.0150003433228,20.4680004119873,4.42000007629395,6.85200023651123,7.24499988555908,SHAKE
2.22362089157104,0.72720497846603,0.48942399024963,10.7089996337891,18.5540008544922,22.8689994812012,9.61732959747314,8.33123683929443,6.92669582366943,-9.8174238204956,-8.63863468170166,-7.31964588165283,29.4909992218018,21.7229995727539,11.8380002975464,-4.13100004196167,-1.77699995040894,2.6159999370575,-4.95224809646606,-3.70813703536987,-1.96601295471191,9.60999965667725,2.07800006866455,-4.35400009155273,2.54153800010681,-5.72957515716553,-10.2762603759766,1.5331939458847,7.67393016815186,10.4461612701416,-28.173999786377,-28.2520008087158,-22.996000289917,9.99100017547607,6.22499990463257,5.51900005340576,2.76116394996643,0.43673801422119,-0.37664800882339,6.15799999237061,11.414999961853,17.5340003967285,7.87052202224732,9.54541397094727,8.60774326324463,-9.86917018890381,-8.99074363708496,-7.71476078033447,34.826000213623,32.3930015563965,24.7830009460449,2.14499998092651,-0.67900002002716,0.65399998426437,-5.95296621322632,-4.97448110580444,-3.77516794204712,16.1219997406006,11.414999961853,5.29500007629395,4.16646909713745,3.43832206726074,-0.65799498558044,-2.40533399581909,0.75851899385452,5.03775787353516,-17.3470001220703,-24.2509994506836,-26.7609996795654,14.9329996109009,10.6969995498657,6.53800010681152,9.35315132141113,6.43796396255493,4.09276580810547,-20.0450000762939,-11.1009998321533,-1.05900001525879,-7.00813007354736,-5.71871614456177,-4.57449388504028,9.8037223815918,8.8691234588623,5.90856218338013,-3.93099999427795,6.34600019454956,19.1340007781982,4.73400020599365,7.71500015258789,8.0290002822876,SHAKE
-6.09025621414185,-6.45012903213501,-5.95296621322632,23.7320003509521,20.2800006866455,16.1219997406006,6.13524580001831,5.01918077468872,4.16646909713745,-5.2105188369751,-4.04030084609985,-2.40533399581909,4.14900016784668,-6.59800004959106,-17.3470001220703,8.3430004119873,12.8929996490479,14.9329996109009,0.92861598730087,7.17408514022827,9.35315132141113,-18.7900009155273,-24.3600006103516,-20.0450000762939,-9.42663860321045,-8.48789215087891,-7.00813007354736,9.70388031005859,9.75844764709473,9.8037223815918,-19.3080005645752,-12.4820003509521,-3.93099999427795,4.65500020980835,4.34200000762939,4.73400020599365,0.39972698688507,-0.41804999113083,-1.11305701732636,12.7480001449585,19.3390007019043,25.6940002441406,8.74331474304199,9.68679809570312,8.65817832946777,-9.33959865570068,-8.93088722229004,-7.76032781600952,33.7270011901855,29.882999420166,22.5860004425049,1.125,-1.62000000476837,-0.44299998879433,-5.76258277893066,-4.80189514160156,-3.61766600608826,15.0240001678467,11.1009998321533,5.60900020599365,4.1028618812561,-2.36355495452881,-9.38096046447754,-2.76955890655518,4.88887977600098,8.84542846679688,-14.1300001144409,-29.7430000305176,-25.8199996948242,12.5799999237061,7.71500015258789,5.75400018692017,5.9919581413269,3.88938808441162,0.60383898019791,-7.02199983596802,4.03999996185303,16.6709995269775,-4.71838092803955,2.0805139541626,9.36082553863525,4.11412191390991,-7.88631677627563,-9.72806453704834,23.4489994049072,31.6870002746582,33.2560005187988,6.38199996948242,3.79200005531311,-0.12899999320507,SHAKE
-0.27990400791168,-4.47596788406372,-5.43572282791138,26.1639995574951,24.2810001373291,20.3589992523193,7.50529623031616,6.36042499542236,5.40283393859863,-5.42676877975464,-4.26483821868896,-2.83672595024109,11.5240001678467,1.0110000371933,-10.128999710083,6.46000003814697,11.4809999465942,13.7559995651245,-0.55293798446655,3.3044810295105,8.66152667999268,-8.82600021362305,-20.8299999237061,-25.2229995727539,-10.1770248413086,-10.2521572113037,-8.8615894317627,8.58336353302002,9.83868408203125,10.3006772994995,-23.1520004272461,-17.1900005340576,-8.71700000762939,0.34000000357628,1.04700005054474,4.5770001411438,-0.92623400688171,-1.49483501911163,-0.51167899370193,16.5139999389648,24.1240005493164,30.7150001525879,7.551842212677,9.54775047302246,8.69608020782471,-11.1706380844116,-9.62800788879394,-8.01525402069092,35.375,32.2360000610352,23.6849994659424,3.79200005531311,-2.01200008392334,-1.22800004482269,-5.60742998123169,-4.85290813446045,-3.77341508865356,15.4940004348755,13.4540004730225,6.31500005722046,4.30246305465698,-0.5443029999733,-7.69973802566528,0.64401698112488,4.43936204910278,7.59756278991699,-23.0739994049072,-29.6639995574951,-26.3689994812012,14.3839998245239,5.28299999237061,0.88999998569489,7.657790184021,-0.84385097026825,-1.97192096710205,-8.35499954223633,16.4360008239746,18.4759998321533,-5.81832599639893,4.5422477722168,10.1282720565796,6.11307001113892,-12.1910104751587,-9.88675022125244,27.136999130249,35.4529991149902,35.5320014953613,5.98899984359741,5.59700012207031,3.16499996185303,SHAKE
-2.1275041103363,-0.85031998157501,-6.0451021194458,23.5750007629395,27.4979991912842,24.9090003967285,9.40521240234375,8.21374130249023,7.06074905395508,-7.75900077819824,-6.09359216690063,-4.71912002563477,29.0979995727539,19.6840000152588,9.72000026702881,2.45900011062622,4.02799987792969,6.61700010299683,-2.46209192276001,-0.08201000094414,4.43247222900391,3.09800004959106,-11.414999961853,-28.5970001220703,-6.97294807434082,-10.6280822753906,-10.1423282623291,6.26301193237305,9.12829113006592,10.529746055603,-31.5470008850098,-24.1720008850098,-14.2869997024536,2.06599998474121,-0.67900002002716,-0.05099999904633,-0.11155900359154,-1.99987304210663,-2.20250606536865,13.4540004730225,18.8680000305176,24.2029991149902,9.36756038665772,9.36330223083496,8.20491123199463,-10.5554132461548,-8.2507848739624,-6.47724103927612,36.8650016784668,30.746000289917,20.9389991760254,2.8510000705719,1.51699995994568,2.14499998092651,-5.81488513946533,-4.58846092224121,-3.23428797721863,15.1020002365112,10.6300001144409,5.4520001411438,4.65469884872437,3.31082606315613,-8.01609230041504,-0.9288489818573,1.57564902305603,7.2516770362854,-19.7789993286133,-28.4869995117188,-26.2910003662109,14.3059997558594,9.36299991607666,0.73299998044968,8.03666210174561,4.96410703659058,-0.3199970126152,-6.23699998855591,9.8459997177124,16.2789993286133,-4.41861009597778,7.34499979019165,9.82479763031006,4.14317178726196,-9.76575660705566,-9.03032875061035,30.3540000915527,36.0019989013672,32.5499992370605,6.69500017166138,3.63599991798401,0.96799999475479,SHAKE
-0.532958984375,-3.68621706962585,-6.01690912246704,24.3600006103516,26.2430000305176,16.75,7.76901197433472,6.58690214157104,5.44897794723511,-5.83648014068604,-4.83883810043335,-3.66765809059143,13.5640001296997,3.75699996948242,-6.36299991607666,3.87100005149841,9.20600032806396,13.2069997787476,-1.70518398284912,1.69761598110199,7.63287019729614,-2.0,-16.4360008239746,-28.2049999237061,-9.39859199523926,-10.4621381759644,-9.30996799468994,8.01528072357178,10.2139692306519,10.7032060623169,-25.9769992828369,-22.681999206543,-10.9919996261597,0.49700000882149,-0.44299998879433,2.77300000190735,-0.7433620095253,-1.4328670501709,-1.61175096035004,15.5729999542236,17.298999786377,25.1439990997314,4.6846227645874,10.5447816848755,9.85101318359375,-10.5786838531494,-9.7325382232666,-7.95897579193115,36.3950004577637,34.3549995422363,26.4309997558594,7.87200021743774,3.16499996185303,0.02700000070035,-4.82634592056274,-4.40086317062378,-3.45720911026001,15.6510000228882,11.7279996871948,7.02099990844727,5.16549015045166,4.19475889205933,1.12669098377228,-3.1639358997345,-1.19074201583862,1.98767900466919,-14.5220003128052,-24.0939998626709,-29.5860004425049,12.1090002059937,9.67700004577637,5.44000005722046,10.3619594573975,5.60702180862427,2.21743297576904,-26.1650009155273,-11.2580003738403,5.13800001144409,-7.71077013015747,-6.15840911865234,-4.73917484283447,10.7783899307251,8.98061466217041,4.56943321228027,1.08899998664856,16.2310009002686,30.9810009002686,8.6569995880127,10.2259998321533,8.9709997177124,SHAKE
-0.04839500039816,-3.99667811393738,-4.81523084640503,28.6749992370605,24.9090003967285,20.1229991912842,8.59900283813477,7.31952381134033,6.20269680023193,-6.57586812973022,-5.45481491088867,-4.41115093231201,16.4669990539551,6.73799991607666,-3.06800007820129,0.96799999475479,4.34200000762939,9.44099998474121,-2.15836000442505,0.13228400051594,5.38564205169678,-0.35299998521805,-13.3760004043579,-27.9689998626709,-8.89313888549805,-11.0920915603638,-9.60067176818848,7.17101001739502,10.905740737915,11.5127487182617,-28.0949993133545,-21.4260005950928,-11.3839998245239,1.98800003528595,1.75300002098084,5.0479998588562,0.12342099845409,-0.690505027771,-0.50808298587799,14.2390003204346,19.3390007019043,27.4979991912842,4.3207631111145,10.3400602340698,9.58752536773682,-8.32790279388428,-9.42133140563965,-8.20762825012207,37.4150009155273,34.4329986572266,25.3320007324219,4.89099979400635,0.49700000882149,0.10499999672174,-5.22250890731812,-4.33000183105469,-2.30320310592651,15.8079996109009,11.3360004425049,-10.0030002593994,3.35702395439148,-3.46643710136414,-10.9829158782959,-0.77738797664642,4.77899217605591,9.54456520080566,-31.3120002746582,-31.3899993896484,-25.2709999084473,8.5,4.9689998626709,2.77300000190735,4.28150081634521,2.03301000595093,0.18809500336647,-7.72800016403198,10.7869997024536,17.4559993743896,-6.06696796417236,9.6283540725708,10.1174621582031,7.45015907287598,-10.8783569335938,-9.0705738067627,24.3120002746582,36.1590003967285,29.5690002441406,7.87200021743774,0.49700000882149,-2.09100008010864,SHAKE
0.43041399121284,7.56810283660889,9.24701499938965,-24.2819995880127,-28.6749992370605,-16.8290004730225,-9.22888946533203,-8.38942432403564,-7.03754281997681,8.85864353179932,8.34382629394531,8.11827278137207,-21.2700004577637,-6.44099998474121,3.99200010299683,4.34200000762939,3.71399998664856,5.12599992752075,1.13703095912933,0.35132199525833,-3.6401801109314,19.0249996185303,25.0659999847412,27.7329998016357,8.56434535980225,7.53656387329102,6.21977710723877,-8.93043994903564,-7.90792798995972,-6.86233711242676,30.2749996185303,23.371000289917,15.3680000305176,-1.22800004482269,-1.93400001525879,0.81099998950958,-5.03025722503662,-3.30676198005676,-0.0843809992075,8.82600021362305,-3.09899997711182,-24.3600006103516,-0.08853600174189,-7.95224523544312,-8.60750961303711,3.41070508956909,8.03592967987061,9.35575485229492,-34.3720016479492,-28.8010005950928,-19.8570003509521,6.77400016784668,5.0479998588562,3.63599991798401,6.76762676239014,3.93630790710449,2.03445100784302,6.78599977493286,14.4739999771118,19.5739994049072,-3.77865505218506,5.58523797988892,9.03777980804443,3.6551399230957,-7.94757509231567,-8.31287384033203,28.4710006713867,33.8059997558594,31.4519996643066,7.16599988937378,4.73400020599365,3.16499996185303,-8.44590091705322,-7.75290298461914,-6.6341609954834,22.7910003662109,15.8079996109009,11.7279996871948,4.21437883377075,3.54795002937317,3.29913592338562,-3.69335508346558,-2.18496608734131,0.45518800616264,-4.71500015258789,-16.7980003356934,-22.2889995574951,11.0100002288818,12.6579999923706,12.1870002746582,SHAKE
0.00710000004619,6.99600696563721,11.21555519104,-15.8870000839233,-27.4200000762939,-23.7329998016357,-8.09107494354248,-7.74883079528809,-6.75332307815552,8.5808687210083,8.46286773681641,8.45620441436768,-25.5849990844727,-18.4449996948242,-3.93099999427795,4.5770001411438,2.92899990081787,4.42000007629395,2.16636800765991,0.80427700281143,-3.00892305374146,15.1809997558594,18.7110004425049,24.7520008087158,7.74735021591187,6.71979284286499,5.647873878479,-7.25745296478271,-6.23487281799316,-5.31721782684326,30.431999206543,22.6650009155273,13.5640001296997,0.26199999451637,1.28199994564056,4.73400020599365,-6.02270793914795,-2.57020092010498,1.55497896671295,11.7279996871948,-4.27600002288818,-21.8500003814697,-1.16400098800659,-7.54787015914917,-8.52008533477783,5.28667402267456,7.73416614532471,8.42196941375732,-33.3520011901855,-28.4869995117188,-20.4850006103516,5.51900005340576,3.40000009536743,2.45900011062622,6.76853322982788,3.64012098312378,1.69320094585419,-6.55100011825562,14.8669996261597,14.8669996261597,-4.00036096572876,4.03639221191406,8.28615856170654,3.376384973526,-7.42530822753906,-8.43075561523438,26.117000579834,32.7859992980957,32.314998626709,6.53800010681152,1.36000001430511,-2.48300004005432,-8.87287139892578,-8.38717079162598,-7.42575693130493,20.9080009460449,16.5139999389648,12.1990003585815,3.64246892929077,2.808100938797,3.05539989471436,-5.15925121307373,-3.97290205955505,-1.09447503089905,-4.32299995422363,-18.2880001068115,-28.8799991607666,9.28400039672852,13.2069997787476,13.5989999771118,SHAKE
-1.53148996829987,7.03116178512573,12.7855129241943,-20.5160007476807,-30.8719997406006,-22.7129993438721,-7.0115761756897,-6.05133104324341,-4.8114070892334,8.24220371246338,8.1839017868042,8.10013198852539,-13.2670001983643,-2.44000005722046,9.79800033569336,3.63599991798401,5.91099977493286,8.9709997177124,1.44392204284668,-1.34395599365234,-7.47678899765015,25.6149997711182,30.1660003662109,28.8320007324219,7.31745481491089,6.04469013214111,4.83544492721558,-7.21359395980835,-6.22032117843628,-5.27315282821655,27.7639999389648,17.8010005950928,6.97399997711182,2.22300004959106,3.79200005531311,7.71500015258789,-6.2738790512085,-4.41683292388916,-0.98216098546982,9.8459997177124,-2.23600006103516,-21.5359992980957,1.41898095607758,-7.31090879440308,-7.11883401870728,3.56285095214844,7.07702398300171,6.88198518753052,-34.9210014343262,-20.6420001983643,-9.50100040435791,7.08799982070923,0.81099998950958,2.45900011062622,6.50026607513428,3.30280208587646,1.62232995033264,13.3760004043579,20.2019996643066,27.9689998626709,4.27761316299438,7.7471170425415,6.87603378295898,-6.98212194442749,-7.80267477035522,-6.75101089477539,34.826000213623,34.2760009765625,23.056999206543,4.02799987792969,2.45900011062622,1.59599995613098,-7.38399505615234,-5.7391881942749,-3.44300603866577,12.1990003585815,5.4520001411438,-1.37300002574921,3.21583104133606,-2.30105209350586,-7.09642601013184,1.57343101501465,5.8251371383667,7.91244602203369,-34.3720016479492,-33.2729988098145,-25.2709999084473,12.0299997329712,6.53800010681152,2.92899990081787,SHAKE
-1.13344895839691,-5.74291515350342,-7.34710788726807,23.0259990692139,23.4969997406006,23.4969997406006,7.68474817276001,6.49712181091309,5.29866504669189,-7.75933599472046,-6.77135181427002,-5.84798383712769,22.0370006561279,14.5839996337891,6.89499998092651,1.67400002479553,3.79200005531311,7.32299995422363,-4.70327186584473,-3.22750806808472,0.4663459956646,4.35400009155273,-4.51100015640259,-16.3579998016357,0.85807198286057,-6.42368698120117,-7.90480089187622,6.41815280914307,8.4604549407959,7.94065618515015,-26.2119998931885,-23.3090000152588,-7.69700002670288,11.7170000076294,7.55800008773804,4.9689998626709,3.62921404838562,1.71464896202087,0.64732700586319,6.31500005722046,13.6110000610352,23.5750007629395,2.86277008056641,7.89524507522583,6.85260105133057,-3.6252601146698,-9.14521598815918,-9.2779483795166,31.2950000762939,31.6870002746582,26.3519992828369,3.16499996185303,-1.30599999427795,-2.24799990653992,-7.81112289428711,-6.65530014038086,-5.45744705200195,18.0830001831055,12.9840002059937,5.29500007629395,2.66223406791687,3.22783803939819,0.57633197307587,-4.28811883926392,-0.23588399589062,5.64758205413818,-20.3279991149902,-28.0949993133545,-29.0370006561279,17.0520000457764,13.3640003204346,9.67700004577637,11.087477684021,8.94633865356445,6.49778699874878,-19.181999206543,-8.51200008392334,1.52900004386902,-6.13410806655884,-4.54347276687622,-2.82448792457581,9.02195739746094,8.38874340057373,4.88398599624634,1.32500004768372,5.2480001449585,20.2329998016357,8.57800006866455,9.44099998474121,10.9320001602173,SHAKE
5.02100992202759,3.08438611030579,1.67290198802948,11.6499996185303,23.5750007629395,32.1269989013672,6.0654149055481,8.01214981079102,6.71789789199829,-6.53381204605103,-9.30314445495606,-8.53093338012695,36.0810012817383,29.4909992218018,17.9570007324219,0.34000000357628,0.02700000070035,3.79200005531311,-7.20996522903442,-5.87935495376587,-4.25425386428833,12.0419998168945,7.96299982070923,-4.19700002670288,3.02640604972839,-8.53490352630615,-8.77602291107178,-0.58492398262024,9.08777523040772,8.98950862884521,-30.8409996032715,-22.8390007019043,-11.3839998245239,14.6979999542236,2.38000011444092,2.8510000705719,4.21294116973877,2.35854411125183,1.21113896369934,10.1590003967285,19.0249996185303,32.6759986877441,5.3235068321228,8.6095142364502,7.41577005386353,-8.69245052337646,-9.51581287384033,-8.09858894348145,36.9440002441406,29.4120006561279,16.8589992523193,3.16499996185303,3.47900009155273,8.0290002822876,-6.96086406707764,-5.53512907028198,-3.44751906394959,12.9049997329712,1.37199997901917,-17.5349998474121,3.14453291893005,-2.75455904006958,-8.21657562255859,0.1496199965477,5.38582515716553,8.24422264099121,-35.2350006103516,-31.2329998016357,-21.3479995727539,6.61700010299683,1.9099999666214,0.18400000035763,5.08879995346069,3.10531806945801,1.67030704021454,10.0019998550415,10.0019998550415,14.5530004501343,1.55667901039124,8.65967464447021,7.63262891769409,-5.02728891372681,-8.83584403991699,-7.65205097198486,33.5699996948242,29.9610004425049,21.4099998474121,6.38199996948242,4.81199979782104,5.67500019073486,SHAKE
-8.45223903656006,-6.96434879302979,-2.19889688491821,14.8669996261597,11.6499996185303,-21.4570007324219,2.23703694343567,-6.1017279624939,-8.61439990997314,3.26787996292114,6.89399385452271,7.80699300765991,-33.6660003662109,-31.8610000610352,-17.4249992370605,6.61700010299683,4.42000007629395,1.04700005054474,5.19074296951294,2.78168702125549,1.14526796340942,15.5729999542236,24.3600006103516,28.8320007324219,7.37237691879272,7.71782302856445,6.50220012664795,-8.66311359405518,-8.22608661651611,-6.89064979553223,33.3349990844727,26.5090007781982,16.0750007629395,2.92899990081787,2.6159999370575,4.89099979400635,-7.91407823562622,-6.43005323410034,-0.05935600027442,12.6700000762939,6.94299983978271,-20.5160007476807,-1.43711996078491,-7.6200270652771,-8.10576725006104,4.9330620765686,7.42506790161133,7.34474277496338,-37.4309997558594,-26.9969997406006,-13.8950004577637,7.79400014877319,1.04700005054474,3.16499996185303,7.17720317840576,5.00760078430176,2.83651900291443,16.5930004119873,19.4169998168945,25.7719993591309,0.81875997781754,7.30853414535522,6.64245414733887,-3.70165300369263,-7.70016479492188,-6.96040296554565,34.9039993286133,32.0009994506836,27.9209995269775,2.69400000572205,0.02700000070035,0.02700000070035,-9.2221794128418,-7.90489101409912,-6.16433382034302,17.1420001983643,9.375,-2.94199991226196,3.08362197875977,-5.32191801071167,-7.51802921295166,-1.76585102081299,6.87397623062134,7.71087789535522,-34.3720016479492,-31.3120002746582,-18.8369998931885,16.3449993133545,1.59599995613098,-0.05099999904633,SHAKE
7.17720317840576,5.00760078430176,2.83651900291443,16.5930004119873,19.4169998168945,25.7719993591309,0.81875997781754,7.30853414535522,6.64245414733887,-3.70165300369263,-7.70016479492188,-6.96040296554565,34.9039993286133,32.0009994506836,27.9209995269775,2.69400000572205,0.02700000070035,0.02700000070035,-9.2221794128418,-7.90489101409912,-6.16433382034302,17.1420001983643,9.375,-2.94199991226196,3.08362197875977,-5.32191801071167,-7.51802921295166,-1.76585102081299,6.87397623062134,7.71087789535522,-34.3720016479492,-31.3120002746582,-18.8369998931885,16.3449993133545,1.59599995613098,-0.05099999904633,8.49087524414063,6.65370607376099,4.06064987182617,8.74699974060059,20.0450000762939,28.9890003204346,-2.94303894042969,7.33786821365356,6.7564058303833,0.72179502248764,-8.76933860778809,-7.74003410339355,35.5320014953613,31.1380004882813,21.3309993743896,1.51699995994568,0.49700000882149,2.14499998092651,-8.17521476745605,-6.42694902420044,-4.02706718444824,10.0019998550415,-4.19700002670288,-21.6140003204346,2.73023796081543,-5.78041791915894,-7.75613594055176,3.68437600135803,8.91064739227295,9.31583786010742,-30.1350002288818,-25.42799949646,-21.8190002441406,8.89200019836426,7.40100002288818,7.40100002288818,7.16504907608032,5.53187894821167,3.80359101295471,2.54900002479553,11.8070001602173,18.4759998321533,-1.7671309709549,6.44792318344116,7.3211030960083,1.76417005062103,-5.92682409286499,-7.49691820144653,30.9810009002686,28.7840003967285,23.1359996795654,8.57800006866455,5.59700012207031,3.94899988174438,SHAKE
-8.19986057281494,-8.4114465713501,-7.53711986541748,19.8880004882813,14.8669996261597,12.1990003585815,3.42343091964722,3.27717995643616,-2.4848530292511,-3.40100002288818,0.62195700407028,7.09422588348389,-23.5450000762939,-27.7810001373291,-23.4659996032715,12.9720001220703,11.246000289917,8.6569995880127,7.62033700942993,6.11826705932617,4.11222076416016,2.86299991607666,18.1620006561279,18.1620006561279,4.08831596374512,7.07638311386108,5.1762261390686,-1.26252102851868,-6.49839401245117,-8.12644577026367,29.1770000457764,26.2740001678467,26.2740001678467,4.9689998626709,-0.75700002908707,-0.75700002908707,-8.52752590179443,-7.1833028793335,-5.45090579986572,11.8850002288818,2.54900002479553,-19.181999206543,1.88811099529266,-5.68047285079956,-9.59405326843262,-3.6341609954834,6.9345178604126,10.4941568374634,-33.9010009765625,-30.3700008392334,-22.2889995574951,13.4429998397827,9.83399963378906,5.51900005340576,7.04541492462158,5.44400882720947,2.4753110408783,3.56900000572205,3.56900000572205,28.9890003204346,7.01328706741333,7.79346513748169,6.56413316726685,-7.87058305740356,-9.87513256072998,-8.57207489013672,32.0009994506836,23.4489994049072,10.8959999084473,-1.46300005912781,0.65399998426437,4.10599994659424,-7.52850723266602,-5.97699213027954,-3.4859459400177,10.4729995727539,-10.1599998474121,-29.5380001068115,1.71761298179626,-7.28555822372437,-8.15813159942627,3.99900007247925,9.20977783203125,9.20721817016602,-33.4300003051758,-30.5270004272461,-22.0540008544922,12.2659997940063,9.44099998474121,2.92899990081787,SHAKE
-7.51786994934082,-6.20035696029663,-4.67044019699097,7.72700023651123,3.96099996566772,-6.23699998855591,-4.62301397323608,-10.8909950256348,-9.7505989074707,7.4900598526001,10.7557735443115,9.7069902420044,-33.1160011291504,-30.6840000152588,-18.4449996948242,8.42099952697754,7.24499988555908,3.79200005531311,4.21406412124634,2.81977295875549,0.93680900335312,20.6720008850098,23.3400001525879,24.988000869751,8.81959819793701,7.75248003005981,6.44683218002319,-10.9535293579102,-8.51236534118652,-6.97106790542603,32.7859992980957,16.1529998779297,5.56099987030029,-5.69999980926514,-0.44299998879433,3.79200005531311,-6.01933908462524,-4.20137596130371,-0.84147000312805,6.78599977493286,2.23499989509583,-27.1849994659424,-1.31929898262024,-8.51144123077393,-8.37329578399658,4.81084203720093,9.40830230712891,9.79507637023926,-36.4900016784668,-30.1350002288818,-21.2700004577637,10.6180000305176,6.69500017166138,3.24300003051758,6.47981977462769,4.87359619140625,3.08094191551209,8.51200008392334,14.5530004501343,25.4580001831055,-3.00233006477356,7.22680997848511,8.49581813812256,2.00081300735474,-9.3392744064331,-9.36559963226318,33.3349990844727,33.7270011901855,27.451000213623,-0.36500000953674,-2.9539999961853,-2.64000010490417,-9.00476360321045,-8.06898975372314,-6.88720607757568,15.6510000228882,10.9440002441406,6.86399984359741,4.00072479248047,3.26483392715454,2.40527296066284,-4.50282621383667,-2.56939196586609,2.80417799949646,-15.8559999465942,-29.2719993591309,-33.5870018005371,9.44099998474121,11.6379995346069,11.1669998168945,SHAKE
5.42810821533203,3.24744200706482,1.0767639875412,12.8269996643066,20.4370002746582,25.7719993591309,6.19552993774414,4.95456981658936,3.92783808708191,-8.28493309020996,-7.74953985214233,-6.7673659324646,26.117000579834,18.9769992828369,10.3470001220703,-1.85500001907349,0.81099998950958,4.89099979400635,-7.13973093032837,-5.58498191833496,-3.34491991996765,11.4930000305176,4.82399988174438,-8.27700042724609,4.15713310241699,-2.61616492271423,-5.95177888870239,3.57340097427368,7.58349990844727,7.62993478775024,-26.9179992675781,-25.6630001068115,-23.2310009002686,13.0500001907349,12.1870002746582,10.3830003738403,8.53411293029785,6.89588212966919,4.30574178695679,14.3170003890991,22.4769992828369,29.6949996948242,5.69553184509277,5.31104612350464,2.41835498809814,-5.20389080047607,-7.30213403701782,-7.64588212966919,33.0209999084473,28.0,19.4479999542236,-1.85500001907349,-6.24900007247925,-2.9539999961853,-9.94678974151611,-8.29651546478271,-3.02323508262634,16.9069995880127,8.43299961090088,-24.8309993743896,3.12702608108521,-3.3511381149292,-4.58444690704346,4.83155202865601,7.77787017822266,7.21398782730103,-28.4869995117188,-21.6620006561279,-11.9329996109009,15.326000213623,8.42099952697754,3.08599996566772,9.79257392883301,7.21790981292725,4.15539407730103,8.66899967193604,17.4559993743896,22.5550003051758,1.86694204807281,6.79941892623901,5.29444408416748,-1.04156696796417,-7.18024492263794,-7.58201789855957,30.6669998168945,30.9810009002686,25.7250003814697,-0.36500000953674,-2.56100010871887,-2.16899991035461,SHAKE
4.92210817337036,11.4068565368652,10.4380741119385,-25.0659999847412,-19.6529998779297,-8.66899967193604,-5.9415397644043,-4.56313514709473,-2.55908989906311,9.05491924285889,9.06473541259766,2.81991004943848,0.38299998641014,8.38599967956543,18.0359992980957,4.49900007247925,5.51900005340576,5.51900005340576,-0.95988899469376,-8.19926166534424,-9.80114936828613,21.1429996490479,23.5750007629395,22.5550003051758,5.57427597045898,4.56874322891235,3.77344989776611,-6.74984788894653,-5.81070280075073,-4.76797389984131,22.82200050354,13.6420001983643,8.85700035095215,1.51699995994568,4.49900007247925,6.46000003814697,-1.34960603713989,3.32099390029907,9.85311317443848,-7.33500003814697,-21.5359992980957,-21.5359992980957,-6.99680519104004,-7.14821720123291,-6.04550313949585,7.80284023284912,7.33043098449707,8.16081142425537,-30.8409996032715,-5.7350001335144,6.65999984741211,9.75500011444092,5.20499992370605,7.40100002288818,1.63462698459625,0.39545801281929,-6.17792987823486,15.8870000839233,27.6550006866455,27.6550006866455,6.82993316650391,5.85054779052734,4.81897687911987,-8.25796508789063,-7.13410615921021,-5.89189720153809,29.4120006561279,21.5659999847412,21.5659999847412,1.75300002098084,4.89099979400635,4.89099979400635,-7.05221605300903,-5.59371185302734,-3.20448589324951,9.2180004119873,5.21700000762939,-2.15700006484985,5.0820631980896,1.55535197257996,-5.18252992630005,3.31680202484131,6.08941602706909,8.02952480316162,-20.7199993133545,-25.1919994354248,-24.5650005340576,11.246000289917,9.1269998550415,7.32299995422363,SHAKE
2.03812098503113,9.01810455322266,11.4482469558716,-20.5160007476807,-28.1259994506836,-20.0450000762939,-7.60303592681885,-7.21802616119385,-6.2525429725647,6.93852090835571,6.02853393554688,7.01980018615723,-19.3080005645752,-6.83400011062622,8.69999980926514,2.14499998092651,4.42000007629395,8.3430004119873,2.57138705253601,0.28886398673058,-7.96584177017212,27.1060009002686,30.4790000915527,27.9689998626709,5.8534688949585,4.94129991531372,4.05255889892578,-7.75504589080811,-6.82202577590942,-5.75618886947632,28.7059993743896,23.9200000762939,8.22900009155273,-3.34599995613098,-1.54200005531311,5.98899984359741,-7.41178607940674,-5.63861703872681,-2.50026106834412,8.9040002822876,4.90299987792969,-23.7329998016357,2.29765295982361,-5.51223278045654,-6.9476900100708,4.20290517807007,7.87153291702271,7.79705476760864,-35.6269989013672,-29.3509998321533,-18.6019992828369,9.28400039672852,3.79200005531311,1.36000001430511,9.47680187225342,7.34157800674438,3.73199796676636,6.23699998855591,20.2019996643066,24.988000869751,-2.40649795532227,5.38476610183716,5.49437808990479,-0.06163100153208,-7.50857591629028,-7.16819477081299,30.19700050354,32.1580009460449,27.6079998016357,2.22300004959106,-0.44299998879433,-0.91399997472763,-10.5037488937378,-9.35201168060303,-7.88378095626831,19.0249996185303,14.4739999771118,9.13899993896484,2.2220630645752,3.52828407287598,4.33039522171021,-2.80002999305725,0.26568099856377,4.47025299072266,-10.6000003814697,-23.5450000762939,-30.9200000762939,15.9530000686646,15.5609998703003,11.6379995346069,SHAKE
-3.01963090896606,3.0603449344635,10.4148950576782,-11.0229997634888,-26.4790000915527,-27.5769996643066,-5.92960500717163,-6.45866107940674,-6.05334711074829,8.42899608612061,7.66640090942383,6.23430919647217,-22.2110004425049,-10.9919996261597,0.14800000190735,3.40000009536743,3.32200002670288,5.67500019073486,4.53771114349365,2.57550692558289,-0.96998399496078,17.5340003967285,20.7509994506836,29.4599990844727,6.08007621765137,5.13329982757568,3.08473205566406,-8.37499237060547,-7.68373394012451,-5.5144681930542,32.2360000610352,29.7259998321533,7.99399995803833,-0.28600001335144,0.02700000070035,7.63700008392334,-7.00957584381104,-4.95321178436279,-1.23848700523376,9.68900012969971,-0.98000001907349,-22.242000579834,1.962317943573,-6.292640209198,-6.91504192352295,4.82068490982056,8.27588939666748,8.09743976593018,-34.2150001525879,-27.7810001373291,-15.8559999465942,9.44099998474121,4.10599994659424,1.51699995994568,8.15040397644043,4.87854909896851,1.94234800338745,8.04100036621094,12.0419998168945,18.9459991455078,-3.08859896659851,7.51042413711548,7.48227882385254,3.88799595832825,-9.79010486602783,-9.07383632659912,32.6290016174316,32.6290016174316,29.882999420166,1.9099999666214,1.9099999666214,0.41899999976158,-10.4917316436768,-9.02264499664307,-7.26290893554688,20.1229991912842,20.1229991912842,11.5719995498657,3.7427499294281,4.06383085250854,3.04996800422669,-3.23713493347168,-0.56721097230911,3.07797408103943,-16.6410007476807,-29.8209991455078,-33.4300003051758,15.7180004119873,16.3449993133545,11.246000289917,SHAKE
-2.71520590782166,9.93118476867676,10.6014175415039,-1.37300002574921,-27.1060009002686,-12.5129995346069,-8.13138008117676,-7.33771705627441,-5.84497308731079,8.17967224121094,6.98815298080444,7.77986097335815,-16.8759994506836,0.54000002145767,12.701000213623,1.67400002479553,5.91099977493286,6.85200023651123,1.88587403297424,-0.80158299207687,-9.18586158752441,20.1229991912842,27.1840000152588,27.5769996643066,6.52157211303711,5.38903284072876,4.35462093353271,-7.80093622207642,-6.4334831237793,-5.23799514770508,25.7250003814697,16.3099994659424,6.81699991226196,3.55699992179871,6.38199996948242,10.4610004425049,-6.20322704315186,-3.88297009468079,0.27236101031303,7.64900016784668,-3.25600004196167,-12.6700000762939,0.82941699028015,-6.35633611679077,-7.83566617965698,5.21885919570923,7.81163692474365,7.75759887695313,-32.3320007324219,-26.6049995422363,-17.0330009460449,6.61700010299683,4.10599994659424,3.79200005531311,8.33420562744141,6.07251310348511,0.98014402389526,6.62900018692017,18.7889995574951,27.8899993896484,5.76914596557617,5.67264223098755,3.78869700431824,-7.469810962677,-7.67224979400635,-5.62076616287231,33.0989990234375,28.0779991149902,9.48400020599365,-0.75700002908707,0.88999998569489,9.1269998550415,-7.31395483016968,-5.42710208892822,-2.02320694923401,9.5319995880127,6.31500005722046,-18.2409992218018,3.1912739276886,-3.71898198127747,-6.56394815444946,4.50558376312256,7.67762088775635,7.93480777740479,-30.5270004272461,-25.2709999084473,-15.6990003585815,9.44099998474121,4.5770001411438,1.75300002098084,SHAKE
9.95669460296631,8.35659217834473,2.70492100715637,1.05799996852875,12.5909996032715,24.673999786377,-1.41344201564789,5.97718477249146,5.10182285308838,-1.78251302242279,-8.06363487243652,-6.93879222869873,33.5699996948242,35.2179985046387,28.9409999847412,2.14499998092651,0.10499999672174,0.96799999475479,-8.14240455627441,-6.45151710510254,-4.3205509185791,15.5729999542236,9.06099987030029,-4.58900022506714,3.61118292808533,0.93617701530457,-6.20632219314575,1.29369103908539,5.63169193267822,8.35545444488525,-35.2350006103516,-35.2350006103516,-28.6439990997314,13.4429998397827,13.4429998397827,0.96799999475479,10.6957950592041,9.05979633331299,3.04148197174072,1.2150000333786,13.3760004043579,25.3010005950928,-2.71489191055298,6.16604089736938,5.84591388702393,-1.64248597621918,-8.61409187316895,-7.64722013473511,35.8450012207031,34.6689987182617,26.8229999542236,0.10499999672174,-4.67999982833862,-4.13100004196167,-10.2078733444214,-8.84615707397461,-7.25419187545776,19.4169998168945,14.3959999084473,7.96299982070923,2.39174008369446,3.18623900413513,-5.55085706710815,-3.56423902511597,-0.90803897380829,8.62777042388916,-21.0340003967285,-27.2320003509521,-23.0739994049072,12.8929996490479,13.7559995651245,5.28299999237061,11.4951391220093,9.30290126800537,5.91871404647827,0.74500000476837,9.76700019836426,14.2390003204346,-3.43577194213867,-0.87664502859116,7.75062894821167,8.57643127441406,0.80816102027893,-8.29969120025635,21.8799991607666,30.5890007019043,32.6290016174316,3.55699992179871,-0.12899999320507,-1.77699995040894,SHAKE
-7.25419187545776,-5.34698820114136,-2.32334995269775,7.96299982070923,-6.15899991989136,-17.1420001983643,-5.55085706710815,-6.33014011383057,-5.70830678939819,8.62777042388916,8.44143104553223,7.38010883331299,-23.0739994049072,-10.835000038147,0.30500000715256,5.28299999237061,3.40000009536743,3.16499996185303,5.91871404647827,2.76624989509583,1.24757695198059,14.2390003204346,20.2800006866455,23.8110008239746,7.75062894821167,6.47715377807617,5.03668785095215,-8.29969120025635,-8.0894079208374,-7.01594305038452,32.6290016174316,28.7059993743896,20.7029991149902,-1.77699995040894,-1.14900004863739,1.36000001430511,-7.109375,-5.11003112792969,-1.72241699695587,7.96299982070923,-2.15700006484985,-22.3990001678467,2.5453200340271,-6.08221483230591,-8.07236385345459,6.06182909011841,9.31067180633545,8.92754459381104,-32.7239990234375,-30.1350002288818,-13.5019998550415,10.3039999008179,7.08799982070923,-0.36500000953674,8.18634510040283,6.79733800888062,2.67522311210632,10.2379999160767,15.4160003662109,27.1060009002686,6.00851917266846,5.69664907455444,4.7725658416748,-9.86836814880371,-8.26900577545166,-6.46067380905151,34.9039993286133,29.2549991607666,19.0559997558594,2.6159999370575,4.10599994659424,7.63700008392334,-8.36952877044678,-6.55004787445068,-4.08376502990723,13.6110000610352,8.19799995422363,-0.58799999952316,4.28465890884399,1.75488305091858,-5.13872385025024,2.02028203010559,5.2218542098999,7.99653577804565,-28.8799991607666,-32.1749992370605,-27.4680004119873,13.0500001907349,6.38199996948242,0.10499999672174,SHAKE
6.59030914306641,1.18994295597076,-9.91211605072022,19.9659996032715,31.2639999389648,30.4009990692139,5.90980195999146,5.13353395462036,4.33853197097778,-7.36207723617554,-5.9752459526062,-4.79253196716309,29.3339996337891,19.4479999542236,9.0920000076294,3.00799989700317,4.65500020980835,8.10799980163574,-6.95760202407837,-4.82368278503418,-1.78601801395416,9.2180004119873,2.07800006866455,-14.6319999694824,-5.11405801773071,-8.04006290435791,-7.61166381835938,7.28480911254883,8.31928443908691,7.51332378387451,-33.1160011291504,-24.1720008850098,-11.9329996109009,1.75300002098084,-0.67900002002716,0.96799999475479,5.62142419815063,0.44522601366043,0.98572397232056,8.35499954223633,18.1620006561279,29.2240009307861,2.07927703857422,7.10849094390869,6.69390678405762,-10.541166305542,-9.0846061706543,-7.06051397323608,37.1790008544922,34.9039993286133,25.8819999694824,3.71399998664856,3.55699992179871,4.34200000762939,-8.12018299102783,-6.13726091384888,-3.61887693405151,11.4930000305176,5.60900020599365,-6.62900018692017,4.84254503250122,-7.1026930809021,-8.23591232299805,2.46166706085205,8.71632385253906,8.36043071746826,-30.8409996032715,-25.6630001068115,-16.3269996643066,10.539999961853,0.34000000357628,-0.52200001478195,7.82187080383301,4.75839519500732,2.62885189056396,14.6309995651245,18.1620006561279,32.048999786377,5.66499280929565,6.26007318496704,5.65124177932739,-9.79012966156006,-7.81199502944946,-6.14044094085693,36.9440002441406,31.6870002746582,21.8799991607666,2.6159999370575,2.38000011444092,3.87100005149841,SHAKE
-8.12018299102783,-6.13726091384888,-3.61887693405151,11.4930000305176,5.60900020599365,-6.62900018692017,4.84254503250122,-7.1026930809021,-8.23591232299805,2.46166706085205,8.71632385253906,8.36043071746826,-30.8409996032715,-25.6630001068115,-16.3269996643066,10.539999961853,0.34000000357628,-0.52200001478195,7.82187080383301,4.75839519500732,2.62885189056396,14.6309995651245,18.1620006561279,32.048999786377,5.66499280929565,6.26007318496704,5.65124177932739,-9.79012966156006,-7.81199502944946,-6.14044094085693,36.9440002441406,31.6870002746582,21.8799991607666,2.6159999370575,2.38000011444092,3.87100005149841,-8.44775485992432,-4.71199178695679,-1.87082195281982,19.7310009002686,3.4909999370575,-14.5530004501343,2.97268795967102,-3.90955090522766,-6.68776893615723,2.76062393188477,6.5233588218689,6.44774389266968,-36.3330001831055,-32.5670013427734,-22.3680000305176,8.10799980163574,0.41899999976158,-2.875,12.7333498001099,11.1046657562256,8.84167671203613,11.3360004425049,21.4570007324219,24.5170001983643,-3.93419408798218,1.85723805427551,3.34500598907471,-0.85866397619247,-5.3474760055542,-4.85128116607666,33.1780014038086,36.9440002441406,31.3729991912842,5.75400018692017,5.67500019073486,5.28299999237061,-10.6207027435303,-8.7486743927002,-6.39379692077637,13.1409997940063,8.27600002288818,1.13699996471405,4.16993808746338,2.57302594184875,-8.38242816925049,1.96181404590607,4.81702613830566,10.6550769805908,-24.5650005340576,-30.5270004272461,-20.0930004119873,12.1870002746582,8.6569995880127,-0.99199998378754,SHAKE
6.58752298355103,7.55424690246582,-8.87962436676025,15.7299995422363,32.9119987487793,31.7350006103516,6.04045295715332,5.72351598739624,4.89180278778076,-8.76261234283447,-6.50845718383789,-3.97259593009949,31.5300006866455,22.507999420166,12.2299995422363,5.91099977493286,7.40100002288818,9.36299991607666,-6.01426410675049,-3.73813390731812,-1.01748502254486,9.5319995880127,2.70600008964539,-9.14000034332275,-3.86909008026123,-8.77787590026855,-9.22685241699219,7.11474609375,9.50213241577148,9.51192855834961,-30.3700008392334,-24.0149993896484,-13.7379999160767,4.5770001411438,0.88999998569489,-0.99199998378754,0.867211997509,-4.96677398681641,-6.78911018371582,3.25500011444092,15.6510000228882,29.30299949646,-2.30893611907959,8.96543121337891,8.83198356628418,-20.0242156982422,-13.8969440460205,-10.2040357589722,36.8650016784668,36.0810012817383,36.0810012817383,2.45900011062622,3.40000009536743,3.40000009536743,-5.1471061706543,-3.58625793457031,-1.77210199832916,13.3760004043579,8.59000015258789,5.13800001144409,5.1832537651062,1.36995601654053,-7.11148881912231,0.90347802639008,3.40417098999023,7.55240106582642,-27.3889999389648,-31.3899993896484,-27.3889999389648,11.4029998779297,8.26399993896484,4.18499994277954,8.68928718566895,6.56353998184204,0.09902700036764,-4.90299987792969,11.1009998321533,16.75,-4.98005390167236,-6.6733832359314,7.09783697128296,13.6484985351563,4.25528621673584,-13.1456384658813,18.5849990844727,31.0599994659424,36.4729995727539,1.59599995613098,2.69400000572205,2.06599998474121,SHAKE
-3.27023100852966,2.40399098396301,-5.22412776947021,22.9479999542236,32.1269989013672,30.5580005645752,8.63020420074463,7.47237777709961,6.25543022155762,-9.70224952697754,-7.91115808486938,-6.4451060295105,31.8439998626709,18.5849990844727,9.32699966430664,-0.60000002384186,0.18400000035763,2.8510000705719,-4.82722187042236,-3.46420907974243,-1.63168799877167,8.19799995422363,2.0,-9.2180004119873,-3.87437796592712,-9.05655574798584,-8.80153846740723,6.63409280776978,10.0850276947021,10.727557182312,-28.5659999847412,-23.9370002746582,-14.5220003128052,7.71500015258789,4.73400020599365,3.63599991798401,5.19129085540771,0.07716599851847,0.29253599047661,15.4160003662109,20.7509994506836,27.1840000152588,-0.3053349852562,7.98577976226807,7.32218885421753,-6.06431484222412,-10.390664100647,-9.29514122009277,35.1389999389648,34.5120010375977,26.7450008392334,-0.52200001478195,-3.81699991226196,-3.03200006484985,-6.88918876647949,-5.53725576400757,-3.79900503158569,13.0620002746582,6.47200012207031,3.01999998092651,4.35605192184448,2.40013599395752,-5.70352506637573,-0.70288497209549,2.97270011901855,7.93190383911133,-23.3880004882813,-28.6439990997314,-26.7609996795654,11.08899974823,7.79400014877319,2.77300000190735,11.065146446228,8.47190380096436,-2.69289088249207,-10.5520000457764,7.33500003814697,20.6720008850098,-5.43897104263306,4.69944620132446,8.55491256713867,5.15995407104492,-10.4249048233032,-9.3804817199707,28.0,33.0989990234375,33.8059997558594,5.59700012207031,5.51900005340576,3.00799989700317,SHAKE
-1.75614905357361,-3.14647889137268,2.23602199554443,11.2580003738403,20.2800006866455,29.4599990844727,8.70343399047852,9.10046672821045,8.02323818206787,-12.9590759277344,-10.3732986450195,-8.04639530181885,36.0019989013672,31.1380004882813,21.8799991607666,4.34200000762939,4.9689998626709,5.51900005340576,-5.7939190864563,-4.43671607971191,-0.49183601140976,14.4739999771118,14.4739999771118,-8.82600021362305,3.65814304351807,-3.975830078125,-9.58154392242432,2.09927296638489,6.15399408340454,8.91209602355957,-28.4869995117188,-29.5860004425049,-23.3090000152588,8.18599987030029,4.49900007247925,1.20299994945526,6.33723783493042,-3.97065305709839,-4.57933282852173,12.8269996643066,17.0629997253418,25.6940002441406,-2.1216459274292,8.79140853881836,7.63895177841187,-9.35696411132812,-8.99312877655029,-7.09410190582275,36.3160018920898,26.9799995422363,16.7810001373291,5.36199998855591,4.02799987792969,4.10599994659424,-5.64704990386963,-4.29360580444336,-2.54631090164185,11.414999961853,5.8439998626709,-4.82499980926514,4.6095290184021,0.21547700464725,-9.63670825958252,-0.26093599200249,3.80114698410034,9.2066707611084,-22.996000289917,-28.9580001831055,-23.8589992523193,8.81400012969971,5.91099977493286,1.43900001049042,8.68685817718506,8.25836372375488,4.97616386413574,-0.03900000080466,13.8470001220703,21.1429996490479,-5.79119491577148,-2.21040105819702,6.49448204040527,7.78786420822144,-6.62632083892822,-9.17830944061279,23.2919998168945,32.1580009460449,34.1189994812012,5.12599992752075,6.61700010299683,4.5770001411438,SHAKE
3.89559197425842,-9.72952747344971,-12.8297147750854,29.2240009307861,28.8320007324219,24.7520008087158,4.58289623260498,4.13461208343506,3.66764807701111,-4.89359617233276,-3.64216089248657,-2.59522390365601,21.2530002593994,11.6029996871948,2.73699998855591,7.71500015258789,7.71500015258789,8.9709997177124,-5.92421579360962,-3.23292303085327,0.19295999407768,2.94099998474121,-9.14000034332275,-25.6940002441406,-3.97399592399597,-9.20161628723144,-9.09804630279541,7.40567398071289,9.56898212432861,6.40426397323608,-28.9580001831055,-22.6030006408691,-12.0120000839233,0.34000000357628,-2.24799990653992,-0.91399997472763,11.5044097900391,8.89466381072998,5.00165414810181,19.4169998168945,25.1439990997314,30.3229999542236,0.59343302249908,2.99790096282959,2.87473797798157,-5.2611870765686,-4.62134218215942,-3.60970497131348,35.6889991760254,22.1940002441406,12.1520004272461,4.73400020599365,3.08599996566772,5.20499992370605,-9.079270362854,-6.86131715774536,-4.09695911407471,10.3159999847412,3.56900000572205,-16.3579998016357,3.47354888916016,-4.63435888290405,-7.43034505844116,2.7451229095459,8.58917331695557,8.02260684967041,-31.3120002746582,-26.6049995422363,-21.4260005950928,6.53800010681152,-0.67900002002716,-3.11100006103516,12.4898366928101,10.6854553222656,5.29639291763306,16.5930004119873,21.4570007324219,26.2430000305176,3.16018509864807,3.5728919506073,3.39480400085449,-4.18002796173096,-3.72220611572266,-2.79754209518433,34.2760009765625,29.882999420166,21.3309993743896,9.99100017547607,5.0479998588562,4.34200000762939,SHAKE
8.17489433288574,-7.405592918396,-0.17622700333595,5.8439998626709,19.8090000152588,19.8090000152588,4.85721111297607,8.18047714233398,6.76703214645386,-10.2121286392212,-9.24887943267822,-5.65469312667847,34.9039993286133,33.1780014038086,16.4669990539551,7.79400014877319,5.36199998855591,4.49900007247925,-5.59736394882202,-3.76552605628967,-1.98462796211243,11.8070001602173,6.31500005722046,-4.90299987792969,-1.57243001461029,-9.65945816040039,-10.1022577285767,4.41841077804565,9.02683544158936,7.70850706100464,-30.6840000152588,-25.5060005187988,-15.46399974823,4.65500020980835,-0.52200001478195,-1.38499999046326,11.8196287155151,12.5845909118652,10.1558027267456,16.3570003509521,24.2029991149902,30.5580005645752,-1.92771697044373,2.09952998161316,2.58614611625671,-3.01641798019409,-5.95271682739258,-4.98226499557495,36.3950004577637,36.1590003967285,25.4890003204346,3.24300003051758,2.77300000190735,3.00799989700317,-11.1034259796143,-9.3889799118042,-7.38437223434448,15.3369998931885,10.7089996337891,5.8439998626709,4.37914705276489,4.06439018249512,-7.55735397338867,0.34477201104164,2.18192291259766,10.7847719192505,-16.0130004882813,-24.878999710083,-22.4459991455078,9.75500011444092,10.0690002441406,0.41899999976158,11.3206815719604,13.221227645874,12.1786479949951,-9.61100006103516,6.94299983978271,19.7310009002686,-4.70003223419189,-1.56905198097229,3.16917896270752,0.14484299719334,-0.24366700649261,-5.87279891967773,24.6259994506836,32.7859992980957,34.1980018615723,4.9689998626709,5.51900005340576,4.9689998626709,SHAKE
15.5034828186035,14.6673021316528,13.0965270996094,7.02099990844727,18.3190002441406,24.988000869751,-1.8379180431366,0.83201801776886,1.77313995361328,5.01938676834106,-1.03395295143127,-3.22097611427307,28.3139991760254,33.1780014038086,31.3729991912842,8.9709997177124,6.93100023269653,2.69400000572205,-10.9505224227905,-9.25813865661621,-7.37908792495728,16.9850006103516,12.4350004196167,7.02099990844727,2.48610901832581,-0.75712901353836,-6.61009883880615,-0.16842900216579,4.31116914749146,10.3364152908325,-27.3110008239746,-28.4090003967285,-22.4459991455078,14.6979999542236,10.6969995498657,2.92899990081787,14.0812587738037,11.8294544219971,6.96349811553955,1.2150000333786,22.0849990844727,28.9099998474121,1.46572601795197,3.53535008430481,3.17424511909485,-0.439866989851,-6.00746393203735,-5.03882312774658,36.3160018920898,33.0209999084473,24.3120002746582,4.73400020599365,6.69500017166138,8.26399993896484,-10.6427783966064,-8.85767936706543,-6.97975301742554,16.9069995880127,11.96399974823,8.66899967193604,2.2076530456543,-3.69872808456421,-8.98430728912354,-0.05257200077176,6.55517387390137,9.76403522491455,-21.4260005950928,-26.6830005645752,-23.7800006866455,7.63700008392334,0.02700000070035,-2.24799990653992,17.0954151153564,16.86452293396,10.8853893280029,1.68599998950958,13.1409997940063,22.8689994812012,-2.08679890632629,-4.70807123184204,-2.52398991584778,-5.67110919952393,1.92111504077911,1.70457994937897,28.4710006713867,33.3349990844727,32.0009994506836,10.0690002441406,13.835000038147,14.3059997558594,SHAKE
16.86452293396,10.8853893280029,6.03183507919312,13.1409997940063,22.8689994812012,28.0470008850098,-4.70807123184204,-2.52398991584778,-0.4101519882679,1.92111504077911,1.70457994937897,2.18110704421997,33.3349990844727,32.0009994506836,16.7810001373291,13.835000038147,14.3059997558594,6.22499990463257,-9.71251106262207,-7.82022285461426,-5.83276891708374,9.92399978637695,5.8439998626709,-1.60800004005432,2.17503499984741,-0.28957799077034,-10.5032615661621,3.28025889396667,5.41986513137817,13.2370004653931,-22.5249996185303,-22.5249996185303,-22.4459991455078,7.32299995422363,7.32299995422363,-0.60000002384186,-7.75577878952026,-20.0945816040039,-16.5594825744629,-6.07999992370605,9.76700019836426,28.5960006713867,-10.8893623352051,8.09134578704834,8.16534900665283,-17.2449035644531,-10.5621309280396,-7.34284591674805,34.4329986572266,34.4329986572266,27.3719997406006,10.3830003738403,10.2259998321533,8.18599987030029,5.50787782669067,4.2808141708374,3.46342706680298,15.4160003662109,11.414999961853,6.55000019073486,4.19216918945313,-1.30726003646851,-12.6815567016602,-1.20622301101685,1.28190004825592,7.60817623138428,-7.06899976730347,-26.0550003051758,-23.6229991912842,5.28299999237061,4.5770001411438,0.65399998426437,5.19392013549805,-19.4615516662598,-14.7739248275757,-8.11999988555908,7.88399982452393,19.9659996032715,-3.87922406196594,-13.2108392715454,8.09941482543945,10.718165397644,-17.0675048828125,-14.8009834289551,23.1359996795654,33.1780014038086,35.923999786377,6.06799983978271,7.55800008773804,7.79400014877319,SHAKE
-6.21627187728882,0.23159000277519,-5.06459808349609,31.1860008239746,31.4990005493164,26.4780006408691,7.13986682891846,6.12466287612915,5.27187013626099,-7.62759208679199,-5.99190378189087,-4.53509378433228,24.2339992523193,13.6420001983643,3.36500000953674,1.9099999666214,5.59700012207031,9.91199970245361,-3.30710196495056,1.60980498790741,7.6596360206604,3.09800004959106,-22.6340007781982,-28.3619995117188,-9.38743591308594,-9.8697624206543,-8.91909694671631,9.4442720413208,9.9048318862915,9.6949577331543,-22.2110004425049,-14.7580003738403,-4.71500015258789,0.02700000070035,-0.99199998378754,2.45900011062622,-2.42566204071045,-2.20345497131348,2.54266500473022,17.0629997253418,27.8120002746582,32.8330001831055,7.92561197280884,6.9846830368042,5.90425395965576,-10.6145429611206,-7.04272794723511,-5.63995409011841,36.0019989013672,19.1340007781982,13.956000328064,7.48000001907349,3.94899988174438,5.20499992370605,-4.83118486404419,-2.34927701950073,4.31817817687988,9.2180004119873,2.47099995613098,-26.2430000305176,-5.79839897155762,-8.69732570648193,-8.5421199798584,5.9405369758606,7.91465520858765,7.76866579055786,-29.0370006561279,-22.996000289917,-14.0520000457764,2.30200004577637,0.10499999672174,0.88999998569489,4.90607404708862,-2.86883211135864,-2.9033739566803,16.4360008239746,22.7119998931885,28.4400005340576,0.23971100151539,8.07471561431885,6.99057197570801,-10.978066444397,-10.455174446106,-6.48792695999146,34.6689987182617,35.0610008239746,18.5069999694824,3.24300003051758,2.38000011444092,4.34200000762939,SHAKE
-5.86007118225098,-3.37239599227905,-4.12138509750366,21.6919994354248,27.4200000762939,27.5769996643066,8.79094409942627,7.63749122619629,6.68960809707642,-8.84178352355957,-6.95592784881592,-5.33873987197876,26.5090007781982,17.0160007476807,8.46399974822998,7.48000001907349,7.08799982070923,7.48000001907349,-2.43236088752747,-0.97437798976898,0.84205102920532,7.41300010681152,2.47099995613098,-7.72800016403198,2.30989694595337,-10.7481803894043,-10.3463020324707,1.17201900482178,8.4003734588623,9.85209846496582,-21.5830001831055,-19.8570003509521,-14.3649997711182,5.20499992370605,0.02700000070035,-1.07099997997284,-0.46686300635338,-4.6760721206665,1.15151596069336,7.72700023651123,17.6909999847412,27.1060009002686,8.38409900665283,9.50494480133057,8.59759044647217,-11.7719860076904,-9.80576133728027,-7.81308603286743,33.8839988708496,31.4519996643066,23.8419990539551,10.1470003128052,7.63700008392334,6.22499990463257,-4.66221284866333,-3.68086099624634,-2.4074718952179,15.8079996109009,12.5129995346069,7.57000017166138,5.60416698455811,3.97529196739197,-9.38847064971924,-2.18586301803589,-1.67173898220062,2.86395311355591,-20.1709995269775,-29.3509998321533,-24.5650005340576,1.9099999666214,0.41899999976158,-0.99199998378754,17.8144817352295,15.9824533462524,7.09158277511597,-2.31399989128113,10.6300001144409,25.8509998321533,-1.14673495292664,0.466343998909,0.23469099402428,10.7845611572266,2.09871792793274,0.52051901817322,29.3339996337891,32.3930015563965,27.9209995269775,10.539999961853,8.81400012969971,7.79400014877319,SHAKE
15.9824533462524,7.09158277511597,1.77342402935028,10.6300001144409,25.8509998321533,28.2830009460449,0.466343998909,0.23469099402428,-0.29255700111389,2.09871792793274,0.52051901817322,0.17699199914932,32.3930015563965,27.9209995269775,10.5830001831055,8.81400012969971,7.79400014877319,6.93100023269653,-8.86061000823975,-6.85992908477783,-4.4639139175415,11.1789999008179,2.39199995994568,-9.61100006103516,2.07078695297241,-4.14578008651733,-9.14962863922119,3.88032793998718,8.62818717956543,11.3109951019287,-26.5259990692139,-26.6830005645752,-24.5650005340576,3.32200002670288,2.30200004577637,1.75300002098084,8.23332214355469,6.48156309127808,0.93053197860718,-1.68700003623962,12.5129995346069,26.4780006408691,3.16617894172669,8.88771057128906,7.49970388412476,-4.47595500946045,-8.2662353515625,-7.5382661819458,33.0989990234375,32.7859992980957,24.1550006866455,10.539999961853,5.28299999237061,3.24300003051758,-8.38190078735352,-7.21581983566284,-5.84294509887695,14.7880001068115,10.3159999847412,4.82399988174438,4.02470397949219,4.06981086730957,0.23352299630642,-2.80216789245605,-0.47492599487305,4.16194915771484,-16.4839992523193,-21.4260005950928,-27.4680004119873,7.55800008773804,7.79400014877319,4.10599994659424,9.39139366149902,5.09873104095459,0.36127200722694,-20.1240005493164,-20.1240005493164,-5.76599979400635,-3.64813089370728,-3.56424188613892,-5.99886178970337,14.4535665512085,11.1422958374023,-8.07075214385986,6.81699991226196,19.6049995422363,29.0979995727539,4.81199979782104,8.10799980163574,7.32299995422363,SHAKE
1.40562498569489,5.95056295394897,11.9724550247192,-0.66699999570847,-14.9460000991821,-24.673999786377,-9.42593193054199,-8.59346866607666,-6.48124504089355,8.1307897567749,6.2494797706604,11.4536733627319,-18.7590007781982,-5.10799980163574,8.30700016021729,2.22300004959106,3.47900009155273,4.9689998626709,-2.25829005241394,-0.45190599560738,-5.06749200820923,19.1030006408691,26.556999206543,30.5580005645752,8.49829769134521,7.18293523788452,5.84408617019653,-9.68383598327637,-8.18405342102051,-6.74961090087891,32.6290016174316,22.6650009155273,11.8380002975464,1.125,3.16499996185303,7.40100002288818,-5.93317985534668,-4.04681777954102,-1.56281900405884,10.2379999160767,0.98000001907349,-15.8870000839233,2.34461402893066,-5.9484748840332,-9.1601505279541,2.25169897079468,7.22970008850098,8.73313808441162,-35.2350006103516,-32.4099998474121,-22.7600002288818,7.40100002288818,2.38000011444092,0.65399998426437,8.48046398162842,7.64822912216187,-0.58879601955414,7.02099990844727,17.3770008087158,24.8309993743896,-6.21590089797974,2.99282908439636,7.3396520614624,5.73075485229492,-11.8454875946045,-9.33234405517578,28.7059993743896,32.314998626709,30.19700050354,2.14499998092651,6.22499990463257,9.67700004577637,-8.15138339996338,-6.83829498291016,-4.96402788162231,14.16100025177,10.3159999847412,7.02099990844727,5.69168710708618,5.54606103897095,3.5725679397583,0.59581798315048,2.53215789794922,3.81077694892883,-2.75399994850159,-12.168999671936,-20.0930004119873,8.73499965667725,8.6569995880127,9.1269998550415,SHAKE
-4.31354999542236,-9.82748508453369,-8.15138339996338,27.4200000762939,23.8889999389648,14.16100025177,5.43118095397949,5.47600984573364,5.69168710708618,-3.62263607978821,-1.58887004852295,0.59581798315048,10.3470001220703,4.22800016403198,-2.75399994850159,8.89200019836426,9.04899978637695,8.73499965667725,-0.36296299099922,2.02508091926575,5.55000114440918,-4.19700002670288,-17.7700004577637,-26.007999420166,-8.39235687255859,-9.32299327850342,-8.47198867797852,10.0021343231201,10.4283990859985,9.40956401824951,-20.0930004119873,-13.8159999847412,-3.85199999809265,4.9689998626709,3.47900009155273,3.08599996566772,0.73291200399399,-1.54012298583984,0.81907397508621,15.0240001678467,21.5349998474121,25.6940002441406,8.52965354919434,8.63600444793701,7.43601322174072,-10.3023014068604,-10.142448425293,-8.65655708312988,36.4729995727539,31.6089992523193,22.2730007171631,4.65500020980835,2.38000011444092,2.22300004959106,-5.2973370552063,-4.48562097549438,-1.28093194961548,15.7299995422363,10.8649997711182,-12.0430002212524,2.3681468963623,-5.11179304122925,-9.13117218017578,0.7763540148735,6.2450909614563,8.56259346008301,-29.7430000305176,-29.1940002441406,-23.3880004882813,12.1870002746582,7.95100021362305,3.24300003051758,8.6395263671875,7.83957481384277,4.14553785324097,1.37199997901917,14.4739999771118,22.242000579834,-5.17905807495117,5.80506992340088,5.85031223297119,5.54976320266724,-9.2439661026001,-7.87187004089355,25.0189990997314,33.7270011901855,28.1569995880127,4.18499994277954,3.00799989700317,3.24300003051758,SHAKE
-0.01580899953842,-0.51685202121735,-6.72223377227783,15.4160003662109,15.4160003662109,22.5550003051758,7.73732995986938,6.67708015441895,4.3968391418457,-8.50553703308105,-7.67044115066528,-5.71989107131958,37.7280006408691,29.8040008544922,7.60099983215332,0.88999998569489,0.34000000357628,5.98899984359741,-4.94784879684448,-3.18109893798828,-0.53799998760223,8.82600021362305,-1.84300005435944,-21.6140003204346,-0.23824100196362,-7.40077018737793,-8.33588409423828,3.22060203552246,7.97665309906006,7.90842008590698,-36.2550010681152,-29.8209991455078,-29.8209991455078,11.246000289917,4.02799987792969,4.02799987792969,10.154637336731,8.55047416687012,3.2709538936615,15.1020002365112,22.3199996948242,31.2639999389648,-2.60068011283875,4.85044717788696,4.91134881973267,-4.59264516830444,-9.00381183624268,-7.41866779327393,37.9640007019043,35.923999786377,25.8819999694824,-0.36500000953674,0.26199999451637,3.08599996566772,-9.98077487945557,-8.40023040771484,-6.56156301498413,15.8870000839233,10.6300001144409,3.6470000743866,3.9607789516449,3.43712210655212,-2.38878703117371,-0.51836901903152,2.53781890869141,7.77938795089722,-22.132999420166,-28.7229995727539,-28.8799991607666,14.0699996948242,14.0699996948242,12.1870002746582,8.25671672821045,7.15460681915283,5.86345720291138,-14.3179998397827,2.94099998474121,13.1409997940063,-5.59152221679688,-4.17341899871826,2.56795191764832,11.0050373077393,10.4714736938477,-9.45768547058106,15.7609996795654,28.4710006713867,34.826000213623,-0.36500000953674,1.04700005054474,1.36000001430511,SHAKE
5.6680588722229,1.28247594833374,-0.49039900302887,11.2580003738403,15.5729999542236,23.8110008239746,8.67612838745117,7.26042413711548,5.95823287963867,-10.6976232528687,-8.88447666168213,-7.11425876617432,32.2360000610352,30.1180000305176,18.193000793457,3.08599996566772,2.8510000705719,4.26300001144409,-6.69315910339355,-5.29471683502197,-3.28486895561218,10.1590003967285,4.51000022888184,-5.2960000038147,4.54413509368896,1.40974700450897,-10.7117881774902,0.56677401065826,4.96072912216187,9.65590000152588,-24.4860000610352,-27.2320003509521,-11.7760000228882,7.79400014877319,5.67500019073486,1.98800003528595,8.77760982513428,8.19129753112793,6.03014707565308,8.51200008392334,18.0830001831055,24.3600006103516,3.53750205039978,11.4821310043335,8.45464992523193,-1.84785997867584,-7.9023060798645,-7.99623107910156,35.923999786377,32.7070007324219,28.863000869751,4.02799987792969,1.98800003528595,1.59599995613098,-8.13627910614014,-7.38317823410034,-6.23089504241943,11.6499996185303,7.80600023269653,0.66600000858307,2.45532703399658,1.92828905582428,-8.75614452362061,-3.67799401283264,0.6869570016861,9.38242626190186,-24.3290004730225,-29.5069999694824,-27.1539993286133,9.99100017547607,8.3430004119873,4.10599994659424,-0.56480497121811,-1.94560098648071,-2.72570896148682,7.17799997329712,17.0629997253418,19.6529998779297,-6.07440900802612,10.708441734314,9.27651882171631,1.67191898822784,-11.1390800476074,-9.06651496887207,29.7259998321533,31.8439998626709,23.2140007019043,3.16499996185303,1.59599995613098,1.98800003528595,SHAKE
2.18855595588684,-0.47701200842857,-0.24194699525833,9.29599952697754,14.2390003204346,21.6919994354248,10.4216442108154,10.5437870025635,8.65570163726807,-6.87959384918213,-10.1251792907715,-8.97274398803711,34.1189994812012,29.882999420166,22.1940002441406,1.125,-0.12899999320507,-0.12899999320507,-5.45535516738892,-4.60736513137817,-3.32790207862854,11.4930000305176,7.96299982070923,2.94099998474121,4.39874076843262,3.23073506355286,-7.26933097839355,-2.63118696212769,0.94688999652863,7.69602203369141,-15.8559999465942,-27.9379997253418,-26.6049995422363,9.83399963378906,10.6180000305176,5.51900005340576,1.96580696105957,0.89497900009155,-1.0989830493927,6.55000019073486,12.4350004196167,17.613000869751,-4.7366771697998,11.8534879684448,10.9200086593628,6.11378717422485,-11.1586761474609,-11.2064456939697,34.5900001525879,35.8450012207031,29.0979995727539,-4.05200004577637,-4.60099983215332,-3.03200006484985,-5.79809093475342,-5.36558198928833,-4.36127614974976,12.9049997329712,9.92399978637695,7.72700023651123,4.64233016967773,0.67220801115036,-10.6170034408569,-0.11700599640608,5.55804204940796,9.83194828033447,-21.3479995727539,-28.4090003967285,-24.878999710083,14.4619998931885,11.6379995346069,2.38000011444092,2.64017391204834,-0.56593799591064,-1.73734104633331,-4.82499980926514,9.06099987030029,13.8470001220703,-6.69228506088257,-6.16441679000854,13.2785263061523,8.80254745483398,6.71325206756592,-14.4215202331543,22.8999996185303,33.492000579834,35.5320014953613,-3.97399997711182,-4.67999982833862,-2.09100008010864,SHAKE
-1.44585597515106,-0.95430898666382,0.15151600539684,15.0240001678467,17.0629997253418,17.3770008087158,11.6946973800659,9.83683967590332,8.23965358734131,-11.2619857788086,-9.40349578857422,-7.59402418136597,30.2749996185303,23.9990005493164,15.6820001602173,-1.93400001525879,-0.36500000953674,2.8510000705719,-3.80865597724915,-0.3952299952507,2.73693609237671,6.47200012207031,-7.02199983596802,-21.6140003204346,-6.72354412078857,-12.4249505996704,-11.4339389801025,8.79155254364014,10.55601978302,10.712420463562,-25.42799949646,-20.7199993133545,-12.4040002822876,8.5,4.49900007247925,3.16499996185303,-1.82550394535065,-2.56347298622131,-2.67847394943237,13.3760004043579,17.9260005950928,21.8490009307861,-2.86548089981079,9.72908115386963,8.15142059326172,-14.279239654541,-10.4815502166748,-8.12562084197998,32.5499992370605,33.0209999084473,17.2509994506836,-1.46300005912781,-0.20800000429153,9.1269998550415,-3.38943600654602,-2.06354403495789,-0.38716199994087,15.1809997558594,8.82600021362305,4.03999996185303,5.28858613967896,2.54179310798645,-3.91175699234009,1.64272797107697,3.55719089508057,6.50297689437866,-17.1900005340576,-21.1909999847412,-21.9759998321533,9.04899978637695,9.36299991607666,8.57800006866455,8.62008190155029,4.28525876998901,-1.60168600082397,-18.7900009155273,-3.96199989318848,14.5530004501343,-5.51952981948853,-5.24637794494629,-2.18970203399658,12.6007509231567,8.52334022521973,-8.05667114257813,13.1719999313354,18.1140003204346,26.0380001068115,2.53699994087219,3.55699992179871,4.65500020980835,SHAKE
-2.01140594482422,1.9578709602356,-0.8372859954834,22.3199996948242,25.7719993591309,23.9680004119873,7.53221321105957,6.5651421546936,5.95323276519775,-8.13078117370605,-6.52257394790649,-4.92223310470581,17.2509994506836,9.0920000076294,-0.63599997758865,1.75300002098084,2.69400000572205,5.12599992752075,-0.16853900253773,1.43687295913696,5.13455820083618,-0.43099999427795,-8.04100036621094,-32.9119987487793,-10.6102905273438,-11.6920146942139,-10.3951759338379,9.16896438598633,9.94705390930176,7.50261783599854,-25.2709999084473,-17.9740009307861,-2.59699988365173,3.79200005531311,1.67400002479553,2.6159999370575,7.08500385284424,0.69284600019455,3.03728604316711,23.6539993286133,24.9090003967285,28.3610000610352,6.12111806869507,5.89996910095215,4.98910713195801,-11.0935163497925,-9.47390174865723,-7.71887683868408,34.5120010375977,25.568000793457,16.2310009002686,-2.9539999961853,-2.24799990653992,0.81099998950958,-8.00861930847168,-6.55394077301025,-4.48867321014404,11.1009998321533,5.60900020599365,-4.19700002670288,4.98500394821167,1.73331999778748,-7.78957080841064,0.72617399692535,5.86832523345947,11.2938566207886,-22.5249996185303,-24.6429996490479,-20.4850006103516,12.1090002059937,7.16599988937378,2.06599998474121,7.67201280593872,4.49098300933838,-0.33412599563599,-5.84499979019165,9.45300006866455,16.9069995880127,-4.63890600204468,8.24770927429199,8.32388877868652,0.68534499406815,-11.0893259048462,-9.9337100982666,26.4309997558594,31.6870002746582,28.9409999847412,2.22300004959106,2.69400000572205,1.36000001430511,SHAKE
4.68423986434937,2.50123405456543,-3.32096695899963,2.23499989509583,13.9250001907349,18.5540008544922,-3.65046310424805,0.67915999889374,9.59412002563477,9.61047077178955,-13.302393913269,-13.2797822952271,26.2740001678467,33.4129981994629,31.2169990539551,-1.62000000476837,-1.54200005531311,-0.36500000953674,-6.1931619644165,-5.18305015563965,-3.5841178894043,13.8470001220703,6.86399984359741,-1.13699996471405,5.82798385620117,-5.73637580871582,-9.89052104949951,-0.47588101029396,9.56794166564941,10.7820119857788,-22.996000289917,-26.2910003662109,-26.2910003662109,12.9720001220703,4.10599994659424,4.10599994659424,5.11237382888794,5.30046796798706,2.62857103347778,11.96399974823,18.4759998321533,21.8490009307861,4.92182111740112,4.77702903747559,3.99452495574951,-12.8113460540771,-10.5150117874146,-8.36364459991455,32.8639984130859,24.7830009460449,15.4469995498657,-6.95499992370605,-1.77699995040894,4.18499994277954,-7.96442794799805,-6.42673492431641,-4.40415000915527,10.3950004577637,4.35400009155273,-7.41400003433228,5.55122804641724,1.43140196800232,-6.73903799057007,1.82571804523468,7.28042078018188,10.9055690765381,-25.42799949646,-26.1340007781982,-19.7000007629395,10.0690002441406,8.6569995880127,4.73400020599365,9.82187938690186,8.30689430236816,3.58208799362183,-3.17700004577637,5.53000020980835,13.9250001907349,-1.14124405384064,8.49919891357422,6.28976488113403,0.97630202770233,-10.9848918914795,-10.2792053222656,30.9810009002686,32.2360000610352,27.5289993286133,-3.66000008583069,-3.26799988746643,-1.85500001907349,SHAKE
-4.40415000915527,-1.22796297073364,5.90253210067749,-7.41400003433228,-23.1049995422363,-26.7140007019043,-6.73903799057007,-7.75271892547607,-7.30535697937012,10.9055690765381,9.94672012329102,8.37814998626709,-19.7000007629395,-9.73700046539307,0.14800000190735,4.73400020599365,2.6159999370575,3.94899988174438,3.58208799362183,1.07845199108124,-9.54258728027344,13.9250001907349,25.7719993591309,25.2229995727539,6.28976488113403,4.67567205429077,3.54831504821777,-10.2792053222656,-8.76364421844482,-7.36690711975098,27.5289993286133,19.8400001525879,9.79800033569336,-1.85500001907349,0.96799999475479,5.0479998588562,-6.19275093078613,-4.24803781509399,-1.38745605945587,8.27600002288818,-5.84499979019165,-26.2430000305176,1.58571803569794,-9.0801305770874,-8.37177562713623,5.63842916488647,10.813286781311,10.0979976654053,-29.1149997711182,-12.4820003509521,-0.47900000214577,11.1669998168945,0.73299998044968,0.34000000357628,1.56392705440521,-2.55116009712219,-6.30356884002686,17.2199993133545,22.5550003051758,27.8899993896484,8.4008674621582,7.04165601730347,5.77152109146118,-10.0847015380859,-7.85121917724609,-6.10383319854736,28.548999786377,20.1539993286133,10.7399997711182,-0.60000002384186,2.6159999370575,6.61700010299683,-2.22310996055603,2.63831400871277,8.82017040252686,8.51200008392334,-23.4969997406006,-24.2029991149902,-9.01607894897461,-8.97991752624512,-8.00628280639648,10.8516502380371,10.0045604705811,8.79641723632813,-18.7590007781982,-3.61700010299683,5.79699993133545,1.9099999666214,0.65399998426437,1.20299994945526,SHAKE
5.1457052230835,1.56392705440521,-2.55116009712219,11.96399974823,17.2199993133545,22.5550003051758,8.71884536743164,8.4008674621582,7.04165601730347,-12.7226810455322,-10.0847015380859,-7.85121917724609,32.7859992980957,28.548999786377,20.1539993286133,-3.50300002098084,-0.60000002384186,2.6159999370575,-6.10768604278564,-2.22310996055603,2.63831400871277,13.8470001220703,8.51200008392334,-23.4969997406006,-4.64953899383545,-9.01607894897461,-8.97991752624512,9.21552753448486,10.8516502380371,10.0045604705811,-22.681999206543,-18.7590007781982,-3.61700010299683,3.79200005531311,1.9099999666214,0.65399998426437,5.53692197799683,-5.57876682281494,-3.597904920578,12.1990003585815,16.5930004119873,25.6940002441406,9.15189075469971,9.15087032318115,7.54150009155273,-13.4078359603882,-11.8030033111572,-9.59038162231445,34.3549995422363,30.9029998779297,27.136999130249,-3.66000008583069,-2.71799993515015,-1.46300005912781,-6.05444478988647,-3.66586208343506,-1.9247659444809,15.8870000839233,3.6470000743866,-9.375,4.48670482635498,-2.29214096069336,-10.4308671951294,1.61953401565552,7.62977123260498,11.7939224243164,-22.6030006408691,-22.8390007019043,-17.9740009307861,10.539999961853,5.98899984359741,1.75300002098084,0.01501400023699,-8.59929275512695,-9.05639553070068,-8.27700042724609,11.7279996871948,18.0049991607666,-4.78169822692871,-2.65285110473633,10.94105052948,10.205717086792,-14.7074661254883,-12.7524299621582,22.1940002441406,30.431999206543,32.314998626709,3.08599996566772,1.20299994945526,-0.83499997854233,SHAKE
-6.99731206893921,9.61970138549805,0.20173500478268,23.2609996795654,26.0860004425049,24.988000869751,9.98252868652344,8.45549583435059,6.11177110671997,-10.1113252639771,-8.0377082824707,-4.67004680633545,31.1380004882813,20.5470008850098,4.54099988937378,-1.38499999046326,0.26199999451637,5.28299999237061,-0.44060501456261,0.89294701814651,3.1141209602356,3.96099996566772,-5.05999994277954,-18.2409992218018,-4.19378519058228,-11.0208501815796,-9.9403829574585,6.42029190063477,10.5246114730835,16.0733585357666,-22.7600002288818,-19.7000007629395,-14.0520000457764,5.12599992752075,1.59599995613098,-1.14900004863739,-14.3759260177612,-11.5226573944092,-6.58013200759888,6.94299983978271,15.6510000228882,29.1459999084473,11.5566062927246,10.8906784057617,9.05282592773438,-15.4926080703735,-12.5615921020508,-10.2620115280151,35.4529991149902,29.5690002441406,19.9969997406006,-6.64099979400635,-6.56300020217896,-3.03200006484985,-0.36061099171638,-0.39661601185799,0.14498299360275,12.5909996032715,8.19799995422363,3.88299989700317,5.51188278198242,4.90704393386841,-1.03816401958466,-2.66878509521484,0.21156500279903,5.23669576644897,-13.423999786377,-20.4850006103516,-23.7800006866455,9.28400039672852,10.6180000305176,8.9709997177124,10.6613273620605,-14.8118352890015,-15.1784572601318,-22.8700008392334,-7.02199983596802,2.31399989128113,-5.76593112945557,-5.47169780731201,10.9790048599243,8.70128154754639,-18.941650390625,-12.6733179092407,27.3719997406006,33.8839988708496,31.6089992523193,1.8309999704361,-1.14900004863739,-2.71799993515015,SHAKE
-8.43121528625488,-1.75646901130676,7.15718221664429,26.3209991455078,28.3610000610352,26.7140007019043,10.9290399551392,9.14217281341553,7.47183704376221,-11.4444169998169,-9.28482723236084,-7.3356032371521,27.8430004119873,19.4479999542236,10.1120004653931,-2.16899991035461,0.73299998044968,3.32200002670288,0.28070598840714,0.53500401973724,1.51094400882721,7.88399982452393,0.03900000080466,-13.3760004043579,3.01760292053223,-12.6058940887451,-7.28110599517822,0.61972898244858,15.7437839508057,15.4847860336304,-25.2709999084473,-19.6219997406006,-10.5209999084473,7.08799982070923,0.57599997520447,-2.79699993133545,-11.7469825744629,-8.06424045562744,-7.4693717956543,11.4930000305176,22.0849990844727,31.8129997253418,6.03360223770142,12.4041147232056,10.7325639724731,-24.0288887023926,-14.9868583679199,-11.2624549865723,32.1580009460449,29.4120006561279,22.7430000305176,-8.91600036621094,-6.3270001411438,-2.40499997138977,1.7546169757843,1.18137502670288,1.35660803318024,14.003999710083,5.4520001411438,3.56900000572205,6.10348320007324,3.4436240196228,-6.67981719970703,1.04122304916382,3.10252499580383,8.44788646697998,-14.8360004425049,-20.0139999389648,-21.5830001831055,7.87200021743774,8.0290002822876,6.30299997329712,-9.37595176696777,-14.5814485549927,-11.6270122528076,-20.7509994506836,-5.05999994277954,14.4739999771118,-6.68694591522217,-6.73724699020386,-4.70367383956909,9.78405666351318,6.29023885726929,-16.2895793914795,12.7790002822876,23.6060009002686,30.0400009155273,3.40000009536743,6.30299997329712,5.59700012207031,SHAKE
6.42820119857788,3.09387588500977,1.40790796279907,24.1240005493164,19.9659996032715,14.4739999771118,7.1848931312561,6.48318004608154,6.07843112945557,-5.98050117492676,-4.00721979141235,-2.1730489730835,12.2299995422363,5.875,-1.49899995326996,2.69400000572205,3.71399998664856,4.02799987792969,1.31466102600098,2.74454808235169,6.94040822982788,-1.13699996471405,-6.86499977111816,-28.1259994506836,-12.5491609573364,-11.2525796890259,-6.77579879760742,11.0051116943359,13.6166219711304,13.7577409744263,-22.0540008544922,-18.367000579834,-11.1490001678467,4.02799987792969,0.26199999451637,-1.46300005912781,-9.98153400421143,-9.6396312713623,15.9540710449219,21.0650005340576,25.6940002441406,27.1060009002686,8.7119312286377,9.47288703918457,8.40732669830322,-15.44020652771,-11.4088373184204,-8.82939052581787,33.3349990844727,33.3349990844727,23.371000289917,2.77300000190735,2.77300000190735,-0.05099999904633,-0.84691399335861,-0.867163002491,-0.34000399708748,13.5329999923706,9.2180004119873,9.2180004119873,6.12201118469238,5.38587713241577,1.89041996002197,-1.11259794235229,0.55523699522018,3.19923210144043,-9.8149995803833,-18.1310005187988,-22.8390007019043,6.85200023651123,8.5,7.55800008773804,10.6592445373535,-2.92894101142883,-15.2951936721802,-24.988000869751,-11.414999961853,6.07999992370605,-4.07843780517578,-5.48743391036987,-9.02019119262695,13.0714359283447,9.25411796569824,-1.31922197341919,7.20900011062622,20.7819995880127,30.1180000305176,2.92899990081787,6.30299997329712,6.06799983978271,SHAKE
5.04486799240112,1.45227205753326,-0.14246200025082,28.1259994506836,28.1259994506836,18.8680000305176,7.22487878799438,6.55667209625244,6.3332052230835,-6.83644104003906,-4.81620502471924,-2.88285994529724,14.7410001754761,7.05200004577637,7.05200004577637,0.88999998569489,2.92899990081787,2.92899990081787,0.46206599473953,1.71976101398468,4.89821195602417,-1.60800004005432,-13.3760004043579,-26.007999420166,-10.5795211791992,-11.8168096542358,-4.64093589782715,10.2727279663086,15.0682687759399,15.6154861450195,-22.4459991455078,-17.8169994354248,-8.48099994659424,4.10599994659424,1.43900001049042,0.49700000882149,-12.8372526168823,-9.02506828308106,-0.9884529709816,19.181999206543,23.8110008239746,27.4979991912842,7.71235513687134,8.79649925231934,7.40065813064575,-13.0376977920532,-8.97602462768555,-7.178542137146,33.8059997558594,19.9190006256104,11.2889995574951,3.32200002670288,0.88999998569489,2.30200004577637,-0.03824499994516,0.41119000315666,1.39216697216034,7.17799997329712,1.2150000333786,-10.9440002441406,3.49271988868713,-7.57331085205078,-12.6151056289673,1.04186999797821,8.03132343292236,11.7294483184814,-23.7019996643066,-24.0149993896484,-19.6219997406006,9.52000045776367,5.75400018692017,1.75300002098084,-2.67687606811523,-6.74796676635742,-6.40099620819092,1.9210000038147,15.8870000839233,21.8490009307861,-6.38079118728638,2.38719010353088,10.0693235397339,5.37385320663452,-13.7091636657715,-12.6237821578979,26.6660003662109,33.1780014038086,31.7660007476807,4.42000007629395,1.43900001049042,-1.30599999427795,SHAKE
-3.77742290496826,4.68884992599487,-1.42152905464172,26.556999206543,28.5179996490479,25.0659999847412,9.17653465270996,7.84832000732422,6.65625190734863,-10.3028573989868,-8.25613880157471,-6.56120920181274,24.2339992523193,15.289999961853,11.3669996261597,-1.62000000476837,0.49700000882149,1.9099999666214,-2.15038108825684,0.56310498714447,4.26315307617188,4.51000022888184,-14.6319999694824,-27.1060009002686,-10.5197191238403,-11.4111061096191,-7.06112003326416,11.0646915435791,13.9285650253296,14.8946475982666,-22.0540008544922,-16.7189998626709,-7.30399990081787,4.5770001411438,1.8309999704361,0.96799999475479,-9.56237030029297,-6.80592823028564,-1.48276805877686,16.4360008239746,21.5349998474121,27.5769996643066,8.00405025482178,10.5328254699707,9.21353054046631,-13.7073659896851,-11.7713527679443,-9.69065570831299,33.648998260498,29.9610004425049,21.2530002593994,0.65399998426437,-1.62000000476837,-1.30599999427795,-1.32799696922302,-1.34238398075104,-0.66171199083328,11.2580003738403,6.31500005722046,0.50900000333786,6.04643821716309,5.64804410934448,-1.99581301212311,-1.91488003730774,1.23404800891876,7.94482898712158,-12.2469997406006,-18.9939994812012,-19.9360008239746,7.95100021362305,8.9709997177124,6.77400016784668,3.6587610244751,-4.25474882125854,-8.33925437927246,-15.7299995422363,-2.47099995613098,8.51200008392334,-5.14721012115479,-5.80714797973633,-4.60430908203125,10.6462268829346,6.58903980255127,-6.56773614883423,10.5830001831055,19.3700008392334,26.9799995422363,3.16499996185303,4.10599994659424,3.32200002670288,SHAKE
5.16959810256958,-7.24519300460815,-8.85033416748047,-28.2830009460449,9.06099987030029,18.2399997711182,-7.52760219573975,-8.84502983093262,9.18905353546143,7.10546398162842,-5.19048976898193,-11.2661504745483,25.7250003814697,35.375,24.8619995117188,2.6159999370575,0.81099998950958,-0.20800000429153,-1.13323199748993,-1.32483994960785,-1.09760797023773,13.7679996490479,10.6300001144409,-0.98000001907349,2.69304203987122,-10.2036895751953,-12.0920848846436,1.66083097457886,9.92653560638428,12.4794673919678,-27.1539993286133,-27.1539993286133,-17.1900005340576,10.3039999008179,10.3039999008179,2.8510000705719,-5.54977512359619,-6.45750999450684,4.23881816864014,12.6700000762939,22.9479999542236,31.5779991149902,-2.60430908203125,9.39234638214111,8.64509582519531,-7.01815795898438,-11.4573707580566,-10.0752553939819,36.0019989013672,30.8239994049072,20.3110008239746,-0.36500000953674,-1.38499999046326,-0.91399997472763,-3.49066591262817,-2.72487497329712,-1.29775404930115,3.33400011062622,-7.09999990463257,-21.0650005340576,3.59927105903625,-8.29483985900879,-4.58228492736816,2.43857192993164,15.4748182296753,13.4520301818848,-24.0939998626709,-8.71700000762939,8.07199954986572,4.02799987792969,1.98800003528595,4.26300001144409,-13.2093954086304,7.20888519287109,3.05732607841492,27.9689998626709,28.5960006713867,20.9860000610352,8.09158897399902,6.85258483886719,5.79609107971191,-8.30937385559082,-6.68006801605225,-5.31672286987305,15.289999961853,5.9539999961853,-3.6949999332428,0.96799999475479,1.04700005054474,2.45900011062622,SHAKE
-14.5558633804321,-13.2093954086304,7.20888519287109,17.8479995727539,27.9689998626709,28.5960006713867,9.42539501190186,8.09158897399902,6.85258483886719,-9.87316036224365,-8.30937385559082,-6.68006801605225,25.4109992980957,15.289999961853,5.9539999961853,1.51699995994568,0.96799999475479,1.04700005054474,0.54009699821472,0.8552970290184,1.71858096122742,2.39199995994568,-6.39400005340576,-17.298999786377,1.07685899734497,-14.000542640686,-5.06376504898071,0.92355901002884,9.80156898498535,15.4782667160034,-22.2110004425049,-20.7199993133545,-13.0319995880127,4.26300001144409,1.20299994945526,0.49700000882149,-17.5133819580078,-16.1062850952148,-16.4065361022949,16.2789993286133,24.673999786377,28.7530002593994,0.04637699946761,7.57234477996826,6.60978317260742,-12.022650718689,-7.3460168838501,-5.74966716766357,35.2179985046387,22.1940002441406,17.0160007476807,8.18599987030029,2.38000011444092,2.06599998474121,3.62430810928345,3.03592395782471,3.13945293426514,7.09999990463257,0.50900000333786,-9.375,3.27224898338318,-5.72363901138306,-11.3979740142822,-0.39000299572945,4.92664384841919,14.4631538391113,-20.3279991149902,-20.798999786377,-17.1900005340576,4.5770001411438,3.16499996185303,0.49700000882149,-17.9250831604004,-15.653094291687,-13.6122713088989,-0.03900000080466,16.5139999389648,24.0459995269775,-0.13002699613571,2.44428396224976,8.18281745910645,7.09870100021362,-13.1862277984619,-9.65085792541504,26.117000579834,30.6669998168945,29.6469993591309,9.04899978637695,7.87200021743774,4.9689998626709,SHAKE
-9.1311559677124,10.8820018768311,8.00769138336182,19.4169998168945,22.5550003051758,18.7110004425049,6.10104179382324,5.00988101959229,4.07586002349854,-6.90021419525146,-5.25865888595581,-3.99357509613037,19.9969997406006,12.3870000839233,5.09100008010864,8.6569995880127,6.53800010681152,4.65500020980835,3.49515199661255,3.61344408988953,4.00559186935425,1.2150000333786,-5.68800020217896,-15.6520004272461,-4.42675399780273,-14.8396348953247,-8.33474063873291,4.13026094436646,10.5196266174316,12.9621982574463,-19.7789993286133,-20.0930004119873,-12.2469997406006,4.81199979782104,3.08599996566772,-0.60000002384186,-13.4504747390747,-12.5680675506592,-10.7954978942871,13.9250001907349,23.1830005645752,26.9489994049072,2.9714720249176,10.1356973648071,9.07349491119385,-15.7717981338501,-12.6750593185425,-10.2827806472778,34.2760009765625,31.2950000762939,22.3509998321533,3.40000009536743,1.36000001430511,1.04700005054474,1.47669303417206,1.03799903392792,1.18176901340485,11.96399974823,7.02099990844727,7.02099990844727,4.98364210128784,3.69379806518555,-6.72548294067383,-1.72405099868774,0.16589100658894,7.61860513687134,-16.0130004882813,-21.4260005950928,-21.4260005950928,5.36199998855591,6.93100023269653,6.93100023269653,-15.3362646102905,-14.513427734375,-11.6206550598145,2.07800006866455,15.2589998245239,21.4570007324219,-5.62652492523193,2.72601795196533,9.31182861328125,4.52773094177246,-15.0448732376099,-11.4311876296997,25.0970001220703,30.8239994049072,30.1180000305176,7.63700008392334,7.32299995422363,5.44000005722046,SHAKE
-14.513427734375,-11.6206550598145,-8.90583419799805,15.2589998245239,21.4570007324219,25.2229995727539,2.72601795196533,9.31182861328125,8.5078239440918,-15.0448732376099,-11.4311876296997,-8.93076515197754,30.8239994049072,30.1180000305176,24.1550006866455,7.32299995422363,5.44000005722046,2.8510000705719,2.77255392074585,1.93534994125366,2.16604495048523,12.5909996032715,5.53000020980835,-0.35299998521805,5.60168409347534,3.72866988182068,-11.8883771896362,-0.07193800061941,1.43383204936981,10.6162452697754,-16.0909996032715,-21.8969993591309,-22.6030006408691,7.32299995422363,11.08899974823,9.20600032806396,-16.2309722900391,-14.4000883102417,-5.74663305282593,8.98200035095215,15.1020002365112,25.5370006561279,-6.93637895584106,10.666202545166,9.68008899688721,-4.59093618392944,-9.74257755279541,-9.19058513641357,36.8650016784668,32.0009994506836,22.9790000915527,1.36000001430511,2.14499998092651,4.42000007629395,3.10587811470032,2.246661901474,1.8113579750061,12.9840002059937,6.70699977874756,-2.15700006484985,4.07284307479858,1.96729803085327,-9.49694061279297,-2.34778094291687,1.44166898727417,7.97006988525391,-17.8169994354248,-22.996000289917,-23.1520004272461,8.26399993896484,9.20600032806396,6.14599990844727,-2.91489505767822,-8.4372444152832,-9.47609424591064,-18.1620006561279,7.64900016784668,13.7679996490479,-6.99935388565063,-10.1048860549927,9.44568824768066,7.19221115112305,-4.94391298294067,-14.1063528060913,21.8020000457764,27.6860008239746,36.2379989624023,1.51699995994568,1.67400002479553,2.8510000705719,SHAKE
-7.18509101867676,2.40337204933167,2.56555509567261,22.0060005187988,23.8889999389648,25.4580001831055,9.01848411560059,7.72353982925415,6.527184009552,-9.08669567108154,-6.86288690567017,-5.06225776672363,21.5659999847412,12.1520004272461,2.81500005722046,2.06599998474121,3.79200005531311,5.28299999237061,-0.45298299193382,0.80615097284317,3.03559589385986,0.03900000080466,-11.2580003738403,-18.3980007171631,-8.78742504119873,-13.2227611541748,-8.98344707489014,8.27340126037598,11.9305152893066,13.9455823898315,-25.742000579834,-23.5450000762939,-11.3839998245239,5.75400018692017,3.16499996185303,-0.05099999904633,-12.0602350234985,-10.5333271026611,-6.10769414901733,18.3190002441406,22.6340007781982,24.8309993743896,5.27249002456665,9.72974967956543,8.30360412597656,-15.9968967437744,-8.99230194091797,-6.82439517974854,34.2760009765625,24.5480003356934,14.8979997634888,3.71399998664856,3.00799989700317,3.47900009155273,-0.41995200514793,-0.00198399997316,0.93689697980881,9.29599952697754,4.66699981689453,1.37199997901917,4.54037618637085,-0.62239801883698,-11.8842916488647,0.3952220082283,3.57602405548096,9.3855562210083,-22.2110004425049,-24.7220001220703,-24.7220001220703,7.95100021362305,7.95100021362305,4.26300001144409,-17.8909873962402,-17.4987411499023,-9.67434597015381,11.414999961853,19.6529998779297,22.4769992828369,-10.6785726547241,8.13754844665527,9.4024772644043,-14.0609331130981,-13.482177734375,-10.5877103805542,24.4689998626709,32.4720001220703,30.3540000915527,5.75400018692017,4.9689998626709,1.75300002098084,SHAKE
-0.30111700296402,1.78334403038025,5.75123119354248,-2.31399989128113,-18.0839996337891,-28.4400005340576,-12.2804288864136,-12.0379686355591,-10.1266536712646,8.93582725524902,10.0671195983887,9.56211280822754,-24.0939998626709,-20.9559993743896,-5.10799980163574,5.28299999237061,3.40000009536743,2.14499998092651,-3.18213796615601,-2.85098195075989,3.23699402809143,25.6940002441406,26.3999996185303,24.673999786377,10.0202083587646,9.98831653594971,8.53623104095459,-12.8222045898438,-10.5480670928955,-8.42393207550049,35.5320014953613,28.2350006103516,18.0359992980957,-2.9539999961853,-1.38499999046326,2.22300004959106,-4.09949588775635,-1.9997730255127,0.76796299219131,12.9840002059937,1.9210000038147,-19.2609996795654,0.20238700509071,-8.70988273620605,-9.61544704437256,3.59030604362488,8.56622982025146,11.0067148208618,-29.1940002441406,-24.3290004730225,-3.14599990844727,11.4029998779297,3.47900009155273,-2.24799990653992,-1.40754103660584,-2.64886689186096,7.16894483566284,27.9689998626709,27.4200000762939,21.2999992370605,9.18382453918457,8.48698234558105,7.18179988861084,-13.1909618377686,-9.92058372497559,-7.51461982727051,33.2560005187988,24.2339992523193,14.3479995727539,-4.05200004577637,-2.01200008392334,1.59599995613098,-6.09914922714233,-4.97907114028931,-2.98851704597473,9.2180004119873,4.51000022888184,-0.50999999046326,4.32672691345215,-3.33521389961243,-9.85794067382812,2.27506899833679,8.37571811676025,11.5321369171143,-23.0739994049072,-24.7220001220703,-18.9939994812012,16.8159999847412,10.0690002441406,4.26300001144409,SHAKE
-4.97907114028931,-2.98851704597473,0.50004601478577,4.51000022888184,-0.50999999046326,-16.9069995880127,-3.33521389961243,-9.85794067382812,-8.5709342956543,8.37571811676025,11.5321369171143,10.7031154632568,-24.7220001220703,-18.9939994812012,2.81500005722046,10.0690002441406,4.26300001144409,2.22300004959106,-0.66486501693726,0.16324700415134,1.55769598484039,23.4179992675781,20.0450000762939,20.4370002746582,8.70801639556885,7.75951099395752,6.60652923583984,-11.0637187957764,-9.38496494293213,-7.64716100692749,30.0400009155273,24.3910007476807,15.83899974823,-3.42400002479553,-2.71799993515015,-0.36500000953674,-5.40884399414063,-4.30102014541626,1.70354294776917,10.4729995727539,9.06099987030029,-17.7700004577637,-1.53538203239441,-8.70244026184082,-9.75023746490478,5.96685981750488,9.93411254882812,11.5672988891602,-27.9379997253418,-24.2509994506836,-17.8959999084473,11.08899974823,5.20499992370605,2.8510000705719,2.19658088684082,-0.1621759980917,-0.22015699744225,13.9250001907349,24.9090003967285,22.6340007781982,-4.11925792694092,7.08082914352417,6.80444812774658,-1.65683197975159,-11.004490852356,-8.41042327880859,27.3719997406006,30.9810009002686,20.3110008239746,-2.16899991035461,-4.36600017547607,-3.03200006484985,-6.61238384246826,-5.88248014450073,-4.53715991973877,12.2779998779297,9.5319995880127,5.4520001411438,4.71719408035278,4.61929607391357,-2.68055009841919,-1.98382294178009,1.57950901985168,7.8947319984436,-19.5440006256104,-23.7019996643066,-26.9969997406006,13.5989999771118,15.0120000839233,9.91199970245361,SHAKE
-5.86382913589478,-3.54940295219421,1.4830549955368,6.15799999237061,-11.3369998931885,-27.4200000762939,-6.62088584899902,-9.22168445587158,-7.36598920822144,8.37879085540771,11.7045469284058,9.71542453765869,-23.8589992523193,-19.386999130249,6.42399978637695,9.52000045776367,3.94899988174438,5.36199998855591,1.53293299674988,1.56730198860168,-0.90421402454376,27.1060009002686,22.3199996948242,23.2609996795654,8.91473293304443,7.62314891815186,6.41256380081177,-9.50264263153076,-9.039306640625,-7.63329696655273,30.746000289917,20.1539993286133,15.6040000915527,-0.05099999904633,-3.26799988746643,-2.875,-5.60789489746094,-4.49960899353027,-2.47679805755615,9.60999965667725,5.76599979400635,-8.19799995422363,3.12523794174194,-5.03558492660522,-10.1041526794434,-2.45544195175171,4.98600482940674,11.7692632675171,-30.6840000152588,-30.3700008392334,-25.3490009307861,16.3449993133545,9.52000045776367,2.14499998092651,3.41610407829285,-0.01930000074208,-1.0417799949646,4.82399988174438,28.5179996490479,34.0099983215332,-6.11112594604492,8.08103275299072,8.81518459320068,-2.02820205688477,-11.4986772537231,-8.92746734619141,27.136999130249,31.1380004882813,29.8040008544922,4.81199979782104,4.26300001144409,1.8309999704361,-6.11374807357788,-5.92384195327759,-5.2783670425415,18.7110004425049,12.1990003585815,8.04100036621094,5.42457914352417,5.16778421401978,4.86083602905273,-2.64072299003601,-1.55703794956207,-0.18739800155163,-2.20499992370605,-12.4040002822876,-20.0930004119873,2.69400000572205,6.38199996948242,11.0100002288818,SHAKE
