gyro_x_0,gyro_y_0,gyro_z_0,acc_x_0,acc_y_0,acc_z_0,gyro_x_1,gyro_y_1,gyro_z_1,acc_x_1,acc_y_1,acc_z_1,gyro_x_2,gyro_y_2,gyro_z_2,acc_x_2,acc_y_2,acc_z_2,gyro_x_3,gyro_y_3,gyro_z_3,acc_x_3,acc_y_3,acc_z_3,gyro_x_4,gyro_y_4,gyro_z_4,acc_x_4,acc_y_4,acc_z_4,gyro_x_5,gyro_y_5,gyro_z_5,acc_x_5,acc_y_5,acc_z_5,gyro_x_6,gyro_y_6,gyro_z_6,acc_x_6,acc_y_6,acc_z_6,gyro_x_7,gyro_y_7,gyro_z_7,acc_x_7,acc_y_7,acc_z_7,gyro_x_8,gyro_y_8,gyro_z_8,acc_x_8,acc_y_8,acc_z_8,gyro_x_9,gyro_y_9,gyro_z_9,acc_x_9,acc_y_9,acc_z_9,gyro_x_10,gyro_y_10,gyro_z_10,acc_x_10,acc_y_10,acc_z_10,gyro_x_11,gyro_y_11,gyro_z_11,acc_x_11,acc_y_11,acc_z_11,gyro_x_12,gyro_y_12,gyro_z_12,acc_x_12,acc_y_12,acc_z_12,gyro_x_13,gyro_y_13,gyro_z_13,acc_x_13,acc_y_13,acc_z_13,gyro_x_14,gyro_y_14,gyro_z_14,acc_x_14,acc_y_14,acc_z_14,motion_type
-0.0536249987781,0.03409999981523,0.19415000081062,0.14630000293255,0.16114999353886,0.16101250052452,3.12495017051697,3.13395023345947,2.58900022506714,8.23500061035156,8.40705013275146,7.76505041122437,0.49692499637604,0.68997502326965,0.81372499465942,5.01900005340576,4.56900024414063,4.37505006790161,0.28448748588562,0.28036248683929,0.09597499668598,0.20872500538826,0.20514999330044,0.21504999697208,1.60005009174347,-0.01800000108778,-2.36700010299683,7.66695022583008,8.21805000305176,11.4739503860474,3.21323752403259,5.82601261138916,7.23648738861084,28.6870517730713,42.4300537109375,35.5219535827637,4.58864974975586,4.22386264801025,3.79733753204346,-5.85970020294189,-6.22256231307983,-6.07832479476929,-32.1900024414063,-37.7400016784668,-58.1440544128418,-6.80295038223267,-6.96105051040649,19.8469505310059,7.40464973449707,9.85517501831055,13.0035123825073,-44.2330513000488,-60.6619529724121,-26.4910507202148,7.36670017242432,5.93243741989136,5.11280012130737,-8.77566242218018,-7.86032485961914,-5.65042495727539,3.00495004653931,2.03295016288757,-1.09995007514954,13.8439502716064,21.6760501861572,16.1620502471924,14.0927877426147,12.4156999588013,9.33281230926514,2.97495007514954,3.83400011062622,4.44900035858154,7.72639989852905,7.4956750869751,7.56332492828369,-4.64846229553223,-6.12507486343384,-4.03768730163574,1.14000010490417,0.79995006322861,1.44900012016296,1.54695010185242,5.09295034408569,8.3230504989624,2.71479988098145,1.0674124956131,0.22632500529289,-10.7839508056641,-10.3459501266479,-6.90795040130615,SWING_RIGHT
-0.35144999623299,-0.50338751077652,-0.38953748345375,0.14657500386238,-0.10257499665022,-0.94765001535416,1.89405012130737,2.17200016975403,1.774050116539,8.4529504776001,10.0729503631592,10.6909503936768,2.59270000457764,2.75797510147095,3.39776253700256,2.33505010604858,4.56900024414063,3.00600004196167,-0.0027499999851,0.00714999996126,0.07356250286102,-1.3000625371933,-0.8896250128746,-0.63167500495911,1.72395002841949,1.5330001115799,1.84095013141632,11.4720001220703,10.8040504455566,8.30895042419434,3.9397873878479,3.80379986763,3.55410003662109,2.86695003509521,2.27295017242432,1.71495008468628,0.40452501177788,0.67691248655319,0.87546247243881,0.14162500202656,0.14066250622272,0.16348749399185,1.83705008029938,1.42005002498627,2.29395008087158,7.95900058746338,7.57905054092407,10.9740009307861,3.75814986228943,6.59903764724731,4.94477510452271,22.0260009765625,-1.63095009326935,4.91400003433228,1.54123747348785,1.66966247558594,1.7274124622345,-0.12031249701977,-0.05115000158548,0.05939999967813,3.99195027351379,3.1800000667572,2.06700015068054,7.80405044555664,9.53505039215088,10.0470008850098,2.21320009231567,-0.25588750839233,-1.40786254405975,1.45695006847382,-1.34895002841949,1.29105007648468,-1.8738499879837,-2.96546244621277,-3.0657000541687,0.19525000452995,-0.66398751735687,-1.03207504749298,1.19505000114441,1.57095003128052,1.91595005989075,13.581000328064,11.1510009765625,9.21405029296875,-9.23381233215332,-5.6629376411438,-2.57427501678467,2.757000207901,2.91705012321472,4.08494997024536,SWING_RIGHT
-0.95232498645782,-1.8738499879837,-2.96546244621277,0.64487498998642,0.19525000452995,-0.66398751735687,0.50295001268387,1.19505000114441,1.57095003128052,12.1540508270264,13.581000328064,11.1510009765625,-9.6949872970581,-9.23381233215332,-5.6629376411438,1.5040500164032,2.757000207901,2.91705012321472,-0.35722500085831,1.3585000038147,3.16965007781982,-1.75532495975494,-1.39645004272461,-0.97679996490479,4.0489501953125,5.28705024719238,6.13200044631958,4.00395011901855,5.30205011367798,7.98795032501221,3.05112504959106,2.39373755455017,2.69939994812012,-1.24605000019073,3.01800012588501,5.63505029678345,2.75522494316101,0.82486248016357,10.2509002685547,1.19611251354218,-0.4129124879837,-6.2231125831604,-4.07895040512085,-37.8049507141113,-36.0540008544922,17.0170516967773,4.53495025634766,31.3800010681152,16.7158756256104,16.1797618865967,15.3686494827271,-49.4209518432617,-17.0689506530762,-18.0150012969971,1.04582500457764,5.22224998474121,5.67627477645874,-1.74432504177094,1.93503749370575,4.27748727798462,-2.7810001373291,-2.35695004463196,-0.93495005369186,12.3529510498047,7.31505012512207,9.95595073699951,12.9474124908447,6.55448722839355,4.03205013275146,-5.88600015640259,0.37695002555847,0.8890500664711,3.09319996833801,2.43650007247925,2.31261253356934,-4.57943725585938,-3.76158738136292,-3.98736238479614,-1.0639500617981,-0.30795001983643,0.55800002813339,12.9589509963989,10.3849506378174,9.91305065155029,0.97088748216629,1.21879994869232,1.20560002326965,0.44400003552437,1.1910001039505,0.13995000720024,SWING_RIGHT
-0.13323749601841,-0.13818749785423,-0.06764999777079,0.07617499679327,0.09762500226498,0.04716249927878,1.69800007343292,1.6429500579834,1.69800007343292,9.5710506439209,9.24495029449463,9.3190507888794,0.174212500453,0.20473749935627,0.15977500379086,2.757000207901,2.29695010185242,2.62500023841858,0.07672499865294,0.05417500063777,0.01471249945462,0.00838750042021,0.03203750029206,0.12319999933243,1.69095003604889,1.72905004024506,1.932000041008,9.39105033874512,9.40995025634766,9.65700054168701,-0.25080001354218,-0.90227496623993,-0.72187501192093,-0.23505000770092,1.64805006980896,4.0969500541687,0.31611248850822,1.82517504692078,4.38721227645874,0.64611250162125,-3.40463757514954,-5.92624998092651,-3.49005007743835,-53.9059524536133,-78.4000549316406,15.6109504699707,10.1050500869751,-2.31795001029968,17.0061378479004,20.3285503387451,19.7907867431641,-68.5630569458008,-43.0710029602051,-9.40305042266846,-2.14073753356934,-2.21251249313354,3.05483746528625,-6.98939990997314,-1.71490001678467,5.62650012969971,-3.307950258255,-2.29995012283325,-3.78195023536682,8.53200054168701,5.32305002212524,10.9309501647949,7.24790000915527,3.95202493667603,2.35468745231628,4.16895008087158,2.69700002670288,0.03000000119209,2.78726243972778,2.37407493591309,2.25609993934631,-5.69525003433228,-4.01596260070801,-2.74078750610352,0.02895000204444,0.18705001473427,0.56100004911423,12.5659503936768,10.2120008468628,10.0900506973267,2.35454988479614,1.99196243286133,1.30418753623962,-1.57800006866455,-0.87900006771088,-0.77205002307892,SWING_RIGHT
0.54972499608994,0.53652501106262,0.42350000143051,-0.11783749610186,-0.09487500041723,0.03189999982715,1.88505005836487,1.99995005130768,1.73100006580353,8.91000080108643,9.12795066833496,9.29805088043213,0.53858751058578,0.36093750596046,0.19868749380112,1.42095005512238,1.25505006313324,1.18095004558563,0.08167500048876,0.09418749809265,0.08552499860525,0.51631247997284,0.45649999380112,0.44206249713898,1.95600008964539,2.02800011634827,2.28405022621155,9.96105003356934,9.91305065155029,9.80295085906982,0.83448749780655,0.79076248407364,0.5876749753952,0.94200003147125,0.58995002508163,1.16895008087158,0.29191249608994,0.56319999694824,1.14922499656677,0.53047502040863,-1.32962501049042,-3.70191240310669,-1.38705003261566,-20.1799507141113,-33.4420509338379,12.3030004501343,29.0340023040771,-1.52595007419586,15.1508502960205,18.1146621704102,15.6642751693726,-51.1500015258789,-33.3049507141113,-8.60295009613037,-0.39228749275208,3.07835006713867,2.89547491073608,-3.25379991531372,1.04018747806549,5.76262474060059,-0.81300002336502,0.51300001144409,-0.36705002188683,5.77305030822754,9.44099998474121,10.4730005264282,5.83769989013672,4.42694997787476,2.2933623790741,-0.81495004892349,-0.70695000886917,-1.94700014591217,1.69784998893738,1.36290001869202,1.13258755207062,-4.05088758468628,-3.52990007400513,-3.31099987030029,-0.70995002985001,-0.70005005598068,-0.31500002741814,11.1870002746582,9.99900054931641,10.3180503845215,0.66165000200272,0.44591251015663,0.43834999203682,-0.26595002412796,-0.98505002260208,-0.72105002403259,SWING_RIGHT
-1.30927503108978,-1.17713749408722,-0.41923749446869,-1.08611249923706,-0.85676246881485,-0.3782624900341,4.25699996948242,4.52100038528442,5.49300003051758,8.47200012207031,8.24895000457764,7.54305028915405,2.30559992790222,2.33846259117126,0.79653751850128,1.50705003738403,1.07100009918213,2.99400019645691,-0.41071251034737,-0.681725025177,-1.1119624376297,0.53927499055862,0.42184999585152,0.22068749368191,3.71400022506714,2.56905007362366,2.85900020599365,8.18205070495605,9.28800010681152,13.7370004653931,0.59179997444153,0.56773751974106,-0.15001249313354,-1.29300010204315,-2.49300003051758,-2.82300019264221,0.89622497558594,1.88209998607636,6.01259994506836,1.24891245365143,-1.97917497158051,-2.44667506217957,2.45205020904541,-22.123950958252,-51.8350524902344,13.6150503158569,20.6490001678467,-13.9930505752563,16.3906879425049,17.2556991577148,15.6023998260498,-23.7850513458252,-30.7819519042969,-26.3689517974854,2.27067494392395,3.75938749313354,4.03122520446777,0.19497500360012,2.95006251335144,3.25324988365173,-4.52400016784668,-2.97000002861023,0.65895003080368,17.6350517272949,16.4179515838623,12.256950378418,5.82340002059937,4.29605007171631,2.85614991188049,-2.61795020103455,-0.56295001506805,1.85205006599426,3.14393758773804,2.82576251029968,2.47142505645752,-3.59108757972717,-4.36493730545044,-4.7158374786377,0.69195002317429,0.96300005912781,1.32705008983612,8.95800018310547,7.84200048446655,7.51605033874512,0.15551249682903,0.35571250319481,1.30226254463196,-0.3570000231266,-1.07805001735687,-1.23405003547668,SWING_RIGHT
1.2809499502182,1.2997875213623,1.24987494945526,0.55811250209808,0.5820375084877,0.73617500066757,2.10705018043518,2.20800018310547,2.32500004768372,9.88905048370361,9.2590503692627,8.61105060577393,3.41907501220703,3.30013751983643,3.39569997787476,2.51505017280579,2.91000008583069,2.87205004692078,1.29593753814697,1.34860002994537,1.28699994087219,0.76298749446869,0.64803749322891,0.6377249956131,1.5660001039505,1.53000009059906,1.52295005321503,7.99500036239624,9.18000030517578,9.88695049285889,3.47462487220764,2.91403746604919,2.29006242752075,2.06895017623901,1.85895013809204,0.55200004577637,0.12677499651909,0.25533750653267,0.70578747987747,1.08074998855591,1.05792498588562,0.58808749914169,2.32305002212524,2.44200015068054,1.00095009803772,12.5970001220703,12.4800004959106,12.8839502334595,9.15557479858398,9.70145034790039,11.8277502059937,71.3509521484375,49.9740028381348,-16.5360012054443,4.63210010528564,6.08190011978149,1.07167494297028,-7.55754995346069,-8.83712482452393,-9.28358745574951,-42.142951965332,-8.34000015258789,-9.39405059814453,20.0910015106201,-17.7330017089844,29.3710517883301,12.946587562561,12.1263999938965,8.46862506866455,-16.6380004882813,-22.0090503692627,-4.66200017929077,4.3623251914978,3.48823738098145,3.38910007476807,0.24805000424385,0.40878748893738,-1.19927501678467,-3.01995015144348,-2.62305021286011,-2.30700016021729,9.66195011138916,11.1289501190186,11.4190502166748,-0.2066625058651,-0.87064999341965,-0.76697498559952,2.18204998970032,1.42995011806488,1.56000006198883,SWING_RIGHT
-0.62342500686646,-1.18978750705719,-1.43302500247955,1.35313749313354,0.91299998760223,0.40411248803139,-1.62000012397766,-1.29900002479553,-1.47105002403259,9.52305030822754,8.05500030517578,8.40000057220459,1.21220004558563,1.88581252098084,2.39841246604919,3.52995014190674,2.73300004005432,3.29505014419556,0.37345001101494,0.51204997301102,0.93843752145767,-3.0743625164032,-2.60645008087158,-1.71599996089935,-0.13005000352859,0.28005000948906,0.95595002174377,9.91995048522949,9.76200008392334,8.91900062561035,2.93452501296997,1.94246244430542,1.26211249828339,2.17500019073486,2.17500019073486,1.64595007896423,1.44264996051788,2.42041254043579,6.48078727722168,-0.07315000146627,-1.01021254062653,-2.81503748893738,2.91705012321472,3.6540002822876,-4.90500020980835,7.34895038604736,5.31105041503906,16.5090007781982,12.8429126739502,15.2762498855591,14.1972875595093,26.0220012664795,1.10895001888275,-28.651050567627,10.7640495300293,3.44794988632202,3.39776253700256,-7.07066249847412,-4.42048740386963,4.44455003738403,-9.34395027160644,-8.50095081329346,-6.40095043182373,-9.85305023193359,16.9380016326904,7.55205059051514,12.1064624786377,8.60488700866699,4.20860004425049,-12.4890003204346,-2.89995002746582,8.8210506439209,3.84697508811951,4.31433725357056,3.54323744773865,-2.56753754615784,-6.86881256103516,-7.11741256713867,-1.87305009365082,-1.09800004959106,0.48195001482964,7.36995029449463,13.2319507598877,8.72504997253418,-2.57867503166199,-1.69606244564056,1.26362502574921,1.5859500169754,0.40800002217293,-0.34305000305176,SWING_RIGHT
-0.47409999370575,-0.47657498717308,-0.61049997806549,0.64872497320175,0.73081248998642,0.60706251859665,1.02300000190735,-0.25304999947548,-1.28700006008148,8.47200012207031,10.4899501800537,10.3849506378174,1.4030499458313,1.33127498626709,1.48156249523163,0.89595001935959,0.90300005674362,-0.42195001244545,-0.40603750944138,0.15867500007153,0.23663750290871,-2.3483624458313,-1.1171875,-0.30167499184608,1.0200001001358,0.7620000243187,1.26195001602173,9.96300029754639,9.20205020904541,8.97000026702881,2.82741236686707,2.51748752593994,2.24991250038147,-1.0639500617981,-4.36094999313354,-0.01005000062287,0.55536252260208,3.60855007171631,9.19586277008057,-0.69561249017715,-5.28288745880127,-4.36246252059937,3.48195028305054,-15.1879510879517,-47.6310005187988,5.12400007247925,23.650951385498,21.5130004882813,18.1049003601074,13.3273248672485,13.2659997940063,11.613000869751,-46.7080535888672,-46.3200035095215,3.81383752822876,3.81177496910095,5.29704999923706,-2.76141238212585,4.65189981460571,5.12682485580444,-4.18905019760132,-3.07995009422302,-2.73300004005432,14.1840009689331,1.90695011615753,2.1889500617981,9.33240032196045,5.29223728179932,2.62913751602173,-4.47105026245117,3.75000023841858,5.9719500541687,4.31199979782104,3.76282501220703,3.09333753585815,-5.85117483139038,-6.56218767166138,-4.82954978942871,-0.55395001173019,0.57705003023148,0.71895003318787,10.0969505310059,11.2390508651733,9.22605037689209,0.67154997587204,1.41515004634857,1.5940375328064,-0.17805001139641,-0.59895002841949,-1.18095004558563,SWING_RIGHT
-0.24901250004768,-0.32477501034737,-0.74167501926422,0.59001249074936,0.92716246843338,0.43326249718666,1.29300010204315,-0.70005005598068,-0.6400500535965,9.89100074768066,10.2600002288818,10.3890008926392,1.40772497653961,1.47028744220734,1.6964750289917,-0.86295002698898,-2.0789999961853,-0.32400000095367,-0.68901246786118,-0.10532499849796,0.12361250072718,-0.62342500686646,-0.39833748340607,-0.30360001325607,0.87405002117157,1.25505006313324,1.34295010566711,10.7179508209229,9.19995021820068,9.14700031280518,2.7809374332428,2.73652505874634,1.95456254482269,-0.40500003099442,-2.56200003623962,-4.94505023956299,-0.2230249941349,-0.40658751130104,-5.00032520294189,1.21866250038147,-2.050950050354,-7.12690019607544,-0.32400000095367,-4.33995008468628,-57.0979537963867,9.62595081329346,23.3310012817383,8.40000057220459,-7.01800012588501,-0.41758748888969,1.99746251106262,17.742000579834,-50.779052734375,-35.5009498596191,-4.83532476425171,1.78970003128052,4.11894989013672,7.26811265945435,9.90659999847412,8.91041278839111,-2.65605020523071,-1.53600001335144,-1.72500002384186,8.09805011749268,7.58595037460327,2.37105011940002,3.78042507171631,1.43824994564056,-1.58111250400543,-6.34095048904419,1.80105006694794,2.60805010795593,3.14792490005493,2.58046245574951,2.21595001220703,-4.21781253814697,-4.83037519454956,-4.07178735733032,-1.25295007228851,0.66105002164841,1.07504999637604,9.32205009460449,9.62595081329346,8.8879508972168,-1.47812497615814,-0.48331248760223,0.3573625087738,-1.31295001506805,-1.58805012702942,-0.79305005073547,SWING_RIGHT
-0.24227499961853,-0.37674999237061,-0.40424999594688,0.21436250209808,0.22178749740124,0.31239998340607,0.26595002412796,0.48600003123283,-0.16200000047684,9.38205051422119,9.6109504699707,10.617000579834,0.9922000169754,1.18882501125336,1.29277503490448,-2.98095011711121,-3.3360002040863,-3.80295014381409,-0.48977500200272,-0.54436248540878,-0.67952501773834,0.34691250324249,0.75652498006821,1.12213754653931,-0.10200000554323,-0.40095001459122,-1.08105003833771,10.2409505844116,10.6770000457764,9.94695091247559,1.51593744754791,1.31436252593994,1.16036248207092,-9.44400024414062,-6.07500028610229,-4.01295042037964,-2.02702498435974,0.10601250082254,1.08886253833771,0.44165000319481,-4.9238748550415,-7.8501501083374,0.59595000743866,1.90605008602142,-2.84805011749268,9.80295085906982,5.11005020141602,4.96905040740967,-16.8405876159668,-5.22953748703003,-1.67282497882843,60.6859512329102,7.12605047225952,-27.844051361084,-1.95538747310638,-2.63394999504089,-0.1717374920845,-1.93146252632141,3.12001252174377,6.44572496414185,-6.18600034713745,-5.92905044555664,-5.32605028152466,-4.6840500831604,23.613000869751,9.56295013427734,6.32719993591309,5.48185014724731,2.14582490921021,-11.7469501495361,-6.58500051498413,2.3779501914978,3.43103742599487,3.3680624961853,2.5084125995636,-2.05796241760254,-4.02297496795654,-5.18375015258789,-2.50095009803772,-1.48095011711121,0.70395004749298,11.1700506210327,8.3230504989624,9.93495082855225,-1.28878748416901,-0.20102499425411,0.99027496576309,-0.58005005121231,-0.2710500061512,-0.89400005340576,SWING_RIGHT
-0.01814999990165,-0.11673749983311,-0.14753749966621,0.35351249575615,-0.04949999973178,-0.28517499566078,0.26595002412796,0.18000000715256,0.66600000858307,9.85305023193359,9.29100036621094,9.98205089569092,0.58630001544952,0.80781251192093,0.93279999494553,-1.20705008506775,-1.89195013046265,-2.93805003166199,-0.15289999544621,-0.27623748779297,-0.40328750014305,0.44013750553131,0.49169999361038,0.51933747529984,-0.00795000046492,-0.2790000140667,-0.57105004787445,10.0930500030518,11.2300500869751,10.0759506225586,1.08817493915558,1.22746253013611,1.23571252822876,-3.64005017280579,-1.60995006561279,0.65400004386902,-1.25056254863739,-1.51442503929138,-1.89158749580383,-0.28256249427795,0.55082499980927,-2.20151257514954,-2.59200000762939,-3.94500017166138,-7.21005010604858,6.63795042037964,7.42305040359497,17.8210506439209,-11.6278247833252,-10.6683502197266,-2.36018753051758,65.6929550170898,29.2399520874023,-21.9900016784668,-5.88376235961914,-5.03525018692017,-4.33303737640381,0.19758750498295,1.47290003299713,3.16304993629456,-35.3359527587891,-9.17400074005127,-4.98795032501221,19.3320007324219,7.26000022888184,2.66100001335144,6.18681240081787,5.7902626991272,5.7413125038147,-37.2649536132813,-7.03005027770996,-2.53095006942749,4.55771255493164,3.2763500213623,3.35032486915588,5.33733749389648,-5.3388500213623,-9.02495002746582,-2.70195007324219,-1.54095005989075,0.09405000507832,9.59505081176758,9.97305011749268,12.3499507904053,-3.90623736381531,-1.30982494354248,0.27555000782013,0.80100005865097,0.62595003843307,-0.27795001864433,SWING_RIGHT
-0.1868624985218,-0.2426874935627,-0.60527497529984,1.82544994354248,1.79808747768402,1.86161243915558,-0.10200000554323,-0.5950500369072,-1.35405004024506,10.8610506057739,9.23805046081543,11.0689506530762,0.8036875128746,0.8203250169754,0.99302500486374,-3.94200015068054,0.44895002245903,0.8479500412941,-0.92936247587204,-0.38747498393059,0.17916250228882,-1.67832493782043,-2.50772500038147,-2.86041259765625,1.07805001735687,0.98205006122589,1.04700005054474,10.81605052948,10.818000793457,10.4850006103516,3.00451254844666,3.53113746643066,3.5043249130249,-0.05805000290275,-0.66405004262924,-1.77495002746582,0.91382497549057,1.38393747806549,14.5901250839233,0.27183750271797,-2.05328750610352,2.48118758201599,1.42005002498627,-0.28395000100136,-29.2860012054443,4.92600011825562,6.49905014038086,32.7229499816895,19.5634994506836,16.8698749542236,15.5302124023438,5.09100008010864,-24.3979511260986,-40.4809532165527,6.00820016860962,2.0787250995636,5.01324987411499,-2.78781247138977,-0.7900750041008,5.3899998664856,-1.66305005550385,-4.95195007324219,-3.61200022697449,-4.08105039596558,25.0549507141113,6.09405040740967,11.5629253387451,9.15846252441406,6.5650749206543,-9.49605083465576,-8.18205070495605,-5.40000009536743,5.05614995956421,3.89413738250732,4.25122499465942,1.24121248722076,-0.7039999961853,-2.744225025177,-1.18605005741119,-0.67200005054474,-0.60405004024506,9.07695007324219,10.6120500564575,9.0130500793457,-1.59706246852875,-1.09587502479553,-0.46887499094009,0.6280500292778,-0.18300001323223,-1.27005004882813,SWING_RIGHT
-0.61613750457764,-0.89209997653961,-1.19803750514984,0.76023751497269,0.69148749113083,-0.06833750009537,0.10995000600815,-1.11705005168915,-1.02795004844666,10.6939506530762,9.06300067901611,9.64500045776367,1.13506245613098,1.27173745632172,1.37720000743866,1.05405008792877,-0.32400000095367,1.09305000305176,-0.71692502498627,-0.13062499463558,0.06187500059605,-2.04613757133484,-2.53398752212524,-1.89722502231598,-0.22095000743866,-0.15195000171661,-0.18495000898838,9.09195041656494,10.0690507888794,9.65205001831055,2.50992488861084,2.32072496414185,2.06964993476868,2.67300009727478,-3.13500022888184,-7.24305057525635,0.05857500061393,-0.00934999994934,-2.46840000152588,1.59912502765656,1.96418750286102,-3.93937492370605,-0.82005006074905,-0.15000000596046,-9.61695003509522,8.97000026702881,8.74695014953613,35.9509506225586,-6.05563735961914,-2.95831251144409,1.36303746700287,33.526050567627,2.63505005836487,-56.5579528808594,-5.87661266326904,-4.23252487182617,1.40937495231628,1.3721125125885,10.3824872970581,12.3392496109009,0.56100004911423,-2.99595022201538,-2.64000010490417,-16.0380001068115,24.3409519195557,7.96200037002563,4.21258735656738,2.99351239204407,0.85208749771118,-12.5560503005981,-3.11595010757446,-0.62100005149841,3.33726239204407,2.90468740463257,2.08614993095398,-0.47396248579025,-4.33303737640381,-4.05789995193481,-1.71795010566711,-0.94005006551743,0.78600001335144,12.492000579834,9.72600078582764,9.49905014038086,-1.79135000705719,-0.0796125009656,0.84232497215271,-2.47095012664795,-2.83095002174377,-2.95005011558533,SWING_RIGHT
0.10312499850988,0.1342000067234,0.26894998550415,-0.12567499279976,0.30937498807907,1.17328751087189,1.18095004558563,1.88895010948181,2.15295004844666,9.82200050354004,10.0230007171631,9.76500034332275,0.97033751010895,0.86776250600815,0.85745000839233,-5.24595022201538,-5.74395036697388,-4.58295011520386,-0.20088750123978,-0.69643747806549,-0.74827498197556,1.31408751010895,-0.0622874982655,-0.75844997167587,0.25605002045631,0.86505001783371,0.8770500421524,8.6850004196167,9.7140007019043,9.39300060272217,0.94737499952316,1.66278743743896,2.29418754577637,-2.33295011520386,-3.62595009803772,-5.75895023345947,-1.14785003662109,-2.20852494239807,-2.39882493019104,0.55000001192093,0.85263746976852,0.03561250120401,-0.88005006313324,-1.59795010089874,-4.25594997406006,6.54195022583008,7.15995025634766,9.06300067901611,7.42197513580322,9.00143718719482,9.28785037994385,78.2580032348633,21.3000011444092,-25.5160503387451,4.81098747253418,2.18624997138977,-0.22893749177456,-10.5032119750977,-16.9954128265381,-14.8204374313354,-16.2630004882813,-4.4520001411438,-4.08795022964478,-8.52195072174072,18.3529510498047,16.0380001068115,14.1065378189087,12.3088626861572,6.70848751068115,-3.82695007324219,0.5869500041008,5.96295022964478,7.43627500534058,6.39787483215332,4.95384979248047,-5.96420001983643,-6.50443744659424,-4.9487624168396,-1.19295001029968,-0.82005006074905,1.70505011081696,10.4299507141113,10.0930500030518,8.52405071258545,-2.2846999168396,-0.82665002346039,1.44196248054504,-3.14895009994507,-3.21600008010864,-3.42705011367798,SWING_RIGHT
-0.25808748602867,-0.18535000085831,-0.13502499461174,0.28696250915527,0.08772499859333,-0.00852499995381,1.19700002670288,1.54500007629395,1.72905004024506,7.9830002784729,8.1870002746582,9.21900081634522,0.97130000591278,4.86172485351563,5.97891235351563,-5.4859504699707,-6.70905017852783,-5.97705030441284,-1.9542875289917,-2.11997509002686,-2.12918758392334,2.71081256866455,2.49548745155334,2.17607498168945,2.32800006866455,2.41605019569397,2.04299998283386,8.95995044708252,9.45795059204102,8.79705047607422,5.21441268920898,5.16394996643066,5.72921228408813,-4.69800043106079,-3.62805008888245,-4.73895025253296,-3.32227492332459,-3.84587502479553,-5.0226001739502,1.34392499923706,1.59073746204376,-4.38514995574951,0.34005001187325,-0.62595003843307,-21.2260513305664,3.98205018043518,1.62600004673004,24.4560012817383,20.3666381835938,13.7787370681763,11.8527746200562,78.808952331543,19.9500007629395,-47.5339508056641,0.38912498950958,-1.48486244678497,-1.51139998435974,-5.37515020370483,-7.94351243972778,-5.07498741149902,-15.4080009460449,-1.97400009632111,-1.33695006370544,22.0879516601563,-4.04505014419556,8.58405017852783,14.8121871948242,10.6500625610352,-4.04827499389648,-0.50805002450943,11.6299505233765,9.26400089263916,5.64258766174316,4.73591232299805,4.88056230545044,-8.04100036621094,-7.2467999458313,-5.2907247543335,-0.94200003147125,1.94700014591217,2.81100010871887,11.2660503387451,8.69204998016357,9.88905048370361,-0.40810000896454,0.94489997625351,0.78264999389648,-2.48295021057129,-2.23200011253357,-1.48695003986359,SWING_RIGHT
-0.33825001120567,-0.32284998893738,-1.01392495632172,0.30731248855591,0.26441249251366,1.43522500991821,2.0550000667572,1.90905010700226,1.86300003528595,10.0609502792358,10.7440509796143,9.99900054931641,8.21246242523193,9.33061218261719,9.05396270751953,-1.73400008678436,-1.01595008373261,-0.12705001235008,-1.02327501773834,-0.65477502346039,-0.56045001745224,1.27283751964569,1.0480250120163,0.79860001802444,2.6290500164032,0.90300005674362,0.66795003414154,7.78005027770996,8.51700019836426,8.4190502166748,5.60216236114502,4.92401266098022,5.01091241836548,-0.38400000333786,1.20495009422302,11.778000831604,0.52126252651215,0.51480001211166,-4.70621252059937,-3.30041241645813,-8.19293785095215,-6.06113767623901,-7.20795011520386,-48.5740509033203,-78.4000549316406,5.38500022888184,14.2830009460449,4.69305038452148,1.07346248626709,-1.57643747329712,-1.0144749879837,-12.3979501724243,-39.8650512695313,-32.029052734375,-0.09363749623299,6.38508749008179,8.80728721618652,24.2110004425049,21.1227493286133,13.5244998931885,-8.55405044555664,-1.78500008583069,-0.73095005750656,10.5859508514404,13.303050994873,-1.12095010280609,-3.97484993934631,-4.21726226806641,-6.01012516021729,1.08495008945465,6.04605007171631,6.74595022201538,0.92908751964569,1.04362499713898,2.03775000572205,-7.47353744506836,-7.85647487640381,-5.01407480239868,-1.15995001792908,1.23795008659363,2.86095023155212,12.0390005111694,9.06494998931885,10.5880508422852,-0.10862500220537,2.40858745574951,2.8668749332428,-1.7650500535965,-0.96495002508163,-1.07295000553131,SWING_RIGHT
-0.15661250054836,-0.18232500553131,-0.2381500005722,0.60967499017715,0.53748750686646,0.38995000720024,1.64805006980896,1.66395008563995,2.14605021476746,8.25104999542236,10.3440008163452,10.8880500793457,1.28067493438721,1.41968750953674,1.73965001106262,-3.34800004959106,-4.21695041656494,-3.93000030517578,-0.34003749489784,-0.4461874961853,-0.68158751726151,0.74140000343323,1.94012498855591,2.33777499198914,2.91900014877319,2.0310001373291,1.05405008792877,9.68595027923584,9.5110502243042,7.63095045089722,1.9988374710083,2.61442494392395,3.01839995384216,0.82905006408691,-1.34895002841949,-1.60005009174347,-0.96428751945496,-1.59720003604889,-1.36262500286102,0.607337474823,-5.14978742599487,-6.6999626159668,-1.47795009613037,-0.09195000678301,-15.6600008010864,8.54805088043213,10.1550006866455,28.7059516906738,7.17213726043701,5.81157493591309,4.64516258239746,58.8430519104004,2.7850501537323,-41.7280502319336,-10.4758501052856,-4.91273736953735,4.9149374961853,6.79552507400513,17.095100402832,14.4049119949341,-10.945050239563,-3.11595010757446,-3.93000030517578,5.51205015182495,3.70905017852783,14.2849502563477,-3.0830249786377,-2.41683745384216,-3.21722507476807,-9.93000030517578,-5.41605043411255,-2.68200016021729,5.20753765106201,3.88960003852844,2.38315010070801,1.83149993419647,-2.15984988212585,-5.12682485580444,-1.28400003910065,-0.80805003643036,0.17295001447201,11.0239505767822,8.68695068359375,9.85305023193359,-3.2106249332428,-2.308762550354,-1.15170001983643,-1.44000005722046,-2.95305013656616,-3.25695013999939,SWING_RIGHT
-0.19538749754429,-0.25850000977516,-0.33316248655319,0.12182500213385,0.16224999725819,0.18342499434948,0.78600001335144,0.72300004959106,1.2720000743866,8.80200004577637,9.13500022888184,10.5160503387451,0.90777498483658,1.19143748283386,1.55168747901917,-7.07100009918213,-9.30000019073486,-9.40995025634766,-0.70592498779297,-1.22663748264313,-1.7635749578476,2.13111257553101,2.38947486877441,0.75886249542236,0.26595002412796,-2.00505018234253,2.20800018310547,10.0279502868652,11.0929508209229,8.58705043792725,1.49833750724792,3.73573756217957,5.72343730926514,1.68900012969971,-2.61495018005371,0.34095001220703,0.68860000371933,0.71665000915527,-0.31886249780655,-1.5966500043869,-0.43298751115799,-0.13392500579357,3.03405022621155,3.04095005989075,2.70795011520386,9.0130500793457,7.27695035934448,6.99000024795532,10.2951745986938,17.1840629577637,18.1681499481201,78.808952331543,-9.21900081634522,-36.0900001525879,10.003812789917,2.70448756217957,1.67722499370575,-3.66822504997253,-5.5694375038147,-2.72552490234375,-13.7590503692627,1.08300006389618,-0.3529500067234,-11.6149501800537,1.02105009555817,14.26305103302,16.9426116943359,14.7896375656128,12.4821128845215,-13.9399509429932,-10.453950881958,-7.59000015258789,4.16033744812012,4.34018754959106,3.36036252975464,-0.36547499895096,-1.93586254119873,-2.58802509307861,-0.70005005598068,-0.32400000095367,-0.5059500336647,9.98505020141602,10.2750005722046,10.782000541687,2.17483758926392,1.87288749217987,1.49311244487762,-1.54500007629395,-1.16700005531311,-1.99500012397766,SWING_RIGHT
-0.10518749803305,-0.19552500545979,-0.31872498989105,0.28049999475479,0.04991250112653,-0.17517499625683,1.9780501127243,1.99695014953613,2.28405022621155,8.074049949646,9.60705089569092,11.0070009231567,1.44883751869202,1.60503745079041,1.57354998588562,-3.61800026893616,-3.44100022315979,-4.72695016860962,-0.47286251187325,-0.41566249728203,-0.26963749527931,-0.65807497501373,-0.44288748502731,-0.14946250617504,3.19905018806458,3.40005016326904,3.30900025367737,10.2820501327515,8.19900035858154,7.00200033187866,1.42285001277924,1.1475750207901,1.01695001125336,-7.56705045700073,-5.6650505065918,-3.90105009078979,0.08882500231266,0.09597499668598,-0.00632499996573,1.69867503643036,1.1756249666214,-1.08350002765656,1.96605014801025,1.69095003604889,-2.21595001220703,4.42995023727417,2.67495012283325,5.38500022888184,15.194299697876,18.0453624725342,17.6782379150391,66.0760498046875,15.693000793457,-3.05295014381409,10.6247625350952,11.9072246551514,10.6084003448486,-4.01114988327026,-3.70493745803833,-4.11193752288818,-43.5630035400391,-21.6220512390137,-5.32605028152466,40.9570503234863,32.3620529174805,4.30605030059814,17.915699005127,17.5498123168945,16.4526996612549,-31.3489513397217,-21.4699516296387,-16.8280506134033,4.71239995956421,5.03002500534058,5.24287509918213,2.79290008544922,4.96801233291626,3.34468746185303,-1.51395010948181,-0.68295001983643,-0.8770500421524,14.0410509109497,3.95595026016235,5.64405012130737,3.70383739471436,2.38809990882874,1.26623749732971,0.44100001454353,1.55505001544952,2.12700009346008,SWING_RIGHT
-0.65793746709824,-0.63222497701645,-0.54175001382828,-0.70097500085831,-0.97006249427795,-1.14152503013611,2.19600009918213,2.36100006103516,3.3469500541687,9.56805038452148,10.2240009307861,10.3780508041382,3.06185007095337,2.82246255874634,2.73996257781982,-2.16300010681152,-0.16305001080036,-0.0409500002861,0.29672500491142,0.7539125084877,0.89773750305176,-0.23223750293255,-0.09336250275373,-0.23870000243187,4.36995029449463,4.35105037689209,4.41105031967163,8.40495014190674,8.27805042266846,8.14095020294189,1.01213753223419,0.55687499046326,-0.15881249308586,1.14795005321503,-0.86700004339218,-3.18495011329651,0.97267496585846,0.98298752307892,0.21422499418259,-0.81771248579025,-1.08116245269775,-3.19000005722046,4.85100030899048,2.53605008125305,-6.08295011520386,5.98905038833618,11.8549509048462,27.0660018920898,-5.88802480697632,-10.6573495864868,-7.14890003204346,46.5100517272949,-6.86700010299683,-38.8219528198242,-7.78002500534058,-3.2016875743866,0.28929999470711,6.07502508163452,12.9435625076294,10.9199752807617,-0.84600001573563,-1.83495008945465,-0.8850000500679,-9.528000831604,3.45795011520386,16.4970016479492,4.69053745269775,1.87742495536804,-0.19731250405312,-6.73800039291382,-0.22800001502037,1.25295007228851,3.88588738441467,3.33629989624023,2.97618746757507,-4.3076000213623,-4.88303756713867,-4.77826261520386,-0.30300000309944,0.69000005722046,1.56105005741119,9.49200057983398,9.84105014801025,8.88105010986328,1.64298748970032,3.88863754272461,4.90792512893677,-4.76295042037964,-4.97595024108887,-4.74105024337769,SWING_RIGHT
0.13186250627041,0.14341250061989,0.2606999874115,-0.07975000143051,-0.28104999661446,-0.32766249775887,3.85500025749207,4.0420503616333,4.30500030517578,8.46000003814697,8.10494995117188,9.04605007171631,0.27967500686646,0.04606249928474,-0.2727999985218,-1.95705008506775,-1.32000005245209,-2.206050157547,0.50393748283386,0.64556246995926,0.71541249752045,-0.85250002145767,-1.09463751316071,-1.17232501506805,4.69800043106079,4.71000003814697,4.74105024337769,7.89705038070679,8.49300003051758,8.05305004119873,-1.17617499828339,-1.10426247119904,-0.38211250305176,-3.22995018959045,-3.49905014038086,0.85800004005432,0.64583748579025,1.01667499542236,1.05916249752045,0.09391249716282,-0.518649995327,-2.78355002403259,4.80105018615723,3.94605016708374,-7.44000053405762,4.03995037078857,6.90105009078979,23.5960502624512,9.69113731384277,12.4500751495361,15.916449546814,25.6030521392822,-0.17805001139641,-31.4620513916016,8.36164951324463,3.83418750762939,4.54024982452393,-8.04237461090088,-5.3090124130249,1.31312501430511,-6.08295011520386,-2.21595001220703,-3.04695010185242,-6.50100040435791,11.8159503936768,10.7610006332397,11.5868501663208,9.36333751678467,3.53044986724854,-5.02905035018921,-0.72795003652573,2.25104999542236,5.69263744354248,5.66857481002808,4.71624994277954,-3.61308741569519,-4.59621238708496,-4.74347496032715,-0.30000001192093,-0.11595000326633,1.17599999904633,11.0070009231567,10.5690002441406,8.43600082397461,1.7467999458313,3.15809988975525,3.80187487602234,-4.55700016021729,-4.32705020904541,-3.75195026397705,SWING_RIGHT
-0.08841250091791,0.06352499872446,0.09844999760389,-0.82967501878738,-0.80341249704361,-0.87449997663498,3.44295024871826,3.40695023536682,3.51300024986267,9.02505016326904,9.00600051879883,8.3929500579834,1.21206247806549,0.82279998064041,0.73108750581741,-0.44100001454353,0.54704999923706,0.10095000267029,0.3134999871254,0.32243749499321,0.3634124994278,-1.04871249198914,-1.10453748703003,-1.10398745536804,3.83100008964539,4.01595020294189,4.72395038604736,8.49300003051758,7.74105024337768,6.44100046157837,-0.83407497406006,-1.39865005016327,-2.92531251907349,0.62295001745224,14.9479503631592,44.2930526733398,-5.50687503814697,-8.03164958953857,-9.48653697967529,-8.2882251739502,-8.02078723907471,-6.90098762512207,-21.5329513549805,-45.5670013427734,-64.4650497436523,20.9100017547607,-9.25695037841797,-6.00105047225952,-0.40452501177788,0.95218747854233,-0.96222501993179,-11.6659507751465,-44.5609512329102,-45.5329513549805,-6.40351247787476,-1.98893749713898,5.07278728485107,12.1394624710083,12.625524520874,11.1795749664307,-3.93705010414124,-2.26095008850098,-2.3860502243042,8.07900047302246,15.2620506286621,-0.45600003004074,0.74621248245239,-0.65174996852875,-3.67853736877441,-1.65000009536743,3.52500009536743,4.65795040130615,2.43402504920959,2.28263759613037,2.58004999160767,-6.30574989318848,-6.15119981765747,-3.77519989013672,-0.23595000803471,0.68700003623962,1.59705007076263,10.6740007400513,11.2990503311157,9.17805004119873,1.90561246871948,2.65127491950989,3.05566239356995,-2.57895016670227,-3.1560001373291,-3.24000024795532,SWING_RIGHT
-1.0147500038147,-0.96415001153946,-0.88508749008179,-0.1567499935627,-0.28778749704361,-0.36602500081062,1.10205006599426,1.1779500246048,1.37700009346008,9.40305042266846,9.29100036621094,8.98605060577393,2.43883752822876,2.58321237564087,2.64742493629456,-2.74005007743835,-2.57205009460449,-2.96895003318787,-0.21408750116825,-0.03877500072122,-0.04069999977946,-0.09088750183582,0.15743750333786,0.21106250584126,2.52600002288818,2.23695015907288,2.13795018196106,9.4680004119873,9.30000019073486,8.97405052185059,2.21017503738403,2.26957488059998,2.30161237716675,-1.24305009841919,-1.42500007152557,-1.16895008087158,-0.19744999706745,0.4672249853611,0.67993748188019,-0.34251248836517,0.45993748307228,0.44508749246597,3.06495022773743,2.51205015182495,0.54900002479553,6.33105039596558,5.28705024719238,10.3200006484985,3.11836242675781,-17.5466499328613,-10.5034875869751,74.9400024414063,9.43905067443848,-31.3729515075684,-7.48041248321533,-7.30949974060059,-5.1518497467041,3.37328743934631,6.17869997024536,11.3326120376587,-1.91700005531311,-6.04395008087158,-5.80500030517578,-15.7980003356934,-10.2990007400513,23.5459518432617,1.01639997959137,1.4884375333786,0.09597499668598,-12.9130506515503,-5.15295028686523,-0.69300001859665,4.0199499130249,2.93906259536743,2.10952496528625,-0.18397499620914,-2.30642509460449,-5.58373737335205,-2.34000015258789,-1.61700010299683,-0.63105005025864,11.0290508270264,9.91500091552734,10.5790500640869,-1.2115124464035,-0.05197500064969,2.486412525177,-0.25200000405312,-1.51605010032654,-2.2630500793457,SWING_RIGHT
-0.26276248693466,-0.32931250333786,-0.3783999979496,0.16142499446869,0.07590000331402,0.03533750027418,0.51495003700256,0.46005001664162,0.24000000953674,10.1740503311157,9.80100059509277,11.1130504608154,1.72136247158051,1.79616248607636,1.86972498893738,-3.4939501285553,-3.52995014190674,-2.95500016212463,-0.38885000348091,-0.30181249976158,-0.28077501058578,0.11082500219345,0.13117499649525,0.15317499637604,0.83100003004074,1.05105006694794,1.10594999790192,10.6290006637573,9.6040506362915,9.45300006866455,1.40195000171661,1.24520003795624,1.73992502689362,-4.91400003433228,-2.67000007629395,11.1340503692627,1.36276245117188,-14.5630378723145,-11.0944623947144,-2.1515998840332,-7.52317476272583,-4.2598876953125,-0.09000000357628,-45.4369506835938,-51.7540512084961,3.70005011558533,23.2420501708984,13.9690504074097,-5.4109001159668,-3.54089999198914,0.04193750023842,-44.6899528503418,-31.8450012207031,-31.3470020294189,2.82782506942749,6.4186372756958,6.42070007324219,11.8646001815796,10.0808124542236,5.06440019607544,6.54600048065186,-0.55695003271103,-2.32395005226135,12.8839502334595,0.40305000543594,10.6410007476807,0.10724999755621,-5.97959995269775,-2.79413747787476,8.87400054931641,1.15200006961823,-1.83195006847382,3.62065005302429,4.46806240081787,3.39680004119873,-5.46837520599365,0.88453751802444,2.63147497177124,4.4370002746582,4.08494997024536,4.10895013809204,6.8100004196167,8.34495067596436,8.60805034637451,2.8686625957489,1.95469999313354,1.48115003108978,-5.2300500869751,-4.38495016098022,-4.47300004959106,SWING_RIGHT
-1.18758749961853,-1.0592999458313,-0.70812499523163,-0.42872500419617,-0.30346250534058,-0.07383749634027,1.89705014228821,1.92795014381409,2.17695021629334,9.421950340271,9.34305000305176,9.22095012664795,2.47706246376038,2.40556240081787,2.23973751068115,-2.40900015830994,-2.27295017242432,-1.61700010299683,0.31679999828339,0.39476248621941,0.41057500243187,0.46200001239777,0.44013750553131,0.39476248621941,3.3360002040863,3.29505014419556,3.55605006217957,9.45105075836182,9.13199996948242,8.53395080566406,1.30377495288849,0.88852500915527,-0.36011248826981,-0.74505001306534,-1.41105008125305,-0.40005001425743,1.51084995269775,1.42917501926422,-0.598537504673,-2.01561260223389,-3.16332507133484,-5.99582481384277,2.90505003929138,2.42295002937317,-2.17994999885559,5.15295028686523,6.5110502243042,15.7669506072998,1.3029500246048,2.36142492294312,4.30416250228882,54.0420036315918,38.4289512634277,2.39805006980896,-5.78311252593994,-5.44087505340576,-5.75176239013672,-4.32451248168945,-2.31151247024536,-0.36410000920296,-39.2959518432617,-16.4020500183105,-10.150050163269,25.1650505065918,11.860050201416,-0.61395001411438,6.95543766021729,-4.95247507095337,-4.41760015487671,-30.8800506591797,-26.0430011749268,-11.8240509033203,6.89383745193481,6.00943756103516,4.23376226425171,9.21538734436035,5.95650005340576,0.18438750505447,-0.6240000128746,-0.85800004005432,-1.2720000743866,9.85305023193359,11.9719505310059,7.49700021743774,-5.57356262207031,-4.34926271438599,-2.12382507324219,2.76600003242493,0.67605000734329,-2.12400007247925,SWING_RIGHT
-0.47643750905991,-0.44563749432564,-0.16802500188351,-0.41827499866486,-0.57639998197556,-0.63236248493195,2.38005018234253,2.84205007553101,3.27300024032593,9.32595062255859,9.58500003814697,8.46405029296875,3.81466245651245,3.6481499671936,3.13211250305176,-1.08795011043549,-0.85305005311966,0.2710500061512,0.53377497196198,0.4838624894619,0.29851248860359,-0.33082500100136,-0.38073748350143,-0.20088750123978,3.40305018424988,3.80205011367798,4.01595020294189,9.50100040435791,9.25500011444092,8.47395038604736,1.83892500400543,1.46066248416901,1.14936244487762,-1.75605010986328,-2.87895011901855,-3.90300011634827,1.29318749904633,0.1522125005722,-1.60503745079041,2.81352496147156,0.83324998617172,-4.63251256942749,1.44195008277893,-1.24605000019073,-11.0239505767822,3.78405022621155,17.5770015716553,29.965051651001,5.50701236724854,3.24554991722107,1.04719996452332,46.9260025024414,9.90105056762695,-5.24595022201538,-10.2179002761841,-5.53189992904663,0.2744500041008,4.03315019607544,12.1231002807617,13.4253625869751,-4.03995037078857,-2.58195018768311,-2.91495013237,0.59400004148483,15.2380504608154,13.5619506835938,-2.32182502746582,-1.81926250457764,-2.11131238937378,-13.3849506378174,-7.98600053787232,-3.22095012664795,5.51416254043579,4.77647495269775,3.8700749874115,4.3058123588562,2.56258749961853,-2.73239994049072,-0.17295001447201,-0.18300001323223,0.59895002841949,7.82505035400391,9.71895027160644,9.59700012207031,-4.17285013198853,-2.84721255302429,-2.37627506256104,1.22400009632111,0.42495003342628,-0.79095005989075,SWING_RIGHT
-0.07521250098944,0.02062499895692,0.06943749636412,0.01828750036657,0.38651248812675,0.72173750400543,2.12400007247925,2.0310001373291,1.99995005130768,9.5779504776001,9.75300025939941,10.4970006942749,1.30542504787445,1.24286246299744,1.22154998779297,-2.35199999809265,-1.85895013809204,-1.42500007152557,0.04592499881983,0.05321250110865,0.16527499258518,0.12319999933243,0.06379999965429,0.28366249799728,2.86905002593994,2.77305006980896,2.29200005531311,8.72805023193359,9.33105087280273,8.28705024719238,1.29126250743866,1.33347499370575,1.40318751335144,-1.66500008106232,-3.57000017166138,-5.73000049591064,0.05321250110865,-0.05623750016093,-0.28751251101494,1.77581250667572,1.89791250228882,0.89869999885559,1.86795008182526,0.87405002117157,-4.13400030136108,6.19695043563843,7.66500043869019,15.8320503234863,2.81462502479553,27.7226123809814,22.406587600708,44.1850509643555,25.7440509796143,11.6850004196167,13.2603626251221,12.3954877853394,6.33778762817383,-3.61501240730286,-3.30646252632141,-5.87234973907471,-32.7720031738281,-9.88200092315674,-0.87300002574921,31.3369522094727,14.377950668335,7.03005027770996,19.1130504608154,18.8531742095947,14.1439371109009,-41.836051940918,-17.7610511779785,-3.98895025253296,3.91599988937378,4.20860004425049,5.06343746185303,5.32908725738525,3.31815004348755,-4.09488725662231,-1.00394999980927,-1.38705003261566,-0.79605001211166,6.74805021286011,8.33505058288574,11.6989507675171,-0.06173750013113,-0.83572500944138,-0.18823750317097,3.65505027770996,2.40705013275146,1.21695005893707,SWING_RIGHT
-0.06655000150204,0.00522499997169,0.04193750023842,0.2246749997139,0.27004998922348,0.25850000977516,2.10000014305115,2.007000207901,2.01405000686646,9.56100082397461,10.0020008087158,9.73095035552978,1.88209998607636,1.81183743476868,1.78914999961853,-1.03995001316071,-1.31505000591278,-1.80600011348724,0.19621250033379,0.27018749713898,0.342375010252,0.21821250021458,0.43656250834465,0.52126252651215,2.77800011634827,2.932950258255,2.97900009155273,9.19200038909912,8.36895084381104,9.58995056152344,1.43990004062653,1.455162525177,1.26101243495941,-0.87900006771088,-1.89405012130737,-1.81500005722046,0.28256249427795,0.90310001373291,1.16558754444122,0.17283749580383,0.57227498292923,0.01058750040829,3.58905005455017,4.40595006942749,-0.37695002555847,8.36595058441162,6.71205043792725,14.7829504013062,-2.10938739776611,-9.83867454528809,-7.83488750457764,50.9899520874023,26.776050567627,6.58995008468628,-10.0445127487183,-8.77263736724854,-8.07138729095459,-3.17844986915588,0.25148749351501,3.94198751449585,-40.006950378418,-25.2490520477295,-13.5070505142212,34.0279502868652,18.2500514984131,-4.25804996490479,-0.82871252298355,1.77677500247955,3.24775004386902,-40.818000793457,-31.7940006256104,-11.9290504455566,3.79348754882813,4.09818744659424,3.55739998817444,8.06258773803711,5.80978727340698,0.32023748755455,-4.43805027008057,-3.25500011444092,-0.67395001649857,2.2129499912262,5.42895030975342,10.8660001754761,-3.03558754920959,-2.54649996757507,-0.91602498292923,1.17599999904633,1.34400010108948,-0.18300001323223,SWING_RIGHT
-0.62672501802444,-0.49307498335838,-0.37248748540878,-0.35406249761581,-0.54738748073578,-0.90103751420975,1.92495012283325,1.9369500875473,1.94895005226135,8.4330005645752,9.26700019836426,9.48405075073242,3.10337495803833,3.09526252746582,3.00588750839233,-0.46995002031326,-0.37200000882149,0.59700000286102,-0.01828750036657,0.17792500555515,0.20006249845028,-0.54532498121262,-0.50833749771118,-0.48056250810623,2.6050500869751,2.4190502166748,2.46900010108948,8.99100017547607,10.4470500946045,9.95595073699951,1.22099995613098,-0.33660000562668,-1.25785005092621,0.69495004415512,-0.5869500041008,-1.9780501127243,0.68255001306534,0.9285374879837,1.0118625164032,-0.60720002651215,-1.33718752861023,-3.08687496185303,4.43505001068115,3.74295020103455,-0.52095001935959,6.86805009841919,6.69795036315918,12.6880502700806,-5.46920013427734,0.07906249910593,1.67241251468658,54.6030044555664,22.1460018157959,8.27505016326904,-7.39502477645874,-8.15471267700195,-3.36462497711182,-0.33426249027252,12.6226377487183,14.5399370193481,-21.246000289917,-2.33805012702942,-3.88905024528503,10.5949506759644,2.01900005340576,15.1680011749268,-0.45526251196861,0.46186250448227,0.23251250386238,-18.1950016021729,-6.98505020141602,-4.28205013275146,4.01032495498657,3.10089993476868,3.08673739433289,2.17195010185242,-0.20336249470711,-3.24486255645752,-0.79605001211166,0.38595002889633,0.68505001068115,7.34595012664795,9.88395023345947,9.24000072479248,-1.32879996299744,-0.08552499860525,0.51796251535416,-0.76905006170273,-2.59095001220703,-3.25905013084412,SWING_RIGHT
-0.20556250214577,0.20157499611378,0.17215000092983,-0.10876250267029,1.05613744258881,1.27476251125336,2.44995021820068,2.21700000762939,1.60695004463196,9.70200061798096,9.74805068969727,10.8919506072998,0.90873748064041,0.97955000400543,1.07360005378723,0.36705002188683,-0.67095005512238,-0.85500001907349,-0.41827499866486,-0.38403749465942,-0.31611248850822,-0.45127499103546,-0.58300000429153,-0.45677500963211,1.36695003509521,1.68600010871887,1.81500005722046,10.5210008621216,9.79605007171631,9.2590503692627,-1.56818747520447,-7.82897472381592,-9.14306259155273,0.2790000140667,-3.24195003509521,-1.29300010204315,-0.13062499463558,-4.10341262817383,-3.7445375919342,-3.12977504730225,-7.31829977035522,-8.12240028381348,-5.12205028533936,-38.2710037231445,-55.3000526428223,22.7730007171631,-9.65205001831055,-19.7389507293701,4.95852518081665,5.11940002441406,4.70758724212646,-24.5880012512207,-35.7160530090332,-31.0639514923096,1.65632498264313,5.38848733901978,11.6795253753662,12.9985628128052,12.6979875564575,10.4461498260498,-1.03095006942749,-1.69605004787445,-1.75905013084412,18.1849517822266,9.12495040893555,4.10895013809204,-5.57039976119995,-4.7283501625061,3.11437487602234,2.31405019760132,2.40705013275146,1.42800009250641,-0.16981250047684,0.0867625027895,0.24571250379086,-5.34063768386841,-4.04153728485107,-1.51896250247955,0.73995006084442,1.15005004405975,1.76700007915497,10.701000213623,9.66900062561035,9.99900054931641,6.18722486495972,5.56627511978149,5.01709985733032,-3.20205020904541,-3.23505020141602,-3.15900015830994,SWING_RIGHT
-0.31776249408722,-0.09748750180006,-0.05142499879003,0.06696250289679,0.1537249982357,0.24378749728203,1.50195002555847,1.46295011043549,1.57605004310608,9.24495029449463,9.46305084228516,9.46305084228516,1.05366253852844,1.32068753242493,1.81843745708466,-3.36195015907288,-3.74295020103455,-3.88695025444031,-0.48661249876022,-0.5047624707222,-0.52511250972748,0.35722500085831,0.45856249332428,0.57612502574921,1.9039500951767,2.1739501953125,2.425950050354,9.31005001068115,10.6840505599976,9.92295074462891,1.94177496433258,1.91592502593994,1.89777493476868,-4.03995037078857,-6.21600008010864,-6.60900020599365,-1.09986245632172,-1.58784997463226,-1.51772499084473,0.9843624830246,0.81730002164841,0.79681247472763,0.79800003767014,2.59605002403259,-0.76500004529953,5.8090500831604,2.82105016708374,8.17199993133545,-0.00371249997988,0.80176252126694,1.47001254558563,61.5150032043457,8.53395080566406,-11.8519506454468,-5.18897485733032,-5.99609994888306,-5.2733998298645,-1.30363750457764,2.25238752365112,6.30616235733032,-15.6769504547119,-5.33295011520386,2.50695013999939,4.44000005722046,3.882000207901,11.5960502624512,6.863450050354,15.0471744537354,14.2045745849609,-27.4150505065918,-7.73400020599365,-1.80300009250641,-6.66696262359619,-5.00568723678589,-5.01297473907471,-4.02173757553101,-8.42847537994385,-9.99776268005371,0.54900002479553,0.87900006771088,0.89595001935959,9.40095043182373,11.1010503768921,9.93705081939697,14.7774000167847,12.9509878158569,11.1370878219604,1.5859500169754,0.2569500207901,-0.65205001831055,SWING_RIGHT
0.04537500068545,-0.31955000758171,-0.38073748350143,0.85057497024536,0.19799999892712,0.01636249944568,1.83705008029938,1.86300003528595,1.96800005435944,10.4040002822876,8.17005062103271,8.57505035400391,1.81225001811981,1.89516246318817,1.81554996967316,-2.25600004196167,-2.64900016784668,-2.53605008125305,-0.04867500066757,-0.04798749834299,-0.01072499994189,0.47148749232292,0.66549998521805,0.7430499792099,2.72505021095276,3.09105014801025,3.04095005989075,10.3990507125854,9.5710506439209,9.28605079650879,1.10398745536804,1.19941246509552,1.71654999256134,-5.6650505065918,-8.296950340271,-0.08895000070333,-0.18947499990463,-0.68365001678467,-4.26634979248047,-0.30030000209808,-6.58693742752075,-11.8685874938965,-2.17305016517639,-15.2020511627197,-50.2980041503906,7.96605014801025,18.5130004882813,-11.4930009841919,2.36004996299744,2.97921252250671,4.34967517852783,-10.3510503768921,-38.5390510559082,-56.7720031738281,-1.09587502479553,-2.11543750762939,-7.54668760299683,5.7992000579834,1.2694000005722,-4.5337872505188,-5.17800045013428,-3.67200016975403,-1.97205007076263,16.3350009918213,2.62005019187927,6.03000020980835,10.4948253631592,9.14581203460693,22.4747867584229,8.22495079040527,10.6579504013062,8.73795032501221,1.14482498168945,1.51469993591309,1.05421245098114,-10.7053375244141,-5.77018737792969,-0.99756246805191,1.11795008182526,2.86905002593994,2.49000000953674,9.70200061798096,10.9020004272461,9.13500022888184,5.27120018005371,2.40198755264282,1.84249997138977,-0.34305000305176,-0.90600001811981,-1.32000005245209,SWING_RIGHT
-0.4100250005722,-0.25203749537468,0.23209999501705,-0.80808746814728,-0.6289250254631,-0.30799999833107,2.01405000686646,1.87695014476776,1.88205003738403,10.2150001525879,10.2340507507324,8.93400001525879,2.10141253471375,1.88457500934601,1.68107497692108,0.86295002698898,0.40095001459122,0.3979500234127,0.42528748512268,0.37207499146461,0.32518750429153,-0.00742499995977,-0.09446249902248,-0.20996250212193,1.98795008659363,2.11005020141602,2.1739501953125,9.66600036621094,9.33795070648193,9.70500087738037,1.23323750495911,1.25386250019073,1.455162525177,1.32000005245209,1.12395000457764,1.33905005455017,0.62548750638962,1.16063749790192,0.34485000371933,0.16788749396801,-0.35694998502731,-1.92032504081726,4.25699996948242,-0.97800004482269,-9.86595058441162,6.27405023574829,12.8050508499146,22.5090007781982,2.1843249797821,4.15854978561401,4.77592515945435,56.6659545898438,1.09500002861023,-29.8960514068604,-5.6616997718811,-3.74604988098145,-1.31284999847412,0.87917500734329,8.33428764343262,5.09492492675781,-1.59105002880096,-2.23995018005371,-1.27005004882813,-5.35005044937134,17.8450508117676,11.3569507598877,14.9005994796753,13.3971748352051,9.88803768157959,-6.57300043106079,-1.41300010681152,2.27100014686584,-3.02018737792969,-2.65429997444153,-0.71981251239777,-8.15828704833984,-9.17097473144531,-6.75963735580444,0.89100003242493,1.42500007152557,2.61705017089844,10.2720003128052,8.63205051422119,7.67895030975342,10.36598777771,8.68422508239746,5.62979984283447,0.73605000972748,0.39300000667572,0.07695000618696,SWING_RIGHT
0.13447499275208,0.21931250393391,0.28036248683929,0.28421249985695,0.54229998588562,0.7567999958992,2.53605008125305,2.51700019836426,2.12205004692078,9.72105026245117,9.49200057983398,9.06300067901611,0.86171251535416,1.00045001506805,1.13753747940063,-0.18000000715256,-0.56805002689362,-1.33905005455017,-0.02337500080466,-0.10119999945164,-0.2744500041008,0.42446249723434,0.42872500419617,0.20968750119209,2.0789999961853,1.63305008411407,1.81800007820129,9.86805057525635,9.65895080566406,8.85705089569092,1.75656247138977,1.7598625421524,1.6718624830246,1.58100008964539,1.27005004882813,0.39300000667572,0.50297498703003,0.99948751926422,1.16833746433258,0.10601250082254,0.96923750638962,-0.598537504673,5.43300008773804,4.73400020599365,-5.87400007247925,7.17900037765503,8.19600009918213,17.9119510650635,0.1900250017643,1.03207504749298,2.18391251564026,67.4380569458008,48.5740509033203,27.2239513397217,-4.97832489013672,-5.04446268081665,-4.89995002746582,-7.33246231079102,-4.89183759689331,-2.36376237869263,-55.9530029296875,-39.8370018005371,-10.53600025177,28.1530513763428,29.4600009918213,8.24205017089844,5.39921236038208,7.88631248474121,11.0864877700806,-36.0850524902344,-17.3230514526367,-15.1489505767822,-5.23517513275146,-5.21276235580444,-2.82356238365173,-3.57279992103577,-5.71670007705688,-5.93505001068115,-1.47405004501343,-0.79395002126694,-0.09405000507832,7.13100051879883,6.71895027160645,11.3209505081177,9.6146879196167,15.329737663269,15.4596748352051,5.69205045700073,4.57905006408691,2.8050000667572,SWING_RIGHT
0.10271249711514,0.09927500039339,0.07328750193119,0.21532499790192,0.19607499241829,0.18108749389648,1.73100006580353,1.61400008201599,1.49205005168915,9.60705089569092,9.80100059509277,9.63300037384033,0.85676246881485,0.74731248617172,0.61462497711182,-1.00604999065399,-1.81995010375977,-1.46805012226105,0.01278750039637,0.01938750036061,0.04468749836087,0.53184998035431,0.92785000801086,1.31243753433228,1.7410501241684,3.17805004119873,3.52500009536743,11.1079502105713,13.0500001907349,11.0580005645752,0.9619500041008,1.34089994430542,1.83095002174377,-7.13595056533813,-8.77305030822754,-9.53700065612793,-1.85652494430542,-3.34894990921021,-3.36613750457764,4.16006231307983,4.66936254501343,-1.5552624464035,0.50505000352859,0.0409500002861,-10.8300008773804,3.175950050354,2.89995002746582,25.5480003356934,3.37314987182617,7.86513757705688,2.3561999797821,63.4609527587891,1.72005009651184,-34.5550498962402,-8.52307510375977,-2.94689989089966,0.59248751401901,0.89306247234344,7.84423732757568,7.03835010528564,-6.74595022201538,2.0500500202179,0.93405002355576,9.03404998779297,19.5190505981445,11.9580001831055,18.8021621704102,17.632999420166,15.0221500396729,-10.1929502487183,-0.61395001411438,5.32605028152466,-7.29877519607544,-6.19602489471436,-8.17904949188232,-5.61989974975586,-6.84612512588501,-11.1238870620728,0.09600000083447,-0.32700002193451,0.06000000238419,10.6270503997803,8.07705020904541,4.73400020599365,20.3328132629395,13.5376996994019,10.8399496078491,5.41695022583008,-1.31700003147125,-2.37600016593933,SWING_RIGHT
-0.06558749824762,0.00591249996796,0.09129999577999,0.31501248478889,0.69533747434616,0.81496250629425,2.4019501209259,2.44005012512207,2.61495018005371,10.3150501251221,10.1880006790161,9.90105056762695,0.12155000120401,0.26496249437332,0.48303750157356,-2.44005012512207,-3.26895022392273,-3.89100027084351,0.11921250075102,-0.08896250277758,-0.26234999299049,1.43385004997253,1.5966500043869,1.76055002212524,2.59095001220703,2.47095012664795,2.45895004272461,10.0780506134033,10.1860504150391,9.43395042419434,2.34052491188049,3.25737500190735,3.80159997940064,-7.41795015335083,-4.41600036621094,-0.12705001235008,-2.87581253051758,-3.91201257705688,-3.85536241531372,2.56052494049072,-10.1334753036499,-11.5781869888306,-8.72294998168945,-24.04905128479,-35.1760520935059,19.1980514526367,7.76295042037964,-17.8210506439209,3.2415623664856,4.41828727722168,5.09148740768433,7.11195039749146,-32.8570518493652,-42.0319519042969,-1.48500001430511,-0.426662504673,-6.05453729629517,6.22998762130737,5.82669973373413,-1.70623743534088,0.32805001735687,-0.09195000678301,1.1380500793457,13.9789505004883,9.93195056915283,3.08505010604858,10.772575378418,8.851149559021,9.61083698272705,1.16400003433228,4.73699998855591,6.06795024871826,-2.89024996757507,-2.03857493400574,-0.95947498083115,-9.66088771820068,-7.67511224746704,-4.47411251068115,0.21300001442432,0.87195003032684,2.46600008010864,12.8680505752563,10.8949508666992,10.2720003128052,6.45163726806641,4.85058736801147,1.9267874956131,-1.38405001163483,-1.23600006103516,-1.74600005149841,SWING_RIGHT
-0.23471249639988,-0.1380500048399,-0.0536249987781,-0.18081249296665,-0.18328750133514,-0.05582499876618,2.92095017433167,2.45400023460388,2.59800004959106,9.82005023956299,10.417950630188,10.4640007019043,0.13818749785423,0.14932499825954,-0.06448750197887,-5.19900035858154,-5.23695039749146,-5.36400032043457,-0.15358750522137,-0.71981251239777,-0.6542249917984,1.67227494716644,1.44924998283386,-1.69152498245239,-0.1950000077486,0.97200006246567,3.01005005836487,7.92795038223267,6.93000030517578,7.82505035400391,0.1402499973774,1.99237501621246,3.22849988937378,-0.6280500292778,1.05195009708405,1.52400004863739,0.96868747472763,0.89361250400543,0.80423748493195,-0.53693747520447,0.04647500067949,-1.62909996509552,2.75895023345947,0.49395000934601,-3.6979501247406,6.64500045776367,9.87495040893555,19.8349514007568,5.56916236877441,5.53946256637573,5.74076223373413,44.5180511474609,44.8050003051758,29.601001739502,-3.16580009460449,-4.04346227645874,-6.23108768463135,-6.67961263656616,-4.87877511978149,1.2225124835968,-46.771053314209,-22.7899513244629,-12.7030506134033,15.9630002975464,24.6640510559082,5.38305044174194,6.0997748374939,9.88570022583008,17.958324432373,-43.0090522766113,-33.9970512390137,-18.3340511322021,-8.25027465820313,-7.39268732070923,-5.61797475814819,-7.90075016021729,-6.05412483215332,-5.67283725738525,-3.00600004196167,-2.88105010986328,-1.93605005741119,4.78905010223389,6.66900014877319,9.84795093536377,10.147087097168,10.288987159729,14.2522878646851,7.36800050735474,11.2560005187988,7.92405033111572,SWING_RIGHT
-1.60297501087189,-1.79849994182587,-1.65082502365112,0.52621251344681,0.08896250277758,-0.40136250853539,2.45700001716614,2.45205020904541,2.44500017166138,10.7029504776001,9.18795013427734,8.63895034790039,5.78943729400635,5.53574991226196,4.89073753356934,-1.45200002193451,-2.4190502166748,0.64695000648499,0.12746250629425,0.23952500522137,0.49156248569489,0.25891250371933,0.21711249649525,-0.11027500033379,3.8620502948761,3.9100501537323,4.20195007324219,8.25600051879883,8.18400001525879,7.57095050811768,1.56351244449615,0.94599997997284,0.75363749265671,-1.24995005130768,-1.0440000295639,-2.83500003814697,2.15393757820129,1.0066374540329,-3.55588746070862,0.44371250271797,-2.55474996566772,-7.37440013885498,0.6730500459671,-1.42095005512238,-51.435001373291,7.05405044555664,24.7960510253906,-1.18605005741119,5.80566263198853,6.02992486953735,9.06372451782227,-36.175952911377,-52.5120010375977,-21.8770503997803,-5.21771240234375,-7.17282485961914,-6.15491247177124,-3.32914996147156,-5.64300012588501,-5.36786270141602,-2.53695011138916,-1.42605006694794,-1.44195008277893,16.6069507598877,13.8760509490967,7.93305015563965,12.8452501296997,11.2439250946045,10.5624752044678,3.63495016098022,5.81205034255981,4.73400020599365,-1.68946254253387,-0.52428752183914,0.43876248598099,-9.57398700714111,-9.36993789672852,-8.36962509155273,1.78200006484985,2.3970000743866,2.71800017356873,10.0500001907349,9.89100074768066,8.89995002746582,6.94952487945557,3.71799993515015,2.71700000762939,-2.22495007514954,-2.82600021362305,-2.39505004882813,SWING_RIGHT
-0.76133751869202,-0.7067499756813,-0.57337498664856,0.55632501840591,0.52910000085831,0.50916248559952,2.15805006027222,2.25600004196167,2.12895011901855,10.7149505615234,9.83400058746338,9.32400035858154,2.29666256904602,2.20123744010925,2.19230008125305,-2.00205016136169,-0.89100003242493,-1.81095004081726,-0.44714999198914,-0.40727499127388,-0.2050125002861,0.16087499260902,-0.00082499999553,0.01292499992996,2.67900013923645,2.64600014686584,2.99595022201538,9.25500011444092,10.2600002288818,8.98605060577393,1.88828754425049,1.49228751659393,1.22759997844696,-2.13900017738342,-2.02095007896423,-1.62405002117157,0.44082498550415,0.36451250314713,-0.29576250910759,0.3271124958992,0.69368749856949,-0.92317497730255,3.4459502696991,3.61095023155212,-5.82405042648315,9.24000072479248,4.33905029296875,24.2260513305664,3.58641242980957,2.97440004348755,4.29605007171631,56.6740531921387,16.5139503479004,-11.8429508209229,-4.58314990997314,-4.45307493209839,-6.55132484436035,-5.33541250228882,-3.10419988632202,2.43869996070862,-12.5299501419067,-8.25195026397705,-4.67700004577637,16.4419498443604,3.20895004272461,11.7019510269165,8.63981246948242,14.8442249298096,16.7802257537842,-25.5330009460449,-21.9490509033203,-15.6880502700806,-6.21623754501343,-4.71721267700195,-3.03655004501343,-3.70356249809265,-4.20172500610352,-5.08873748779297,-0.86805003881454,-1.67700004577637,-2.30895018577576,6.9660005569458,11.9599504470825,13.6860008239746,8.17038726806641,10.2689123153687,10.0918121337891,6.79305028915405,4.31505012512207,1.68195009231567,SWING_RIGHT
-0.02076249942183,0.18878750503063,0.19194999337196,-0.46309998631477,-0.31748750805855,-0.34182500839233,3.16305017471313,3.28305006027222,3.39495015144348,8.99805068969727,9.7170000076294,8.78295040130615,1.46739995479584,1.04692494869232,0.9121749997139,-0.68805003166199,-0.43905001878738,-1.11600005626678,0.36382499337196,0.37798750400543,0.44247499108315,-0.0114124994725,0.07617499679327,0.11852499842644,3.95100021362305,4.09200000762939,4.26000022888184,9.01995086669922,8.16495037078857,7.13595056533813,0.17325000464916,-0.29012501239777,-0.60417497158051,-0.42705002427101,1.04205000400543,3.99405026435852,-0.10161250084639,-2.69706249237061,-3.53567504882813,-3.62395000457764,-6.21912479400635,-6.66668748855591,-1.3950001001358,-28.4280014038086,-40.3830032348633,20.4570007324219,6.01500034332275,6.94395017623901,9.42246246337891,14.7083749771118,16.5092124938965,-34.6150512695313,-29.6040019989014,-25.4590511322021,1.97986245155334,-0.05018749833107,-0.13846249878407,-9.62802505493164,-2.62473750114441,-1.2227874994278,-5.47200012207031,-2.58900022506714,-1.42995011806488,17.3689498901367,5.98395013809204,7.54305028915405,8.29028701782227,4.83821249008179,3.56908750534058,2.11500000953674,5.7810001373291,4.44000005722046,3.39735007286072,3.03476238250732,2.79771256446838,-8.72726249694824,-7.76160001754761,-6.19836235046387,1.10400009155273,1.68105006217957,1.65000009536743,9.74100017547607,8.7810001373291,8.01900005340576,4.60734987258911,5.06522512435913,4.80067491531372,-1.57605004310608,-3.76695013046265,-3.93000030517578,SWING_RIGHT
-0.16307500004768,-0.26537498831749,-0.3242250084877,0.77591252326965,0.6239749789238,0.39833748340607,2.47395014762878,2.89500021934509,3.06300020217896,10.0999507904053,9.03900051116943,9.14895057678223,1.80798745155334,1.84263753890991,1.80028748512268,-2.206050157547,-1.8229501247406,-1.6189501285553,0.01924999989569,0.13144999742508,0.20460000634193,-0.20143750309944,-0.19208750128746,-0.13667500019073,3.61605024337769,3.83100008964539,4.13295030593872,9.66600036621094,9.16800022125244,8.33295059204102,1.26596248149872,1.12255001068115,0.91726249456406,-2.78805017471313,-3.24495005607605,-2.99805021286011,-0.01842499896884,0.08841250091791,-0.01594999991357,1.08459997177124,1.26499998569489,-1.21907496452332,3.75705027580261,3.35205006599426,-2.51295018196106,3.58695006370544,3.40095019340515,30.0559520721436,-0.09583749622107,0.27774998545647,5.752037525177,38.4409523010254,19.2390003204346,-27.480001449585,-3.4210000038147,-7.03229999542236,2.73707509040833,-3.54378747940063,2.40033745765686,16.8543376922607,-6.76005029678345,-7.84695053100586,-4.05194997787476,-2.70405006408691,17.4570007324219,9.82905006408691,-11.5050373077393,-10.5297498703003,-9.26873779296875,-12.5490007400513,-8.47605037689209,-4.84905004501343,5.98565006256104,4.99991226196289,3.89193749427795,3.4288375377655,1.56887495517731,-1.51263749599457,0.02700000070035,-0.16395001113415,-0.34305000305176,10.9309501647949,10.488000869751,10.2150001525879,-3.03943753242493,0.22110000252724,0.59633749723434,0.42495003342628,-1.30995011329651,-1.37700009346008,SWING_RIGHT
-0.54656249284744,-0.58740001916885,-0.54188752174377,0.27665001153946,0.55426251888275,0.57158750295639,1.77900004386902,1.89900004863739,1.7980500459671,8.86395072937012,9.49200057983398,9.20895004272461,2.08381247520447,1.97931253910065,1.7575249671936,-3.07995009422302,-3.85995006561279,-3.08205008506775,-0.33797499537468,-0.34278750419617,-0.37207499146461,0.0796125009656,0.07136250287294,-0.14341250061989,1.7650500535965,1.38405001163483,1.42995011806488,9.95595073699951,11.4310503005981,10.2360000610352,1.55044996738434,1.69620001316071,1.99663746356964,-0.8359500169754,-0.82200002670288,-1.6189501285553,1.52776253223419,1.83658754825592,2.00983738899231,0.10230000317097,-0.51947498321533,-6.96726226806641,5.61495018005371,0.24705001711845,-27.1020011901855,10.7730007171631,21.8389511108398,-3.32595014572144,10.6222877502441,10.0504245758057,18.8329620361328,-7.51395034790039,-41.4649505615234,-31.7440509796143,3.83487486839294,3.19494986534119,4.14081239700317,-6.2493748664856,0.9147874712944,5.70542478561401,-4.66005039215088,-3.57105016708374,-1.32795011997223,15.2670011520386,8.72294998168945,6.52500009536743,8.2512378692627,3.9028000831604,2.6090624332428,-1.66005003452301,3.05400013923645,2.82405018806458,3.62711238861084,2.99227499961853,2.62171244621277,-6.88558769226074,-5.64836263656616,-3.91297507286072,1.0110000371933,1.54005002975464,1.81005012989044,8.1870002746582,9.48900032043457,9.70995044708252,4.29398727416992,3.79156255722046,3.45482492446899,-0.69705003499985,-1.32900011539459,-1.69305002689362,SWING_RIGHT
-0.31776249408722,-0.30469998717308,-0.14946250617504,0.31171250343323,0.26510000228882,0.14300000667572,1.27605009078979,1.60005009174347,2.46195006370544,9.41295051574707,9.38205051422119,9.54705047607422,1.1779625415802,1.16531252861023,1.20216250419617,-0.58500003814697,0.58995002508163,0.19005000591278,0.46805000305176,0.45003750920296,0.40645000338554,-0.89966249465942,-1.08996248245239,-1.26403748989105,2.89995002746582,2.74695014953613,2.61495018005371,9.29805088043213,10.2720003128052,9.70200061798096,1.03180003166199,0.96538752317429,0.83847498893738,1.11405003070831,-0.4200000166893,-2.04495000839233,0.41662499308586,1.29524993896484,1.47949993610382,-0.44852501153946,0.70303750038147,-0.00027499999851,3.78795027732849,1.99995005130768,-4.18395042419434,7.26300048828125,2.75895023345947,9.90105056762695,1.07442498207092,2.06428742408752,2.60205006599426,55.5319519042969,1.14105010032654,-29.9599514007568,-7.70481252670288,-0.09075000137091,5.49642515182495,1.89791250228882,13.0208377838135,15.2398128509521,-6.64305019378662,-3.69495010375977,-1.75395011901855,27.3940505981445,6.76500034332275,7.55700016021729,-6.96712493896484,-6.21582508087158,-5.85034990310669,-4.00605010986328,4.70295000076294,5.96295022964478,0.35282498598099,0.29727500677109,1.62167501449585,-5.6794376373291,-7.87943744659424,-5.9559497833252,0.09405000507832,0.73995006084442,1.23105001449585,7.11195039749146,8.23500061035156,10.1260509490967,2.00103759765625,2.25293755531311,2.28923749923706,-0.78405004739761,-1.34595000743866,-1.34895002841949,SWING_RIGHT
-0.41071251034737,-0.15496249496937,0.21491250395775,-0.8095999956131,-1.49105000495911,-1.92114996910095,1.31205010414124,1.62600004673004,1.87995004653931,10.7290506362915,10.7490005493164,10.4400005340576,2.69857501983643,2.45066237449646,1.93764996528625,3.71895027160645,1.76295006275177,1.54005002975464,0.89993751049042,1.04417502880096,1.41047501564026,-0.96098750829697,-0.27197501063347,0.52442497014999,3.40995025634766,4.1380500793457,5.03295040130615,8.75400066375732,8.6850004196167,8.59095001220703,-0.95246249437332,-1.6472499370575,-1.97395002841949,-1.20300006866455,-5.00700044631958,-5.80200004577637,2.20274996757507,2.03293752670288,2.29570007324219,2.23203754425049,1.52349996566772,-0.1370874941349,4.8270001411438,4.35105037689209,0.69495004415512,5.09295034408569,4.0969500541687,10.8370504379272,1.66966247558594,2.60232496261597,3.26301240921021,58.9290046691895,15.058051109314,-7.80795049667358,-6.39251232147217,-6.6434497833252,-5.69621229171753,-1.50658750534058,2.21595001220703,8.40441226959229,-25.9600505828857,-15.0160503387451,-5.19195032119751,24.7429504394531,10.6500005722046,3.52305006980896,-6.31853723526001,-8.14838790893555,-6.65252494812012,-21.6780014038086,-5.1889500617981,-0.02700000070035,7.35088729858398,0.21147499978542,-0.20405000448227,4.55386257171631,-6.8113374710083,-9.81543731689453,-1.99095010757446,-0.54195004701614,0.18195000290871,8.87400054931641,9.02205085754394,8.5890007019043,1.59829998016357,1.96693754196167,2.19738745689392,2.05995011329651,1.13295006752014,0.22605000436306,SWING_RIGHT
-0.78196251392365,-0.65587496757507,-0.51328748464584,0.32780000567436,-0.73521250486374,-1.50356245040894,-0.26895001530647,1.58100008964539,1.76700007915497,9.80505084991455,12.178050994873,12.3580503463745,1.99498748779297,3.35829997062683,3.2357873916626,-0.25005000829697,-0.20595000684261,-0.46695002913475,0.96992498636246,1.01722502708435,1.15293753147125,0.34759998321533,0.20088750123978,0.14079999923706,3.24705004692078,3.07695007324219,2.98605012893677,8.45505046844482,7.26495027542114,6.41295051574707,-0.77261251211166,-2.16988754272461,-2.47321248054504,-4.84200000762939,0.19995000958443,4.29105043411255,0.53652501106262,-0.90007501840591,-5.72866249084473,-1.5193749666214,-8.15705013275146,-9.95224952697754,5.29605007171631,-4.42305040359497,-26.7859516143799,5.72505044937134,17.484001159668,12.892050743103,-3.03737497329712,0.38816249370575,1.63405001163483,8.8840503692627,-40.5379524230957,-37.5120010375977,-3.74398756027222,2.37118744850159,3.72281241416931,9.4758129119873,9.69512462615967,8.81512451171875,-6.43905019760132,-2.40300011634827,-1.48095011711121,18.5950508117676,12.7810506820679,7.5450005531311,0.39160001277924,-0.18961249291897,-0.79502499103546,-0.33105000853539,2.31405019760132,3.93000030517578,2.61222505569458,2.41312503814697,2.20536255836487,-5.97588729858398,-6.24167490005493,-4.19017505645752,1.1539500951767,1.65000009536743,2.56695008277893,9.23805046081543,10.288950920105,10.0900506973267,0.97968751192093,1.86216247081757,2.08436250686646,0.13995000720024,-0.19005000591278,-0.78405004739761,SWING_RIGHT
-0.30401250720024,-0.2239875048399,-0.16541250050068,0.77398747205734,0.58822500705719,0.35007500648499,1.54695010185242,1.46100008487701,2.04495000839233,9.21900081634522,10.4449501037598,9.97800064086914,1.20587503910065,1.28287494182587,1.30927503108978,-2.75895023345947,-2.54100012779236,-2.71095013618469,0.17311249673367,0.22591249644756,0.26111251115799,0.26867499947548,0.47121250629425,0.86542499065399,2.89500021934509,3.20100021362305,2.83995008468628,9.3190507888794,9.60195064544678,9.36705017089844,1.08171248435974,0.8456249833107,0.7343875169754,-2.26095008850098,-3.91305017471313,-4.05600023269653,0.18328750133514,0.10986249893904,0.77714997529984,0.60568749904633,0.23333749175072,-4.36466264724731,2.17200016975403,3.27300024032593,2.3730001449585,8.16300010681152,6.31005048751831,7.66500043869019,-19.3407497406006,-8.84042453765869,-2.58348751068115,44.4750022888184,13.4089508056641,-27.6640510559082,-4.76079988479614,-3.75375008583069,-0.11701250076294,0.46846249699593,6.00531244277954,8.22799968719482,-8.06505012512207,-2.16105008125305,-1.46400010585785,-1.31805002689362,12.6640510559082,10.1760005950928,4.57792520523071,2.63450002670288,0.25519999861717,-8.05305004119873,2.79495024681091,6.09705018997192,2.62968754768372,2.47252488136292,2.40556240081787,-4.31612491607666,-7.06763744354248,-5.69882488250732,0.60795003175735,1.65495002269745,2.19600009918213,10.5709505081177,8.58705043792725,8.40900039672852,0.37427499890327,2.42343759536743,2.70998740196228,-1.33395004272461,-2.59095001220703,-2.16000008583069,SWING_RIGHT
-0.16486249864101,-0.13131250441074,-0.09528750181198,0.01636249944568,-0.25891250371933,-0.07947500050068,1.01295006275177,1.65705013275146,1.84905004501343,8.37105083465576,8.94300079345703,10.5090007781982,0.82486248016357,1.0867999792099,1.24258744716644,-5.54295015335083,-6.39300012588501,-7.52595043182373,0.24818749725819,0.28902500867844,0.32120001316071,2.4149124622345,2.39593744277954,2.14692497253418,2.9239501953125,2.90205025672913,2.87295007705688,8.17199993133545,7.80105018615723,8.07194995880127,0.60513746738434,0.64267498254776,0.64281249046326,-5.88300037384033,-6.57495021820068,-4.90200042724609,0.29191249608994,0.52731251716614,1.00925004482269,0.69244998693466,0.01443750038743,-3.71318745613098,2.14095020294189,3.05100011825562,1.08000004291534,4.83000040054321,2.17200016975403,9.32595062255859,26.255350112915,19.9566116333008,17.1857128143311,56.370002746582,15.8989505767822,-29.484001159668,6.68690013885498,0.46035000681877,1.38971245288849,4.82240009307861,5.6973123550415,8.16117477416992,-14.4940509796143,-4.27695035934448,-0.68805003166199,6.56295013427734,10.3890008926392,10.1209506988525,11.8339376449585,7.72007513046265,5.92033767700195,-12.3499507904053,-2.64105010032654,-0.24195000529289,3.32364988327026,3.43694996833801,3.02733755111694,0.57626247406006,-4.45609998703003,-5.32070016860962,-0.23295001685619,-0.15195000171661,0.12705001235008,10.4950504302979,9.71205043792725,9.84600067138672,-0.67127501964569,0.17778749763966,1.10605001449585,0.89895004034042,-0.94395005702972,-1.33395004272461,SWING_RIGHT
-0.25313749909401,-0.14671249687672,-0.07356250286102,0.65601247549057,0.43738749623299,0.3783999979496,1.66905009746552,1.92795014381409,2.24595022201538,10.8540000915527,9.99000072479248,10.8060007095337,1.6189249753952,1.91798746585846,1.97463750839233,-3.61800026893616,-3.02700018882751,-2.54595017433167,0.42061248421669,0.83833748102188,0.96786248683929,0.40837499499321,0.57076251506805,0.54559999704361,3.82395029067993,4.24095010757446,4.36500024795532,7.59795045852661,6.85995054244995,6.34305047988892,1.83246254920959,1.30721247196198,1.07414996623993,-2.95005011558533,-2.60805010795593,-3.23805022239685,1.25991249084473,1.27943754196167,1.78186249732971,0.34952500462532,0.50242501497269,0.97020000219345,4.7790002822876,5.85000038146973,5.83995008468628,4.64100027084351,1.91595005989075,1.91100013256073,3.6180374622345,-15.821849822998,-13.2708120346069,48.8970031738281,40.1989517211914,14.5870504379272,-8.69797515869141,-6.85547494888306,-4.9296498298645,-2.81049990653992,-0.1703625023365,6.1982250213623,-25.9530010223389,-17.5420513153076,-5.0460000038147,30.8220024108887,15.058051109314,14.3980503082275,2.70723748207092,2.81338739395142,1.83617496490479,-18.9490509033203,-12.070050239563,-1.84905004501343,3.68871259689331,3.50157499313354,2.72250008583069,2.26888751983643,-0.36519998311996,-7.63922500610352,-0.26700001955032,-0.08700000494719,1.28100001811981,8.80200004577637,8.05500030517578,7.85205030441284,-3.47902488708496,-1.88883745670319,0.06998749822378,1.31805002689362,0.28800001740456,-0.69300001859665,SWING_RIGHT
-0.22921249270439,-0.27678748965263,-0.19057500362396,-0.426662504673,-0.47437500953674,-0.29864999651909,1.28595006465912,1.58295011520386,2.07105016708374,11.1049509048462,9.94695091247559,9.76500034332275,1.58441245555878,1.83741247653961,1.8877375125885,-3.74505019187927,-3.4789502620697,-2.87595009803772,0.3812874853611,0.43793749809265,0.43161249160767,0.97817498445511,1.17218744754791,1.02135002613068,3.37095022201538,2.73705005645752,2.83305025100708,8.31105041503906,8.09805011749268,8.42400074005127,1.04582500457764,0.86748749017715,0.70647501945496,0.03900000080466,0.06105000153184,-0.65700000524521,0.44137498736382,0.7402999997139,1.43536245822906,-2.01313757896423,-2.07185006141663,-1.71654999256134,3.47700023651123,5.42100048065186,5.20995044708252,7.17405033111572,4.42500019073486,4.66695022583008,6.78837490081787,-14.9976749420166,-8.32576274871826,59.5590019226074,21.4420509338379,-1.5859500169754,-7.96716260910034,-6.89397478103638,-1.8825124502182,-0.50957500934601,3.04356241226196,9.53768730163574,-19.336950302124,-15.6499509811401,-3.64800024032593,6.44595050811768,4.66005039215088,13.3870506286621,1.41528749465942,1.27324998378754,0.63332498073578,-15.7549505233765,-9.21105003356934,-1.83195006847382,3.12290000915527,2.95968747138977,2.69101238250732,1.45420002937317,-1.92692494392395,-6.52382516860962,-0.34095001220703,-0.32895001769066,0.47400003671646,12.5419502258301,10.2000007629395,10.0330505371094,-2.63862490653992,-2.050950050354,-1.42614996433258,2.16795015335083,0.22605000436306,-0.4909500181675,SWING_RIGHT
-1.72342503070831,-1.71696245670319,-1.58042502403259,-0.97597497701645,-0.88866251707077,-0.44220000505447,1.71705007553101,0.65205001831055,0.38595002889633,7.34595012664795,8.75895023345947,10.6270503997803,0.25203749537468,0.62823748588562,1.76233744621277,-14.1799507141113,-6.43200016021729,-0.91995006799698,-2.84130001068115,-1.7274124622345,4.47686243057251,2.0286750793457,2.9279248714447,5.74461269378662,5.69895029067993,6.3600001335144,4.99200010299683,-2.02395009994507,-4.9830002784729,-5.81205034255981,3.17762494087219,-0.71747499704361,-4.32148742675781,-9.71895027160644,-9.99900054931641,-5.84505033493042,-3.94391250610352,-10.4161748886108,-15.9884996414185,2.79221248626709,3.90995001792908,1.15197503566742,3.21300005912781,-16.1550006866455,-51.9880523681641,10.5570001602173,34.3159523010254,10.7220001220703,-4.07852506637573,-5.85158729553223,-11.0049495697021,51.495002746582,63.1140022277832,19.9360504150391,-9.32332515716553,-8.65727519989014,-8.2022876739502,1.71723747253418,3.87846255302429,1.23488748073578,-5.19405031204224,-0.60900002717972,-0.24300001561642,-22.5310516357422,-10.85205078125,-2.9239501953125,-3.82456254959106,3.78523755073547,8.44896221160889,-10.6050004959106,-3.62595009803772,0.54405003786087,-3.36531257629395,-6.75688743591309,-3.01427507400513,-6.22421264648438,2.83181238174438,4.91067504882813,1.78905010223389,2.36595010757446,2.12400007247925,-7.85895013809204,-8.96700000762939,-11.97705078125,-3.59095001220703,-2.31756258010864,-1.91248750686646,-0.9250500202179,-2.96895003318787,-0.37200000882149,SWING_RIGHT
0.82788747549057,0.76284998655319,0.55013751983643,2.34217500686646,2.16851258277893,1.84140002727509,4.5949501991272,4.1380500793457,3.92700028419495,-7.00605010986328,-4.53795003890991,-3.30195021629334,-0.7068874835968,-1.46121251583099,-1.55429995059967,-7.68405055999756,-5.1670503616333,-4.96905040740967,-0.18012499809265,1.59073746204376,2.15476250648499,0.98601251840591,0.91643750667572,0.35048750042915,4.48995018005371,4.21395015716553,4.24095010757446,-6.89400053024292,-6.51600027084351,-6.39300012588501,5.26322507858276,6.79360008239746,7.23057508468628,-7.21695041656494,-7.49895048141479,-9.85305023193359,8.59031200408936,12.602837562561,9.9349250793457,-7.67167472839355,-9.4972620010376,-7.59357500076294,4.98495006561279,-27.2959518432617,-38.9710502624512,7.2460503578186,24.1900520324707,12.9559507369995,-4.92277479171753,-8.64352512359619,-8.50148773193359,33.6960029602051,28.7179508209229,6.55200052261353,-0.26276248693466,-3.57926249504089,-3.71263742446899,10.2728996276855,8.6319751739502,7.34511232376099,-9.22200012207031,-1.1340000629425,0.81000006198883,-17.742000579834,-11.5630502700806,-8.90505027770996,-0.79474997520447,2.58774995803833,5.87853765487671,-12.3960008621216,-9.54195022583008,-3.54705023765564,0.10573749989271,-11.190299987793,-0.79145002365112,-6.36308765411377,2.32457494735718,3.30357503890991,4.72395038604736,2.92605018615723,2.17200016975403,-6.463050365448,-9.41700077056885,-9.39300060272217,-2.3231999874115,0.09735000133514,0.09597499668598,-1.93800008296967,-2.2870500087738,-3.12495017051697,SWING_RIGHT
0.05472499877214,-0.15001249313354,-0.65821248292923,-0.26853749155998,-0.27761250734329,-0.37812501192093,-1.64595007896423,-0.72900003194809,0.6280500292778,10.6699504852295,9.46305084228516,7.05195045471191,2.01189994812012,7.90528726577759,9.46357536315918,-1.6189501285553,-3.26400017738342,-5.06700038909912,-2.38741254806519,-3.02279996871948,-3.58214998245239,2.20880007743835,2.51391243934631,1.47276246547699,0.12705001235008,-0.46800002455711,-0.94200003147125,9.5779504776001,10.3849506378174,10.0450506210327,-2.09123754501343,-8.55786228179932,-9.88308715820312,-4.52805042266846,-4.70805025100708,-6.21405029296875,4.32203769683838,1.62360000610352,-0.35818749666214,-0.39091250300407,1.52308750152588,-0.89375001192093,0.59895002841949,-10.6270503997803,-18.9589500427246,3.51300024986267,24.7620010375977,69.9310531616211,-1.21274995803833,2.02166247367859,-1.01433753967285,60.175952911377,16.0159511566162,-56.0719528198242,-8.47701263427734,-8.17382526397705,-7.96207475662232,3.22767496109009,4.23183727264404,-6.72031259536743,-11.6160001754761,-10.4790000915527,-7.93305015563965,-12.5610008239746,13.0540504455566,18.564001083374,12.3789873123169,8.34143733978271,7.69064998626709,-15.1110010147095,-3.21105003356934,3.20895004272461,-7.53307485580444,-6.89521265029907,-3.68541240692139,-12.3774747848511,-15.308424949646,-15.7961378097534,-4.0090503692627,-3.66000008583069,-2.6010000705719,11.203950881958,8.95500087738037,8.53905010223389,7.25477504730225,6.47569990158081,5.76152515411377,-0.74295002222061,-2.38005018234253,-1.46295011043549,SWING_RIGHT
0.15619999170303,0.18576249480247,0.20817500352859,-0.63112497329712,-0.55838751792908,-0.37331250309944,-0.43905001878738,-0.37695002555847,0.09105000644922,9.50400066375732,9.50595092773438,9.10395050048828,6.26340007781982,5.60326242446899,4.8449501991272,-0.30195000767708,-0.1540500074625,1.07100009918213,-0.02474999986589,-0.27857500314713,-0.44206249713898,-0.44659999012947,-0.93225002288818,-1.20229995250702,-1.78005003929138,-2.16105008125305,-2.19705009460449,8.78999996185303,9.16605091094971,9.60195064544678,3.06693744659424,2.81476259231567,2.83071255683899,0.72405004501343,-0.52305001020432,-1.24995005130768,-0.54353749752045,-0.24337500333786,-0.022824998945,-0.03726249933243,0.66302502155304,1.42862498760223,-0.31005001068115,0.27300000190735,-1.05195009708405,7.70595026016235,6.12000036239624,6.20205020904541,0.93211251497269,-1.39287495613098,-1.13877499103546,66.0160522460938,20.9269504547119,-9.1560001373291,-7.13240003585815,-7.636887550354,-3.49552488327026,0.30786249041557,1.730024933815,-0.03011249937117,-6.046950340271,-6.88005018234253,-3.06795024871826,3.91305017471313,-7.5120005607605,3.64005017280579,10.1270122528076,6.1487250328064,3.73821258544922,-5.62500047683716,-1.97295010089874,-2.86200022697449,2.50786256790161,3.9638500213623,7.71086263656616,-5.44843769073486,-5.38477516174316,0.35626250505447,-2.90505003929138,-2.70195007324219,-1.74195003509521,12.622950553894,11.9580001831055,10.5589504241943,-7.11864995956421,-4.95219993591309,3.14352488517761,-3.45795011520386,-3.76905012130737,-3.49905014038086,SWING_RIGHT
-0.42625001072884,-0.49431249499321,-0.63002496957779,-0.10917499661446,-0.21642500162125,-0.2403499931097,1.20195007324219,1.26000010967255,1.53000009059906,9.93900012969971,9.7140007019043,9.1399507522583,2.88818740844727,3.29670000076294,3.89193749427795,-2.22705006599426,-2.16000008583069,-1.6429500579834,-0.81743746995926,-0.69244998693466,-0.80052500963211,0.54766249656677,1.04445004463196,1.52597498893738,2.36295008659363,1.64805006980896,1.5900000333786,9.06300067901611,10.6819505691528,11.2710008621216,6.18516254425049,6.2262749671936,2.62446260452271,-1.92600011825562,0.54900002479553,4.02600002288818,1.3142249584198,0.03836249932647,-0.41373750567436,-3.0743625164032,-3.23798751831055,-3.14132499694824,-0.18105000257492,1.44600009918213,-0.1710000038147,7.98795032501221,7.05405044555664,7.91100025177002,-6.46194982528687,-4.07316255569458,0.51603752374649,58.3330535888672,42.6240005493164,7.12095022201538,-6.35470008850098,-6.24346256256104,-8.63733768463135,-5.1530876159668,-1.47083747386932,2.0761125087738,-39.1740036010742,-15.7939510345459,-7.43505048751831,29.3070011138916,-5.61795043945313,-3.11100006103516,11.5013246536255,9.50730037689209,6.02236223220825,-34.9000511169434,-1.0440000295639,3.82905006408691,-2.69623756408691,2.11928749084473,3.27195000648499,-9.0074872970581,-13.0616750717163,-11.3959999084473,-3.73395013809204,-0.93495005369186,-0.02700000070035,14.2729511260986,10.3780508041382,7.87305021286011,2.80472493171692,8.06052494049072,8.03783702850342,-3.88695025444031,-4.64805030822754,-5.52405023574829,SWING_RIGHT
-0.42088750004768,-0.46708750724792,-0.50971251726151,0.43353748321533,-0.05211250111461,-0.17228749394417,-0.79800003767014,-0.86505001783371,-1.01400005817413,9.05100059509277,8.1870002746582,7.97595024108887,0.44563749432564,0.43546250462532,0.34127500653267,-1.7700001001358,-1.22400009632111,-1.96605014801025,-0.36891248822212,-0.14245000481606,-0.26344999670982,-0.03973750025034,-0.79997497797012,-1.17507493495941,-0.94905006885529,-1.93305003643036,-2.72595024108887,9.20895004272461,10.8280506134033,9.20895004272461,0.38376250863075,0.55398750305176,1.16764998435974,-1.30305004119873,-3.77205014228821,-5.16300010681152,-0.87339997291565,-0.62631249427795,-1.79464995861053,1.09697496891022,1.75422501564026,-1.82544994354248,-3.29295015335083,-3.39405012130737,-29.4720020294189,8.06205081939697,10.4850006103516,49.9530029296875,-0.29150000214577,1.63707494735718,7.56002473831177,18.8700008392334,-13.7560510635376,-37.1100006103516,-2.28098750114441,-4.29426240921021,-0.84686249494553,-11.6012878417969,13.2659997940063,7.01291227340698,-10.653000831604,-4.01595020294189,-9.65700054168701,-37.476001739502,7.7509503364563,1.35300004482269,8.04237461090088,4.62302494049072,3.60346245765686,1.22895002365112,-1.86105012893677,-2.01900005340576,-1.5576000213623,-0.66866248846054,-0.79145002365112,-10.8783121109009,-7.68844985961914,-4.5992374420166,-2.05800008773804,-0.71205002069473,-1.42800009250641,11.5650005340576,9.29100036621094,8.43795013427734,5.06838750839233,3.87571239471436,3.20897507667542,-5.47605037689209,-3.81705021858215,-3.15900015830994,SWING_RIGHT
-0.29081249237061,-0.17641249299049,-0.14162500202656,-0.31955000758171,-0.30360001325607,-0.25616249442101,-0.41295000910759,-0.13500000536442,-0.04395000264049,9.3120002746582,8.80695056915283,9.27105045318604,0.15963749587536,0.23072500526905,0.22055000066757,-0.68295001983643,-1.25505006313324,-1.18605005741119,0.32174998521805,0.684475004673,1.019700050354,0.0536249987781,-0.00247499998659,0.00714999996126,1.39605009555817,2.3779501914978,0.2250000089407,9.34800052642822,9.66195011138916,10.7970008850098,-0.52318751811981,-0.69781249761581,-1.09243750572205,-1.34400010108948,-0.76005005836487,1.22700011730194,-1.59733748435974,-1.46946251392365,-1.04376244544983,-0.55715000629425,-0.79557502269745,-0.7011125087738,-1.66005003452301,-0.82500004768372,-13.8090009689331,8.77305030822754,7.70100021362305,20.1289501190186,0.64418751001358,1.55911254882813,10.7958126068115,51.3649520874023,13.8540010452271,-27.4440021514893,-0.09061250090599,1.82875001430511,1.23103749752045,-8.50520038604736,-22.20143699646,15.051025390625,-3.90105009078979,-5.53695011138916,-2.72295022010803,-18.0180015563965,-13.6390504837036,11.8860006332397,5.18361234664917,4.59469985961914,3.60030007362366,-14.2540502548218,-7.18800020217896,-3.39795017242432,-0.4446749985218,-1.07098746299744,-1.99636244773865,-0.3616249859333,-3.33561253547669,-7.52234983444214,-2.24700021743774,-2.57505011558533,-3.18300008773804,12.1950006484985,13.7560510635376,11.9580001831055,4.97406244277954,5.74571228027344,6.99984979629517,-0.6810000538826,-2.6100001335144,-2.35199999809265,SWING_RIGHT
-0.07562500238419,-0.07768750190735,-0.05472499877214,-0.1402499973774,-0.02791249938309,0.25547498464584,-0.4200000166893,-0.57300001382828,-0.29100000858307,10.0999507904053,10.8640508651733,11.296950340271,0.06215000152588,0.11247500032187,0.15399999916553,-3.23295021057129,-2.39205002784729,-2.13405013084412,0.02653750032187,0.07851249724627,0.18479999899864,0.58176249265671,0.55233746767044,0.40562498569489,0.27300000190735,0.7540500164032,0.71595001220703,10.3510503768921,9.75,9.32595062255859,-0.1552374958992,-3.84271240234375,-15.4070119857788,-3.29295015335083,-1.95195007324219,1.23900008201599,1.9071249961853,1.30968749523163,0.91382497549057,-1.10316252708435,-1.02863752841949,-1.62868750095367,1.56105005741119,1.66200006008148,-14.6250009536743,5.96700048446655,4.21005010604858,13.3440008163452,6.06443738937378,-5.59679985046387,-4.89060020446777,49.933952331543,20.5960502624512,-27.7290019989014,-10.7111120223999,-6.72732496261597,-2.58376240730286,-0.80767500400543,2.3868625164032,13.6379375457764,-30.1039505004883,-7.90005016326904,-5.45505046844482,25.267951965332,-0.46800002455711,15.1900510787964,3.75265002250671,4.89774990081787,5.82229995727539,-19.9759502410889,-13.488000869751,-0.54405003786087,-1.49283754825592,-2.26297497749329,-2.0121750831604,-1.68396246433258,-5.09148740768433,-11.5010499954224,-3.82995009422302,-4.15500020980835,-2.91300010681152,13.5450010299683,13.4449510574341,10.8589506149292,11.819637298584,13.4314126968384,12.6552248001099,1.14105010032654,0.30495002865791,-1.58805012702942,SWING_RIGHT
2.09879994392395,1.87632501125336,1.66017496585846,0.33453750610352,0.04399999976158,-0.06379999965429,-0.30795001983643,-0.39600002765656,-0.45405003428459,8.46000003814697,9.57495021820068,10.4470500946045,-2.02826237678528,-1.26059997081757,-0.4433000087738,-1.65000009536743,-1.43505001068115,-2.75205016136169,-0.05224999785423,-0.07507500052452,-0.7541875243187,-0.33288750052452,-0.2216500043869,-0.53047502040863,-1.54305005073547,-1.01400005817413,-0.54495000839233,10.8130502700806,9.9060001373291,9.57495021820068,7.15962505340576,9.16726207733154,10.897424697876,-2.77305006980896,-1.45905005931854,2.24700021743774,-1.01282501220703,0.44563749432564,0.99962496757507,-0.99921250343323,-2.53852510452271,-6.98527479171753,1.49205005168915,-8.07194995880127,-20.5800018310547,7.60005044937134,11.0119504928589,28.3009510040283,4.51261234283447,4.12843751907349,5.68108749389648,21.2020511627197,-22.9759502410889,-31.9020023345947,-6.20097494125366,-5.24328756332397,4.18371248245239,1.49572503566742,4.35091257095337,8.80426216125488,-6.45105028152466,-3.8970000743866,-2.03595018386841,10.267050743103,12.5490007400513,5.95005035400391,3.34248757362366,2.51432490348816,1.22265005111694,-0.6810000538826,-0.30000001192093,1.19805002212524,2.2016499042511,1.34186244010925,0.79612499475479,-4.20557498931885,-6.33613729476929,-6.44366264343262,-3.11100006103516,-3.19695019721985,-2.82195019721985,10.2430505752563,9.60900020599365,9.88695049285889,-0.60912501811981,-1.47235000133514,-1.14633750915527,-2.77800011634827,-2.94600009918213,-3.59700012207031,SWING_RIGHT
0.14327499270439,0.12375000119209,0.1047749966383,0.38774999976158,0.36547499895096,0.36382499337196,-0.63795000314713,-0.67905002832413,0.01695000007749,9.87495040893555,10.7410507202148,11.5390501022339,1.10893750190735,1.36207497119904,0.73713749647141,-7.66200017929077,-6.52500009536743,-2.48100018501282,10.6830625534058,10.4882249832153,7.80986261367798,-0.00137499999255,-0.43518748879433,-0.69011247158051,0.34500002861023,-0.26399999856949,0.38100001215935,6.87000036239624,7.63095045089722,8.47605037689209,-14.6322002410889,-14.9800748825073,-24.694450378418,-1.50705003738403,-3.20400023460388,-4.99995040893555,8.27309989929199,6.19052505493164,2.48971247673035,-1.09243750572205,-0.3797749876976,-1.35739994049072,-1.3950001001358,-3.11100006103516,-15.6690006256104,3.65700006484985,4.73699998855591,16.4490013122559,-9.75411224365234,-6.74368762969971,-5.60559988021851,73.5750045776367,46.3180503845215,10.9039506912231,-7.22480010986328,-6.77104997634888,-5.94274997711182,-4.15469980239868,-1.84181249141693,-0.80231249332428,-40.1800537109375,-14.202000617981,-6.08700037002563,9.48900032043457,29.8500022888184,10.4280004501343,1.43398749828339,5.48624992370605,6.55476236343384,-33.669002532959,-32.1409530639648,-26.2129516601563,1.94782495498657,3.04975008964539,2.12368750572205,8.25563716888428,7.00507497787476,5.93683767318726,-3.61395025253296,-4.43805027008057,-4.33004999160767,12.9270009994507,6.85995054244995,3.1039502620697,4.64873743057251,3.37796258926392,2.23341250419617,-2.70600008964539,0.79305005073547,3.63300013542175,SWING_RIGHT
-0.07837499678135,0.03217500075698,0.54326248168945,0.94297498464584,0.89787501096725,0.83324998617172,0.46200001239777,-0.03195000067353,-0.00405000010505,8.89995002746582,8.35004997253418,8.20095062255859,-2.29116249084473,-3.95230007171631,-3.78922486305237,-5.59800004959106,-7.38705015182495,-7.99005031585693,1.95882499217987,2.10182499885559,2.38727498054504,0.79708749055862,0.93830001354218,1.6299250125885,2.91900014877319,4.30005025863647,5.68695020675659,6.27405023574829,4.77495002746582,0.59205001592636,0.77577501535416,2.32787489891052,1.11402499675751,-4.36500024795532,-8.89800071716309,-9.4750509262085,3.59631252288818,1.41817498207092,-1.54866254329681,4.96732521057129,3.80627489089966,1.67750000953674,5.60295009613037,8.05200004577637,-6.39600038528442,-1.76295006275177,-0.03195000067353,13.10205078125,-2.41601252555847,-3.71717500686646,-4.52911233901978,-43.4230537414551,-14.5890007019043,-2.26605010032654,-5.93628740310669,-8.66332530975342,-9.08916282653809,-1.31642496585846,-1.57533752918243,-1.05682504177094,-28.0860004425049,-18.9109516143799,-16.9429512023926,-20.1580505371094,-25.0950012207031,-29.1580505371094,-10.4421625137329,-7.49485015869141,-5.92404985427856,3.94395017623901,6.21900033950806,1.76295006275177,-4.62976264953613,-5.77582502365112,-6.38302516937256,-0.94104999303818,-2.4479124546051,-3.67427492141724,1.33395004272461,1.07100009918213,1.15905010700226,-8.21805000305176,-11.578950881958,-11.0500507354736,-0.65862500667572,-2.48778748512268,-2.62185001373291,1.56000006198883,1.76805007457733,1.07805001735687,SWING_RIGHT
-1.10343754291534,-1.17438745498657,-1.21893751621246,-0.21106250584126,-0.22935000061989,-0.23017500340939,5.2219500541687,5.40900039672852,5.74695014953613,-6.28800010681152,-6.00600051879883,-5.67795038223267,0.01773750036955,0.1703625023365,0.46186250448227,-2.47095012664795,-2.29905009269714,-2.93595004081726,-1.42463743686676,-1.64628744125366,-1.83906245231628,0.29039999842644,0.40548750758171,-0.01319999992847,6.70695018768311,6.90105009078979,5.03805017471313,-4.05404996871948,-2.85000014305115,-5.57505035400391,-0.04276249930263,-0.34979999065399,-0.6767749786377,-3.54195022583008,-1.49700009822845,-2.85195016860962,0.36492499709129,0.33591249585152,-0.63978749513626,0.02584999985993,-1.55691254138947,-4.05776262283325,4.20705032348633,0.58005005121231,-11.731050491333,-1.2960000038147,7.23600053787232,24.1969509124756,-7.13487482070923,-7.25628757476807,-7.13184976577759,-66.6889495849609,-31.3440017700195,-26.1289520263672,-7.84561252593994,-21.7155132293701,-26.1109752655029,-4.01293754577637,-5.7858624458313,-11.1253995895386,-53.6119537353516,-38.5320014953613,-15.5179510116577,-13.1479501724243,-25.0930519104004,-26.6440505981445,-1.45873749256134,-4.34816265106201,-4.65987491607666,17.6680507659912,21.5470504760742,25.6240520477295,-5.92996263504028,-5.32097482681274,-5.09932518005371,-15.9361124038696,-10.6590003967285,-7.33658742904663,-6.6190505027771,-0.03495000302792,4.08704996109009,5.40705013275146,4.17900037765503,0.13695000112057,-3.61143755912781,-4.44551229476929,-7.01291227340698,-7.20300054550171,-9.42000007629394,-7.61400032043457,SWING_RIGHT
-1.11058747768402,-1.300612449646,-1.32357501983643,-0.46529999375343,-0.41373750567436,-0.2714250087738,5.85900020599365,5.44305038452148,5.30595016479492,-5.05695009231567,-6.03900051116943,-5.81205034255981,-2.10485005378723,-2.01657509803772,-1.91798746585846,-4.50705003738403,-4.2529501914978,-3.882000207901,-1.10783743858337,-0.49431249499321,0.04578749835491,0.37152498960495,0.95342499017715,1.40195000171661,5.19105005264282,5.1889500617981,4.74600028991699,-7.60695028305054,-7.68600034713745,-8.78805065155029,-1.47331249713898,-1.25619995594025,-1.128737449646,-2.80695009231567,-4.64805030822754,-3.58200025558472,-0.0369874984026,-0.77673751115799,-0.80616247653961,1.01488745212555,0.22426250576973,-2.50648736953735,8.11695003509521,6.99900054931641,0.90495002269745,-8.824049949646,-3.97305011749268,3.08505010604858,-3.6625874042511,-5.31354999542236,-6.54857492446899,-57.4750518798828,-18.8890514373779,6.67800045013428,-4.7506251335144,-7.30551242828369,-4.51550006866455,-3.73326253890991,-4.25576257705688,-3.50267505645752,-22.4119510650635,-23.0290508270264,-17.8840503692627,-6.08205032348633,-15.9540004730225,-9.50595092773438,-15.8901872634888,-14.6207876205444,-12.2857627868652,23.496000289917,13.9980010986328,8.0149507522583,-1.57038748264313,-0.85552501678467,-0.77604997158051,3.25352501869202,4.06202507019043,4.37676239013672,1.81995010375977,3.24195003509521,4.40595006942749,2.56500005722046,-2.53905010223389,-5.99100017547607,-10.1558876037598,-6.47817516326904,-2.53550004959106,2.69700002670288,5.09100008010864,2.99100017547607,SWING_RIGHT
-0.21394999325275,-0.1134374961257,0.13337500393391,-1.38820004463196,-1.23172497749329,-0.92234998941422,7.81305027008057,7.90905046463013,7.84200048446655,1.40595006942749,0.90795004367828,1.10400009155273,-0.08717499673367,0.09143749624491,0.31968748569489,-5.07195043563843,-4.30995035171509,-5.29395008087158,-0.25616249442101,-0.99123752117157,-2.2728750705719,0.86102497577667,1.7297500371933,3.01784992218018,7.17405033111572,6.4549503326416,6.52200031280518,0.99000006914139,1.50000011920929,-0.25200000405312,0.14753749966621,-1.58221244812012,-1.89997494220734,-6.26595020294189,-8.85900020599365,-10.1929502487183,-2.65897488594055,-2.96779990196228,-6.90964984893799,4.1116623878479,3.99781250953674,1.20175004005432,4.36500024795532,3.32400012016296,-8.06700038909912,1.12395000457764,4.60995006561279,29.191951751709,-2.88282489776611,-3.04411244392395,-3.05511260032654,-52.1530532836914,-24.3030014038086,-8.95800018310547,-9.53810024261475,-10.6471748352051,-12.6328125,-2.2566499710083,-3.13555002212524,-10.6187124252319,-21.6259517669678,-16.3780498504639,-16.4759998321533,-23.5459518432617,-31.4280014038086,-16.5930004119873,-9.53699970245361,-9.206862449646,-5.67146253585815,12.5250005722046,3.04605007171631,-3.57795023918152,-5.03662490844727,-5.87028741836548,-6.57126235961914,-3.34564995765686,-4.80205011367798,-8.05378723144531,3.4789502620697,2.34195017814636,1.28805005550385,-12.0319509506226,-12.1570501327515,-9.54900074005127,-7.36477518081665,-8.04361248016357,-7.26660013198853,-8.85000038146973,-6.85095024108887,-3.25395011901855,SWING_RIGHT
-1.16448748111725,-1.06177496910095,-0.86556249856949,-0.16623750329018,-0.02901249937713,0.32903748750687,3.73995018005371,3.7590000629425,3.682950258255,-6.64500045776367,-6.91500043869019,-7.09305047988892,-0.41909998655319,-0.35969999432564,-0.36066249012947,-5.44995021820068,-5.31300020217896,-5.35905027389526,-0.06943749636412,-0.01031249947846,-0.10106249898672,1.04871249198914,0.94338750839233,0.67044997215271,3.45300006866455,3.65595006942749,3.78795027732849,-7.39905023574829,-6.83400011062622,-6.34995031356812,-0.426662504673,-0.36712500452995,-0.16169999539852,-5.22000026702881,-5.29905033111572,-5.05005025863647,-0.62287497520447,-0.52236247062683,-1.18827497959137,-0.2238499969244,-0.06641250103712,-2.27686238288879,4.56599998474121,5.16000032424927,6.48900032043457,-6.80505037307739,-4.68900012969971,3.07695007324219,-1.84263753890991,-4.91397476196289,-5.72302484512329,-57.669002532959,-19.5090007781982,-10.8079509735107,-4.24765014648438,-5.94962501525879,-6.60302495956421,-3.64017486572266,-4.68765020370483,-6.69624996185303,-22.4640007019043,-22.4670009613037,-18.8470516204834,-6.89100027084351,-24.5970020294189,-28.9140014648438,-15.1618499755859,-13.8528499603271,-11.5453252792358,17.7330017089844,11.7259502410889,7.45395040512085,-3.7474250793457,-3.38841247558594,-8.12831211090088,-1.4693249464035,-1.06562495231628,-6.41451263427734,2.94300007820129,3.30000019073486,3.64695024490356,-4.014000415802,-8.87895011901855,-10.2840003967285,1.85817503929138,12.6449127197266,-13.6790494918823,-2.63205003738403,1.42095005512238,2.4190502166748,SWING_RIGHT
-1.07140004634857,-1.16159999370575,-1.3136750459671,-0.28874999284744,-0.30057498812675,-0.05609999969602,4.87695026397705,4.94895029067993,4.6360502243042,-6.77205038070679,-5.89995050430298,-7.7440505027771,-2.09563755989075,-1.80674993991852,-2.17346239089966,-1.77705013751984,-3.1470000743866,-1.21395003795624,-0.21546250581741,-0.14657500386238,-0.16940000653267,-0.2578125,-0.03918749839067,0.13612499833107,4.27905035018921,4.42995023727417,4.16895008087158,-7.48995018005371,-6.92700052261353,-6.5779504776001,-1.14097499847412,-1.12378752231598,-1.15898752212524,-2.58405017852783,-0.96795004606247,-2.19900012016296,-0.38403749465942,-0.61916249990463,-1.5911500453949,0.7097749710083,-0.17984999716282,-2.9085373878479,4.16895008087158,4.36500024795532,6.28095006942749,-6.24000024795532,-1.81095004081726,5.76900005340576,-5.45696258544922,-6.6434497833252,-6.95488739013672,-67.4880065917969,-47.1610527038574,-18.9709510803223,-0.82857501506805,-1.90602493286133,-2.79675006866455,-3.93731236457825,-3.77134990692139,-3.79005002975464,-42.904052734375,-40.4809532165527,-26.2950019836426,1.15005004405975,3.73800015449524,-5.24895048141479,-12.2375001907349,-16.7480506896973,-14.9976749420166,45.2790031433105,21.316951751709,14.1850509643555,-2.43168759346008,-2.57894992828369,-2.54388737678528,-2.0017249584198,-0.47574999928474,-0.19359999895096,-0.34605002403259,3.60405015945435,2.62005019187927,-0.23100000619888,-6.4150505065918,-11.9940004348755,-6.69047498703003,8.58041286468506,17.7652740478516,-4.93305015563965,-4.33695030212402,-0.51105004549026,SWING_RIGHT
-2.80362486839294,-2.09990000724792,-1.51442503929138,-1.22113752365112,-1.64037501811981,-1.23076248168945,5.713050365448,6.09105014801025,6.27600049972534,-5.23695039749146,-5.90295028686523,-5.65395021438599,-0.9842249751091,-1.07717502117157,-1.88113749027252,-5.38995027542114,-7.11195039749146,-7.59000015258789,-1.21605002880096,-1.73442494869232,-2.81448745727539,-0.44714999198914,-0.75556248426437,-1.31821250915527,5.14305019378662,5.89500045776367,5.86200046539307,-1.91400003433228,-1.21695005893707,-2.02095007896423,-2.31220006942749,-1.88828754425049,-1.49930000305176,-6.55605030059814,-6.33105039596558,-4.34595012664795,-0.6154500246048,0.04757500067353,0.29315000772476,1.2725625038147,2.14417505264282,1.99416244029999,6.45300006866455,7.98000049591064,3.14895009994507,-7.02600049972534,-7.97400045394897,-1.27395009994507,-5.73168754577637,-6.78672504425049,-6.53289985656738,-56.053050994873,-13.5550508499146,-8.35395050048828,-5.60408735275269,-9.0915002822876,-7.80711269378662,-3.2268500328064,-5.00939989089966,-4.9175500869751,-25.0309505462646,-19.4569511413574,-13.1479501724243,-40.9410018920898,-47.685001373291,-18.351001739502,-11.5044870376587,-9.66088771820068,-5.43001270294189,3.56400012969971,3.43905019760132,-3.61800026893616,-3.01372504234314,-9.99845027923584,-10.0207252502441,3.27964997291565,-2.8668749332428,-11.0378122329712,4.53000020980835,3.96300029754639,4.24500036239624,-5.89500045776367,-7.12095022201538,-7.08495044708252,12.9788999557495,7.18561267852783,2.91774988174438,-1.38000011444092,-0.02205000072718,-1.41105008125305,SWING_RIGHT
-0.18782499432564,-0.24461250007153,-0.31583750247955,1.07827496528625,1.00017499923706,1.00883746147156,4.23600006103516,3.82395029067993,3.8689501285553,-7.08495044708252,-6.76200008392334,-7.64100027084351,-3.06803750991821,-3.31966257095337,-4.15222501754761,-0.12495000660419,-0.28995001316071,-3.40500020980835,-0.55618751049042,-0.87725001573563,-1.45585000514984,0.15138749778271,0.20281249284744,0.16169999539852,5.21700048446655,5.50500011444092,5.0310001373291,-6.19695043563843,-6.1210503578186,-7.56705045700073,-3.23565006256104,-2.59820008277893,-1.09807503223419,-2.16705012321472,-1.26000010967255,1.56705009937286,-0.5321249961853,-0.32257500290871,-0.13392500579357,1.36771249771118,1.73992502689362,1.07346248626709,7.0489501953125,6.90495014190674,6.36195039749146,-10.8040504455566,-11.1289501190186,-3.42900013923645,-7.55466222763062,-8.19334983825684,-7.66108751296997,-54.175952911377,-21.7240505218506,0.98505002260208,-4.7603874206543,-5.41873741149902,-3.17872500419617,-4.34884977340698,-4.85677480697632,-1.64821243286133,-24.6169509887695,-18.0160503387451,-12.8269510269165,-24.1090507507324,-31.9519519805908,-12.7789506912231,-14.5011625289917,-12.3486003875732,-10.2151498794556,5.55795049667358,4.93800020217896,7.28205013275146,-2.52367496490479,-1.7939624786377,1.32288753986359,1.92073750495911,3.03489995002747,2.81792497634888,7.46805047988892,5.89305019378662,4.88895034790039,-0.40500003099442,-5.80395030975342,-9.28800010681152,-19.5280246734619,-18.1571502685547,-16.3339004516602,-1.70805013179779,3.07005023956299,5.47395038604736,SWING_RIGHT
-0.09776250272989,-0.06407500058413,0.02254999987781,1.283562541008,1.12117505073547,1.03345000743866,5.38500022888184,5.30595016479492,5.26095008850098,-6.56100034713745,-8.20394992828369,-8.54594993591309,-2.01959991455078,-1.64243745803833,-1.67419993877411,1.21200001239777,1.48800003528595,2.18400001525879,0.65780001878738,0.50957500934601,0.52043747901917,0.18975000083447,0.3605250120163,0.35530000925064,5.36295032501221,5.98605012893677,6.20100021362305,-8.53905010223389,-8.89995002746582,-7.95000028610229,-2.33543753623962,-5.15212488174438,-9.10579967498779,-15.8119506835938,-40.267951965332,-56.803050994873,-4.2300500869751,-3.32282495498657,-4.67981243133545,-4.86227512359619,-4.43038749694824,-3.74440002441406,-9.39900016784668,-26.5249519348145,-33.9570007324219,-6.27600049972534,3.88395023345947,-27.1210517883301,-13.194637298584,-18.6451377868652,-16.2890758514404,54.1020011901855,28.4899520874023,9.38205051422119,-1.66512501239777,-0.41497498750687,1.43494999408722,3.41453742980957,3.72294998168945,5.7832498550415,3.95805025100708,7.61205053329468,8.24595069885254,2.9239501953125,-1.30800008773804,-3.42195010185242,16.0098133087158,10.7706499099731,10.0841121673584,0.89400005340576,7.014000415802,8.43405055999756,-0.509850025177,1.01901245117188,0.89196246862411,13.178825378418,7.62533760070801,5.24163770675659,3.05805015563965,2.32500004768372,3.14895009994507,-8.97705078125,-10.5070505142212,-9.19005012512207,-4.40659999847412,-3.76117491722107,-4.30031251907349,2.53905010223389,0.9709500670433,3.82395029067993,SWING_RIGHT
-0.35791251063347,-0.39173749089241,-0.43518748879433,0.34196248650551,0.23154999315739,0.17201249301434,6.12000036239624,6.13905048370361,6.33300018310547,-7.9350004196167,-7.85595035552979,-6.23295021057129,-2.12533760070801,-1.84676253795624,-1.25922501087189,-1.40100002288818,-1.34100008010864,-1.2190500497818,-0.72118747234344,-0.56856250762939,-0.47189998626709,0.14698749780655,0.18053749203682,0.28764998912811,6.43395042419434,6.6060004234314,6.55605030059814,-7.08795022964478,-6.93000030517578,-7.32495021820068,0.13626250624657,0.44357499480247,0.91850000619888,0.9709500670433,1.13100004196167,2.3689501285553,0.46213749051094,0.43353748321533,0.37125000357628,1.08638751506805,1.43591248989105,1.70871245861053,5.01600027084351,4.62600040435791,4.11105012893677,-6.71400022506714,-6.34305047988892,2.71605014801025,-12.1043996810913,-12.8698625564575,-10.8178119659424,-77.9610061645508,-43.3080024719238,-3.02505016326904,-7.17749977111816,-8.28987503051758,-5.42286252975464,-4.3561372756958,-5.21826267242432,-0.11783749610186,-18.6480007171631,-18.0280513763428,-11.4889507293701,-40.7539520263672,-39.1519508361816,-3.86505007743835,-13.3065624237061,-11.4584245681763,-7.98173761367798,4.15694999694824,1.55205011367798,-0.81705003976822,-3.0327000617981,-5.77334976196289,-16.2525005340576,4.25479984283447,2.0373375415802,-8.47577476501465,6.58905029296875,6.4960503578186,6.66405010223389,-8.66295051574707,-9.08505058288574,-8.27295017242432,8.14522457122803,4.78073740005493,8.12006282806396,-1.0969500541687,1.54305005073547,3.05595016479492,SWING_RIGHT
-2.02069997787476,-0.99096250534058,-0.89498752355576,2.24908757209778,2.48256254196167,2.50318741798401,5.23200035095215,5.23905038833618,4.63995027542114,0.06105000153184,2.45700001716614,2.96205019950867,-0.98477500677109,-1.20298755168915,-0.69973748922348,-8.4330005645752,-9.22095012664795,-8.6850004196167,-3.38676238059998,-2.62680006027222,-1.77072501182556,0.73273748159409,0.28792500495911,0.34787499904633,4.42500019073486,4.57095003128052,5.671950340271,4.28595018386841,3.44100022315979,2.62695002555847,0.30071249604225,1.3613874912262,-2.47967505455017,-3.93705010414124,-22.2360019683838,-57.6499519348145,-5.7782998085022,-7.92219972610474,-8.94162464141846,1.97381246089935,0.19415000081062,-1.27847504615784,-49.5529518127441,-55.1320533752441,-25.4839515686035,15.901050567627,-5.56500005722046,-50.5080032348633,-8.88277530670166,-11.6494121551514,-9.07403755187988,66.1930541992188,5.11695003509521,9.82005023956299,-7.45717477798462,-6.49041223526001,-9.58897495269775,6.3295373916626,7.27457475662232,4.15194988250732,3.16605019569397,3.21795010566711,3.21795010566711,-3.42495012283325,-7.67700052261353,-11.8279504776001,0.66990000009537,0.99453747272491,0.76862502098083,-6.39795017242432,-1.72905004024506,-0.56100004911423,-4.94422483444214,-4.89912509918213,-5.05491256713867,-5.7056999206543,-4.71047496795654,-3.53553748130798,5.74695014953613,5.45700025558472,5.13600015640259,-3.22095012664795,-4.9980001449585,-6.81705045700073,0.65174996852875,-0.77756249904633,-1.43165004253387,-3.04605007171631,1.68600010871887,1.94295012950897,SWING_RIGHT
-0.76394999027252,-0.89787501096725,-0.99659997224808,2.12918758392334,1.92348754405975,1.64697504043579,6.05295038223267,5.96895027160645,5.85705041885376,-7.09695053100586,-7.42095041275024,-6.97305011749268,-4.27955007553101,-3.75265002250671,-3.43323755264282,-2.74200010299683,-3.82905006408691,-3.61095023155212,-1.04211246967316,-0.85909998416901,-0.83682501316071,1.07676243782043,1.15747499465942,1.51236248016357,5.7610502243042,5.8759503364563,5.08095026016235,-8.02395057678223,-5.43300008773804,-6.6739501953125,-1.61246252059937,-1.09889996051788,-1.67653751373291,-1.8510000705719,-5.90700006484985,-38.4739532470703,-0.86460000276566,0.00178749999031,0.03891250118613,-6.04463768005371,-5.96612501144409,-5.2893500328064,-27.1860008239746,-27.3610515594482,-34.9980010986328,8.3569507598877,6.24300050735474,0.43395000696182,-10.3613128662109,-15.7981996536255,-14.4663753509521,43.7899513244629,23.0340003967285,15.2430009841919,-5.61549997329712,-5.23806238174438,-4.55248737335205,1.35506248474121,2.25142502784729,2.89121246337891,-0.40605002641678,3.98700022697449,4.01805019378662,-1.20300006866455,-3.56595015525818,-6.68805027008057,-4.98465013504028,-3.2511875629425,-0.52291250228882,-4.46595001220703,-4.01100015640259,-1.43205010890961,-4.04566240310669,-3.50748753547669,-3.01496243476868,-4.79861259460449,-3.53567504882813,0.5490375161171,5.28000020980835,4.74105024337769,4.98795032501221,-8.35395050048828,-8.5290002822876,-6.43395042419434,-6.4574122428894,-6.31991243362427,-5.49023723602295,-0.90300005674362,-1.2190500497818,0.15900000929832,SWING_RIGHT
-0.08497499674559,-1.8269624710083,-2.6197874546051,-0.08112499862909,-0.41359999775887,-0.27555000782013,5.81595039367676,6.37905025482178,6.64695024490356,-5.70600032806396,-4.34595012664795,-4.75305032730103,-4.58906269073486,-3.68623757362366,-1.17260003089905,-2.83500003814697,-1.71195006370544,-1.03694999217987,-0.78457498550415,-0.22756250202656,0.04056249931455,0.36217498779297,0.40369999408722,0.5378999710083,5.8759503364563,6.19395017623901,6.42705011367798,-7.20300054550171,-6.30195045471191,-5.69895029067993,-0.07301250100136,-0.49417498707771,-1.18057501316071,-2.47605013847351,-4.20300006866455,-1.66905009746552,0.06270000338554,-0.03355000168085,-0.24213749170303,0.49953749775887,0.7206375002861,0.80973750352859,5.92605018615723,5.65605020523071,5.81400012969971,-5.84505033493042,-5.76600027084351,-2.90505003929138,-4.00001239776611,-7.57473754882813,-8.40853786468506,-74.3239517211914,-53.403003692627,7.0620002746582,-2.88763737678528,-5.05051231384277,-10.7189502716064,-5.41557502746582,-5.97464990615845,-7.27869987487793,-20.9580001831055,-35.9539527893066,-28.195951461792,17.8210506439209,-24.6570014953613,-62.9509544372559,-16.6366748809814,-14.2564125061035,-10.7133121490479,32.2950019836426,15.5089511871338,0.80505001544952,-6.95131254196167,-5.00005006790161,-8.10837459564209,4.14452505111694,2.66254997253418,-9.45174980163574,4.92495012283325,5.64405012130737,5.89005041122437,2.4190502166748,-1.82805013656616,-1.49505007266998,6.73255014419556,6.52327489852905,4.64612483978271,-7.60500049591064,-5.713050365448,-1.34595000743866,SWING_RIGHT
-0.60857498645782,-0.82926249504089,-1.04059994220734,0.88852500915527,0.690249979496,0.61888748407364,6.17295026779175,6.44295024871826,6.14895009994507,-5.6850004196167,-5.26605033874512,-6.41295051574707,-2.04407501220703,-2.01588749885559,-1.98632502555847,-3.40305018424988,-3.36495018005371,-3.20205020904541,-0.80011248588562,-0.69423747062683,-0.45911249518394,0.39242500066757,0.47299998998642,1.32825005054474,6.4980001449585,6.84600019454956,5.98605012893677,-6.06495046615601,-5.91495037078857,-8.56500053405762,-0.52854996919632,-2.79881238937378,-7.97266244888306,-19.9140014648438,-51.6910514831543,-35.7090034484863,-2.04998755455017,-3.24967503547669,-4.54038763046265,-4.199387550354,-3.87213754653931,-2.72414994239807,-26.0460014343262,-32.9269523620605,-20.7120018005371,-0.46800002455711,-25.806001663208,-37.9860000610351,-15.4675121307373,-19.421875,-14.3490877151489,52.1389541625977,28.9020004272461,5.30895042419434,-4.15607500076294,-4.07893753051758,-8.04058742523193,4.45582485198975,4.48717498779297,1.65646255016327,5.20995044708252,6.47895050048828,4.91295003890991,-0.72405004501343,-1.59300005435944,-7.00605010986328,1.94301247596741,0.36148750782013,-0.98821246623993,-1.26000010967255,-1.40595006942749,-0.01500000059605,-3.09773755073547,-1.89722502231598,-0.61036247014999,-1.43976247310638,1.92582499980927,3.23344993591309,4.6360502243042,4.6279501914978,4.26495027542114,-8.59095001220703,-8.95800018310547,-9.74295043945312,-6.01259994506836,-6.16976261138916,-5.7386999130249,-0.36000001430511,1.22400009632111,1.15995001792908,SWING_RIGHT
-0.96249997615814,-1.11814999580383,-1.04651248455048,0.78471249341965,0.78333747386932,0.85084998607635,5.21295022964478,5.33205032348633,5.09100008010864,-7.03005027770996,-7.23105049133301,-7.92300033569336,-2.30999994277954,-1.17466247081757,-0.94888746738434,-0.07995000481606,-0.96105003356934,-0.53700000047684,0.12746250629425,0.1017500013113,-0.17971250414848,1.26170003414154,1.21494996547699,1.81211245059967,4.86795043945313,5.00700044631958,5.48295021057129,-6.70005035400391,-6.34995031356812,-8.56995010375977,1.0867999792099,-5.76317501068115,-8.50712490081787,-6.11805009841919,-77.9680557250977,-62.8000526428223,0.19525000452995,-0.48441249132156,-1.20573747158051,-7.82856225967407,-7.14463758468628,-6.41423749923706,-22.5360012054443,-37.5790519714355,-39.6169509887695,6.06795024871826,0.63795000314713,-7.18095016479492,-13.8311252593994,-16.2789001464844,-13.5418252944946,78.808952331543,9.67605018615723,6.51600027084351,-2.74161243438721,-1.9265124797821,-2.68936252593994,0.9451749920845,1.70403754711151,1.10893750190735,4.10895013809204,3.13695025444031,1.45095002651215,1.1620500087738,-8.41200065612793,-13.88805103302,4.41760015487671,5.61893749237061,5.47538757324219,-4.15005016326904,-2.40405011177063,-1.30305004119873,-3.89785003662109,4.64653730392456,4.40082502365112,-4.72202491760254,-6.45672512054443,-5.10001230239868,4.76700019836426,4.44600009918213,4.58295011520386,-9.09899997711182,-11.706000328064,-10.1089506149292,14.1659374237061,11.3891248703003,6.99599981307983,-0.31695002317429,-1.10205006599426,-1.38705003261566,SWING_RIGHT
