gyro_x_0,gyro_y_0,gyro_z_0,acc_x_0,acc_y_0,acc_z_0,gyro_x_1,gyro_y_1,gyro_z_1,acc_x_1,acc_y_1,acc_z_1,gyro_x_2,gyro_y_2,gyro_z_2,acc_x_2,acc_y_2,acc_z_2,gyro_x_3,gyro_y_3,gyro_z_3,acc_x_3,acc_y_3,acc_z_3,gyro_x_4,gyro_y_4,gyro_z_4,acc_x_4,acc_y_4,acc_z_4,gyro_x_5,gyro_y_5,gyro_z_5,acc_x_5,acc_y_5,acc_z_5,gyro_x_6,gyro_y_6,gyro_z_6,acc_x_6,acc_y_6,acc_z_6,gyro_x_7,gyro_y_7,gyro_z_7,acc_x_7,acc_y_7,acc_z_7,gyro_x_8,gyro_y_8,gyro_z_8,acc_x_8,acc_y_8,acc_z_8,gyro_x_9,gyro_y_9,gyro_z_9,acc_x_9,acc_y_9,acc_z_9,gyro_x_10,gyro_y_10,gyro_z_10,acc_x_10,acc_y_10,acc_z_10,gyro_x_11,gyro_y_11,gyro_z_11,acc_x_11,acc_y_11,acc_z_11,gyro_x_12,gyro_y_12,gyro_z_12,acc_x_12,acc_y_12,acc_z_12,gyro_x_13,gyro_y_13,gyro_z_13,acc_x_13,acc_y_13,acc_z_13,gyro_x_14,gyro_y_14,gyro_z_14,acc_x_14,acc_y_14,acc_z_14,motion_type
1.03579843044281,1.19279074668884,1.29541611671448,-0.18674772977829,1.13245737552643,2.05661916732788,-0.19425514340401,-0.16432274878025,-0.04337143152952,-0.86238902807236,-1.09940469264984,-1.39384174346924,0.15562310814857,0.04309562966228,-0.8164227604866,10.4078941345215,10.5084505081177,10.9848966598511,0.37606391310692,-0.43211081624031,-1.71859300136566,10.3959226608276,15.9387989044189,21.4646167755127,1.09528136253357,-0.12522737681866,-1.12154853343964,-1.78479552268982,-1.42805027961731,0.51572299003601,-1.84353530406952,-3.06697249412537,-9.90511131286621,6.39042377471924,9.12699604034424,12.1245365142822,-15.5265913009644,-18.428201675415,-19.8991641998291,32.6554145812988,29.5477409362793,16.5110130310059,-0.24984388053417,1.00242984294891,2.31212496757507,-0.59238654375076,-2.67055010795593,1.27747189998627,-55.4323539733887,-35.9573173522949,-26.392183303833,5.00657510757446,28.5661182403564,15.9076747894287,-3.00018835067749,-1.28548955917358,-0.01427897531539,-23.4206790924072,-17.8014888763428,-14.2122802734375,1.5357152223587,1.57175624370575,0.84177231788635,0.55848354101181,0.11071932315826,0.3208569586277,-4.6830587387085,-1.38624274730682,1.68072962760925,6.17255115509033,3.8379054069519,2.99035787582397,2.11153197288513,2.03639554977417,1.75784111022949,-4.95629692077637,-3.40694904327393,-2.59770894050598,-0.74769908189774,-0.64385199546814,-0.66828656196594,-0.02916881628335,-0.1568396538496,-0.15500704944134,3.2776620388031,3.05978965759277,2.85867691040039,7.89877080917358,7.89398241043091,7.79821443557739,SWING_RIGHT
-0.11751519888639,-0.12789991497993,-0.08513934165239,2.58813214302063,2.19069457054138,1.94169759750366,-0.07574728876352,-0.04459316283464,0.09407325088978,1.220050573349,1.04473233222961,0.86758136749268,0.94810384511948,1.24019646644592,1.54665434360504,9.66808605194092,10.2019929885864,10.0463695526123,-0.49197560548782,-1.11689078807831,-2.13581395149231,6.95066690444946,9.83568000793457,14.14524269104,0.75075340270996,0.69394290447235,0.13805554807186,-1.45370662212372,-2.34862422943115,-1.74875450134277,-0.16519992053509,-1.01992988586426,-3.37821865081787,11.8899049758911,13.4413480758667,16.7863464355469,-11.9780750274658,-15.3549375534058,-17.4874687194824,31.6306972503662,30.6179485321045,23.9186744689941,2.17712378501892,1.43858766555786,2.20827794075012,1.81686592102051,-2.81593608856201,-4.2594108581543,-43.4104690551758,-37.4297523498535,-25.9013710021973,-5.05445909500122,6.57238292694092,26.8638401031494,-7.27746677398682,-4.99466323852539,-2.68742537498474,-20.7750873565674,-19.2523746490479,-15.3019418716431,1.48073732852936,1.67254900932312,1.31519281864166,-0.69989883899689,-0.63209283351898,-0.61743205785751,-6.61308431625366,-3.24893164634705,-0.15562310814857,10.4916915893555,6.91235971450806,5.38246488571167,0.54710620641708,0.84765189886093,0.96371626853943,-7.14220285415649,-5.54048204421997,-4.03422975540161,-0.60414570569992,-0.48197266459465,-0.19853121042252,-0.35537084937096,-0.41584652662277,-0.46777006983757,2.66714072227478,2.75093770027161,2.41096115112305,8.64097309112549,9.44063663482666,9.29937839508057,SWING_RIGHT
3.49758529663086,3.10724234580994,2.75660586357117,4.75249052047729,4.78600931167603,4.65911674499512,-0.12522737681866,-0.27427849173546,-0.25595253705978,-0.54962599277496,-0.30833423137665,0.06612616032362,0.56024318933487,0.52193599939346,1.16358196735382,9.41669464111328,9.72075843811035,10.7191400527954,1.17141044139862,0.24717134237289,-0.75892370939255,9.51006889343262,10.9633483886719,14.0111675262451,0.13316862285137,0.40317106246948,0.09285151958466,-1.70721566677094,-1.79151499271393,-0.55329120159149,-2.21224236488342,-1.36230075359344,-1.11090958118439,12.4764842987061,13.2905130386353,15.6706485748291,-8.95795726776123,-11.7960367202759,-14.1619176864624,27.7568778991699,27.0577716827393,24.8215866088867,1.57725405693054,1.65483391284943,2.04884195327759,3.80462145805359,2.24508237838745,-1.10978949069977,-31.4080352783203,-34.597412109375,-32.1837577819824,1.87465989589691,-0.66798228025436,8.36803436279297,-12.0031204223633,-9.05264091491699,-5.55727005004883,-13.2809362411499,-20.2172374725342,-23.1261920928955,1.13437676429749,1.01037108898163,0.85948741436005,-0.24663683772087,-0.38591411709785,-0.45494189858437,-11.911452293396,-7.48696804046631,-3.74692559242249,9.11981391906738,8.17410373687744,6.3688759803772,1.42369782924652,1.55442297458649,1.63688981533051,-7.6378026008606,-6.3880295753479,-5.19571685791016,-0.65606927871704,-0.81794857978821,-0.92607170343399,-0.3578143119812,-0.11407908797264,-0.15134187042713,1.22822546958923,1.06781399250031,0.93852704763412,7.89158821105957,7.79582023620605,8.023268699646,SWING_RIGHT
2.12985801696777,1.93804633617401,1.51593852043152,5.37049388885498,6.74237108230591,8.16452693939209,0.43554693460464,0.37384954094887,0.42943826317787,0.39049559831619,1.05328440666199,1.09543406963348,2.0135235786438,2.14999318122864,1.22822546958923,10.941801071167,10.4677486419678,9.59386539459228,-2.23171973228455,-3.1412980556488,-4.45404767990112,14.0638399124146,16.5708694458008,20.8924026489258,0.5283984541893,0.44837507605553,0.44470989704132,-0.26007586717606,0.3727805018425,1.74234044551849,-0.97444009780884,-5.03051710128784,-12.9313821792603,12.8451910018921,13.7549877166748,10.8220911026001,-15.0055227279663,-16.8008556365967,-16.0604877471924,25.841516494751,16.1016044616699,-0.94570964574814,0.70738196372986,0.84360492229462,0.92607170343399,-2.06151747703552,1.18400955200195,0.90484416484833,-29.3011379241943,-21.6250286102295,-14.1955213546753,19.1566066741943,11.3416328430176,7.08234786987305,-0.69050681591034,0.40599632263184,1.33878755569458,-14.8183126449585,-11.585841178894,-8.09030723571777,0.25900685787201,-0.13561208546162,-0.41844269633293,-0.57772582769394,-0.45433104038239,-0.43478333950043,0.06464344263077,2.30801033973694,2.90895509719849,5.7822961807251,6.07199478149414,7.03446388244629,0.8006152510643,0.3766747713089,0.27343854308128,-1.92733240127563,-2.88022470474243,-4.00071096420288,-0.58826321363449,-0.53756141662598,-0.5100724697113,-0.31932979822159,-0.39019018411636,-0.36819902062416,1.19710087776184,1.06063139438629,1.24737906455994,8.94503688812256,9.35923385620117,9.76624774932861,SWING_RIGHT
2.62404799461365,2.46949911117554,2.31189584732056,3.30399823188782,4.02225875854492,4.62080907821655,-0.07941248267889,-0.10995574295521,-0.07330382615328,-0.83306747674942,-0.56917369365692,-0.39690968394279,0.07182604819536,0.00239420169964,0.21308395266533,10.4222593307495,10.5611228942871,10.7885723114014,1.24960124492645,0.69737905263901,-0.24701863527298,7.90355920791626,10.5587291717529,13.6448545455933,0.09468411654234,0.22174409031868,0.26755899190903,-0.56123244762421,-0.35537084937096,0.51755559444427,-0.28490999341011,-0.38067805767059,-0.65840548276901,12.1269311904907,13.7645645141602,14.3487501144409,-8.77530860900879,-12.1332349777222,-15.3011817932129,31.0105991363525,32.3417739868164,27.2947978973389,2.03112697601318,1.73668992519379,1.59741258621216,3.92007493972778,-0.16905695199966,-2.86419439315796,-36.6612129211426,-37.408203125,-31.5708408355713,-2.22181916236877,-0.13407529890537,12.9050464630127,-7.8773365020752,-4.30194234848022,-1.68804979324341,-22.2187900543213,-21.9697933197021,-16.8007125854492,-0.2138028293848,0.10751228034496,0.11545353382826,0.84070330858231,0.29336804151535,-0.0218384321779,-8.77744293212891,-5.03530550003052,-1.65199911594391,7.30022048950195,6.18212795257568,5.25317764282227,1.03274405002594,1.17202138900757,1.20500802993774,-6.49816274642944,-5.41837787628174,-4.19703578948975,-1.26815629005432,-1.06107294559479,-0.57787853479385,0.03741549700499,0.05451972410083,-0.21853704750538,1.69748902320862,1.72861361503601,0.91458505392075,9.04559326171875,9.74470043182373,9.29458999633789,SWING_RIGHT
2.30823063850403,1.97042214870453,1.63078117370605,3.30160403251648,3.5506010055542,3.82354021072388,-0.17226399481297,0.03909537568688,0.26694810390472,-0.28512135148048,-0.5789475440979,-0.69012498855591,-0.85473001003265,-1.06781399250031,-0.61530983448029,10.7454767227173,11.2458648681641,11.3895168304443,0.15676330029964,-0.61720299720764,-1.46019697189331,9.38796424865723,11.1405200958252,12.9337768554688,1.37444674968719,1.36406207084656,1.24433255195618,1.33183896541595,1.01724338531494,0.55726182460785,1.07499659061432,0.88106620311737,-3.02148246765137,10.9633483886719,10.1852331161499,10.8244848251343,-12.7343263626099,-15.1753435134888,-15.9987897872925,26.3466930389404,20.6362228393555,7.38880586624146,1.57481062412262,2.27974915504456,2.10809588432312,-1.59603822231293,-3.67542338371277,-1.12445020675659,-33.0887641906738,-22.8269176483154,-17.2508220672607,10.0152454376221,18.0983695983887,13.0941886901855,-3.77720880508423,-2.07961440086365,-1.10100829601288,-14.9906949996948,-10.7885723114014,-8.33212089538574,-0.17287486791611,-0.1777617931366,-0.31887164711952,-0.26923885941505,-0.51908272504807,-0.40851613879204,-4.44842672348022,-2.18830037117004,-0.17956513166428,8.03524017333984,8.0831241607666,8.36803436279297,0.52206069231033,0.50006955862045,0.5373323559761,-3.94325017929077,-3.9384617805481,-3.83072280883789,-0.59253931045532,-0.69944071769714,-0.75136423110962,-0.11835514008999,0.07590000331402,0.17119498550892,0.36152446269989,0.45968672633171,0.50996494293213,9.54358768463135,9.71836376190186,9.78061294555664,SWING_RIGHT
2.71934294700623,2.44201016426086,2.05533242225647,4.17309379577637,4.68784713745117,4.65432786941528,-0.20219638943672,-0.18570303916931,-0.2229658216238,0.12599095702171,-0.32421672344208,-0.76098537445068,-0.90979665517807,-1.62087452411652,-1.60172092914581,9.31374359130859,8.99770927429199,10.0128507614136,0.87697339057922,-0.06986771523952,-1.28182435035706,10.312126159668,12.8475856781006,14.9547824859619,0.60842180252075,0.59437185525894,0.43737950921059,0.57925295829773,0.86391615867615,0.90240067243576,1.14921677112579,1.04626619815826,0.06943184882402,11.5020446777344,10.8244848251343,10.8963108062744,-10.0666770935059,-13.5950355529785,-15.8613452911377,29.7919502258301,28.0082683563232,22.6305923461914,1.89001703262329,1.31519281864166,1.1722503900528,3.542560338974,-1.41766548156738,-3.40419936180115,-38.0594291687012,-34.5279808044434,-24.8191928863525,-1.29765737056732,1.44130945205688,13.1803798675537,-3.80347609519959,-1.31053507328033,-0.38140898942947,-23.9881057739258,-15.5078430175781,-11.0782709121704,0.15271630883217,0.04153883829713,-0.12400564551353,-0.4103487432003,-0.4402811229229,-0.39629882574081,-5.64822101593018,-2.827552318573,0.59855043888092,8.11185455322266,7.64498519897461,7.94186639785767,1.22150146961212,0.98082053661346,0.67477703094482,-3.004723072052,-2.166752576828,-1.89141929149628,-0.28221973776817,-0.25106561183929,-0.17287486791611,-0.19898934662342,-0.19837848842144,-0.23258693516254,2.06140756607056,2.00394678115845,1.58017313480377,9.02404594421387,9.51725101470947,9.67526817321777,SWING_RIGHT
2.33388710021973,1.89772927761078,1.39437627792358,7.86046361923218,8.2028341293335,8.57393550872803,0.26083946228027,0.10934487730265,-0.10201449692249,-0.10735956579447,-0.07864890247583,-0.0218384321779,0.15562310814857,0.11731588095427,-0.29209262132645,7.94186639785767,7.75990676879883,7.80300283432007,-1.14132535457611,-2.0435733795166,-3.22315406799316,12.0359516143799,13.6113357543945,14.9811182022095,-0.55710911750793,-0.657290995121,-0.7177666425705,1.77227282524109,2.45949625968933,2.36175775527954,0.91937345266342,-0.25139117240906,-2.37265396118164,9.8308916091919,8.93546009063721,10.1541090011597,-11.6366014480591,-14.4722375869751,-16.2327518463135,24.5917434692383,24.1245746612549,19.4127864837646,2.56685566902161,1.05740773677826,0.74281215667725,2.55967807769775,-1.66201162338257,0.21578814089298,-39.3044128417969,-21.9817638397217,-16.4631290435791,0.61052143573761,13.6568260192871,8.74631786346436,-0.03382666409016,0.63323819637299,0.96799236536026,-13.3743095397949,-8.63139629364014,-7.6066780090332,0.89308500289917,0.59559363126755,-0.07635815441608,-1.14705216884613,-1.17087590694427,-0.59727346897125,-2.3247697353363,0.49081134796143,2.26012635231018,7.1805100440979,6.76870727539063,7.32655668258667,1.54892516136169,1.08039152622223,0.79695004224777,-0.9241618514061,-1.5753847360611,-2.18351197242737,0.19792033731937,0.13377949595451,-0.08735372871161,-0.87155199050903,-0.65530568361282,-0.26862800121307,2.39659595489502,2.23139595985413,1.93212080001831,9.55795288085938,9.49809741973877,9.22515869140625,SWING_RIGHT
2.7401123046875,2.40169310569763,1.97714173793793,7.62104320526123,7.95862579345703,8.14297962188721,-0.09224065393209,-0.10384709388018,-0.1490511149168,-0.24541510641575,-0.19532416760921,-0.18493945896626,-0.01197100803256,-0.23702596127987,-0.35913026332855,9.51006889343262,9.32332038879394,9.64893245697022,0.09934195876122,-0.41073051095009,-0.97028309106827,9.25628280639648,9.888352394104,11.1836156845093,0.2315179258585,0.43554693460464,0.80695301294327,1.40392100811005,2.39963150024414,4.92922449111938,-0.38067805767059,0.10055647045374,0.40462008118629,11.7294931411743,12.2370643615723,9.13417911529541,-8.25790500640869,-10.4142599105835,-13.5553293228149,22.8125514984131,25.3794364929199,26.3754234313965,2.17162585258484,3.06471085548401,3.14534521102905,1.607950091362,1.33916938304901,0.5022839307785,-31.0513000488281,-35.0666770935059,-29.2748012542725,10.0032739639282,8.15973854064941,6.74237108230591,-9.1699275970459,-5.87308740615845,-2.94887566566467,-18.6322765350342,-23.0854911804199,-18.7831115722656,1.75807023048401,0.93889987468719,0.59742623567581,-0.65469485521317,-0.37858372926712,-0.49525898694992,-12.2370643615723,-8.15973854064941,-4.22816038131714,8.14058494567871,7.57555341720581,7.67371559143066,1.8146516084671,2.01135015487671,1.85069262981415,-6.72800588607788,-3.89297199249268,-2.22421336174011,0.06963863968849,0.06414084881544,0.0274889357388,-0.41523563861847,-0.4622722864151,-0.48487427830696,2.70305371284485,2.70305371284485,2.33913516998291,7.61864900588989,7.80539703369141,7.91074180603027,SWING_RIGHT
3.32837557792664,3.1359531879425,2.88549828529358,4.53701210021973,4.80037450790405,4.8410758972168,0.13866640627384,0.08185594528913,-0.04276056587696,-0.12140946835279,-0.0267253536731,-0.09880745410919,-0.43574470281601,-0.68234747648239,-0.25617957115173,9.40472316741943,8.80617332458496,9.55795288085938,1.67232000827789,0.15248723328114,-0.75098246335983,8.52605152130127,11.4350061416626,13.0415163040161,0.37568211555481,0.48258355259895,0.71593403816223,1.09054720401764,1.18339872360229,0.65927630662918,-0.105344876647,-0.03112462162971,0.55545479059219,11.980884552002,11.8946933746338,13.4413480758667,-8.31471633911133,-11.0941524505615,-13.6011438369751,23.1692886352539,23.6050338745117,22.5467967987061,1.42331600189209,1.61512768268585,1.33412969112396,3.0434832572937,0.96715241670609,-2.88985085487366,-27.6084384918213,-32.0089797973633,-27.1463565826416,2.98078107833862,0.10773907601833,11.0758762359619,-8.67695903778076,-5.12111234664917,-3.09548330307007,-19.1350593566895,-15.9555587768555,-13.1899566650391,1.18324601650238,0.9511171579361,0.99632120132446,-1.09573948383331,-1.39078748226166,-0.95829486846924,-10.1158018112183,-7.68808078765869,-4.99939250946045,8.18846893310547,10.6401319503784,8.79420185089111,0.50801080465317,1.08466756343842,1.46401488780975,-7.09910726547241,-5.68413400650024,-3.32554626464844,0.42149701714516,0.11301007121801,-0.08185594528913,-0.92408639192581,-0.56184333562851,-0.36086863279343,1.85311210155487,2.42772054672241,2.73657250404358,8.05678844451904,8.31536197662354,8.4207067489624,SWING_RIGHT
1.12498474121094,0.89774280786514,0.73525267839432,4.83149909973145,4.64235687255859,4.54419469833374,-0.14538592100143,-0.15943582355976,-0.0250454749912,-0.0218384321779,-0.20143280923367,-0.30650162696838,-0.86191260814667,-0.92176765203476,-1.51074123382568,8.92588329315186,9.51485729217529,9.99130344390869,0.20074559748173,-0.26290112733841,-1.62696325778961,10.2019929885864,15.6347360610962,20.1909008026123,0.32620203495026,0.59864795207977,1.30297553539276,1.51143336296082,2.91398000717163,3.61342072486877,1.7788919210434,1.16118776798248,-3.58172583580017,14.7297277450562,14.5426807403564,11.4110641479492,-11.7013530731201,-13.7672986984253,-15.3488292694092,22.4582099914551,21.3592720031738,17.3226470947266,2.88939261436462,3.64197850227356,2.78432369232178,0.79183405637741,-2.50805997848511,-1.8990273475647,-34.3747520446777,-28.4344367980957,-21.883602142334,5.23881244659424,11.188404083252,11.8348379135132,-5.56093549728394,-2.7124707698822,-0.84200137853622,-19.7312145233154,-17.3777141571045,-13.613730430603,0.53450709581375,0.29626965522766,0.01893682219088,-0.34559699892998,-0.41157045960426,-0.5044219493866,-10.0750999450684,-4.0462007522583,-1.40300214290619,9.24910068511963,7.08474206924438,7.38162326812744,1.87390553951263,1.88978803157806,1.70408499240875,-4.89883613586426,-3.35188245773315,-2.50672912597656,-0.22907446324825,0.01710422709584,0.21563543379307,-0.41279217600822,-0.50258940458298,-0.60032784938812,1.67594122886658,1.70946002006531,1.51313543319702,9.00967979431152,8.89236450195313,8.4015531539917,SWING_RIGHT
1.26914894580841,1.12620639801025,0.9356164932251,3.32794046401978,3.52426481246948,3.62960982322693,-0.06841690838337,-0.05070181563497,-0.06780604273081,0.1375973969698,0.22189679741859,0.38866302371025,-0.5434837937355,-0.48362874984741,-0.4955997467041,10.4078941345215,10.4222593307495,10.8603982925415,-0.08208502084017,-0.45898887515068,-1.16698169708252,5.83018064498901,9.26346588134766,11.5618991851807,0.52473324537277,0.675616979599,1.01281452178955,0.90667676925659,1.17729008197784,1.18645298480988,-1.13963997364044,-1.07020819187164,-0.14125789701939,12.5004262924194,13.1540431976318,14.5881700515747,-7.84007358551025,-11.4441785812378,-14.982310295105,26.1623401641846,29.7273063659668,27.706600189209,2.68780708312988,3.63648080825806,3.28523325920105,4.173583984375,3.44421100616455,-0.29672780632973,-34.2068557739258,-39.0649909973145,-32.2986793518066,7.18290424346924,0.60573303699493,6.85011053085327,-8.91214179992676,-5.04231071472168,-1.87130928039551,-23.3775844573975,-24.5291957855225,-17.8733139038086,1.16736352443695,0.96761053800583,1.15331363677979,-0.18249599635601,-0.32849279046059,-1.21363651752472,-11.9569425582886,-8.13340282440186,-4.46279191970825,6.78546667098999,5.72483539581299,5.80623817443848,1.90750312805176,2.3601541519165,2.25813984870911,-7.676109790802,-4.50588750839233,-2.28406834602356,-0.46547931432724,-0.65484756231308,-0.69882982969284,-0.31749722361565,-0.27229318022728,-0.39446622133255,2.08774399757385,2.07337856292725,1.92733240127563,6.50773954391479,7.0033392906189,7.91792440414429,SWING_RIGHT
0.50495648384094,0.26122125983238,0.22456933557987,4.12042093276978,3.86424160003662,3.71580100059509,-0.23457226157188,-0.37873646616936,-0.40378192067146,0.19318613409996,0.51572299003601,0.66660672426224,-0.39025488495827,-0.44771572947502,0.07661445438862,9.23952388763428,9.56034660339356,9.81413173675537,-0.19753855466843,-0.87132292985916,-1.73814070224762,6.97700309753418,8.79899024963379,10.956166267395,-0.29199358820915,-0.17898350954056,-0.23579397797585,-0.55268031358719,0.15409076213837,1.87245464324951,-0.7493851184845,1.19949507713318,1.72861361503601,12.5147914886475,14.1835498809814,14.7776117324829,-8.47537326812744,-11.1912803649902,-13.0000524520874,21.9243030548096,20.1286525726318,17.7919120788574,1.48134827613831,1.23089349269867,0.99265605211258,2.45155501365662,-0.4616613984108,-2.04563498497009,-23.99049949646,-25.9133434295654,-22.3552589416504,-0.78290396928787,3.61763882637024,13.1229190826416,-9.49307537078857,-6.85047197341919,-4.44366264343262,-11.748646736145,-13.6592197418213,-13.5682401657104,0.2767219543457,0.17531833052635,0.26083946228027,0.40149119496346,0.61223971843719,0.52977287769318,-10.9585599899292,-8.82772064208984,-5.96904420852661,10.6425256729126,10.2833957672119,9.51964569091797,0.89407765865326,1.36444389820099,1.57397067546844,-7.06558847427368,-5.77990198135376,-4.35744714736938,0.72448617219925,0.32803463935852,-0.01160643994808,-0.56917369365692,-0.26618453860283,-0.01206458825618,0.08140286058187,0.80924016237259,1.31681096553802,7.21402883529663,7.33134508132935,7.83412742614746,SWING_RIGHT
-0.26229026913643,-0.32826370000839,-0.42600214481354,2.30322194099426,2.50433492660522,2.85628271102905,-0.20525072515011,-0.27611109614372,-0.3249803185463,-0.14462234079838,-0.42989641427994,-0.75854194164276,0.02873042039573,-0.21068975329399,-0.88106620311737,9.00010299682617,9.47654914855957,9.76864242553711,-1.29953944683075,-1.64101314544678,-2.31724095344543,8.0855188369751,12.0622873306274,16.51340675354,0.01527163106948,0.24862214922905,0.9083566069603,1.69774723052979,3.33242273330688,3.53950595855713,0.38067805767059,-0.16998831927776,-3.80199241638184,14.9739360809326,12.7709712982178,11.0208101272583,-11.5614643096924,-14.0941123962402,-15.5522470474243,25.1495933532715,22.7191791534424,16.247652053833,2.78615641593933,2.41658282279968,1.76967656612396,2.4558310508728,-1.56305146217346,-0.77259182929993,-35.3659515380859,-28.5134468078613,-22.1685123443604,-1.22343707084656,8.43507194519043,14.9092922210693,-5.2194619178772,-2.4601833820343,-0.857273042202,-22.0200710296631,-18.1510410308838,-14.8302841186523,1.20890235900879,1.20096111297607,1.02991878986359,-0.61376684904099,-0.93935805559158,-1.31504011154175,-7.95144319534302,-4.3837833404541,-1.54186594486237,7.12544345855713,5.92355442047119,5.53569364547729,2.1268036365509,2.03822827339172,1.76578235626221,-4.17788219451904,-2.38223075866699,-1.83874690532684,-0.4978551864624,-0.52045720815659,-0.47280970215797,-0.37308594584465,-0.19349156320095,-0.17699819803238,2.17632937431335,2.06380176544189,1.9632453918457,8.69125175476074,9.11502552032471,9.3328971862793,SWING_RIGHT
0.02725986205041,-0.15844316780567,-0.34414622187614,5.03051710128784,4.17309379577637,3.52905321121216,-0.29565876722336,-0.23762658238411,-0.04398229718208,0.15958854556084,-0.09514226019382,-0.4708243906498,-0.91697925329208,-1.19231247901917,-1.09654438495636,9.51485729217529,9.94102478027344,11.0040502548218,-1.06313455104828,-1.51578569412231,-3.13396787643433,5.17895746231079,9.2131872177124,13.6520376205444,1.12643551826477,1.59863436222076,1.71164441108704,2.64458847045898,2.03860998153687,0.93416565656662,1.15161097049713,1.08217918872833,-0.33518823981285,10.6712560653687,8.60745429992676,8.49971485137939,-12.0495462417603,-14.5485954284668,-15.3097333908081,23.8181171417236,19.8581066131592,13.5778169631958,1.36467289924622,0.76052725315094,1.63589715957642,2.69956612586975,0.12110403180122,-2.04563498497009,-30.7855434417725,-25.245361328125,-14.4038171768188,-1.08217918872833,3.58172583580017,18.0480918884277,-2.54753708839417,-0.86826860904694,-0.01122464891523,-14.6935148239136,-9.50767421722412,-6.28029012680054,0.36102136969566,-0.23396138846874,-0.45020768046379,-0.68951416015625,-0.31749722361565,-0.19532416760921,-3.00232887268066,-0.19153612852097,1.45567464828491,7.73835897445679,8.18846893310547,9.19163990020752,0.74075049161911,0.50129127502441,0.23373231291771,-2.59052634239197,-1.944091796875,-2.01591777801514,0.0372627787292,-0.21319197118282,-0.41966441273689,-0.05971207842231,-0.00839939713478,0.09178250283003,1.05344879627228,0.77572137117386,0.80684596300125,8.4207067489624,8.74152946472168,9.31613826751709,SWING_RIGHT
1.50372111797333,1.29480528831482,1.15491712093353,4.8602294921875,4.78600931167603,4.86980628967285,-0.7489207983017,-0.83138757944107,-0.81917029619217,-0.1458440721035,-0.24480424821377,-0.44822236895561,-1.24737906455994,-1.27610945701599,-1.49877023696899,8.8947582244873,9.0551700592041,10.1445322036743,0.38033998012543,-0.05398521572351,-0.69050681591034,7.79582023620605,9.44542503356934,11.4302177429199,-0.10384709388018,0.37568211555481,0.83932882547379,0.91645056009293,1.6757560968399,2.82051753997803,-1.70467162132263,-1.14442837238312,-0.0454898327589,13.5826053619385,14.0877819061279,13.7310457229614,-6.39049053192139,-9.81866645812988,-13.460033416748,25.2022647857666,28.8749694824219,31.4559192657471,3.06471085548401,3.1502320766449,3.17405581474304,3.9402334690094,0.28359419107437,0.2023491114378,-42.0649261474609,-37.2238502502441,-27.072135925293,0.82599955797195,8.79180812835693,9.06235313415527,-4.18648862838745,-0.93057686090469,-0.88292932510376,-22.4318733215332,-10.4581718444824,-10.8819456100464,1.54732167720795,1.24066734313965,0.51740288734436,-0.27412578463554,-0.47876563668251,-0.44211372733116,-5.26275444030762,-1.68312382698059,0.76135611534119,5.24360084533691,3.8379054069519,4.52743530273438,1.09749579429626,0.82871508598328,0.61979913711548,-4.25449657440186,-3.74692559242249,-4.14915132522583,-0.23518311977386,-0.24068090319633,-0.28893926739693,-0.24969117343426,-0.23136521875858,-0.22647829353809,1.58735573291779,1.52750062942505,1.35511815547943,8.13100814819336,8.25311279296875,8.50210952758789,SWING_RIGHT
1.43774771690369,1.28747487068176,1.08222413063049,3.92888498306274,4.26407337188721,4.62080907821655,-0.59986966848373,-0.52473324537277,-0.45204028487206,0.25244006514549,0.1718058437109,0.04596760869026,0.2777273952961,0.14125789701939,0.08619125932455,10.3384618759155,10.1397438049316,9.94581317901611,-0.36063957214355,-1.09734308719635,-2.09855127334595,9.38556957244873,11.4661312103271,13.3431854248047,-0.48624873161316,-0.12339477986097,0.39400807023048,0.96898502111435,1.97141480445862,1.93109774589539,0.46447512507439,-0.2537853717804,-0.71347212791443,13.8723039627075,13.0822172164917,13.6472492218018,-10.0532388687134,-13.286548614502,-15.3860921859741,28.5182342529297,28.6762523651123,24.610897064209,2.58212733268738,3.22659015655518,3.07081961631775,4.73496913909912,2.71911382675171,-0.92042118310928,-33.7112579345703,-34.2092514038086,-27.0745315551758,5.62906742095947,0.68234747648239,11.0184154510498,-3.55179953575134,-1.95255434513092,-1.42659938335419,-16.8246536254883,-11.2913541793823,-10.149320602417,0.97066485881805,1.07390105724335,0.93523466587067,0.68737614154816,0.19746218621731,-0.29733866453171,-6.73279428482056,-3.55538964271545,-1.13245737552643,6.5963249206543,4.939537525177,4.46279191970825,0.78595447540283,0.84704101085663,0.85253882408142,-6.34972238540649,-5.27233123779297,-4.76924991607666,-0.73426002264023,-0.72448617219925,-0.59070670604706,0.1699732542038,0.17730364203453,-0.02794708497822,1.09654438495636,1.32878196239471,1.18512988090515,7.65216779708862,8.05439376831055,8.71279907226563,SWING_RIGHT
0.60269492864609,0.14210252463818,-0.17737999558449,4.05098915100098,4.5418004989624,4.51785850524902,-0.33108896017075,-0.31276300549507,-0.30176743865013,0.63117653131485,0.63606345653534,0.68432176113129,0.11492168158293,0.02633621916175,-0.08140286058187,10.1086187362671,9.77582454681396,9.13657283782959,-1.53288996219635,-1.94155883789063,-2.41192507743835,5.39443588256836,7.02728128433228,9.70639324188232,-0.06841690838337,-0.02321287989616,-0.14844025671482,-1.37857019901276,-0.68707066774368,1.8968893289566,-1.15639936923981,0.79008656740189,0.60094463825226,11.9234237670898,15.529390335083,16.6618480682373,-9.23162460327148,-11.9792966842651,-14.111216545105,22.8484649658203,22.1924533843994,17.1694183349609,3.42939758300781,2.35671806335449,1.37689030170441,3.81683874130249,-1.60947716236115,-2.25455093383789,-32.8972282409668,-28.2069873809814,-20.4542636871338,-6.26592493057251,1.62805712223053,14.7030916213989,-5.72403621673584,-3.50537395477295,-1.9391154050827,-18.8190231323242,-18.8190231323242,-13.5610580444336,1.57969748973846,1.18202424049377,0.73242741823196,-0.70845097303391,-0.39263364672661,-0.29794952273369,-8.67928028106689,-5.71047019958496,-2.88740730285645,7.9753851890564,6.7543420791626,6.04805278778076,1.19889938831329,1.39987409114838,1.27770102024078,-5.42795467376709,-3.80917501449585,-2.46363353729248,-0.31215214729309,-0.29993483424187,-0.31764993071556,0.05696318298578,0.19990564882755,0.22922718524933,1.49877023696899,1.16837048530579,0.93852704763412,8.95700740814209,9.04319953918457,9.29458999633789,SWING_RIGHT
0.96554887294769,0.71142894029617,0.61124706268311,7.65456199645996,6.97460889816284,6.50055694580078,-0.78679442405701,-0.6010913848877,-0.35246923565865,0.01298088673502,0.27931812405586,0.22861631214619,-0.07661445438862,0.33997663855553,0.44771572947502,12.6871738433838,12.0670757293701,11.8444147109985,-1.76440787315369,-2.61778664588928,-4.09852409362793,10.7406883239746,14.1620025634766,18.8597259521484,-0.13377949595451,0.24556782841682,1.93338847160339,0.76495599746704,2.70078802108765,6.48326539993286,0.40701428055763,-5.51654005050659,-20.1454124450684,16.9252109527588,16.5493202209473,5.84454584121704,-13.8259420394897,-13.438042640686,-11.0929307937622,13.0989770889282,-1.95366859436035,-17.281946182251,2.28158164024353,1.66216433048248,0.31459560990334,-1.96622252464294,1.94209337234497,0.75518214702606,-19.6498126983643,-16.1040000915527,-11.3416328430176,16.4248218536377,3.67031121253967,3.78044438362122,-0.13278682529926,0.39194640517235,0.81710863113403,-10.4390182495117,-8.61224269866943,-7.82933902740479,0.72998398542404,0.54305922985077,0.20769418776035,-0.74082684516907,-0.66141432523727,-0.43967026472092,-1.60890352725983,0.06943184882402,0.88106620311737,7.20445203781128,7.05122327804565,6.87884092330933,1.25143384933472,0.84215408563614,0.66989010572433,-1.85790050029755,-2.52348852157593,-3.19625926017761,-0.25411993265152,-0.1600466966629,-0.13683381676674,-0.13912455737591,-0.19776763021946,-0.05604688450694,0.85712420940399,0.72065472602844,0.97444009780884,9.7087869644165,9.96257209777832,9.87159252166748,SWING_RIGHT
1.99668943881989,1.68575894832611,1.50433206558228,4.46758031845093,4.00549936294556,3.76129078865051,-0.4331034719944,-0.32314771413803,-0.2443460971117,-0.21792617440224,-0.37247508764267,-0.48976120352745,-0.56742578744888,-0.40462008118629,-0.19153612852097,10.1158018112183,10.1828393936157,10.3217029571533,0.59353196620941,0.12316570430994,-0.66973739862442,5.64582681655884,7.80539703369141,10.7909660339355,-0.24678955972195,0.06963863968849,0.21685716509819,-0.07009678333998,-0.4708243906498,-0.02000583708286,0.14125789701939,0.70150107145309,1.37427175045013,10.829273223877,12.201150894165,12.8284320831299,-7.13696765899658,-10.1796875,-13.5815963745117,23.2315368652344,27.1487503051758,27.2828254699707,1.18385684490204,1.80693936347961,2.80203890800476,3.48819327354431,4.27804183959961,2.81318712234497,-27.4145069122314,-31.9084243774414,-29.5381641387939,10.1684741973877,8.17171001434326,6.792649269104,-10.8327026367188,-4.1070761680603,-1.86275720596313,-16.2237091064453,-20.8636722564697,-10.0990419387817,0.3072652220726,0.4758640229702,0.67195177078247,0.38316521048546,0.65438938140869,0.41370847821236,-7.29782629013062,-5.1286792755127,-2.82515811920166,9.91947650909424,8.41591835021973,6.63702630996704,0.69127041101456,0.92645353078842,0.88491463661194,-6.42633676528931,-4.58729028701782,-3.76847338676453,-0.18997909128666,-0.28283059597015,-0.21991148591042,-0.14156801998615,-0.05115996301174,0.05451972410083,1.81480491161346,1.92014980316162,1.85071790218353,7.73596477508545,8.61703109741211,8.78941345214844,SWING_RIGHT
2.06938242912292,1.71813488006592,1.29297268390656,6.33056879043579,6.76631307601929,7.7263879776001,-0.52473324537277,-0.46547931432724,-0.43493604660034,-0.60399299860001,-0.76648318767548,-0.86055642366409,0.66319388151169,-0.19393034279346,-0.74699091911316,10.4031057357788,10.3552217483521,10.695198059082,-1.4711925983429,-2.190181016922,-3.35082483291626,11.3583917617798,14.0255327224731,17.7847290039063,-0.33414328098297,-0.29993483424187,0.01404990069568,1.07038867473602,1.43140995502472,1.91765868663788,0.42616790533066,-1.16118776798248,-5.22684144973755,11.0184154510498,12.0144033432007,12.9026517868042,-13.039758682251,-14.8613586425781,-15.3445529937744,20.8540954589844,15.8933095932007,1.53707754611969,1.77089834213257,2.01768779754639,1.95049273967743,-2.21117949485779,-1.44087839126587,0.79855358600616,-29.2652244567871,-18.7807159423828,-12.7159042358398,13.869909286499,18.2755393981934,12.3424091339111,-2.16696810722351,-0.89575749635696,-0.01550070568919,-15.0074548721313,-11.6361198425293,-8.44943714141846,0.8784242272377,0.67073005437851,0.46425759792328,0.50472742319107,0.30925053358078,0.25793784856796,-1.66397023200989,0.86430680751801,2.43011474609375,6.32578039169312,5.6242790222168,5.33458089828491,0.86719959974289,0.53183454275131,0.17631098628044,-1.70227742195129,-1.74776721000671,-2.81797528266907,-0.51862460374832,-0.44959682226181,-0.31703907251358,0.49800789356232,0.16630806028843,-0.07803803682327,2.59531474113464,2.34152936935425,2.39659595489502,8.13819122314453,8.7175874710083,9.44303035736084,SWING_RIGHT
1.45424103736877,1.19767761230469,0.85192793607712,3.19386506080627,4.13239192962646,4.43884992599487,-0.27977627515793,-0.32436943054199,-0.42699480056763,-0.0615446716547,0.01175915636122,0.20601430535316,-0.24660277366638,-0.71586632728577,-1.56101953983307,10.5706996917725,10.1014366149902,10.2450885772705,-0.81451243162155,-1.28060257434845,-1.86581158638,6.615478515625,7.15417385101318,8.66491508483887,-0.42455133795738,-0.40500366687775,-0.22540926933289,0.20723603665829,-0.63942319154739,-0.46960264444351,-2.68150591850281,-2.50194072723389,-2.15717577934265,9.18445682525635,12.5507049560547,17.5477027893066,-7.1827826499939,-9.35624122619629,-11.1912803649902,19.0847797393799,21.5340480804443,25.0897369384766,4.53261995315552,5.71586608886719,5.22411966323853,3.71543502807617,2.51325225830078,1.43690776824951,-40.3674392700195,-40.1591415405273,-25.1998710632324,11.2338933944702,6.46464395523071,-0.55066639184952,-4.57072305679321,-2.7436249256134,-1.78273391723633,-18.0863990783691,-15.7281093597412,-13.3288202285767,0.527787566185,0.26633724570274,0.40194934606552,1.31473469734192,0.78206020593643,0.1846340149641,-7.15896224975586,-4.82671070098877,-2.48039293289185,3.83072280883789,4.46997451782227,4.32871675491333,1.20317542552948,1.47256708145142,1.43958032131195,-7.69047498703003,-5.5740008354187,-3.74453139305115,-1.12887895107269,-1.21256756782532,-1.10933125019073,-0.10430523753166,0.11927144229412,0.14920383691788,2.80600428581238,2.6934769153595,2.10450339317322,7.48217964172363,8.64097309112549,9.41908836364746,SWING_RIGHT
-0.2983313202858,-0.48708868026733,-0.69295024871826,2.77248549461365,3.58890843391419,4.63996267318726,0.64690631628036,0.70310592651367,0.70310592651367,-0.71944653987885,-0.67363166809082,-0.48181995749474,-0.30885201692581,-0.36152446269989,0.62728083133698,11.0830593109131,11.4685258865356,11.5930242538452,-3.16756534576416,-4.99649572372437,-7.00563192367554,15.7544460296631,17.4064445495605,19.0919628143311,0.54672437906265,1.46485483646393,2.26264476776123,1.7056884765625,2.1791090965271,2.72277903556824,-3.53384160995483,-11.9282121658325,-23.0088768005371,14.9739360809326,14.2697410583496,8.80138492584229,-15.1173114776611,-13.9468936920166,-10.8528614044189,8.13100814819336,-4.91320133209229,-22.6712951660156,3.20337724685669,1.62429070472717,-0.15088371932507,-1.40666997432709,1.37521040439606,1.40819716453552,-22.1469650268555,-14.3367786407471,-5.25078344345093,14.391845703125,6.67293930053711,8.02805709838867,1.32840287685394,1.36138951778412,1.19645595550537,-6.5460467338562,-4.89883613586426,-4.64953947067261,0.73181658983231,0.1050688251853,-0.41966441273689,-0.56428676843643,-0.33887749910355,-0.10125091671944,2.59052634239197,2.14520478248596,2.28167414665222,4.92277812957764,6.00256299972534,7.66653299331665,1.0278571844101,0.93500560522079,0.89407765865326,-2.75333189964294,-3.01429986953735,-2.68390011787415,-0.57299160957336,-0.43188172578812,-0.35674530267715,0.41370847821236,0.247553139925,0.27076601982117,2.62643933296204,2.53545951843262,2.44687414169312,8.95461368560791,9.09826564788818,8.96419048309326,SWING_RIGHT
0.53488886356354,0.39255726337433,0.20379991829395,3.44765043258667,3.87860679626465,4.39814853668213,-0.02443460933864,-0.08857546001673,-0.08491026610136,-0.07681630551815,0.01664607785642,-0.11346822232008,0.56742578744888,-0.18914192914963,-0.91219085454941,9.65850925445557,9.2538890838623,8.7391357421875,-0.68134379386902,-0.86215990781784,-1.12971889972687,6.74237108230591,8.72716426849365,11.8539915084839,0.30176743865013,0.0177150927484,-0.23212879896164,-0.48120909929276,1.1656836271286,2.95979475975037,0.59855043888092,4.33111095428467,4.70700073242188,11.025598526001,11.1524906158447,11.9976444244385,-11.2535886764526,-15.0745506286621,-17.2003612518311,31.5133800506592,28.139949798584,18.4479217529297,2.09710049629211,1.41293132305145,1.02014493942261,0.48212540149689,-0.96379262208939,1.11986875534058,-43.1471061706543,-31.427188873291,-20.8564891815186,4.20900678634644,13.2498111724854,14.5426807403564,-4.08569574356079,-2.26287388801575,-0.83222752809525,-19.855712890625,-16.4487648010254,-13.338397026062,1.09100532531738,0.82833325862885,0.59559363126755,0.32452216744423,-0.16233743727207,-0.33704489469528,-5.25078344345093,-0.98401689529419,1.62326872348785,5.71765279769897,5.29387903213501,5.6625862121582,1.19034731388092,1.03091144561768,0.81283259391785,-3.59848523139954,-2.8012158870697,-2.87543630599976,-0.61025440692902,-0.46364670991898,-0.26694810390472,0.39782598614693,0.33246341347694,0.0954476967454,2.09013819694519,1.58974993228912,1.24019646644592,8.88757610321045,8.91391181945801,8.74871253967285,SWING_RIGHT
1.06145477294922,0.30886873602867,-0.01366810966283,5.99777460098267,5.34176349639893,5.13346767425537,0.02382374368608,0.07574728876352,0.08063421398401,0.11377365142107,-0.06826419383287,-0.2069306075573,-0.26575639843941,-0.4525041282177,-0.91937345266342,9.99609184265137,9.71836376190186,9.64653778076172,-1.09001266956329,-1.4290429353714,-1.95988476276398,6.73758268356323,8.90672969818115,11.6648502349854,0.56993728876114,0.70249503850937,0.25167647004128,-0.00106901419349,0.76312339305878,1.67331266403198,1.10372698307037,3.26808524131775,2.08534979820251,11.3081140518188,9.1964282989502,6.73279428482056,-10.1711349487305,-13.4184951782227,-15.7043523788452,26.1838874816895,25.7696914672852,20.4111671447754,1.30297553539276,1.8545868396759,1.93338847160339,4.55048799514771,3.63724446296692,0.35017850995064,-33.9794082641602,-32.2891006469727,-27.2756443023682,6.09593677520752,1.38863694667816,9.0575647354126,-7.39658546447754,-4.80529499053955,-2.8645761013031,-19.3936328887939,-17.4639053344727,-14.3200197219849,1.03663837909698,0.58276546001434,0.52106803655624,0.51144695281982,0.29092457890511,-0.17394387722015,-11.7151279449463,-8.04721164703369,-4.46279191970825,6.70645809173584,6.69927549362183,6.93869590759277,1.24288165569305,1.36994171142578,1.25998592376709,-6.58435392379761,-4.89374828338623,-3.55538964271545,-0.07941248267889,-0.3720169365406,-0.46547931432724,-0.12202033400536,0.0074830991216,-0.04566217586398,0.82839381694794,1.09175598621368,1.1180921792984,7.11586666107178,7.79103183746338,8.79420185089111,SWING_RIGHT
-0.16577355563641,-0.43394339084625,-0.68867421150208,5.4351372718811,5.61470222473145,6.29944372177124,-0.11056660860777,0.01343903504312,0.0500909499824,-0.17944166064262,-0.354149132967,0.56153786182404,-0.42616790533066,0.38786068558693,0.9911994934082,9.6513261795044,10.778995513916,11.408670425415,-3.2103259563446,-4.4491605758667,-6.18157434463501,14.3056545257568,17.6626243591309,21.8429012298584,0.10140363126993,0.18203784525394,0.69211030006409,1.80037260055542,2.09969663619995,3.36113333702087,-3.44765043258667,-9.42387676239014,-17.4591178894043,8.34409236907959,10.7574472427368,11.133337020874,-15.1350259780884,-15.6145553588867,-13.6322975158691,16.7528285980225,3.54820680618286,-15.1989908218384,2.54975152015686,1.91994941234589,1.41537475585938,-1.27227962017059,0.41065415740013,0.52488595247269,-25.1783237457275,-17.2340621948242,-12.2490348815918,14.6962089538574,10.8268795013428,7.95383739471436,-0.14194981753826,0.09750936180353,0.60025143623352,-9.79737281799316,-9.00728607177734,-8.67928028106689,1.18691122531891,0.99082344770432,0.48197266459465,-0.34071010351181,-0.68707066774368,-0.48304170370102,-1.13006317615509,0.91697925329208,2.17393517494202,5.90440082550049,5.69849920272827,6.01213979721069,1.25937509536743,1.040074467659,1.00525510311127,-2.50194072723389,-2.827552318573,-3.18668246269226,-0.65484756231308,-0.65851271152496,-0.72937309741974,0.18402315676212,0.32757648825645,0.40821069478989,1.6903064250946,1.82917010784149,1.98239898681641,9.31613826751709,9.25149440765381,9.22276401519775,SWING_RIGHT
0.52206069231033,0.10850493609905,-0.16577355563641,4.2257661819458,4.38617753982544,4.96108531951904,-0.76969021558762,-0.70310592651367,-0.73731434345245,-0.29489520192146,-0.44211372733116,-0.22770002484322,0.21308395266533,-0.00718260509893,0.24660277366638,10.587459564209,10.7742071151733,11.8659629821777,-2.40154027938843,-3.30806446075439,-4.3593635559082,10.1948099136353,12.517186164856,15.2899703979492,-0.0372627787292,-0.00733038317412,0.44776421785355,0.2652682363987,0.86025100946426,1.82847237586975,-1.88423669338226,-3.21301865577698,-9.02643966674805,12.3184671401978,14.7105741500854,15.8621845245361,-13.8161687850952,-15.4783325195313,-15.5186500549316,23.7750205993652,17.9499282836914,6.62505531311035,3.69329118728638,3.39824342727661,2.07266569137573,-0.88743448257446,-0.3022255897522,0.66233062744141,-32.7847023010254,-16.8366241455078,-11.6385135650635,9.99609184265137,10.1876277923584,5.33697509765625,-0.99716114997864,-0.73693257570267,-0.32520937919617,-9.12460231781006,-8.15973854064941,-8.48056125640869,-0.09773843735456,-0.00977384392172,-0.04703662544489,0.20295998454094,-0.19349156320095,-0.2105957865715,-1.8674772977829,-0.31603461503983,0.82599955797195,7.23557662963867,7.46302604675293,7.50372743606567,1.08405673503876,0.87697339057922,0.62774038314819,-3.78044438362122,-3.49074602127075,-3.70861840248108,-0.59498274326324,-0.55955255031586,-0.51312679052353,-0.06643159687519,-0.08170322328806,-0.0517708286643,1.42215585708618,1.18991827964783,1.12048637866974,9.17009162902832,9.47415542602539,9.78540134429932,SWING_RIGHT
1.03396582603455,1.02846801280975,0.80305874347687,2.12605118751526,2.94726228713989,3.91691398620605,0.15882496535778,0.18997909128666,0.19853121042252,-0.42745295166969,-0.20937407016754,0.12354749441147,-0.4764461517334,-0.64882868528366,-0.16759411990643,11.0950298309326,11.6863975524902,12.4142351150513,-0.62453335523605,-1.37589764595032,-2.84625029563904,10.6712560653687,13.2953014373779,16.5756568908691,0.23212879896164,0.37262779474258,1.01709067821503,1.53586792945862,2.58838868141174,3.05142450332642,1.87944829463959,-0.5746083855629,-5.72483539581299,12.7039337158203,12.9050464630127,12.0862293243408,-13.4020013809204,-15.9291515350342,-15.9462556838989,25.077766418457,16.9898529052734,-3.99113416671753,3.51064252853394,2.39581346511841,0.94317591190338,-2.90512228012085,-0.28817567229271,1.59267842769623,-29.3897228240967,-19.7958583831787,-12.5842237472534,14.6073236465454,11.8946933746338,8.65294456481934,-1.67094552516937,-0.83406013250351,0.17875444889069,-13.6975269317627,-12.2969188690186,-9.87398719787598,1.18813288211823,0.67378437519073,0.13377949595451,0.14126259088516,0.06673702597618,0.02153299935162,-0.64882868528366,1.75494980812073,2.27688574790955,5.19811105728149,4.72376012802124,5.74398899078369,0.79389572143555,0.73342007398605,0.63934683799744,-3.48595762252808,-3.33512306213379,-3.38300704956055,0.04337143152952,0.08857546001673,0.04948008432984,-0.23625212907791,-0.29122999310493,-0.27229318022728,1.49637603759766,1.44609785079956,1.28329205513,8.75350093841553,8.62900257110596,8.7199821472168,SWING_RIGHT
1.66926562786102,1.58802056312561,1.48172998428345,3.78762698173523,4.35744714736938,5.31303262710571,0.04703662544489,-0.09529497474432,-0.11606439948082,0.03130684420466,0.55420750379562,1.29213273525238,0.38786068558693,0.80924016237259,0.86909520626068,10.3719806671143,10.3504333496094,9.967360496521,-1.22745740413666,-2.12176418304443,-3.01484894752502,11.1070013046265,12.914623260498,16.6618480682373,-0.74097955226898,-0.3500257730484,1.3390166759491,3.21269297599792,4.28476142883301,5.00924777984619,3.13161587715149,-0.08858546614647,-10.1325607299805,14.4301528930664,16.6187534332275,14.066234588623,-14.3182992935181,-15.3775396347046,-14.5516500473022,22.2331562042236,11.7989253997803,-6.0504469871521,2.82647347450256,1.78189396858215,1.20279371738434,-1.78968250751495,0.57375520467758,1.42163610458374,-28.8701820373535,-19.6115055084229,-14.377480506897,10.5204219818115,10.2091751098633,6.24437713623047,-1.3178653717041,-0.82306456565857,-0.19020816683769,-11.2458648681641,-10.079888343811,-10.0750999450684,1.3011429309845,0.82833325862885,0.30787608027458,-0.5172501206398,-0.55756723880768,-0.30039298534393,-3.5003228187561,-1.13485157489777,0.41419690847397,5.96904420852661,6.10790777206421,6.68012189865112,1.37299597263336,1.04557228088379,0.83360201120377,-2.37744235992432,-2.57137250900269,-3.15795207023621,-0.07147123664618,-0.13072516024113,-0.22479841113091,-0.30955597758293,-0.14767667651176,0.03863722831011,0.75656771659851,0.70389527082443,0.68234747648239,8.80856704711914,8.98573780059814,8.88518142700195,SWING_RIGHT
2.02967619895935,1.52876663208008,0.94905549287796,7.0727710723877,7.89398241043091,9.45979022979736,0.32314771413803,0.34086281061172,0.31398472189903,-0.42745295166969,-0.26129761338234,0.2170098721981,-0.06943184882402,-0.37588965892792,-0.07661445438862,10.9633483886719,11.1357316970825,11.8899049758911,-3.40397024154663,-4.98244619369507,-6.74784660339355,15.1989908218384,17.1406879425049,19.9466934204102,0.67011916637421,0.75808376073837,1.17591559886932,3.29210543632507,4.46679925918579,5.66837120056152,-4.91080713272095,-10.3528270721436,-19.0752029418945,9.18445682525635,7.66413879394531,4.19464159011841,-13.9310111999512,-12.9096441268921,-10.1729679107666,11.0327806472778,-3.56736063957214,-15.7305040359497,2.82158660888672,3.16489291191101,2.28158164024353,0.4381431043148,0.53404891490936,-0.83306747674942,-18.5628452301025,-16.7743759155273,-12.802095413208,14.7560634613037,5.42316627502441,7.50372743606567,-1.16148388385773,-0.47303876280785,0.41760274767876,-11.2123460769653,-11.4828910827637,-10.6305551528931,1.32679927349091,1.17835903167725,0.80267691612244,-0.90087354183197,-0.98700553178787,-0.83795440196991,-2.16435837745667,-0.4955997467041,0.89064306020737,7.10868406295776,6.58435392379761,6.44549036026001,1.74073684215546,1.61489868164063,1.48050832748413,-2.39180755615234,-1.85790050029755,-1.34314715862274,-0.33475416898727,-0.19058994948864,-0.06169738993049,-0.27473664283752,-0.20754146575928,-0.24969117343426,2.13562798500061,2.22421336174011,2.3056161403656,9.48852062225342,9.45979022979736,9.11741924285889,SWING_RIGHT
1.69858717918396,1.18301689624786,0.68638348579407,6.92433071136475,7.14938545227051,7.41514205932617,-0.31764993071556,-0.44043383002281,-0.52534413337708,0.04169155284762,-0.0841466858983,0.11071932315826,0.44053310155869,0.1963245421648,0.18674772977829,9.33768558502197,9.77343082427978,10.8364562988281,-2.19873309135437,-2.79432678222656,-4.31904649734497,8.3991584777832,8.8971529006958,14.885350227356,0.20463985204697,0.36346483230591,0.76846849918365,-0.90270608663559,-0.10919216275215,1.12536644935608,-0.85473001003265,-2.95923328399658,-8.40873527526855,14.4325475692749,16.685791015625,17.1646308898926,-14.07395362854,-15.5669078826904,-14.9108390808105,22.7526969909668,14.5091619491577,-2.08534979820251,2.80998015403748,2.43063282966614,1.3634512424469,-1.74081325531006,-2.68093490600586,-0.43600505590439,-29.3657817840576,-20.5907325744629,-15.641918182373,5.77271938323975,10.4964799880981,7.76230096817017,-0.8511643409729,0.46036332845688,1.47317790985107,-16.8677501678467,-12.9960260391235,-9.76624774932861,-0.31093040108681,-0.20586158335209,-0.25839599967003,-0.5050328373909,-0.83428919315338,-0.63087105751038,-3.14358687400818,2.30322194099426,2.8658595085144,7.87961721420288,8.5787239074707,8.98094940185547,1.37605035305023,1.07978069782257,0.90385150909424,-1.22822546958923,-1.27850365638733,-1.46046304702759,-0.10873401165009,-0.04886921867728,0.00610865233466,-0.20326541364193,-0.06398813426495,-0.00290160998702,1.87465989589691,1.76213240623474,1.66636443138123,10.326491355896,10.1229839324951,9.77343082427978,SWING_RIGHT
0.96738147735596,0.5666538476944,0.21296289563179,5.54048204421997,5.59076023101807,6.04087018966675,-0.29749137163162,-0.34147366881371,-0.23945917189121,0.1632537394762,0.0044287731871,0.11866057664156,0.12449848651886,-0.04070143029094,-0.15562310814857,9.46457862854004,10.2235403060913,11.3536033630371,-2.34534072875977,-3.22254323959351,-4.38135480880737,10.7071695327759,12.6033773422241,15.7400808334351,0.23273965716362,0.23640485107899,0.49663344025612,2.23653030395508,2.92680811882019,3.89197516441345,0.09576806426048,-3.26090264320374,-9.69681644439697,10.7287168502808,10.4222593307495,8.62181949615479,-13.0373153686523,-13.9969844818115,-13.5583829879761,18.1893482208252,11.3440265655518,4.64953947067261,2.13619565963745,2.29196643829346,1.64261662960052,1.55480480194092,1.32695198059082,0.09728029370308,-22.951416015625,-20.1932964324951,-16.3960914611816,11.5906295776367,6.60829591751099,6.24437713623047,-0.15477798879147,0.56359952688217,1.15369534492493,-11.5786590576172,-9.87877559661865,-9.01207447052002,0.48258355259895,0.53206360340118,0.33964106440544,-0.57589322328568,-0.76159626245499,-0.60582560300827,-2.97838687896729,-0.9241618514061,0.51714754104614,7.91313600540161,7.51569843292236,7.30740308761597,1.71202623844147,1.36933076381683,1.17141044139862,-1.53947174549103,-1.70946002006531,-1.70946002006531,-0.15699236094952,-0.16187928617001,-0.12828169763088,-0.19654589891434,-0.16905695199966,-0.05238169431686,0.70868372917175,0.79248076677322,0.81163436174393,9.28022480010986,9.71597003936768,9.89553451538086,SWING_RIGHT
0.01626428775489,-0.18654297292233,-0.40523272752762,3.84748220443726,4.37899494171143,4.90601873397827,-0.00061086524511,-0.08307767659426,-0.15760323405266,-0.07437284290791,-0.01328631862998,0.09239336848259,-0.5434837937355,-0.14365209639072,0.105344876647,9.42387676239014,9.22994709014893,9.29458999633789,-2.089998960495,-3.1113657951355,-4.60004425048828,11.6145715713501,13.8244199752808,16.1758251190186,-0.35613444447517,-0.13377949595451,0.38667771220207,1.83152675628662,2.51875019073486,3.36113333702087,-0.6224924325943,-3.47398662567139,-9.35205078125,10.956166267395,11.3727569580078,11.2602300643921,-13.3476343154907,-13.8051729202271,-12.5058622360229,20.0640087127686,3.16752886772156,-10.9034938812256,3.36220240592957,2.80264973640442,1.50333940982819,-1.37246143817902,1.57313072681427,1.44851422309875,-19.7790985107422,-15.711350440979,-13.2115039825439,16.3889083862305,6.49337434768677,3.58651423454285,-1.7601318359375,-0.24640776216984,0.85864746570587,-13.7693529129028,-12.0742588043213,-10.3432502746582,-0.34819319844246,-0.36224308609962,-0.45142942667007,-0.24846944212914,-0.43600505590439,-0.34559699892998,-1.80283391475677,-0.37588965892792,0.55784898996353,7.54203462600708,7.74075317382813,7.93707799911499,1.89772927761078,1.5813010931015,1.37360692024231,-2.56897830963135,-2.77487969398499,-2.97599267959595,-0.6139195561409,-0.48930305242538,-0.37140607833862,0.1699732542038,0.24938572943211,0.11499538272619,0.98162269592285,1.03190088272095,1.28568625450134,9.75667095184326,9.27064800262451,8.80138492584229,SWING_RIGHT
0.50495648384094,0.48418706655502,0.52022808790207,2.74614930152893,2.51151752471924,2.49236392974854,0.0250454749912,0.00671951752156,0.01832595653832,0.05574145540595,0.0581849142909,0.04841107130051,-0.10055647045374,-0.05746084079146,-0.11013327538967,9.53640460968018,9.60104846954346,9.6704797744751,0.42248967289925,0.46952629089355,0.48540878295898,2.88740730285645,3.61763882637024,5.62188482284546,-0.00671951752156,0.08674286305904,0.26755899190903,1.23471140861511,1.93720638751984,3.27927732467651,0.09337386488914,1.9249382019043,4.66151094436646,12.3280439376831,13.8387851715088,15.0050601959229,-3.82546734809875,-7.30006885528564,-13.6573429107666,23.9928932189941,27.0338287353516,20.2435741424561,3.72994327545166,4.68961238861084,4.38051462173462,2.29700613021851,-1.00960755348206,-2.2069034576416,-28.5493583679199,-27.1702995300293,-22.7215728759766,7.42711305618286,8.35127449035645,11.6169662475586,-7.15651559829712,-2.75095534324646,-1.65323042869568,-17.3753204345703,-12.7781534194946,-11.8539915084839,0.70188415050507,1.0622946023941,1.40743350982666,0.39171734452248,0.10705413669348,-0.42439863085747,-6.96024370193481,-4.41251373291016,-2.2361843585968,9.83568000793457,8.31296730041504,6.54125833511353,1.10421526432037,1.36077868938446,1.6423876285553,-6.54365253448486,-5.4662618637085,-4.53461790084839,-0.63468897342682,-1.2467759847641,-1.4056009054184,-0.07681630551815,0.32696563005447,0.77106463909149,1.50355863571167,2.18590617179871,1.85311210155487,5.99538040161133,8.18128681182861,9.61062526702881,SWING_RIGHT
0.05230533704162,-0.17737999558449,-0.39912408590317,3.16752886772156,3.32075786590576,3.9384617805481,-0.23212879896164,-0.20158553123474,-0.02687807008624,0.01114829070866,-0.18860463798046,-0.4225660264492,0.31124621629715,0.13168109953403,0.35434186458588,9.61780738830566,10.0463695526123,10.4605665206909,-2.13886833190918,-3.00629687309265,-4.95312452316284,11.9545488357544,17.2484283447266,21.4717998504639,-0.02138028293848,-0.04703662544489,0.50579643249512,1.7246253490448,3.49674534797669,5.51565504074097,-3.25132584571838,-6.80940914154053,-13.9824371337891,11.6121778488159,11.8252611160278,8.87321090698242,-13.8399925231934,-14.4300880432129,-13.0788536071777,17.4878482818604,5.08318948745728,-11.4996500015259,3.34448719024658,1.70003795623779,0.48685958981514,-3.0413453578949,-0.18066339194775,2.22309136390686,-28.1878337860107,-20.5356674194336,-14.7321214675903,13.4748668670654,13.4605016708374,8.03284645080566,0.86658871173859,1.34733963012695,1.50127768516541,-11.0160217285156,-7.57794761657715,-5.14065027236938,0.20402899384499,-0.35185837745667,-0.52595496177673,-0.43722680211067,-0.18249599635601,-0.10247264802456,2.06859016418457,1.96803379058838,1.75734400749207,5.38246488571167,6.89799451828003,8.43986034393311,0.75480037927628,0.46097418665886,0.33941200375557,-1.81480491161346,-2.40377855300903,-3.22020125389099,-0.11545353382826,-0.12339477986097,-0.1924225538969,-0.03222314268351,-0.08353582024574,0.03130684420466,1.30005156993866,1.52989482879639,1.59693253040314,8.59787750244141,8.81814384460449,8.91391181945801,SWING_RIGHT
0.06696610152721,-0.17127133905888,-0.35819610953331,3.71101260185242,3.25611424446106,3.31118106842041,0.13377949595451,0.06780604273081,-0.22907446324825,0.24877487123013,0.07040221989155,0.12721268832684,-1.25695586204529,-1.27610945701599,-1.21386027336121,9.03362274169922,8.94024848937988,9.71597003936768,-1.33863484859467,-2.43391609191895,-4.25857067108154,11.9665193557739,15.790358543396,19.7383975982666,0.68477994203568,0.71349060535431,0.94745200872421,1.00197172164917,1.53037011623383,4.03186321258545,-0.77332717180252,-5.69610500335693,-14.6576023101807,12.7566061019897,14.7153625488281,13.7549877166748,-14.8906803131104,-15.3567705154419,-13.3971147537231,24.0024700164795,12.363956451416,-9.17966842651367,2.3469443321228,2.14719128608704,1.69515109062195,-4.34798622131348,-0.15745051205158,2.17361116409302,-26.6938533782959,-20.485387802124,-16.051326751709,14.914080619812,15.9244337081909,3.05978965759277,-0.2769510447979,0.44020476937294,1.22822093963623,-13.6544313430786,-11.5786590576172,-8.9953145980835,-0.28466320037842,-0.35308012366295,-0.18814650177956,-0.72250086069107,-0.49525898694992,-0.06276640295982,1.61848032474518,2.08534979820251,1.70467162132263,7.05122327804565,9.01446914672852,8.98573780059814,0.7395287156105,0.75480037927628,0.82688248157501,-3.5003228187561,-3.7732617855072,-3.08612608909607,-0.31703907251358,-0.35430184006691,-0.27366763353348,0.1003346145153,0.2170098721981,0.12415836006403,1.03668928146362,0.98401689529419,0.98162269592285,9.21797561645508,9.36162757873535,9.61062526702881,SWING_RIGHT
0.62041002511978,0.33513593673706,-0.06498079001904,3.59848523139954,4.23773717880249,4.98023891448975,-0.28710666298866,-0.129503428936,0.10445795953274,0.09911288321018,-0.33704489469528,-0.79641556739807,0.61291563510895,0.03830722719431,-0.96965169906616,10.4150762557983,10.6784391403198,11.2913541793823,-2.25187826156616,-2.59762811660767,-3.9170970916748,10.1756563186646,14.5953531265259,20.6673469543457,0.49907690286636,1.02075576782227,1.68171203136444,2.28051257133484,3.05936574935913,3.81073021888733,1.47961664199829,-5.32021522521973,-15.6060056686401,13.8842744827271,11.6887922286987,7.1110782623291,-13.4343776702881,-12.5101385116577,-10.0477409362793,11.0495405197144,-1.2641384601593,-14.2865009307861,0.96211278438568,1.47401785850525,1.58519530296326,-1.66384422779083,0.37461310625076,0.52855116128922,-16.0537204742432,-13.6496429443359,-10.1876277923584,17.1933612823486,12.90025806427,9.40951156616211,-1.08695828914642,-0.57810759544373,-0.07047858089209,-9.03122806549072,-8.11664295196533,-8.11664295196533,0.16798794269562,0.15088371932507,0.2229658216238,-0.08659014850855,-0.20998492836952,-0.12079860270023,-0.75896191596985,0.53390699625015,1.18273568153381,7.64977359771729,8.38958168029785,8.20044040679932,0.54283010959625,0.44753515720367,0.41332671046257,-3.61045622825623,-3.42849683761597,-3.44765043258667,-0.18875735998154,-0.22235494852066,-0.26878070831299,-0.3144428730011,-0.05726861581206,0.07345654815435,1.20188927650452,0.96007490158081,0.87388360500336,9.48373222351074,9.34008026123047,9.22037029266357,SWING_RIGHT
0.32597297430038,0.25389087200165,0.12866349518299,3.31596946716309,3.59848523139954,3.7732617855072,-0.16982053220272,-0.25106561183929,-0.40683624148369,-0.27107146382332,-0.4531092941761,-0.58627790212631,0.49081134796143,0.15322890877724,-0.56024318933487,8.95940208435059,8.79899024963379,9.65611457824707,-0.93668550252914,-1.42415595054626,-2.57624793052673,10.0942535400391,12.7853364944458,15.9364051818848,-0.43982297182083,-0.25595253705978,-0.22907446324825,2.46377229690552,2.27868008613586,1.5700763463974,1.35511815547943,0.18435353040695,-4.45560932159424,9.63935565948486,8.07594203948975,7.52766942977905,-11.3739290237427,-13.2517290115356,-14.0238628387451,21.332935333252,16.5828399658203,8.47337913513184,1.82098925113678,1.3756685256958,0.34147366881371,0.42714753746986,1.60550653934479,1.52242887020111,-27.2804317474365,-20.9115562438965,-15.3953151702881,11.5642938613892,7.94665479660034,7.4678144454956,-3.66664218902588,-2.37954926490784,-1.06252372264862,-12.7589998245239,-12.5507049560547,-12.0359516143799,0.51190507411957,0.44470989704132,0.22907446324825,0.15103642642498,-0.13545936346054,-0.10858129709959,-5.99777460098267,-3.22977805137634,-1.09654438495636,7.80779123306274,7.46302604675293,7.14459705352783,1.68148291110992,1.47501051425934,1.36627650260925,-2.97599267959595,-2.82036972045898,-2.70784211158752,-0.28221973776817,-0.41416662931442,-0.463035851717,-0.3144428730011,-0.30405816435814,-0.1763873398304,1.2258312702179,1.5753847360611,1.7788919210434,7.97059679031372,8.82053852081299,9.36162757873535,SWING_RIGHT
0.48418706655502,0.30947959423065,0.14943291246891,4.43166732788086,4.45082092285156,4.51546430587769,-0.28344148397446,-0.45142942667007,-0.59742623567581,0.06612616032362,0.0954476967454,0.085673853755,0.11252748221159,-0.02154781483114,-0.28490999341011,8.74152946472168,8.63857936859131,8.85884571075439,-0.82184284925461,-1.24639415740967,-1.5878678560257,7.70244598388672,9.4717607498169,12.5387334823608,0.0,-0.26511552929878,-0.55527651309967,0.74052137136459,1.85535049438477,3.43382620811462,1.52510643005371,4.14675712585449,-0.39025488495827,11.118971824646,10.858003616333,11.6026010513306,-11.3904228210449,-14.3769426345825,-15.8589019775391,28.4559841156006,24.1197872161865,14.1404542922974,3.73360848426819,2.70735478401184,1.65483391284943,0.78694713115692,-2.76217985153198,-1.09268522262573,-38.2892723083496,-26.8375053405762,-17.315465927124,1.85311210155487,11.3847284317017,14.2721357345581,-2.75462055206299,-1.29159820079803,-0.81329071521759,-16.652271270752,-10.6568908691406,-8.65773296356201,0.86132001876831,0.84910267591476,0.42271876335144,0.09972374886274,-0.13668109476566,-0.25763240456581,-4.26407337188721,-1.58974993228912,0.75656771659851,8.66012668609619,6.74237108230591,6.9722146987915,1.00097906589508,0.83909976482391,0.53855407238007,-2.30082774162292,-1.25935006141663,-1.42215585708618,-0.09285151958466,0.03970624133945,0.0500909499824,-0.00351247517392,-0.02244929783046,-0.00290160998702,2.16435837745667,1.97761058807373,1.44609785079956,9.38796424865723,9.30895519256592,9.14136123657227,SWING_RIGHT
0.42798745632172,0.21296289563179,0.07307475805283,3.85227060317993,3.82832860946655,3.74692559242249,-0.0372627787292,-0.01466076634824,0.07696902006865,0.39782598614693,0.52916198968887,0.63178735971451,-0.74699091911316,-0.99359369277954,-0.43335050344467,10.1900215148926,10.3001546859741,10.5563344955444,-0.32398766279221,-0.77724969387054,-1.52433788776398,7.85806941986084,10.7813892364502,14.1213006973267,0.71410149335861,1.18630027770996,1.34268176555634,2.77042651176453,2.4436137676239,1.74234044551849,0.90261405706406,1.97521638870239,-1.35511815547943,11.8085021972656,10.503662109375,10.5204219818115,-12.0263328552246,-14.3390693664551,-15.3146209716797,23.9689521789551,19.1566066741943,10.0415811538696,4.49902248382568,4.28705215454102,2.7146852016449,-2.18857741355896,-4.23008918762207,-2.34007215499878,-33.253963470459,-23.906702041626,-14.7416982650757,12.2059392929077,14.0351095199585,12.7278757095337,-1.91529166698456,-1.35879337787628,-1.34168910980225,-11.8396263122559,-7.5372462272644,-8.75350093841553,0.7916813492775,0.86376345157623,0.31948253512383,0.256716132164,-0.16905695199966,-0.20631973445415,-3.46680402755737,-1.47243404388428,0.35434186458588,9.06474685668945,6.1198787689209,5.88764142990112,1.00281167030334,1.03946352005005,0.95210981369019,-3.28963303565979,-2.32716393470764,-2.03507137298584,-0.49235737323761,-0.50457471609116,-0.49113565683365,-0.04260785132647,-0.09086620807648,0.04230241850019,2.18351197242737,2.00155258178711,2.00155258178711,8.00172138214111,8.72237586975098,8.72237586975098,SWING_RIGHT
0.14576771855354,-0.05337435007095,-0.23785565793514,4.14196872711182,4.58729028701782,5.3968300819397,-0.0226020142436,0.0372627787292,0.09407325088978,0.5639813542366,0.83948159217834,0.85719662904739,-0.45489832758904,-0.58897364139557,-0.77093297243118,10.3743753433228,9.8284969329834,9.06474685668945,-2.09671854972839,-3.07837915420532,-4.41189765930176,10.7598419189453,13.4054346084595,16.2524394989014,-0.18509216606617,-0.08918632566929,0.21258109807968,0.81932300329208,1.92804348468781,2.97445559501648,0.33997663855553,-2.10450339317322,-7.26430702209473,11.8755397796631,11.585841178894,8.85166263580322,-12.4618797302246,-13.5797634124756,-12.3629198074341,14.0446863174438,5.54287624359131,-9.16051483154297,2.32739663124084,0.10812314599752,-1.77822875976563,-5.15799331665039,-2.21179032325745,1.3800972700119,-20.107105255127,-13.0223627090454,-9.26107120513916,10.2714242935181,12.7805480957031,12.0742588043213,0.05780312418938,0.26977336406708,0.25328001379967,-9.10544872283936,-6.05284118652344,-5.61470222473145,0.47952923178673,0.58032196760178,0.24007004499435,-0.30833423137665,-0.24419337511063,0.29520061612129,-2.03985977172852,-0.84036481380463,0.1963245421648,10.9010992050171,9.81413173675537,9.15812110900879,1.24837946891785,1.10055005550385,0.81955206394196,-1.14442837238312,-0.7182605266571,-0.89064306020737,0.16126842796803,0.13988813757896,0.03665191307664,-0.1586722433567,0.05085453018546,0.29336804151535,1.19231247901917,0.87148940563202,0.86430680751801,9.81173801422119,9.6920280456543,9.56274127960205,SWING_RIGHT
-0.16821701824665,-0.40767619013786,-0.6477462053299,3.40455484390259,3.50271701812744,3.62721562385559,-0.0299323964864,-0.09224065393209,-0.1276708394289,0.28359419107437,0.40026944875717,0.25732699036598,-0.16759411990643,-0.39025488495827,-0.4955997467041,9.82610321044922,9.47654914855957,9.55555820465088,-1.83893346786499,-2.53104376792908,-3.49437832832336,7.96580839157104,10.6760444641113,13.8675155639648,-0.01282817032188,0.40561452507973,1.47279608249664,2.37030982971191,4.4014368057251,6.52480459213257,-0.13168109953403,-4.7907977104187,-13.6999216079712,13.8890628814697,13.0750350952148,5.74638319015503,-13.6823892593384,-13.6115283966064,-10.8595809936523,14.9475994110107,2.09971499443054,-17.2987060546875,1.72141826152802,1.4489723443985,0.64568454027176,-3.82875061035156,0.80038619041443,0.56764650344849,-16.9611225128174,-12.8427972793579,-10.4629602432251,20.6625595092773,11.3224792480469,5.79187297821045,0.19463694095612,0.71203982830048,1.28197705745697,-8.15255641937256,-6.70166969299316,-4.19224739074707,0.55222219228745,0.37079519033432,0.19486601650715,-0.72738778591156,-0.46899178624153,-0.2087631970644,0.85473001003265,1.56101953983307,1.64002811908722,8.94503688812256,8.76068305969238,8.5811185836792,0.84826272726059,0.70532029867172,0.57887119054794,-0.58657944202423,-0.73980832099915,-0.81881695985794,0.00366519158706,-0.08124507963657,-0.18631389737129,0.11316278576851,0.21273382008076,0.26404649019241,1.34314715862274,1.28568625450134,1.47482824325562,9.38078117370606,9.16290950775146,9.2155818939209,SWING_RIGHT
-0.86887943744659,-1.0533607006073,-1.28732216358185,3.90015459060669,4.23773717880249,4.55616569519043,-0.26450464129448,-0.38423424959183,-0.41416662931442,-0.01023199316114,0.14920383691788,0.26282477378845,-0.02873042039573,0.02154781483114,0.16998831927776,9.17966842651367,9.48373222351074,9.25149440765381,-2.7747790813446,-3.74849820137024,-5.4515905380249,9.60104846954346,12.914623260498,15.8526077270508,-0.86132001876831,-0.44898596405983,0.64568454027176,1.33489322662354,3.26706004142761,4.59385919570923,-1.50116443634033,-5.98580360412598,-12.8260374069214,14.2625589370728,14.6863327026367,9.85483360290527,-11.384313583374,-10.281702041626,-9.05752849578857,4.00071096420288,-3.34469985961914,-13.869909286499,0.08979719132185,-0.48991394042969,-0.49602258205414,0.43997567892075,2.22553491592407,1.45950973033905,-15.2301158905029,-11.4158525466919,-8.57393550872803,10.6233720779419,7.67132139205933,7.73117637634277,-0.32398766279221,0.30092748999596,0.87025392055511,-9.81413173675537,-8.25550651550293,-6.24437713623047,0.32314771413803,0.01588249579072,-0.26572638750076,-0.5361869931221,-0.74510288238525,-0.68523806333542,-0.95768070220947,0.13168109953403,1.11330378055573,6.46464395523071,7.21163463592529,8.69604015350342,1.00097906589508,0.63507080078125,0.44936773180962,-0.68953007459641,-1.28089785575867,-1.8674772977829,-0.00733038317412,-0.0372627787292,-0.10629054903984,-0.21670444309711,-0.20754146575928,-0.18860463798046,0.60812723636627,0.45729252696037,0.59855043888092,9.70160484313965,9.52203941345215,9.66329765319824,SWING_RIGHT
0.12499830126762,-0.03138320147991,-0.18837557733059,3.665522813797,3.47877502441406,3.22498965263367,0.06352998316288,0.04642575979233,-0.0299323964864,0.31169399619102,0.18952094018459,0.13026700913906,0.27054479718208,0.07182604819536,-0.06943184882402,9.27064800262451,9.04319953918457,8.95940208435059,-0.77175188064575,-0.87804245948792,-1.10711693763733,4.13718032836914,5.32739782333374,7.21402883529663,-0.27000242471695,-0.24129177629948,-0.23396138846874,0.19868391752243,0.45402559638023,0.85414230823517,0.6703764796257,1.3407529592514,1.68072962760925,9.56752967834473,9.8691987991333,8.82053852081299,-4.99710655212402,-9.90113258361816,-12.5474014282227,20.5045413970947,23.5882740020752,18.0313320159912,1.21745443344116,2.29196643829346,1.54243469238281,5.14608144760132,2.49859166145325,-1.61069893836975,-27.0434055328369,-27.6036491394043,-22.1062622070313,4.85065269470215,-0.76614451408386,4.3454761505127,-6.21150684356689,-4.1589994430542,-2.59029769897461,-14.6145067214966,-13.8723039627075,-10.4150762557983,0.52473324537277,0.44043383002281,0.29749137163162,0.66171979904175,-0.08231408894062,-0.06032294407487,-7.66653299331665,-6.03608179092407,-4.40772533416748,7.56358242034912,8.31296730041504,8.52365779876709,-0.25618159770966,0.16042847931385,0.45669811964035,-6.27550172805786,-5.45189666748047,-4.23055458068848,-0.05742133408785,-0.05681046843529,0.04276056587696,-0.15561792254448,-0.37675115466118,-0.48792862892151,-0.13168109953403,0.01436521019787,0.14844051003456,8.13340282440186,8.88518142700195,9.5316162109375,SWING_RIGHT
-0.11995866149664,-0.33803755044937,-0.63491809368134,4.53222370147705,4.69024133682251,5.31542682647705,0.0274889357388,0.06291911751032,-0.01282817032188,0.7228062748909,0.72769320011139,1.02090859413147,0.20350714027882,0.11731588095427,-0.01436521019787,9.93384170532227,10.0966482162476,9.5723180770874,-2.36305594444275,-3.03867268562317,-4.18343448638916,9.35205078125,12.2394580841064,16.5636863708496,-0.69821900129318,-0.49663344025612,0.4202753007412,1.64826714992523,3.34097480773926,4.97198486328125,-0.05985504388809,-5.73441219329834,-12.6775970458984,13.1085538864136,13.7478055953979,10.0224275588989,-12.6402530670166,-12.783805847168,-11.3268928527832,12.9122285842896,3.98155736923218,-9.96257209777832,1.94866013526917,1.45447015762329,0.8472700715065,-4.24475002288818,-0.7994698882103,1.40453195571899,-19.0775985717773,-12.7757596969604,-10.8795518875122,14.9092922210693,14.4325475692749,6.21804094314575,-1.40094304084778,-0.9983828663826,-0.54512089490891,-12.6464729309082,-7.40317106246948,-7.21163463592529,0.66401052474976,0.59070670604706,0.32192599773407,-0.2631302177906,-0.57772582769394,-0.37186422944069,-3.45243883132935,-0.80445176362991,0.09337386488914,9.62977886199951,8.15255641937256,7.88201141357422,0.80428045988083,0.74258303642273,0.63995772600174,-2.36786556243896,-2.02310037612915,-1.76452660560608,-0.32375857234001,-0.27916541695595,-0.20586158335209,-0.16844609379768,-0.0340557359159,0.005039638374,0.57700258493423,0.33518823981285,-0.08858546614647,9.84525680541992,10.1134071350098,9.88356399536133,SWING_RIGHT
0.35162931680679,0.15676330029964,-0.04054617881775,3.99113416671753,4.0270471572876,3.93127918243408,0.07147123664618,0.11117747426033,0.09896016865969,0.19135354459286,0.20173825323582,0.15897768735886,0.39025488495827,0.39504328370094,0.35434186458588,9.92187118530273,9.48852062225342,9.05995845794678,-0.82428628206253,-1.02403926849365,-1.22623562812805,3.78762698173523,4.04859495162964,4.2760443687439,-0.34269541501999,-0.44043383002281,-0.49968776106834,-0.19165897369385,-0.2503020465374,-0.52763485908508,-0.05985504388809,-0.2777273952961,-1.14921677112579,7.94186639785767,7.64977359771729,7.17093324661255,-1.9201785326004,-2.12237501144409,-3.00385355949402,9.36881065368652,15.1415300369263,22.5348243713379,-1.1979067325592,-0.8778133392334,1.54732167720795,0.72402805089951,3.57676863670349,7.85649061203003,3.25132584571838,-3.11246228218079,-25.1352272033691,17.2651863098145,16.1470947265625,0.49081134796143,-13.5925912857056,-10.769172668457,-6.81687450408936,-1.85550630092621,-14.736909866333,-19.068021774292,-1.70370316505432,-0.82527893781662,0.06719517707825,0.69409561157227,1.8779524564743,0.79427754878998,-11.3703632354736,-10.2738189697266,-9.00010299682617,12.9361715316772,10.3360681533813,8.88996982574463,-1.07718455791473,-0.5133558511734,0.17814357578754,-8.90194129943848,-8.60745429992676,-7.41514205932617,0.25228735804558,0.00244346098043,-0.03543018549681,-0.5178610086441,-0.52213704586029,-0.50381112098694,-2.36068296432495,-1.32878196239471,-0.57700258493423,7.55161142349243,8.39437007904053,9.11263084411621,SWING_RIGHT
1.56297504901886,1.4212543964386,1.23555135726929,3.45962142944336,3.94325017929077,4.5920786857605,-0.1362229436636,-0.21624629199505,-0.26755899190903,-0.21365012228489,-0.05910121276975,0.08017606288195,1.18752408027649,1.2641384601593,1.01514148712158,9.7087869644165,9.64174938201904,9.63935565948486,-0.86521428823471,-1.37711930274963,-1.86947667598724,7.86764621734619,8.78941345214844,9.967360496521,0.03481931984425,0.21930062770844,0.01954768784344,0.17974710464478,0.85108798742294,0.84803366661072,-0.16519992053509,1.4293384552002,2.96402168273926,11.7534351348877,9.967360496521,8.88039302825928,-7.08504438400269,-10.4185361862183,-12.8076295852661,21.6609420776367,21.0049304962158,15.2061738967896,1.14659404754639,0.15515977144241,-0.80328780412674,1.00013911724091,-0.79152864217758,-1.12750446796417,-26.9117240905762,-21.5412311553955,-14.835072517395,0.65601128339767,4.56574249267578,14.8446493148804,-4.34836769104004,-2.38810133934021,-1.042365193367,-16.951545715332,-13.4150114059448,-11.4158525466919,0.25411993265152,-0.06841690838337,-0.41661009192467,-0.19349156320095,-0.03100141137838,-0.0566577501595,-5.77511358261108,-3.08133769035339,-0.80684596300125,8.08791255950928,7.42232465744019,8.39197635650635,1.65765917301178,1.39376544952393,1.0223593711853,-1.68551802635193,-0.54827219247818,-0.81163436174393,0.11117747426033,0.26450464129448,0.22479841113091,-0.18371772766113,-0.07681630551815,0.08384125679731,0.90021985769272,0.48841714859009,0.45729252696037,11.0854530334473,10.3552217483521,9.45260715484619,SWING_RIGHT
0.74197220802307,0.61918830871582,0.45181119441986,3.84029960632324,4.06296014785767,4.45560932159424,-0.04337143152952,0.05314527451992,0.17409659922123,0.09178250283003,-0.07315111160278,-0.19532416760921,0.3016694188118,0.42616790533066,0.08858546614647,9.17248630523682,9.18685150146484,8.83969211578369,-0.57322067022324,-1.16087305545807,-2.17307686805725,10.7861776351929,14.5402860641479,18.8046588897705,-1.22600650787354,-0.76419240236282,-0.020158553496,2.60488224029541,3.40328288078308,3.37335062026978,2.98796367645264,0.66079968214035,-5.12628507614136,11.8994817733765,11.5451402664185,9.25628280639648,-12.7007284164429,-14.6603841781616,-14.9193906784058,22.7694568634033,16.7025489807129,0.56263738870621,1.80877196788788,1.34268176555634,0.66095620393753,-2.35839796066284,-0.50686544179916,1.56580030918121,-30.6275253295898,-21.3042049407959,-15.4096803665161,13.4844436645508,14.7321214675903,7.944260597229,-1.49135112762451,0.60452753305435,1.2233339548111,-14.8542261123657,-8.51168632507324,-6.12466716766357,0.87964594364166,0.46181413531303,0.18753562867641,-0.69317930936813,-0.5172501206398,-0.29917123913765,-0.12928688526154,1.15639936923981,1.34554135799408,6.74955368041992,7.11347246170044,7.53964042663574,1.00220084190369,0.9172905087471,0.9050732254982,-2.22181916236877,-2.51391172409058,-2.27688574790955,-0.02871066704392,0.020158553496,0.06780604273081,-0.34437528252602,-0.31016683578491,-0.2631302177906,0.9911994934082,0.8164227604866,0.9241618514061,9.62738418579102,9.78540134429932,9.8308916091919,SWING_RIGHT
1.2422708272934,1.17751908302307,1.0278571844101,3.18668246269226,3.67509961128235,4.17309379577637,-0.15393804013729,-0.12156218290329,0.01221730466932,0.42103886604309,0.49312096834183,0.41309762001038,1.06541979312897,0.51235914230347,0.13407529890537,9.54119300842285,9.44063663482666,9.32332038879394,-0.30077478289604,-0.46876272559166,-0.90797483921051,6.38563537597656,8.20762252807617,10.9681367874146,-0.60903263092041,-0.16798794269562,0.5711590051651,0.75273871421814,0.89934635162354,1.11376011371613,2.01112937927246,2.70065951347351,1.65199911594391,12.1987571716309,14.2050981521606,14.5785932540894,-11.8143625259399,-13.8241100311279,-13.6017541885376,21.4287033081055,14.4660663604736,-0.85473001003265,1.34695792198181,1.14292883872986,0.79656827449799,-3.37182354927063,1.11681437492371,0.69959342479706,-24.1604881286621,-12.9816608428955,-9.77821922302246,13.4221935272217,10.601824760437,9.0384111404419,-1.77784693241119,-1.16942512989044,-0.34292447566986,-9.48373222351074,-9.35205078125,-8.79899024963379,0.70432764291763,0.17104226350784,-0.12156218290329,-0.33399057388306,-0.3236058652401,-0.13484850525856,-1.43173265457153,0.31603461503983,0.83078801631927,5.98580360412598,7.24515342712402,8.01608657836914,0.82566076517105,0.6967681646347,0.70348769426346,-2.08056116104126,-2.50672912597656,-2.57616114616394,-0.26572638750076,-0.29688051342964,-0.30970868468285,-0.05115996301174,-0.00534507073462,-0.0920879393816,0.5243301987648,0.43095630407333,0.46208092570305,9.01207447052002,9.0168628692627,9.29937839508057,SWING_RIGHT
0.17264579236507,0.04375322163105,-0.03749185428023,3.66791701316834,4.01028776168823,4.88417148590088,-0.0824668109417,-0.19120082259178,-0.20097467303276,-0.31871894001961,0.0062613687478,0.32268956303596,0.58897364139557,1.0414776802063,1.71664261817932,9.22276401519775,9.43105983734131,9.75427722930908,-1.70148873329163,-2.98186230659485,-5.33919143676758,13.9106111526489,19.1661834716797,23.0902805328369,-0.88270026445389,-0.71226888895035,0.04886921867728,2.58228015899658,3.30554461479187,4.93533325195313,-1.92254400253296,-7.18290424346924,-16.5541095733643,9.71836376190186,10.9753198623657,6.68251609802246,-13.5596046447754,-13.4618663787842,-11.5889539718628,13.7645645141602,1.73100781440735,-11.2195281982422,0.49296826124191,0.61697387695313,0.70982539653778,-0.83551090955734,1.41919267177582,0.55359661579132,-21.6154518127441,-18.4551048278809,-14.7105741500854,15.6467065811157,10.3624038696289,8.5188684463501,-0.4889212846756,0.50678908824921,1.1689670085907,-12.5076093673706,-9.46457862854004,-6.92911911010742,0.61941736936569,0.29993483424187,-0.00122173049022,-0.61559945344925,-0.48731774091721,-0.3975205719471,-0.9433154463768,0.37588965892792,0.70389527082443,7.13262605667114,7.14459705352783,7.676109790802,1.1567497253418,1.14697587490082,1.1500301361084,-2.22900176048279,-2.19069457054138,-1.78368031978607,-0.3249803185463,-0.25228735804558,-0.11301007121801,-0.07315111160278,-0.07315111160278,-0.24480424821377,0.39264908432961,0.50757074356079,0.46447512507439,9.69442176818848,9.66808605194092,9.56992340087891,SWING_RIGHT
3.34120392799377,3.06326007843018,2.74866461753845,1.64242231845856,2.2361843585968,2.94007968902588,-0.18325957655907,-0.18936823308468,-0.10995574295521,-0.48609602451324,-0.24785856902599,-0.13545936346054,0.64882868528366,0.90021985769272,1.05344879627228,10.163685798645,10.5276041030884,10.0966482162476,1.22394490242004,0.88247120380402,0.63323819637299,4.22097778320313,3.98395156860352,4.18985319137573,0.02687807008624,-0.23090706765652,-0.31642818450928,-0.21548271179199,0.34406983852386,0.29031372070313,0.3256114423275,0.32800564169884,0.44053310155869,10.1301670074463,9.70639324188232,9.25867748260498,-0.6483570933342,-1.11322557926178,-2.70880556106567,6.90757131576538,9.73272895812988,23.6792526245117,-0.98899084329605,-1.62367987632751,-0.38240164518356,-0.22586742043495,3.26217317581177,5.56818962097168,1.4293384552002,-4.67587614059448,-12.9553251266479,12.7709712982178,14.7201509475708,11.2386817932129,-12.6317005157471,-12.8088512420654,-11.8913316726685,16.6331176757813,8.28663158416748,-3.14358687400818,0.36651915311813,0.31154128909111,0.50946164131165,-1.205695271492,1.21699631214142,2.89687561988831,-21.9314861297607,-17.3010997772217,-15.7783880233765,13.3551559448242,13.4628953933716,5.80623817443848,-3.03378582000732,-1.47852301597595,-0.22502748668194,-14.3990278244019,-12.8284320831299,-10.2857894897461,0.76358157396317,0.74525558948517,0.58459806442261,-0.19837848842144,-0.53007829189301,-0.57467150688171,-4.29280376434326,-2.17393517494202,-0.93613284826279,7.62583160400391,7.30022048950195,7.00812768936157,SWING_RIGHT
0.3681226670742,0.20379991829395,-0.02649627998471,3.1699230670929,3.59369683265686,3.9384617805481,-0.21074850857258,-0.15699236094952,-0.12828169763088,0.00076358154183,-0.27229318022728,-0.57406061887741,0.24420857429504,-0.27054479718208,-0.77093297243118,9.29458999633789,9.14614963531494,9.42866516113281,-1.09978652000427,-1.53777694702148,-2.8957302570343,10.1181955337524,15.859790802002,23.5715141296387,-0.1777617931366,-0.22113321721554,0.47342056035995,2.57739329338074,4.57064628601074,6.4026312828064,3.39497804641724,-4.04141235351563,-16.7504329681396,12.6033773422241,10.858003616333,7.13980865478516,-15.319507598877,-15.1967239379883,-12.4386672973633,20.8732490539551,5.6937108039856,-13.855544090271,1.84481298923492,1.51983273029327,0.59009581804276,-1.09329605102539,2.48148727416992,1.08382761478424,-20.6984729766846,-17.23166847229,-13.8268136978149,22.0009174346924,5.49259805679321,5.94031381607056,-1.58664608001709,-0.71127623319626,0.27221682667732,-10.8220911026001,-10.2474822998047,-8.5595703125,0.68661254644394,0.40194934606552,-0.01099557429552,-0.64064490795135,-0.79641556739807,-0.5661193728447,-1.95366859436035,-0.35434186458588,0.38067805767059,7.72399377822876,7.63540840148926,7.81497383117676,1.73951518535614,1.37055253982544,0.93011868000031,-0.50517654418945,-0.41419690847397,-1.41257905960083,-0.2425135076046,-0.20952677726746,-0.33108896017075,-0.11835514008999,-0.12324206531048,0.19929479062557,1.36708915233612,1.11569797992706,1.00077629089355,9.46457862854004,9.68484497070312,9.77582454681396,SWING_RIGHT
0.4072180390358,0.28932106494904,0.23251058161259,1.60172092914581,1.50595283508301,1.4867992401123,-0.05375614017248,-0.05558873713017,-0.13377949595451,-0.1586722433567,-0.16050484776497,-0.06582073122263,0.85473001003265,0.82360535860062,0.89064306020737,9.61541366577148,9.39754104614258,9.34726238250732,0.07612907886505,0.00404698215425,-0.14439326524734,2.24815535545349,2.90895509719849,3.85705900192261,-0.24984388053417,-0.32803463935852,-0.4025602042675,0.04291328415275,0.22128593921661,0.10583240538836,2.01831197738647,1.9943699836731,1.52750062942505,9.23712921142578,9.0551700592041,8.62660789489746,-2.27264785766602,-3.33738589286804,-5.55849170684814,13.417405128479,19.7838878631592,26.3347225189209,-0.4978551864624,0.92057394981384,2.11053943634033,2.01234292984009,7.59320783615112,5.65981912612915,-3.49074602127075,-19.7192440032959,-25.4440784454346,17.6937484741211,4.00310516357422,-4.58729028701782,-12.6335334777832,-10.4234228134155,-7.33061218261719,-1.03668928146362,-14.9045038223267,-20.8205757141113,2.01402282714844,1.62551236152649,1.12032687664032,1.84252226352692,-0.90514957904816,-0.96562522649765,-16.1734313964844,-13.2713594436646,-10.3097314834595,2.07816696166992,4.98263311386108,7.61864900588989,-0.3197115957737,0.51961725950241,1.06206560134888,-9.76624774932861,-8.1046724319458,-5.74159479141235,0.13561208546162,0.06047565862536,-0.07147123664618,-0.92714071273804,-0.72922039031982,-0.59849524497986,-0.8930372595787,0.06224924325943,0.36391866207123,8.91870021820068,8.65054988861084,8.5811185836792,SWING_RIGHT
0.59964060783386,0.49273917078972,0.299705773592,2.81079268455505,3.33033466339111,4.00789356231689,-0.52167892456055,-0.63835418224335,-0.71593403816223,0.03680463135242,-0.02977968007326,-0.24480424821377,1.28568625450134,0.72304892539978,-0.31603461503983,8.82532691955566,8.8779993057251,8.62421417236328,-1.33802402019501,-1.81022274494171,-2.83891987800598,9.28501319885254,12.8811044692993,19.0488681793213,-1.04030346870422,-0.4324925839901,0.5283984541893,2.00867772102356,3.06669616699219,4.37822389602661,0.32321724295616,-3.81396341323853,-11.7247047424316,13.4724721908569,14.1524257659912,10.4126825332642,-12.591383934021,-13.2914352416992,-13.2279052734375,19.2715282440186,12.0838356018066,-0.37349545955658,1.94438409805298,1.69515109062195,0.93584555387497,-1.57038187980652,1.32511937618256,1.80953562259674,-24.7018775939941,-20.0448551177979,-15.9866828918457,17.1813907623291,11.8731451034546,5.7822961807251,-1.76746225357056,-0.75648027658463,-0.29283353686333,-13.0175743103027,-10.1660795211792,-9.47894382476807,0.32681289315224,0.40500366687775,0.12339477986097,0.51022517681122,-0.03955352306366,-0.29489520192146,-2.54264211654663,-1.68551802635193,-0.56263738870621,7.20445203781128,6.28268432617188,6.55322933197021,1.44629979133606,1.43163907527924,1.27159237861633,-3.78523278236389,-3.08852028846741,-2.93050289154053,-0.62308257818222,-0.42882740497589,-0.24129177629948,0.12232576310635,-0.24724771082401,-0.45616361498833,0.88585460186005,0.7182605266571,0.71107792854309,8.80856704711914,9.23712921142578,9.78779602050781,SWING_RIGHT
0.30947959423065,0.22273674607277,0.14271339774132,2.30082774162292,2.42772054672241,2.70784211158752,-0.22663100063801,-0.31337386369705,-0.37995818257332,-0.21120665967464,-0.56123244762421,-0.59727346897125,0.55066639184952,-0.22266076505184,-0.91219085454941,9.18685150146484,9.23952388763428,9.42148303985596,-0.58421623706818,-0.58238363265991,-0.5322927236557,6.25634813308716,8.96179580688477,12.0359516143799,0.08368854224682,-0.17043140530586,-0.24984388053417,0.17852537333965,2.16872429847717,3.89564037322998,1.69509482383728,4.79319190979004,3.61763882637024,12.7901248931885,12.9265937805176,12.1508731842041,-10.2255020141602,-13.160099029541,-14.6793212890625,22.7526969909668,18.5197486877441,10.0750999450684,2.83685827255249,1.09222710132599,0.3720169365406,-0.16844609379768,-3.0602822303772,-1.28938376903534,-33.730411529541,-24.1748523712158,-15.6945905685425,-2.73417830467224,6.82377433776855,16.8126831054688,-3.1412980556488,-1.47180342674255,-0.82306456565857,-17.832612991333,-12.3807163238525,-9.60104846954346,0.5400048494339,0.62430429458618,0.50274211168289,0.38072177767754,0.14859296381474,-0.0713185146451,-5.822998046875,-3.30399823188782,-1.03429508209229,8.46380233764648,7.43908405303955,6.97700309753418,1.30518996715546,1.25265550613403,0.98998349905014,-4.12042093276978,-2.75093770027161,-2.53785371780396,-0.24740041792393,-0.18325957655907,-0.13866640627384,-0.06032294407487,-0.3150537610054,-0.48915034532547,0.3687070608139,0.08858546614647,0.1268926858902,8.58351230621338,8.93306541442871,9.50767421722412,SWING_RIGHT
0.25266912579536,0.16836974024773,0.04680754989386,3.92888498306274,4.35026454925537,5.16938066482544,-0.09957103431225,-0.20830504596233,-0.17531833052635,0.35873061418533,0.76556688547134,0.67821311950684,0.59376204013824,1.25695586204529,1.54186594486237,10.000880241394,9.46697235107422,8.93067169189453,-2.22072434425354,-3.44184374809265,-4.7570366859436,12.7757596969604,16.1901912689209,19.6569938659668,-0.76602500677109,-0.3591887652874,0.57604593038559,1.34405624866486,3.0935742855072,3.86998414993286,-2.4899697303772,-8.04721164703369,-17.2556095123291,14.293683052063,13.3192434310913,10.2953662872314,-12.5138034820557,-11.968300819397,-10.9713687896729,10.2522706985474,1.67833542823792,-5.7822961807251,2.9168815612793,1.72935950756073,0.43127086758614,-1.95400524139404,0.19929479062557,1.63604986667633,-21.6250286102295,-18.5389022827148,-14.8781681060791,11.6792154312134,9.52203941345215,7.52288103103638,-1.83221399784088,-0.54573172330856,0.11522445827723,-15.7568397521973,-12.4357824325562,-9.86201572418213,0.94378679990768,0.51740288734436,-0.03543018549681,0.03375030308962,-0.22953261435032,-0.24724771082401,-1.62326872348785,-0.10295066982508,0.8930372595787,5.68413400650024,4.939537525177,6.02889919281006,1.16041493415833,1.11826515197754,1.00586593151093,-4.18267059326172,-3.65594601631165,-3.12443327903748,-0.46059238910675,-0.58276546001434,-0.6872233748436,-0.23258693516254,-0.03222314268351,0.08689557760954,1.49637603759766,1.27610945701599,1.1372457742691,8.21241092681885,8.44464874267578,8.69125175476074,SWING_RIGHT
-0.76136714220047,-1.33374786376953,-1.96538257598877,4.80276870727539,8.06875896453857,10.0487642288208,-0.06230825558305,-0.12095131725073,-0.15699236094952,1.23043537139893,1.0789407491684,0.28787025809288,1.41976165771484,-0.20590133965015,-2.51151752471924,8.76547145843506,6.8141975402832,5.69131660461426,-7.25669717788696,-8.24935340881348,-8.76981067657471,12.7159042358398,11.2482585906982,9.78061294555664,-1.24188899993896,-1.08978354930878,-0.72082096338272,1.33489322662354,2.78814172744751,4.17724943161011,-10.3767690658569,-10.2522706985474,-10.927435874939,10.573094367981,10.6329488754272,8.51647472381592,-8.96528720855713,-9.21146583557129,-7.78631734848022,0.04309562966228,-7.94665479660034,-18.354549407959,1.41170954704285,0.94012159109116,0.42699480056763,-0.63026022911072,0.38255435228348,0.77717328071594,-15.7592344284058,-12.1628437042236,-9.34247398376465,12.0694704055786,10.2259349822998,7.68568658828735,1.67354166507721,2.2679135799408,2.58861780166626,-10.6544971466064,-7.64019680023193,-5.67934560775757,0.24007004499435,0.00610865233466,-0.26633724570274,-0.53068917989731,-0.34865134954453,-0.19104810059071,-0.651222884655,0.29209262132645,0.92895025014877,6.85250473022461,6.78786087036133,6.94348430633545,2.37237143516541,2.05411076545715,1.66804385185242,-0.47884035110474,-0.05985504388809,-0.00718260509893,-0.44470989704132,-0.35735616087914,-0.26450464129448,0.0093156946823,-0.02306016348302,-0.03649919852614,1.49877023696899,1.27371525764465,0.98162269592285,9.88356399536133,10.1972045898438,10.5419692993164,SWING_RIGHT
1.61184430122375,1.53304266929626,1.37055253982544,1.90099620819092,2.3319525718689,2.66474652290344,-0.29199358820915,-0.36774086952209,-0.5100724697113,-0.1763873398304,-0.36819902062416,-0.7872526049614,0.3447650372982,-0.15801730751991,-0.56742578744888,9.36162757873535,8.45183086395264,8.8971529006958,0.62957298755646,0.23923009634018,-0.39912408590317,6.78067827224731,9.02883434295654,11.6145715713501,-0.27061331272125,0.16126842796803,0.57299160957336,1.15529894828796,1.45462286472321,1.71546232700348,2.01831197738647,1.92014980316162,0.72065472602844,13.0510931015015,12.737452507019,12.4956378936768,-8.87060356140137,-12.413010597229,-15.1050939559937,29.021017074585,27.6251964569092,20.7774810791016,3.94802212715149,3.4324517250061,0.96516710519791,2.49309372901917,0.40637809038162,-1.08474397659302,-35.0235786437988,-32.8349800109863,-22.8700122833252,3.19386506080627,-1.944091796875,3.99592256546021,-5.05208444595337,-2.05823397636414,-0.52801662683487,-25.7170181274414,-18.1127338409424,-11.8372325897217,0.3158173263073,0.51862460374832,0.41050145030022,0.22372940182686,-0.04321871697903,-0.15134187042713,-6.33296298980713,-3.45962142944336,-1.21386027336121,9.95060157775879,8.47337913513184,7.33852767944336,1.4579062461853,1.52387976646423,1.26853799819946,-4.41011953353882,-2.43250894546509,-1.8866308927536,-0.59131753444672,-0.54550266265869,-0.38179078698158,0.37950003147125,0.24633140861988,0.1522581577301,1.52031803131104,0.92176765203476,0.57221418619156,8.75589466094971,9.31853199005127,9.711181640625,SWING_RIGHT
0.02359466999769,0.09873109310865,0.13049608469009,1.19949507713318,1.3718775510788,1.84832370281219,-0.01832595653832,-0.16187928617001,-0.2461786866188,-0.07620543986559,-0.15317445993423,-0.37491855025291,0.44292730093002,-0.38546648621559,-0.70628952980042,9.51006889343262,9.22515869140625,9.09826564788818,-0.47914743423462,-1.27571570873261,-2.91161274909973,10.7406883239746,15.627552986145,20.6649532318115,-0.34636059403419,-0.14049901068211,0.35246923565865,1.19195079803467,2.4179573059082,3.40755915641785,0.54827219247818,-2.52109432220459,-9.0360164642334,13.4724721908569,12.6416845321655,10.242693901062,-14.4453592300415,-16.6469173431396,-16.1020259857178,27.0793190002441,17.4662990570068,-4.26167917251587,0.7177666425705,-0.40744712948799,0.47280970215797,-5.47136735916138,0.34956762194633,0.24633140861988,-31.0656642913818,-19.3313827514648,-10.9585599899292,17.4830589294434,21.6896724700928,13.077428817749,-0.11751519888639,0.8928559422493,2.15917944908142,-12.9792671203613,-10.9394063949585,-6.73758268356323,0.00733038317412,-0.28955012559891,-0.07330382615328,-0.16417004168034,0.22922718524933,0.56520307064056,1.18034148216248,2.79163908958435,2.0973207950592,6.75673627853394,10.2331171035767,9.54358768463135,1.18973636627197,1.4646258354187,1.78166484832764,-2.99754047393799,-3.11006808280945,-2.07577276229858,-0.10384709388018,-0.29199358820915,-0.30115658044815,0.12354749441147,0.42959097027779,0.56947910785675,1.3910311460495,1.95606279373169,2.05422496795654,8.97376728057861,9.45021343231201,9.55555820465088,SWING_RIGHT
0.3766747713089,0.29848402738571,0.299705773592,2.7126305103302,2.44926834106445,2.7317841053009,-0.2981022298336,-0.35552358627319,-0.56199604272842,-0.21487185359001,-0.13912455737591,-0.12935072183609,0.18674772977829,0.43813890218735,0.48841714859009,9.9889087677002,9.25149440765381,8.70801067352295,-1.28365695476532,-1.6678911447525,-1.93117415904999,7.86764621734619,10.3887405395508,15.2277212142944,0.02443460933864,-0.31459560990334,0.20280726253986,0.09300423413515,3.01843786239624,5.75450325012207,2.95923328399658,2.76051449775696,-5.30345582962036,13.0534868240356,13.9848318099976,10.3671922683716,-12.8919296264648,-15.2242126464844,-15.2517013549805,23.636157989502,13.35276222229,-4.62559747695923,1.03908181190491,-0.02809980139136,-0.12644910812378,-3.54286575317383,1.35199749469757,3.09846115112305,-26.4664039611816,-17.1287174224854,-13.3024835586548,17.119140625,15.5605154037476,8.21001720428467,-1.10772776603699,-0.21403190493584,0.30886873602867,-12.5195798873901,-9.90271759033203,-8.36324596405029,0.75014251470566,0.69394290447235,0.50457471609116,0.3947716653347,-0.17211128771305,-0.53130006790161,-1.6448165178299,-0.04070143029094,0.87627780437469,6.82138013839722,5.97862100601196,6.27310752868652,1.07733726501465,0.85253882408142,0.63323819637299,-2.3056161403656,-2.10929179191589,-2.08056116104126,-0.28466320037842,-0.10079276561737,-0.02443460933864,0.08200865983963,-0.14156801998615,-0.31322115659714,1.6711528301239,1.26892685890198,1.08217918872833,8.83969211578369,8.82053852081299,8.97137260437012,SWING_RIGHT
-0.28855746984482,-0.20975585281849,-0.18043431639671,2.31998133659363,2.27209734916687,2.41335535049438,-0.10201449692249,-0.14355333149433,-0.2767219543457,-0.03711006417871,-0.24174992740154,-0.39813143014908,0.40462008118629,0.45489832758904,0.53390699625015,8.35366916656494,8.05918216705322,8.07354736328125,-0.04787656292319,-0.86338168382645,-2.21889162063599,7.73357057571411,15.7185325622559,21.2946281433105,-1.55526292324066,-2.04334425926209,-2.04639863967896,0.54137933254242,1.21638536453247,3.02454662322998,1.28568625450134,-2.58573794364929,-11.9617309570313,8.71279907226563,10.9992618560791,11.2338933944702,-14.2828693389893,-16.0867538452148,-16.0757579803467,25.3339462280273,16.7240982055664,-3.63679242134094,2.12153506278992,1.36039686203003,0.24678955972195,-5.10912418365479,0.710588991642,2.78020048141479,-29.6052017211914,-21.4143390655518,-15.4288339614868,22.6569290161133,15.7472629547119,4.07493114471436,-0.64408105611801,0.34124460816383,0.78045672178268,-13.2641763687134,-8.76786613464355,-8.76786613464355,0.40011674165726,0.02076941914856,-0.2981022298336,-0.02550362423062,0.23044891655445,0.55298578739166,1.53228902816772,1.60172092914581,1.34314715862274,7.42711305618286,7.99932718276978,8.8971529006958,0.86109089851379,0.95394241809845,1.10360443592072,-3.5769374370575,-3.90015459060669,-3.9576153755188,-0.020158553496,0.13927727937698,0.22174409031868,0.32207870483398,0.16142113506794,0.06246097013354,0.11013327538967,0.24420857429504,0.40462008118629,9.73991203308106,9.38796424865723,9.05995845794678,SWING_RIGHT
-0.0784198269248,-0.13400855660439,-0.08269587904215,1.31202256679535,0.93134444952011,0.87388360500336,0.04520402848721,0.03176499158144,0.03481931984425,-0.09880745410919,-0.25763240456581,-0.27901270985603,0.1723825186491,0.33518823981285,0.52193599939346,9.5507698059082,9.50528049468994,9.15333271026611,-0.0655916556716,-0.4058435857296,-1.24822676181793,5.4854154586792,10.0415811538696,16.0680866241455,-0.1795943826437,-0.23212879896164,0.08124507963657,-1.19286715984344,0.38255435228348,2.56334328651428,2.37744235992432,3.49314022064209,-0.90261405706406,13.9704666137695,15.627552986145,15.0313968658447,-12.4887580871582,-14.9584865570068,-14.6609945297241,29.1503028869629,24.8503170013428,-7.6569561958313,0.68111473321915,-0.50762903690338,-0.73548173904419,-5.03154420852661,0.49617528915405,0.99769568443298,-24.5342826843262,-16.5517158508301,-15.2492694854736,16.4798889160156,14.3008661270142,8.15255641937256,-0.77724969387054,-0.06253732740879,0.87697339057922,-11.4326124191284,-10.4438066482544,-8.93785381317139,0.17409659922123,0.14294247329235,-0.07024950534105,-0.23441953957081,-0.15745051205158,0.19318613409996,-2.44447994232178,-0.09337386488914,1.07978498935699,10.3600101470947,9.57710647583008,9.3927526473999,1.49944508075714,1.06878507137299,0.72914403676987,-0.23702596127987,-0.69671267271042,-1.61129772663116,0.1814269721508,0.15332718193531,0.0372627787292,0.08261952549219,0.2170098721981,0.27443119883537,1.20667767524719,0.86191260814667,0.68953007459641,10.0056686401367,9.51964569091797,9.30895519256592,SWING_RIGHT
0.01931861415505,-0.11385001242161,-0.35697436332703,3.72298359870911,4.4029369354248,5.33458089828491,-0.0299323964864,-0.1246165111661,-0.22174409031868,0.21456642448902,0.24633140861988,0.22311852872372,1.14203417301178,1.11569797992706,0.75177931785583,9.19882202148438,9.0360164642334,8.86602783203125,-2.69231224060059,-3.62082743644714,-4.85416412353516,12.1748151779175,16.7552223205566,23.4925060272217,0.13866640627384,0.22418753802776,0.85643309354782,1.15407717227936,3.22979736328125,3.39350914955139,-1.24977326393127,-10.518027305603,-21.0384483337402,12.1029891967773,7.9753851890564,3.56257224082947,-15.6090574264526,-15.4074726104736,-12.7129459381104,16.3458137512207,0.45729252696037,-18.0863990783691,-0.89980453252792,-0.32742378115654,0.23029619455338,3.15649342536926,1.3257303237915,-0.42195516824722,-21.9602165222168,-19.3577194213867,-15.4024982452393,10.2474822998047,9.23952388763428,14.0255327224731,0.33024901151657,1.24043822288513,1.80732119083405,-12.4956378936768,-9.40711784362793,-7.09671306610107,0.55588740110397,0.28466320037842,0.13805554807186,-0.40362921357155,-0.26435193419456,-0.11407908797264,-0.29448682069778,1.1372457742691,1.77410340309143,7.5372462272644,7.81257963180542,7.97777938842773,1.45851707458496,1.19706678390503,1.05473518371582,-1.64960491657257,-1.82438170909882,-2.09971499443054,0.01343903504312,0.03909537568688,0.05619960278273,-0.10858129709959,-0.07559457421303,-0.06459899991751,1.20667767524719,1.36948335170746,1.34793555736542,9.21797561645508,9.15333271026611,9.15093803405762,SWING_RIGHT
0.11583532392979,0.00465784734115,-0.14011721313,2.9664158821106,3.13401007652283,3.28963303565979,0.11117747426033,0.10567969083786,0.10812314599752,-0.15073099732399,-0.21487185359001,-0.29367345571518,0.75177931785583,0.40462008118629,0.30645781755447,9.49330902099609,9.57471179962158,9.89792919158936,-0.64285933971405,-0.86154907941818,-1.57198536396027,7.65456199645996,12.9265937805176,19.5109481811523,-0.17654006183147,-0.94073247909546,-0.64629542827606,-0.49586987495422,2.51813936233521,4.60057878494263,2.92092609405518,1.90339040756226,-5.50217485427856,10.6832275390625,10.312126159668,7.47978544235229,-12.9053678512573,-14.7996616363525,-15.4502325057983,22.2618865966797,14.7752170562744,-2.20745396614075,1.70736837387085,1.08856189250946,0.51190507411957,-2.56609225273132,-1.00594234466553,0.55604010820389,-29.8494110107422,-20.6841068267822,-14.4086055755615,12.56028175354,14.5283155441284,11.6002063751221,-0.14317154884338,0.94722294807434,1.30641174316406,-16.9850654602051,-10.5467576980591,-7.66174459457397,1.52410876750946,1.02808618545532,0.53084188699722,-0.81413066387177,-0.45677447319031,-0.3058907687664,-0.20111294090748,1.82438170909882,2.77966809272766,8.20044040679932,6.96503210067749,6.91714811325073,1.64605271816254,1.05290257930756,0.53305625915527,1.31681096553802,1.12527477741241,0.105344876647,-0.08674286305904,-0.08002334833145,-0.07880161702633,0.48456886410713,0.41737368702888,0.247553139925,2.80839848518372,1.87465989589691,1.83395850658417,8.75110626220703,8.66970348358154,8.81575012207031,SWING_RIGHT
-0.15355625748634,-0.16882787644863,-0.19937114417553,2.13083958625793,2.59052634239197,3.22498965263367,-0.29565876722336,-0.36407569050789,-0.34452798962593,-0.44638976454735,-0.68157291412354,-0.8000807762146,0.10295066982508,-0.04788403213024,0.21068975329399,8.70322227478027,9.18445682525635,10.0727062225342,-1.45653176307678,-2.69047951698303,-4.03560495376587,12.6847801208496,17.1718139648438,22.1110515594482,-0.56321775913239,0.0372627787292,1.07756626605988,1.88650465011597,3.38129186630249,5.1271448135376,-0.74699091911316,-7.59710121154785,-16.2596225738525,14.2865009307861,13.501202583313,8.63139629364014,-13.8131141662598,-14.6457233428955,-13.654899597168,16.7121257781982,6.2084641456604,-13.1013708114624,0.71532320976257,0.07880161702633,-0.14355333149433,-0.8550586104393,3.19192361831665,1.20050287246704,-21.9745826721191,-16.0920276641846,-11.5211982727051,17.4854526519775,5.16938066482544,5.13825607299805,-0.68256556987762,0.07551821321249,0.78534364700317,-11.5235919952393,-9.90989971160889,-8.09030723571777,-0.35857790708542,-0.41844269633293,-0.47708576917648,-0.36819902062416,-0.19898934662342,-0.09636399149895,-1.16118776798248,0.06464344263077,1.18034148216248,9.16769790649414,9.04080486297607,9.48133754730225,1.06084382534027,0.53366714715958,0.09445504099131,-0.53630119562149,-0.78529816865921,-0.78529816865921,-0.36102136969566,-0.42088615894318,-0.527787566185,0.35750889778137,0.36728271842003,0.44180828332901,0.46926352381706,-0.14604631066322,0.04788403213024,9.22515869140625,9.00010299682617,9.33529186248779,SWING_RIGHT
1.16774523258209,0.97593361139297,0.73464179039001,3.52905321121216,3.79959797859192,4.20900678634644,-0.18814650177956,-0.10201449692249,-0.16982053220272,-0.11102475970984,-0.08475755155087,0.10888673365116,0.95768070220947,1.05105459690094,0.95049810409546,10.1588973999023,9.79976654052734,9.2155818939209,-1.05213904380798,-1.75646662712097,-2.71980118751526,8.85405731201172,11.6265430450439,15.1032228469849,-0.13316862285137,0.39950588345528,1.02381014823914,-0.05115996301174,2.61160159111023,4.38250017166138,1.91296720504761,-4.34308195114136,-15.9795007705688,13.4461364746094,13.9728603363037,7.9059534072876,-14.5021696090698,-15.1344156265259,-13.0641927719116,16.9706993103027,4.0462007522583,-18.1055526733398,1.16736352443695,0.87170469760895,0.77885317802429,-1.42988276481628,1.367879986763,-0.57955837249756,-21.3233585357666,-16.5421371459961,-11.5283803939819,17.2651863098145,7.30022048950195,9.89074611663818,0.00649044336751,0.50434559583664,0.95577502250671,-9.74230575561523,-7.72159957885742,-6.11269617080688,0.63652157783508,0.34636059403419,0.07635815441608,-0.24663683772087,0.00870482996106,0.25488352775574,1.12048637866974,2.17872357368469,2.54982471466064,7.86285781860352,7.66653299331665,8.19565200805664,0.39194640517235,0.21418462693691,0.21418462693691,-1.13245737552643,-1.95606279373169,-2.37983655929565,0.26633724570274,0.25228735804558,0.25595253705978,0.05879577994347,-0.01634064503014,-0.00778853194788,1.75734400749207,1.72382521629334,1.93451499938965,9.20839881896973,9.29219627380371,9.50767421722412,SWING_RIGHT
0.43592870235443,0.31558826565742,0.22212587296963,2.7126305103302,3.03584766387939,3.56257224082947,-0.41050145030022,-0.55038958787918,-0.63346725702286,-0.38163805007935,-0.41340306401253,-0.66691213846207,1.86268889904022,1.77170920372009,1.6711528301239,8.4015531539917,8.01848030090332,8.56914710998535,-0.94829195737839,-1.59336566925049,-2.62267351150513,8.96658420562744,11.3248729705811,15.2229328155518,0.52106803655624,0.58154368400574,-0.16126842796803,-0.35170567035675,-0.46715918183327,1.23654401302338,2.05901336669922,1.40539634227753,-4.3646297454834,10.5347871780396,9.93384170532227,8.81814384460449,-12.7776975631714,-14.8906803131104,-15.3671550750732,23.6912250518799,16.2883529663086,-0.5147533416748,0.12583823502064,0.42088615894318,0.7000515460968,-0.73410731554031,1.37582123279572,0.46013423800468,-26.8231391906738,-17.2460327148438,-11.6672439575195,16.9395751953125,12.9912376403809,8.38479328155518,-0.00878118816763,0.70837461948395,0.86719959974289,-13.4628953933716,-8.54281139373779,-6.61787271499634,0.66828656196594,0.65423667430878,0.48685958981514,-0.32482758164406,-0.42073345184326,-0.20326541364193,0.09097966551781,1.5945383310318,2.01831197738647,9.01446914672852,8.53323459625244,8.01848030090332,1.27586841583252,1.19706678390503,1.06328725814819,-2.10210919380188,-1.7980455160141,-1.62566292285919,0.10262536257505,0.08307767659426,-0.04581489413977,-0.00412334036082,0.13332134485245,0.25182920694351,2.79882168769836,2.55700731277466,2.37983655929565,8.8756046295166,8.44704246520996,8.04960536956787,SWING_RIGHT
0.67966395616531,0.5672647356987,0.46525025367737,2.1284453868866,2.39180755615234,3.03584766387939,-0.4850270152092,-0.45753806829453,-0.5283984541893,-0.70417493581772,-0.97600996494293,-0.87094110250473,0.95768070220947,0.94810384511948,0.75177931785583,9.2131872177124,9.57710647583008,9.74230575561523,-0.5438991189003,-1.84137690067291,-2.91405630111694,8.0831241607666,12.4669075012207,16.7839527130127,-0.13316862285137,0.13133603334427,0.58459806442261,-0.34804046154022,0.57497692108154,1.93842816352844,0.79008656740189,-2.82276391983032,-9.92905330657959,13.2186870574951,14.3343849182129,13.4197998046875,-12.7599821090698,-14.1442031860352,-15.056224822998,18.9914054870605,13.175591468811,-2.87064790725708,-0.527787566185,-0.92546087503433,-1.13926362991333,-0.17577648162842,0.76190167665482,1.4912748336792,-29.2891674041748,-20.7990283966064,-12.7398462295532,7.1996636390686,10.8364562988281,10.213963508606,0.13232868909836,0.15309810638428,0.34246632456779,-11.2099514007568,-8.95221900939941,-8.74871253967285,0.79901176691055,0.28710666298866,-0.03848451003432,-0.5178610086441,-0.34071010351181,-0.1782199293375,-2.47321033477783,-0.21308395266533,1.12766897678375,7.0727710723877,7.32895088195801,8.04242324829102,1.54709255695343,1.11398911476135,0.66072714328766,-1.76213240623474,-1.23540806770325,-2.18111777305603,0.02565634064376,0.01160643994808,-0.06108652427793,-0.42562034726143,-0.25335636734962,-0.14034628868103,0.83797061443329,0.4764461517334,0.49081134796143,9.38317584991455,9.2131872177124,9.29937839508057,SWING_RIGHT
0.60880357027054,0.46647197008133,0.30214923620224,3.4811692237854,3.80199241638184,4.26167917251587,0.01221730466932,0.04398229718208,0.22479841113091,-0.25213462114334,-0.46532660722733,-0.92530810832977,0.04070143029094,-0.11492168158293,0.1268926858902,9.10544872283936,9.17966842651367,10.3145198822021,-0.67462432384491,-2.12359666824341,-4.80407333374023,14.4109992980957,20.0352783203125,23.2435092926025,-1.04824471473694,-1.15209186077118,-0.89125239849091,2.12840723991394,3.16015863418579,4.02941989898682,-0.66079968214035,-7.39598846435547,-15.5653038024902,7.78384876251221,6.43591356277466,4.60644388198853,-14.8289833068848,-15.7483348846436,-14.0959444046021,19.1973075866699,9.11502552032471,-14.7560634613037,0.4758640229702,0.80328780412674,0.77640974521637,1.05450618267059,2.17544388771057,-0.2069306075573,-25.5542125701904,-20.1669597625732,-14.4277591705322,18.8309955596924,8.08073043823242,10.927435874939,0.48418706655502,1.02846801280975,1.64727449417114,-10.3983173370361,-8.23635292053223,-5.9618616104126,1.15087008476257,0.74159038066864,0.29626965522766,-0.9161451458931,-0.6400340795517,-0.32482758164406,0.33997663855553,1.73819041252136,2.59052634239197,7.35049867630005,7.14220285415649,7.62343740463257,1.51044070720673,1.09932839870453,0.83543455600739,0.96246910095215,0.38546648621559,-0.08379705995321,0.10445795953274,0.04886921867728,-0.0372627787292,-0.16600263118744,-0.21792617440224,-0.05299255996943,1.73100781440735,1.67833542823792,1.74776721000671,9.11023712158203,9.46936702728272,9.74709415435791,SWING_RIGHT
1.03763103485107,0.74319392442703,0.34307718276978,5.36331129074097,6.05762958526611,6.90757131576538,-0.36896261572838,-0.32192599773407,-0.27733281254768,0.06856962293386,0.20051652193069,0.24633140861988,0.8451532125473,0.68953007459641,0.45010992884636,10.3288850784302,10.3097314834595,10.5563344955444,-2.43635964393616,-3.01546001434326,-3.79981088638306,9.84046840667725,10.8891286849976,13.9225826263428,0.4453207552433,0.50335294008255,0.52106803655624,0.86758136749268,2.3990204334259,4.09356069564819,0.36631286144257,-1.85790050029755,-7.05601167678833,13.1827735900879,11.188404083252,6.83574533462524,-12.1692752838135,-14.5101108551025,-14.4856767654419,19.4726409912109,12.0982007980347,-11.6121778488159,-0.79290306568146,-0.35796701908112,0.00488692196086,-1.46225869655609,0.8578075170517,-0.00351247517392,-23.8085403442383,-17.2340621948242,-12.7853364944458,16.1087875366211,12.3711395263672,9.28261947631836,0.59231019020081,0.84581929445267,1.41025876998901,-8.65773296356201,-7.39598846435547,-5.28909063339233,0.75625115633011,0.60475659370422,0.47219884395599,-0.70722925662994,-0.36147952079773,-0.23441953957081,0.3016694188118,1.79565131664276,1.93451499938965,9.62499046325684,9.0168628692627,8.75350093841553,0.79328489303589,0.44936773180962,0.33147075772285,0.49320554733276,-0.39025488495827,-0.82839381694794,0.29138273000717,0.23029619455338,0.21135938167572,-0.18127426505089,-0.05604688450694,-0.07987063378096,0.77093297243118,0.31124621629715,0.69910687208176,9.46936702728272,9.4119062423706,9.07911205291748,SWING_RIGHT
1.40964794158936,0.99364870786667,0.04069889709353,5.72004699707031,6.44788455963135,5.7822961807251,-0.00671951752156,-0.01282817032188,-0.07757988572121,0.14798210561275,0.10338894277811,0.05879577994347,-0.52193599939346,-1.14442837238312,-1.29047477245331,9.41669464111328,9.12460231781006,9.12460231781006,-0.68256556987762,-0.9250790476799,-1.41377127170563,7.89158821105957,10.7215347290039,15.0553388595581,-0.12034045159817,-0.17287486791611,0.17531833052635,2.04716205596924,3.35441374778748,4.11982774734497,3.5003228187561,5.33218622207642,-4.12281513214111,9.70160484313965,10.1469259262085,6.96503210067749,-14.5620346069336,-17.4166088104248,-17.1295013427734,30.3785285949707,19.5636215209961,-2.44687414169312,1.33840572834015,1.26693451404572,0.28099802136421,-4.24352836608887,1.26708722114563,1.59328925609589,-32.3489570617676,-23.7558670043945,-15.0266084671021,28.09446144104,11.9784908294678,7.17811584472656,0.02115120925009,0.58803415298462,0.88124948740005,-10.3336734771729,-6.53886413574219,-4.99939250946045,0.68600165843964,0.29688051342964,0.06658431142569,-0.11591167747974,0.09789115190506,0.15775595605373,1.90578460693359,1.90578460693359,1.97761058807373,7.5372462272644,7.5372462272644,8.54520511627197,0.15493069589138,0.00954476930201,0.20563250780106,-1.07020819187164,-1.89381349086761,-2.63362193107605,0.09101892262697,0.0226020142436,0.0299323964864,0.13332134485245,0.06001751124859,-0.23136521875858,0.5243301987648,0.60094463825226,0.95768070220947,8.96658420562744,8.77025985717773,9.3735990524292,SWING_RIGHT
1.00464427471161,1.12376296520233,1.08100235462189,4.05338335037231,4.98023891448975,6.36408758163452,-0.17470745742321,-0.36529740691185,-0.49113565683365,-0.11591167747974,0.12293662875891,0.15286903083324,2.17154097557068,1.86987149715424,1.16118776798248,9.00249767303467,8.89954662322998,8.93306541442871,-0.93851810693741,-1.29220902919769,-1.67522156238556,6.99855089187622,7.80779123306274,8.58830070495605,-0.58643060922623,-0.39828413724899,-0.19486601650715,-0.24052819609642,0.21762074530125,0.64400470256805,-1.75734400749207,-0.96965169906616,0.38307225704193,11.118971824646,11.5882358551025,11.8611745834351,-8.5755558013916,-11.4368486404419,-13.9762153625488,24.1892185211182,22.680871963501,14.2410106658936,1.40865528583527,1.21378922462463,0.19486601650715,1.37643206119537,-1.05847680568695,1.74539470672607,-29.1455154418945,-15.2181444168091,-11.0136270523071,-0.07661445438862,11.8635683059692,5.92594861984253,-1.29037642478943,-0.64041584730148,-0.08636107295752,-12.5363397598267,-10.0272159576416,-8.78462505340576,0.2101376503706,0.01099557429552,-0.31826078891754,-0.09758572280407,-0.05971207842231,0.08872817456722,-2.67432332038879,-0.79248076677322,0.31124621629715,7.24515342712402,7.05840587615967,7.92989540100098,0.93439477682114,0.68638348579407,0.53122371435165,-2.71741890907288,-2.92092609405518,-3.71580100059509,-0.6023131608963,-0.31764993071556,-0.06963863968849,0.32879820466042,0.04963280260563,-0.12873984873295,0.02633621916175,0.05746084079146,0.08140286058187,9.76624774932861,9.9889087677002,9.64653778076172,SWING_RIGHT
0.35468363761902,0.3858377635479,0.33635768294334,2.31040453910828,2.68629431724548,3.16752886772156,0.39706242084503,0.44776421785355,0.45631635189056,0.74296486377716,0.81565779447556,0.64889162778854,1.63284552097321,1.34554135799408,0.83797061443329,10.5515460968018,9.69442176818848,9.11023712158203,-0.41561743617058,-0.70211327075958,-1.41071689128876,7.16853904724121,11.9473657608032,17.4854526519775,1.87657809257507,1.51189148426056,0.94745200872421,-1.18614757061005,0.2958115041256,1.08382761478424,5.23881244659424,2.20745396614075,-5.21487045288086,12.9601135253906,9.72554683685303,6.4766149520874,-12.8369512557983,-15.000636100769,-15.2938508987427,18.3473663330078,9.65850925445557,-10.1134071350098,0.30909782648087,1.06351637840271,0.61330872774124,-0.51480668783188,0.2328923791647,0.81077086925507,-29.1933994293213,-19.8652896881104,-12.1748151779175,15.8957033157349,11.6504850387573,7.88440561294556,-0.47426050901413,0.60208404064178,1.26914894580841,-14.1189069747925,-10.3217029571533,-8.00411510467529,0.5583308339119,0.48197266459465,0.19425514340401,0.54015761613846,-0.45738536119461,-0.48059824109077,-0.83797061443329,1.64002811908722,1.99676418304443,7.20445203781128,6.85729312896729,7.2499418258667,1.3589460849762,1.16713440418243,0.85376054048538,-2.40617275238037,-2.05422496795654,-2.05422496795654,-0.37995818257332,-0.24678955972195,-0.14538592100143,0.10338894277811,-0.08292495459318,-0.22892175614834,2.10450339317322,1.87226569652557,1.78846871852875,9.67287445068359,9.64414405822754,9.65372085571289,SWING_RIGHT
0.84154325723648,0.51228684186935,0.17325665056705,5.34415769577026,5.61470222473145,5.70328760147095,0.07208210229874,0.11850785464048,0.21135938167572,-0.00473420554772,-0.16783522069454,-0.13668109476566,-0.1723825186491,-0.28012159466743,0.03112462162971,9.75667095184326,10.0535526275635,10.3719806671143,-1.1590404510498,-2.1211531162262,-3.71734404563904,11.3057193756104,14.5307092666626,17.7009315490723,-0.6322455406189,-1.26571273803711,-1.05190992355347,2.58716702461243,3.0746374130249,3.9903244972229,0.07182604819536,-3.95282697677612,-12.3591680526733,5.91876602172852,7.56358242034912,10.7406883239746,-14.4771242141724,-16.7135028839111,-16.3726387023926,24.1197872161865,13.0463047027588,-15.5748805999756,2.67375707626343,1.4178181886673,0.36774086952209,-1.59725987911224,1.895667552948,0.46441030502319,-31.2093162536621,-21.5029239654541,-14.3200197219849,15.8358488082886,4.71418333053589,7.38641166687012,0.94722294807434,1.35650265216827,1.66132438182831,-10.5347871780396,-7.00812768936157,-4.56334829330444,0.82161372900009,0.15638150274754,-0.37079519033432,-0.84956085681915,-0.20265454053879,0.47662761807442,1.34554135799408,2.4396915435791,2.62165093421936,6.88123512268066,7.77906036376953,9.22515869140625,0.8134434223175,0.49945870041847,0.25694519281387,-0.19393034279346,-0.85712420940399,-1.67594122886658,0.17165313661098,0.08185594528913,0.01466076634824,-0.04138612002134,-0.07192938029766,0.0080939643085,0.65601128339767,0.30885201692581,0.89543145895004,8.7199821472168,8.80856704711914,9.41429996490478,SWING_RIGHT
0.32536208629608,-0.04298964142799,-0.25312727689743,3.59130263328552,3.11485648155212,3.08852028846741,-0.39828413724899,-0.59925878047943,-0.75136423110962,-0.72005742788315,-0.80069160461426,-0.88193666934967,-1.13006317615509,-1.4293384552002,-0.93373864889145,9.24191761016846,9.37599277496338,10.3145198822021,-1.0289261341095,-1.57137453556061,-2.24699139595032,6.89320611953735,9.15333271026611,12.2657947540283,0.08307767659426,0.44959682226181,1.05374252796173,-0.18493945896626,1.60428488254547,3.88586664199829,-0.33279404044151,1.45088624954224,-0.90021985769272,14.9691476821899,16.5325603485107,14.3032598495483,-11.2499237060547,-14.1613073348999,-15.4612283706665,22.1134452819824,15.9052801132202,-2.39420175552368,2.12886548042297,0.96516710519791,0.15577064454556,-4.04682970046997,-3.36388230323792,0.6372851729393,-27.819128036499,-16.4750995635986,-10.2355117797852,7.29543209075928,16.6738185882568,11.2458648681641,-0.46082147955894,-0.11140654981136,-0.09552405029535,-10.2187519073486,-6.45267295837402,-6.13663816452026,0.23029619455338,0.23212879896164,-0.00794124789536,-0.18432858586311,-0.11896600574255,0.09728029370308,-1.3215993642807,-0.0526724383235,0.86670100688934,9.48373222351074,8.62660789489746,8.7175874710083,0.9050732254982,0.60941445827484,0.19097174704075,-1.21386027336121,-0.78769236803055,-1.44370365142822,-0.17165313661098,0.04764748737216,-0.02687807008624,0.13209961354733,0.06673702597618,0.27443119883537,1.1755530834198,0.07900865375996,0.11731588095427,10.1804447174072,9.81652641296387,9.34008026123047,SWING_RIGHT
