gyro_x_0,gyro_y_0,gyro_z_0,acc_x_0,acc_y_0,acc_z_0,gyro_x_1,gyro_y_1,gyro_z_1,acc_x_1,acc_y_1,acc_z_1,gyro_x_2,gyro_y_2,gyro_z_2,acc_x_2,acc_y_2,acc_z_2,gyro_x_3,gyro_y_3,gyro_z_3,acc_x_3,acc_y_3,acc_z_3,gyro_x_4,gyro_y_4,gyro_z_4,acc_x_4,acc_y_4,acc_z_4,gyro_x_5,gyro_y_5,gyro_z_5,acc_x_5,acc_y_5,acc_z_5,gyro_x_6,gyro_y_6,gyro_z_6,acc_x_6,acc_y_6,acc_z_6,gyro_x_7,gyro_y_7,gyro_z_7,acc_x_7,acc_y_7,acc_z_7,gyro_x_8,gyro_y_8,gyro_z_8,acc_x_8,acc_y_8,acc_z_8,gyro_x_9,gyro_y_9,gyro_z_9,acc_x_9,acc_y_9,acc_z_9,gyro_x_10,gyro_y_10,gyro_z_10,acc_x_10,acc_y_10,acc_z_10,gyro_x_11,gyro_y_11,gyro_z_11,acc_x_11,acc_y_11,acc_z_11,gyro_x_12,gyro_y_12,gyro_z_12,acc_x_12,acc_y_12,acc_z_12,gyro_x_13,gyro_y_13,gyro_z_13,acc_x_13,acc_y_13,acc_z_13,gyro_x_14,gyro_y_14,gyro_z_14,acc_x_14,acc_y_14,acc_z_14,motion_type
0.04771250113845,0.19181250035763,0.63662499189377,0.46695002913475,0.00300000002608,-0.00795000046492,-0.26757499575615,-0.47409999370575,-0.78567498922348,0.12155000120401,0.57969999313354,1.15995001792908,6.26595020294189,6.59100008010864,6.72000026702881,10.9339504241943,10.2919502258301,9.71100044250488,-3.73230004310608,-4.51055002212524,-5.61742496490479,13.1590509414673,7.28700017929077,2.86695003509521,2.52161240577698,2.90881252288818,2.85381245613098,-0.0409750007093,0.54175001382828,0.40493750572205,-10.207950592041,-8.81595039367676,-6.40800046920776,9.36600017547607,10.4100008010864,10.0080003738403,10.5935497283936,12.1389122009277,11.5317125320435,-14.4210004806519,-6.45300006866455,9.36600017547607,1.63336253166199,2.47761249542236,1.26568746566772,-0.50641250610352,-2.08862495422363,-1.85033750534058,17.5939502716064,16.3999500274658,10.1329507827759,14.788950920105,11.3479509353638,-0.54900002479553,-7.01621246337891,-8.24766254425049,-8.00580024719238,13.0750503540039,4.84605026245117,-7.29195022583008,-2.28703737258911,0.41772499680519,2.02193737030029,3.04383754730225,0.13131250441074,-1.82710003852844,-12.5959501266479,-7.52595043182373,-9.86895084381104,15.9130506515503,21.5320510864258,15.7050008773804,8.78776264190674,9.60877513885498,7.52207517623901,-15.5580005645752,-5.94495010375977,14.5590009689331,-0.66467499732971,-1.27792501449585,-1.78254997730255,0.38293749094009,1.32371246814728,1.59857499599457,9.76905059814453,17.4790515899658,17.0890502929688,0.91200006008148,4.0639500617981,3.81495022773743,SHAKE
3.67977499961853,-0.57296252250671,-3.02486252784729,21.0580501556396,26.356050491333,20.4090003967285,-1.65302503108978,-2.88571238517761,-3.05305004119873,-0.13997499644756,1.47276246547699,1.65233743190765,12.8509502410889,2.72895002365112,-4.31700038909912,0.72600001096725,1.2520500421524,4.59000015258789,0.82953751087189,5.03346252441406,7.64183759689331,-27.3859519958496,-25.7490005493164,-15.0739507675171,1.37431252002716,-0.00371249997988,-1.06177496910095,0.20088750123978,1.38723754882813,0.65174996852875,-1.12200009822845,12.6169509887695,12.78600025177,1.92000007629395,1.06305003166199,4.13505029678345,-4.39326238632202,-5.73471260070801,-5.0810375213623,10.8900003433228,3.81405019760132,-5.32800006866455,2.12080001831055,3.79706239700317,2.82452487945557,-1.53147494792938,-1.79781246185303,-0.56141251325607,-5.98695039749146,-7.70100021362305,-4.16100025177002,25.1929512023926,18.5770511627197,4.7310004234314,4.07206249237061,-0.01828750036657,-2.62047505378723,20.1439514160156,26.6640014648438,20.2420501708984,-0.75019997358322,-1.49297499656677,-2.52903747558594,0.07631249725819,-0.0141624994576,0.22783750295639,12.1999502182007,9.77100086212158,4.95705032348633,1.78095006942749,0.10095000267029,-1.04700005054474,-6.29543733596802,-5.95828723907471,-3.75306248664856,3.06300020217896,-3.92805027961731,-14.5690507888794,0.61572498083115,2.57894992828369,3.07133746147156,-1.72933745384216,-1.98838746547699,-1.07827496528625,-6.21900033950806,-6.16695022583008,-7.98795032501221,22.1590518951416,20.2470016479492,12.9049501419067,SHAKE
4.82212495803833,0.45333749055862,-3.40848755836487,18.7920017242432,26.4180011749268,14.1829509735107,-0.87972497940063,-1.43797504901886,-1.91207504272461,0.33288750052452,0.50393748283386,0.64803749322891,9.59700012207031,4.87305021286011,-0.2250000089407,5.19105005264282,4.04700040817261,4.60905027389526,-6.60082483291626,-5.64795017242432,-3.45125007629395,-0.26205000281334,-5.27805042266846,-13.1620502471924,1.7994624376297,3.13610005378723,3.0969123840332,0.083599999547,-0.24983750283718,-0.50641250610352,-5.22405004501343,-5.92995023727417,-7.46100044250488,18.0090007781982,16.0260009765625,9.83505058288574,9.62472534179688,9.90687465667725,6.79401254653931,-10.1760005950928,0.18405000865459,20.5720500946045,-0.70743751525879,-1.0202499628067,-1.07634997367859,0.8788999915123,1.07566249370575,0.55398750305176,12.8869504928589,12.8250007629395,11.0130004882813,3.29805016517639,7.93095016479492,7.45905017852783,-6.29914999008179,-7.09926223754883,-5.591712474823,9.25800037384033,4.30305004119873,-12.2719507217407,2.14527487754822,3.50501251220703,2.97604990005493,-2.0934374332428,-2.74587488174438,-0.01773750036955,-6.95895051956177,-5.80500030517578,-7.04295015335083,19.5190505981445,18.1290016174316,7.14795017242432,9.39991283416748,7.99246263504028,-0.21133749186993,-3.13395023345947,13.1710510253906,28.2799510955811,-1.03001248836517,-0.34581249952316,-0.11371249705553,1.5300999879837,0.30841249227524,-0.17531250417233,13.9780502319336,12.1260004043579,9.07005023956299,8.70300006866455,9.7829999923706,7.60500049591064,SHAKE
-6.14020013809204,-7.37783765792847,-6.79387474060059,12.0940504074097,6.04905033111572,-8.37405014038086,2.01574993133545,3.86182498931885,3.05057501792908,-0.05802499875426,0.22041249275208,1.17342495918274,-8.64105033874512,-6.76695013046265,-10.5070505142212,21.6079502105713,22.1560516357422,6.21195030212402,10.6191253662109,3.07628750801086,-1.24973750114441,-1.52295005321503,33.6559524536133,32.7949523925781,-0.77824997901917,-1.92912495136261,-3.40738749504089,-0.23649999499321,0.27183750271797,0.89361250400543,13.7029504776001,9.85800075531006,4.90694999694824,-0.4240500330925,-1.35105001926422,-1.33605003356934,-6.95144987106323,-7.57336235046387,-5.58923768997192,5.71200037002563,-0.76695001125336,-14.943000793457,1.52954995632172,4.36878728866577,4.87822484970093,-0.14602500200272,-0.88398748636246,-0.71898752450943,-8.91900062561035,-9.12900066375732,-12.0169506072998,29.5579509735107,25.6240520477295,13.8460502624512,9.9508752822876,8.29784965515137,3.76172494888306,-7.213050365448,10.8880500793457,28.3579521179199,-0.13695000112057,-0.97253751754761,-1.84854996204376,0.53927499055862,0.75432497262955,0.87779998779297,16.3999500274658,17.131950378418,15.1150503158569,-1.59900009632111,-1.5130500793457,-1.37700009346008,-4.81965017318726,-6.15986251831055,-7.20321226119995,15.9150009155273,12.6180009841919,6.1279501914978,-0.24323749542236,2.97604990005493,4.72669982910156,0.49651250243187,-1.18813753128052,-1.4997124671936,-12.0270004272461,-9.2659502029419,-10.2589502334595,22.3840503692627,27.457052230835,20.3880004882813,SHAKE
-7.61983728408813,-5.50137519836426,-0.63153749704361,-4.5,-17.2570514678955,-31.8940505981445,2.80747509002686,2.71218752861023,1.84841251373291,-0.99027496576309,-0.45388749241829,-0.00068749999627,-8.44005012512207,-10.651050567627,-10.2610502243042,16.4800510406494,9.7829999923706,5.49900007247925,9.37543773651123,6.48724985122681,2.66337490081787,2.06505012512207,18.2650508880615,26.881950378418,0.71224999427795,0.1733874976635,-0.75501251220703,-0.67141246795654,-0.43931248784065,-0.07150000333786,18.1420516967773,19.4629516601563,17.2470016479492,2.92695021629334,1.11105000972748,-0.53895002603531,-4.41650009155273,-7.30949974060059,-8.1035623550415,16.0060501098633,5.84400033950806,-2.0179500579834,2.21127510070801,3.98887491226196,1.95827496051788,-0.86927497386932,-0.05073750019073,0.81427496671677,-9.94800090789795,-10.4190006256104,-6.13095045089722,25.5469512939453,9.6340503692627,2.19705009460449,5.63337516784668,-1.07758748531342,-2.54966259002686,24.9679508209229,26.5110015869141,20.9190006256104,-2.66213750839233,-3.72748756408691,-2.60961246490479,0.62370002269745,1.12571251392365,0.48922500014305,8.12700080871582,0.3790500164032,-15.3030004501343,-1.55895006656647,1.61100006103516,17.6119499206543,-1.87646245956421,3.15576243400574,6.28691244125366,-30.0439510345459,-32.2939529418945,-21.5950508117676,2.60342502593994,1.22650003433228,0.16005000472069,-0.02749999985099,0.3634124994278,0.29864999651909,-8.15505027770996,-4.83900022506714,2.25300002098084,3.73305010795593,-0.02700000070035,-0.6690000295639,SHAKE
0.2223374992609,-1.52102494239807,-2.77447509765625,24.7830009460449,21.2490005493164,17.836950302124,-2.27493739128113,-3.02747488021851,-3.39391255378723,0.64446252584457,1.08790004253387,1.16366255283356,12.5209503173828,6.70605039596558,-0.85905003547668,1.41495001316071,2.36700010299683,5.94405031204224,-3.53924989700317,0.77701246738434,7.17640018463135,-20.7090015411377,-29.6569519042969,-17.2999515533447,2.05603742599487,0.52401250600815,-0.43738749623299,-0.21807499229908,0.40246251225471,-0.22659999132156,-4.4850001335144,10.5679502487183,18.2260513305664,2.59200000762939,0.76905006170273,0.7140000462532,-3.11781239509583,-5.683424949646,-6.30643749237061,17.239049911499,11.5360507965088,-8.77095031738281,3.46720004081726,4.2612624168396,2.19175004959106,-1.15032494068146,-1.54371249675751,0.13502499461174,-9.41205024719238,-9.73695087432861,-4.71195030212402,24.856050491333,15.6670503616333,0.86205005645752,5.6247124671936,2.81847500801086,0.16609999537468,11.4739503860474,21.2440509796143,23.3140506744385,-0.07823749631643,-0.84672498703003,-1.86559998989105,-0.14478750526905,-0.16554999351501,0.19236250221729,17.2680015563965,15.8470506668091,12.5350503921509,-0.23295001685619,-1.96995007991791,-2.07600021362305,-5.23503732681274,-5.84347486495972,-5.34737491607666,11.3899507522583,3.97200012207031,-6.12900018692017,-1.00925004482269,1.627312541008,2.05480003356934,1.6828625202179,0.09831249713898,-0.2938374876976,-7.44705057144165,-7.15305042266846,-5.62800025939941,16.689001083374,15.6739511489868,11.2420501708984,SHAKE
-5.23503732681274,-5.84347486495972,-5.34737491607666,11.3899507522583,3.97200012207031,-6.12900018692017,-1.00925004482269,1.627312541008,2.05480003356934,1.6828625202179,0.09831249713898,-0.2938374876976,-7.44705057144165,-7.15305042266846,-5.62800025939941,16.689001083374,15.6739511489868,11.2420501708984,5.11403751373291,4.89541244506836,2.47513747215271,-9.54195022583008,0.27300000190735,13.873950958252,1.16421246528625,-0.4325749874115,-1.43550002574921,-0.73974996805191,-0.10931249707937,0.27059999108315,16.6200008392334,17.2060508728027,14.0830507278442,2.03700017929077,-0.29805001616478,0.25905001163483,-5.68466234207153,-5.63571262359619,-1.26692497730255,4.22399997711182,-4.43100023269653,-23.1649513244629,2.13179993629456,1.87646245956421,1.26926255226135,-0.51136249303818,0.20831249654293,0.43312498927116,-8.31300067901611,-6.38205051422119,-2.53695011138916,14.193000793457,5.2219500541687,3.11595010757446,5.0957498550415,4.95646238327026,3.6431999206543,0.38805001974106,5.55405044555664,14.5060510635376,2.24661254882813,2.07927489280701,1.08116245269775,-0.3964124917984,-0.51370000839233,-0.58822500705719,17.4600009918213,19.7449512481689,19.6800003051758,5.20305013656616,1.61100006103516,-1.78800010681152,-3.58201241493225,-4.58136224746704,-5.26556253433228,15.2880010604858,10.9260005950928,6.58500051498413,-0.43738749623299,-0.25533750653267,0.53996247053146,0.02378750033677,-0.0922624990344,-0.13750000298023,2.45205020904541,-3.08505010604858,-8.27700042724609,8.75895023345947,8.97600078582764,10.1389503479004,SHAKE
-4.00358724594116,-5.37803745269775,-6.34191226959229,19.9980010986328,13.8190507888794,8.62695026397705,-1.56268751621246,-1.20711255073547,-0.32010000944138,0.65174996852875,1.17466247081757,1.65728747844696,1.357950091362,-7.37805032730103,-12.1180505752563,5.31795024871826,7.33200025558472,8.60295009613037,-1.70307493209839,2.60590004920959,5.80800008773804,-29.4220504760742,-32.8199996948242,-25.2610511779785,1.43178749084473,0.87106251716614,0.08428750187159,-1.15142500400543,-0.91079998016357,-0.04578749835491,-9.63900089263916,-7.33695030212402,0.01095000095665,0.65100002288818,-0.79995006322861,-2.00400018692017,5.20932483673096,4.00358724594116,1.28521251678467,9.33495044708252,16.1980514526367,25.1419506072998,1.49160003662109,0.7732999920845,-0.91025000810623,-1.07085001468658,-1.10261249542236,-0.63222497701645,28.1940021514893,25.7869510650635,13.0690507888794,0.52695000171661,-3.76500010490417,-0.46305000782013,-6.81229972839355,-7.02487516403198,-4.55578756332397,5.9370002746582,0.27300000190735,-18.8599510192871,0.65848749876022,0.68901246786118,0.85030001401901,0.71651250123978,0.56498748064041,0.00797499995679,-11.0629501342773,-9.77295017242432,-8.9640007019043,6.43005037307739,5.30595016479492,3.90105009078979,5.59542512893677,5.06398725509644,3.58943748474121,4.35795021057129,8.70105075836182,15.6739511489868,0.95039999485016,0.92839998006821,0.38362500071526,-0.39160001277924,-0.64198750257492,-0.78979998826981,25.8330020904541,28.6159515380859,26.6320514678955,-2.67105007171631,-4.73400020599365,-6.06495046615601,SHAKE
-4.70359992980957,-5.82876253128052,-6.42248725891113,13.7280006408691,9.13094997406006,4.69695043563843,0.4311999976635,1.37926244735718,1.38173747062683,-1.62676250934601,-1.28947496414185,-0.00797499995679,1.48500001430511,-4.93695020675659,-10.0260000228882,11.776050567627,12.8959503173828,8.69400024414063,-1.52102494239807,1.70788753032684,4.19649982452393,-24.715051651001,-27.5269508361816,-22.3920001983643,0.55343747138977,0.62301248311996,-0.14176249504089,0.43188750743866,0.32312500476837,0.79832500219345,-9.59295082092285,-7.36605024337768,-3.550950050354,4.65495014190674,2.27895021438599,-1.60695004463196,5.94110012054443,3.90829992294312,2.11227488517761,4.8120002746582,16.5730514526367,18.9709510803223,3.55272507667542,-0.64515000581741,-2.22117495536804,-1.73057496547699,-2.37558746337891,-1.93696248531342,25.443000793457,21.8410511016846,16.2709503173828,-14.7270002365112,-16.6680011749268,-10.6660509109497,-5.60766267776489,-5.7164249420166,-3.59067487716675,6.42300033569336,-0.32400000095367,-14.1150007247925,0.08057499676943,0.34443750977516,0.6572499871254,0.7067499756813,1.17713749408722,1.1258499622345,-7.014000415802,-7.14495038986206,-6.77205038070679,10.032000541687,8.12400054931641,6.21705007553101,4.73288726806641,4.84893751144409,4.67059993743896,-10.5199508666992,-2.92995023727417,1.85700011253357,0.43614998459816,1.28521251678467,1.69812500476837,1.19666254520416,0.50888746976852,-0.260837495327,9.34305000305176,15.9259510040283,22.0020008087158,-2.85300016403198,-2.43900012969971,-5.7180004119873,SHAKE
-3.24609994888306,-4.7158374786377,-5.60766267776489,13.8460502624512,11.2759504318237,6.42300033569336,-1.75683748722076,-0.26028749346733,0.08057499676943,-2.05796241760254,-0.37207499146461,0.7067499756813,4.93095016479492,-4.92000007629395,-7.014000415802,8.48295021057129,11.1780004501343,10.032000541687,1.39521253108978,3.689537525177,4.73288726806641,-22.8850517272949,-19.2450008392334,-10.5199508666992,0.61201250553131,0.18438750505447,0.43614998459816,1.08790004253387,1.38723754882813,1.19666254520416,-3.04905009269714,2.1739501953125,9.34305000305176,-0.59700000286102,-3.50895023345947,-2.85300016403198,3.55520009994507,2.31151247024536,0.52896249294281,10.5390005111694,13.7520008087158,16.3129501342773,-0.81496250629425,-2.26517510414124,-2.52408742904663,-0.92661249637604,-0.51370000839233,-0.50888746976852,26.0500507354736,21.9990005493164,16.0240516662598,-14.3749504089355,-11.3410501480103,-2.48505020141602,-5.31327486038208,-5.01146268844604,-4.48126268386841,3.01005005836487,-2.41605019569397,-7.52895021438599,0.42996248602867,0.69629997014999,1.19597494602203,0.89732497930527,1.65852499008179,1.1368499994278,-7.36305046081543,-8.66295051574707,-8.01195049285889,5.23905038833618,4.36005020141602,3.03195023536682,5.39384984970093,5.167799949646,4.2612624168396,-7.72995042800903,-0.36300000548363,7.97595024108887,0.13557499647141,1.58455002307892,0.76601248979568,-0.54065001010895,-1.79162502288818,-1.45928752422333,18.2400016784668,27.6030006408691,26.6440505981445,1.37400007247925,-3.11205005645752,-8.2300500869751,SHAKE
6.12191247940063,5.81776237487793,4.98575019836426,-3.39900016784668,3.58995008468628,9.925950050354,0.00481249997392,0.24543750286102,0.256437510252,-0.53446251153946,-0.25712499022484,0.27912500500679,21.8080501556396,27.1489505767822,28.3279514312744,0.59595000743866,0.14205001294613,-2.31495022773743,-2.97123742103577,-4.63278770446777,-4.91988754272461,15.3889503479004,5.39100027084351,1.57905006408691,-1.61755001544952,-1.15458750724792,0.89182502031326,1.61204993724823,2.39153742790222,0.32065001130104,-4.18800020217896,-5.99700021743774,-4.76700019836426,-0.71595001220703,1.34295010566711,1.82895004749298,5.13479995727539,5.89957475662231,4.87341260910034,-16.4209499359131,0.3570000231266,8.44005012512207,-0.75625002384186,-1.47344994544983,-1.12282502651215,-0.38307499885559,0.79351252317429,0.81427496671677,28.5840015411377,28.7329521179199,15.6409511566162,-7.66995048522949,-5.79705047607422,-1.38900005817413,-6.02181243896484,-5.25951242446899,-3.37562489509583,3.61605024337769,-6.86205053329468,-15.2059507369995,-0.32381248474121,0.90639996528625,1.68107497692108,1.75381243228912,0.9950875043869,0.16926249861717,-8.71305084228516,-8.21295070648193,-7.13805055618286,4.46595001220703,4.52295017242432,1.32405006885529,5.72371244430542,5.75918769836426,5.2778000831604,-10.6450500488281,-2.4060001373291,3.92895007133484,-0.1357125043869,-0.48014998435974,-0.42033749818802,-0.40259999036789,0.16060000658035,0.79227501153946,17.074951171875,23.6500511169434,27.1390514373779,-5.77500009536743,-4.19099998474121,-2.76495003700256,SHAKE
-3.68348741531372,-4.38350009918213,-4.79517507553101,10.1220006942749,6.02805042266846,3.11295008659363,-0.57543748617172,-1.89859998226166,-2.66832494735718,-1.30542504787445,-0.41359999775887,1.27489995956421,3.79395008087158,-2.69895005226135,-7.50705051422119,-5.04300022125244,-4.32495021820068,-1.6189501285553,-2.29927492141724,0.64020001888275,3.82029986381531,-17.2279510498047,-23.181001663208,-23.5039520263672,1.21068751811981,0.93334996700287,0.01828750036657,-0.06421250104904,-0.57241249084473,-0.22907499969006,-6.74595022201538,-5.13795042037964,-0.10605000704527,1.66095006465912,-2.52300000190735,-5.89695024490356,6.04986238479614,4.2759747505188,1.56254994869232,6.12405014038086,16.1669998168945,22.6300506591797,0.85030001401901,1.02011251449585,-0.00976249948144,0.51122498512268,0.29012501239777,-0.50765001773834,29.3050518035889,26.8690509796143,14.6580009460449,-1.33395004272461,-3.85095024108887,-7.74000024795532,-5.22651243209839,-5.43413734436035,-5.25579977035522,2.91195011138916,-0.12600000202656,-4.9549503326416,-2.88323760032654,-1.76426243782043,0.02928750030696,0.94985002279282,1.77209997177124,1.3029500246048,-9.16695022583008,-10.0459508895874,-8.54805088043213,2.14500021934509,6.70995044708252,8.52600002288818,5.05051231384277,6.53977489471436,6.61429977416992,-21.6670513153076,-11.5140008926392,-1.1620500087738,0.82953751087189,-0.16747500002384,-0.06476250290871,-0.46488749980927,1.03180003166199,1.22718751430511,5.43105030059814,23.9020519256592,27.9979515075684,-4.41795015335083,-5.16000032424927,-3.58305025100708,SHAKE
6.01438760757446,2.62789988517761,0.22605000436306,6.22605037689209,19.6440010070801,21.1390514373779,1.1336874961853,1.17768752574921,-0.33481249213219,-0.7042750120163,-1.47276246547699,-2.25472497940063,23.4040508270264,17.7040500640869,5.67495012283325,-2.74095010757446,-4.50705003738403,-5.02605009078979,-5.42808723449707,-3.37438750267029,-0.14904999732971,-1.26900005340576,-16.0699501037598,-24.8490009307861,1.80069994926453,1.50631248950958,0.57777500152588,0.19607499241829,-0.25959998369217,-0.12155000120401,-8.51895046234131,-7.62405014038086,-2.30505013465881,3.57105016708374,-2.41305017471313,-6.35400009155273,5.81528759002686,4.29549980163574,1.87041246891022,11.6340007781982,17.8579502105713,23.7570018768311,-1.57245004177094,-0.9590625166893,-0.2065249979496,1.34694993495941,0.54546248912811,-0.65298748016357,29.5920009613037,27.5719509124756,22.2270011901855,-2.96595025062561,-1.32900011539459,-0.26399999856949,-4.48978757858276,-4.92841243743896,-5.24727487564087,6.60900020599365,3.1279501914978,0.0409500002861,-1.83631253242493,-2.40074992179871,-1.4221625328064,-1.08432495594025,0.72503751516342,2.00915002822876,-4.45800018310547,-9.31605052947998,-10.1680507659912,0.71595001220703,3.80505013465881,8.47605037689209,1.7824125289917,4.9002251625061,6.4835376739502,-26.4240016937256,-22.5499515533447,-0.67095005512238,1.37073743343353,0.26510000228882,-1.15211248397827,-0.17531250417233,0.61269998550415,0.3255999982357,7.33995056152344,17.2330513000488,28.1029510498047,-6.01695013046265,-8.86905002593994,-6.04500007629395,SHAKE
-4.25040006637573,-4.91988754272461,-5.49889993667603,9.56205081939697,5.9320502281189,3.1230001449585,-1.86683750152588,-2.13069987297058,-1.58578753471375,-1.27971243858337,-0.08497499674559,1.34942495822906,-1.0200001001358,-7.19295024871826,-10.0260000228882,2.73300004005432,4.62600040435791,7.46895027160645,-0.66701251268387,3.10186243057251,5.89352512359619,-24.9139518737793,-27.4549522399902,-21.070951461792,1.93393743038177,1.20449995994568,0.63524997234344,-0.61269998550415,-0.55522501468658,-0.14849999547005,-6.15195035934448,-3.05100011825562,3.10695004463196,-0.8479500412941,-4.64805030822754,-4.86105012893677,4.04868745803833,2.40432500839233,0.91629999876022,16.8199501037598,16.090051651001,16.2460498809814,-0.24805000424385,-0.08318749815226,-0.21628749370575,0.16060000658035,-0.57722496986389,-1.01832497119904,27.6390018463135,24.8280010223389,19.4479503631592,-2.56095004081726,-1.89105010032654,-2.40105009078979,-4.6730751991272,-5.18622493743896,-5.5966625213623,5.97000026702881,3.29805016517639,0.0,-2.00983738899231,-1.08487498760223,1.36221253871918,0.63593751192093,1.85143744945526,0.49541249871254,-9.57900047302246,-9.46905040740967,-6.9660005569458,4.67895030975342,7.04295015335083,5.57805013656616,6.90263748168945,7.25821256637573,4.39449977874756,-13.9399509429932,-4.42095041275024,15.1399507522583,0.08552499860525,-1.455162525177,-1.29263746738434,0.52717500925064,0.54670000076294,-0.06902500241995,20.6569519042969,27.2299518585205,24.5880012512207,-8.37405014038086,-4.73205041885376,-2.20500016212463,SHAKE
2.58513736724854,-1.04087495803833,-2.72442507743835,16.5810012817383,17.0419502258301,14.2240505218506,-0.96277499198914,-0.95424997806549,-1.30611252784729,-1.00237500667572,-1.23942494392395,-1.2529000043869,14.0710506439209,8.49405002593994,2.06895017623901,-0.09705000370741,1.16805005073547,1.96695005893707,-4.37249994277954,-1.12406253814697,3.09828758239746,-12.8389501571655,-24.4780502319336,-29.5300521850586,1.17521250247955,1.76893746852875,2.00846242904663,0.55646252632141,-0.79722499847412,-1.17837500572205,-7.33905029296875,-7.20000028610229,-3.26400017738342,7.19595050811768,3.99195027351379,0.76905006170273,5.84581232070923,3.855637550354,1.885125041008,9.64605045318604,16.4590511322021,18.3780002593994,-0.37152498960495,-0.72820001840591,-0.87725001573563,0.80327498912811,0.39283749461174,-0.21807499229908,26.7750015258789,25.9549503326416,22.0180511474609,-7.02705049514771,-5.02395009994507,-3.44895005226135,-4.5057373046875,-5.71271228790283,-5.31451225280762,8.14800071716309,-0.4200000166893,-8.1540002822876,-2.11969995498657,1.45378744602203,2.5471875667572,1.98591244220734,1.70128750801086,0.33412501215935,-8.28900051116943,-6.64305019378662,-6.88695049285889,10.2610502243042,11.7259502410889,7.13895034790039,5.8067626953125,4.52031230926514,2.67190003395081,3.62505006790161,11.4450006484985,16.4560508728027,-1.34763753414154,-2.26022505760193,-2.8466625213623,-0.70798748731613,-0.74222499132156,-0.66275000572205,25.1650505065918,23.2080001831055,18.6280517578125,-11.4649505615234,-8.90295028686523,-5.28000020980835,SHAKE
0.31886249780655,4.16597509384155,6.50925016403198,-25.4550018310547,-26.2129516601563,-17.320951461792,3.84463739395142,3.63082504272461,2.65842509269714,-0.52717500925064,0.30360001325607,0.9620875120163,-0.46395000815392,6.5310001373291,14.907000541687,2.92695021629334,-2.53695011138916,-7.83795022964478,0.95658749341965,-0.72201251983643,-2.34698748588562,15.7189502716064,16.0590000152588,14.5200004577637,-1.95607495307922,-3.24128746986389,-3.79348754882813,-1.11608743667603,-1.67062497138977,-1.85391247272491,18.4270515441895,8.64705085754395,2.0830500125885,-10.0030508041382,-2.53305006027222,1.74000012874603,-5.5503249168396,-3.4684374332428,0.57543748617172,-5.57400035858154,-17.5459499359131,-27.9240016937256,2.09879994392395,3.50748753547669,4.32107496261597,1.16489994525909,-0.18012499809265,-0.90956246852875,-6.88695049285889,-7.75995016098022,-6.22395038604736,18.7849502563477,13.6090507507324,7.29195022583008,6.36143732070923,4.26854991912842,2.20027494430542,6.42705011367798,15.8530511856079,18.3610515594482,0.18081249296665,-1.363450050354,-2.34822487831116,1.02808749675751,0.21931250393391,-0.56141251325607,21.9780006408691,23.1430511474609,20.8309516906738,-16.7700004577637,-14.803050994873,-11.3790006637573,-4.0818247795105,-4.87217473983765,-5.76523733139038,11.5600509643555,7.77705049514771,-1.04700005054474,-3.09471249580383,-1.30239999294281,2.92352509498596,-0.6542249917984,1.04884994029999,0.67498749494553,-6.61695051193237,-8.55000019073486,-7.31805038452148,13.1730003356934,18.5670013427734,16.6979999542236,SHAKE
-4.35173749923706,-1.30239999294281,2.42013740539551,-10.4340009689331,-21.2770519256592,-25.4670009613037,3.1959125995636,3.66753745079041,3.76034998893738,0.99879997968674,0.58822500705719,0.82279998064041,-6.35295009613037,-5.32695007324219,-1.55100011825562,15.5760011672974,9.54600048065186,3.50400018692017,4.61560010910034,2.88928747177124,1.29621243476868,10.1839504241943,14.9560508728027,15.8359508514404,0.46667498350143,-0.94201248884201,-2.25527501106262,-0.22412499785423,-1.1061874628067,-1.3359500169754,21.0589504241943,20.9490013122559,18.3360004425049,-15.7009506225586,-15.5479507446289,-13.372950553894,-4.75131225585938,-5.51966238021851,-2.89547491073608,8.01900005340576,4.12095022201538,-17.5129508972168,0.45691248774529,5.29237508773804,5.62718725204468,1.44099998474121,-0.32683750987053,0.0922624990344,-7.5400505065918,-9.21105003356934,-4.8550500869751,26.5710010528564,16.7239513397217,5.44695043563843,3.03710007667542,1.55402493476868,-1.73854994773865,14.2279510498047,16.1909999847412,16.2889499664307,-1.80936253070831,-2.41051244735718,-2.90523743629456,-1.29923748970032,-1.72438752651215,-2.29006242752075,18.6970500946045,14.7799510955811,9.67995071411133,-10.9819507598877,-6.48795032501221,-0.97995007038116,-5.63337516784668,-5.17027473449707,-2.4728000164032,3.43395018577576,-5.58600044250488,-18.445951461792,0.92963749170303,2.83071255683899,3.57582497596741,1.93586254119873,2.08972501754761,1.44471251964569,-6.98805046081543,-7.32705020904541,-7.06395053863525,24.7099514007568,19.9290008544922,11.9670009613037,SHAKE
4.72559976577759,2.26861238479614,0.25891250371933,6.25800037384033,15.5659503936768,18.6720008850098,-0.91877502202988,-1.52102494239807,-2.15517497062683,-0.61641252040863,-0.59798747301102,-0.95356249809265,21.1860008239746,16.2160511016846,10.3459501266479,-7.42905044555664,-5.91105031967163,-2.9320502281189,-5.20574998855591,-4.5667872428894,-2.1099374294281,0.08400000631809,-8.23305034637451,-19.5730514526367,-0.37152498960495,1.75917494297028,3.26920008659363,1.44595003128052,0.81427496671677,-0.19978749752045,-7.27005052566528,-6.96795034408569,-4.80495023727417,13.8529510498047,13.957950592041,9.2590503692627,5.01022481918335,4.75612497329712,2.98333740234375,-0.22605000436306,5.46795034408569,16.1040000915527,0.93582499027252,0.04028749838471,-1.00801253318787,0.07631249725819,-0.47464999556541,-0.49541249871254,24.6529502868652,25.5979518890381,21.7360515594482,-6.12705039978027,-8.75895023345947,-9.41205024719238,-4.40426254272461,-5.67118740081787,-4.74512481689453,9.80895042419434,0.5100000500679,-9.39600086212158,-1.87907493114471,0.66577500104904,2.57290005683899,0.52112501859665,0.69451248645782,-0.01773750036955,-9.24900054931641,-8.35905075073242,-8.18595027923584,12.2980508804321,16.5739517211914,12.831000328064,6.51406240463257,5.99238729476929,5.05422496795654,-9.71205043792725,2.04105019569397,8.92800045013428,1.40978753566742,0.26633748412132,-0.47162500023842,0.83627498149872,0.81922501325607,0.2938374876976,16.5169506072998,22.2430515289307,24.8250007629395,-7.97205018997192,-9.42405033111572,-8.26800060272217,SHAKE
-2.34698748588562,-3.79706239700317,-4.91741228103638,17.5260009765625,14.5200004577637,10.7160005569458,-1.85954999923706,-1.46850001811981,-1.13382494449615,-0.83256250619888,-1.27600002288818,-1.05132496356964,8.93895053863525,2.24295020103455,-4.93005037307739,5.2819504737854,9.00705051422119,10.6939506530762,-3.2045750617981,0.06352499872446,3.15315008163452,-17.0820007324219,-24.6769504547119,-23.6809520721436,1.14839994907379,1.76536250114441,1.98274993896484,1.17589998245239,0.12402500212193,-0.23154999315739,-8.24595069885254,-4.45095014572144,3.77505016326904,6.29400014877319,2.66595005989075,-1.44600009918213,4.68393754959106,3.44024991989136,0.87835001945496,6.37500047683716,13.6350002288818,21.1699504852295,-0.46681249141693,-1.62978744506836,-2.13069987297058,-1.25042498111725,-0.94379997253418,-0.9120374917984,27.3430519104004,24.363000869751,18.3310508728027,-10.1520004272461,-9.5149507522583,-4.15995025634766,-5.17646265029907,-5.69442510604858,-5.48432493209839,7.15305042266846,2.85195016860962,-3.85095024108887,-1.66649997234344,-0.77948749065399,0.61572498083115,-0.76298749446869,0.75322496891022,1.39218747615814,-8.46900081634521,-11.0989503860474,-10.2919502258301,10.4959506988525,12.3480005264282,13.2619504928589,5.49518728256226,6.69129991531372,6.38824987411499,-22.5589504241943,-10.0060501098633,1.01205003261566,1.5613124370575,0.73535001277924,0.06104999780655,0.4991250038147,1.08185005187988,1.10866248607636,5.77800035476685,16.125,23.67405128479,-3.64305019378662,-5.65500020980835,-6.10500049591064,SHAKE
-2.00970005989075,-3.6064875125885,-4.68902492523193,17.9040012359619,14.1139507293701,9.91395092010498,-1.50150001049042,-1.89488744735718,-2.21869993209839,-1.20395004749298,-1.35794997215271,-1.14894998073578,10.3620004653931,3.03495025634766,-5.08500003814697,0.35505002737045,3.19500017166138,6.65805053710938,-4.04139995574951,-0.48867499828339,3.75306248664856,-13.91100025177,-25.3950004577637,-28.9630508422852,2.09879994392395,2.71218752861023,2.56547498703003,1.07690000534058,-0.13502499461174,-0.36959999799728,-9.85395050048828,-8.25300025939941,-1.67295002937317,8.42100048065186,3.87705016136169,-1.71900010108948,5.25937509536743,3.63206243515015,1.36826252937317,11.6539506912231,16.7740516662598,21.1530017852783,-0.89801251888275,-0.91753751039505,-0.85153746604919,0.60293751955032,-0.25588750839233,-0.84108752012253,28.2180004119873,26.0500507354736,20.5849514007568,-4.95705032348633,-2.85105013847351,-1.32405006885529,-4.91988754272461,-5.34985017776489,-5.44280004501343,8.24100017547607,3.89295029640198,-0.64995002746582,-2.05865001678467,-1.97064995765686,-0.39710000157356,-1.17589998245239,0.43683749437332,1.98714995384216,-6.68400049209595,-12.5749502182007,-11.6200504302979,5.20005035400391,8.83500003814697,13.3530006408691,4.56788730621338,6.55448722839355,5.76647520065308,-28.2930011749268,-14.6509504318237,3.331050157547,3.24114990234375,1.34255003929138,-0.48867499828339,-0.56622499227524,0.4991250038147,1.09889996051788,7.28295040130615,20.355001449585,26.4210014343262,-5.08095026016235,-11.776050567627,-12.5850009918213,SHAKE
-4.47026252746582,-5.02493762969971,-5.03964996337891,6.20700025558472,2.75205016136169,-2.82000017166138,-1.57478749752045,0.51301246881485,2.35290002822876,2.19972491264343,1.88333749771118,0.07273750007153,-8.20995044708252,-6.21705007553101,-5.32905006408691,12.0030002593994,14.6590509414673,11.9080505371094,6.36748743057251,5.41213750839233,3.54653739929199,-5.54805040359497,5.31495046615601,13.1179504394531,1.9901750087738,-0.1710499972105,-1.94865000247955,0.01773750036955,0.56993746757507,0.54312497377396,19.5150012969971,22.9180507659912,21.6520519256592,-11.9490003585815,-14.9970006942749,-13.4370002746582,-4.36892509460449,-5.81666231155396,-2.48132491111755,9.74895000457764,4.81695032119751,-25.6129512786865,-1.35492503643036,5.34242486953735,5.61618757247925,2.06896257400513,-0.35365000367165,-0.65670001506805,-9.8730001449585,-5.53695011138916,5.77500009536743,26.7700519561768,14.4180002212524,0.72795003652573,0.57172501087189,-1.92417502403259,-3.45262503623962,21.235050201416,20.2390518188477,13.5150003433228,-2.66337490081787,-1.51373744010925,-0.12223749607801,-0.17531250417233,-1.07690000534058,0.10202500224113,14.4109506607056,-1.97205007076263,-7.34895038604736,-2.84595012664795,11.6520004272461,15.8890504837036,1.59307503700256,4.17697477340698,4.80865001678467,-22.1860504150391,-18.8860511779785,-7.10100030899048,3.58929991722107,0.43243750929832,-0.87725001573563,0.22055000066757,0.90832501649857,0.58574998378754,4.51695013046265,18.5269508361816,21.6520519256592,-2.87205004692078,-14.6410503387451,-12.8959503173828,SHAKE
-4.33097505569458,-3.71401238441467,-1.56254994869232,7.67895030975342,-7.77795028686523,-16.7400016784668,1.84841251373291,3.31443738937378,3.99011254310608,1.30542504787445,1.31889998912811,0.45759999752045,-7.50405025482178,-5.84805011749268,-2.57505011558533,17.8200016021729,13.3909502029419,6.48000049591064,4.29921245574951,1.70912504196167,0.05252499878407,2.03205013275146,13.2400503158569,14.403000831604,-1.54068744182587,-1.85707497596741,-2.04517507553101,-0.14107500016689,-0.61022502183914,-0.84232497215271,21.5800514221191,18.7519512176514,14.5170011520386,-9.13005065917969,-5.9089503288269,-2.50395011901855,-4.11358737945557,-4.21740007400513,-2.6389000415802,4.80300045013428,-3.27000021934509,-14.6820011138916,-0.72696250677109,1.22045004367828,2.45808744430542,1.05861246585846,0.69093751907349,0.09597499668598,-8.57205009460449,-7.30605030059814,-4.69005012512207,17.0950508117676,16.10205078125,10.1820001602173,4.76712512969971,4.1574501991272,3.3547248840332,-3.01395010948181,3.77100014686584,8.18400001525879,-0.95658749341965,-0.9285374879837,-0.87477499246597,0.78856247663498,0.17778749763966,-0.45388749241829,21.1069507598877,21.4080009460449,16.6699504852295,-4.42095041275024,-2.84400010108948,-0.60405004024506,-3.2045750617981,-3.55272507667542,-2.89794993400574,6.09705018997192,-2.62605023384094,-7.48095035552979,-1.44773745536804,0.63277500867844,1.82022500038147,0.15207499265671,0.66275000572205,0.38664999604225,-4.66605043411255,-3.35700011253357,-1.44300007820129,8.29905033111572,12.1159505844116,10.2799501419067,SHAKE
4.1574501991272,3.3547248840332,0.54243749380112,3.77100014686584,8.18400001525879,14.367000579834,-0.9285374879837,-0.87477499246597,-0.9675874710083,0.17778749763966,-0.45388749241829,-0.66893750429153,21.4080009460449,16.6699504852295,12.4900503158569,-2.84400010108948,-0.60405004024506,0.98205006122589,-3.55272507667542,-2.89794993400574,-1.92183744907379,-2.62605023384094,-7.48095035552979,-11.1949501037598,0.63277500867844,1.82022500038147,2.68042492866516,0.66275000572205,0.38664999604225,0.23154999315739,-3.35700011253357,-1.44300007820129,6.20595026016235,12.1159505844116,10.2799501419067,2.0419499874115,2.90523743629456,1.79960000514984,0.65848749876022,9.71805000305176,11.3110504150391,12.0940504074097,0.22357499599457,-0.26152500510216,-0.85401248931885,-0.35365000367165,-1.04032504558563,-1.32866251468658,21.7050018310547,20.0440502166748,17.0650501251221,-7.34700012207031,-7.20795011520386,-6.05700016021729,-3.53815007209778,-4.13668727874756,-4.43602514266968,7.15305042266846,4.26900005340576,0.01200000010431,-2.47527503967285,-1.96707499027252,-0.66838747262955,-1.08432495594025,0.1387374997139,1.14042496681213,-2.58000016212463,-5.29605007171631,-4.55895042419434,8.33700084686279,11.5849504470825,14.4300003051758,3.13733744621277,4.41760015487671,4.40673732757568,-18.235050201416,-10.4370002746582,-2.07405018806458,1.77636253833771,0.99563747644424,0.49843749403954,1.01461243629456,1.43618750572205,0.92056250572205,10.5540008544922,14.5909509658813,17.9239501953125,-4.05194997787476,-6.66000032424927,-6.61695051193237,SHAKE
3.20938754081726,2.75618743896484,1.36578750610352,1.09095001220703,7.28400039672852,12.8170509338379,-0.03918749839067,-0.83943748474121,-2.159987449646,-1.49723744392395,-1.5057624578476,-1.20518743991852,21.445951461792,19.0200004577637,10.7209501266479,-7.05300045013428,-6.95205020904541,-0.6690000295639,-4.70978736877441,-2.59984993934631,1.02863752841949,1.33800005912781,-17.7709503173828,-27.1369514465332,1.18250000476837,1.81293749809265,1.86917495727539,1.39576244354248,0.91327500343323,0.88151252269745,-7.98795032501221,-7.55700016021729,-3.29805016517639,14.0800504684448,9.87795066833496,4.14495038986206,4.98946237564087,3.90087509155273,1.91688752174377,6.15195035934448,12.07200050354,18.6070499420166,0.50448751449585,-0.3616249859333,-1.56997501850128,-0.38912498950958,-0.94861251115799,-0.87174999713898,24.7770004272461,24.1549510955811,20.2789516448975,-7.74000024795532,-10.0270500183105,-9.7470006942749,-4.35545015335083,-5.01393747329712,-5.3535623550415,10.0140008926392,6.50205039978027,1.56000006198883,-1.77883744239807,-0.49967500567436,0.94916248321533,-1.21261250972748,-0.20336249470711,0.81674998998642,-5.6380500793457,-8.94495010375977,-8.52105045318604,13.0969505310059,16.2889499664307,16.2049503326416,4.48483753204346,5.62966251373291,4.90146255493164,-22.7029514312744,0.2710500061512,6.65505027770996,1.68712496757507,0.70358747243881,-0.52043747901917,0.91451251506805,-0.85208749771118,-1.30666244029999,14.0929508209229,23.9110507965088,23.4229507446289,-5.54100036621094,-9.99600028991699,-11.9940004348755,SHAKE
-5.11898756027222,-5.56984996795654,-5.31203746795654,7.68600034713745,3.17100024223328,-4.56195020675659,-0.85401248931885,1.27902495861053,2.92352509498596,0.02378750033677,0.8485124707222,0.20102499425411,-9.34905052185059,-8.6050500869751,-8.07900047302246,19.476001739502,20.3380508422852,8.56695079803467,6.02304983139038,5.51595020294189,3.12262487411499,-1.60395002365112,4.67805004119873,16.711950302124,1.93146252632141,-0.8259624838829,-2.80018758773804,-0.84479999542236,-2.04091238975525,-1.46547496318817,20.8720512390137,20.7430515289307,16.6440010070801,-8.53605079650879,-14.6620502471924,-12.1230001449585,-5.3388500213623,-5.99252510070801,-2.12822508811951,7.39695024490356,2.50800013542175,-21.939001083374,1.86422502994537,2.39208745956421,1.9461749792099,0.53693747520447,0.36217498779297,0.69574999809265,-8.56695079803467,-7.21695041656494,-2.01495003700256,21.0820503234863,8.02605056762695,2.88600015640259,3.92163753509521,1.94741249084473,-0.13076250255108,15.5800504684448,21.4330501556396,22.0200004577637,-0.76367497444153,-1.90836250782013,-2.74161243438721,-0.97432500123978,-0.71046251058578,-0.50517499446869,23.6689510345459,20.0269508361816,14.8399505615234,-9.46695041656494,-8.45700073242188,-3.77205014228821,-5.48913764953613,-5.87028741836548,-5.54785013198853,9.79905033111572,3.84300017356873,-4.0620002746582,-0.99935001134872,1.25345003604889,1.3034999370575,0.31459999084473,1.61204993724823,1.07566249370575,-9.94005012512207,-9.21300029754639,-7.84200048446655,16.78005027771,13.992000579834,7.99005031585693,SHAKE
-4.63278770446777,-5.48913764953613,-5.87028741836548,14.4199504852295,9.79905033111572,3.84300017356873,-1.99636244773865,-0.99935001134872,1.25345003604889,-0.518649995327,0.31459999084473,1.61204993724823,-5.50395011901855,-9.94005012512207,-9.21300029754639,13.7640008926392,16.78005027771,13.992000579834,5.61989974975586,6.20867490768433,5.13851261138916,-18.3910503387451,2.82105016708374,12.702000617981,1.78117501735687,0.15262499451637,-1.05558753013611,1.10742497444153,-1.11237502098084,-1.25413751602173,15.7920007705688,24.5209503173828,22.5090007781982,-2.51805019378662,-6.90900039672852,-7.50705051422119,-5.16298770904541,-6.19657516479492,-4.16968727111816,12.6780004501343,7.67400026321411,-17.1730499267578,-0.03671250119805,2.46784996986389,2.58747506141663,1.71228754520416,0.0629749968648,-0.22659999132156,-9.11505031585693,-7.76805019378662,-5.2020001411438,21.106050491333,11.5560007095337,6.00405025482178,4.29673767089844,2.9711000919342,1.48802495002747,11.5909509658813,16.4899501800537,18.65505027771,1.20216250419617,0.79406249523163,-0.32257500290871,-0.31336250901222,-1.59981250762939,-1.85514998435974,22.3099517822266,21.5560512542725,18.4860000610352,-3.32505011558533,-4.38000011444092,-6.74400043487549,-4.16116237640381,-5.15570020675659,-5.88376235961914,11.9689502716064,8.55705070495605,2.81400012969971,-3.41109991073608,-1.79231250286102,2.26985001564026,0.20102499425411,1.27847504615784,0.3634124994278,-6.90900039672852,-8.28194999694824,-7.14795017242432,10.8570003509521,17.7100505828857,16.6840515136719,SHAKE
-4.90269994735718,-5.99857473373413,-6.69624996185303,12.8359508514404,8.83005046844482,2.10105013847351,-4.05363750457764,-1.69331252574921,2.75618743896484,-0.10449999570847,0.94737499952316,0.43312498927116,-9.88500022888184,-11.0050506591797,-10.5460500717163,13.6110010147095,22.2259502410889,17.3350505828857,7.49265003204346,7.13845014572144,4.43959999084473,-12.4729509353638,-0.15705001354218,17.6809501647949,1.51126253604889,0.15510000288486,-2.09412503242493,1.42518746852875,-1.10013747215271,-1.37252497673035,18.3499507904053,24.2700004577637,16.2900009155273,-6.77505016326904,-8.75895023345947,-6.29400014877319,-5.72989988327026,-7.04563760757446,-5.63695001602173,12.1300506591797,-0.6400500535965,-14.1030006408691,1.86422502994537,2.88557505607605,3.86416244506836,1.21618747711182,0.13626250624657,-0.92661249637604,-11.1370506286621,-11.5099506378174,-6.37305021286011,20.2470016479492,14.2570505142212,3.13800024986267,5.84828758239746,1.93888747692108,-0.27857500314713,12.9340505599976,24.3030014038086,25.9150505065918,-1.4832124710083,-2.39456248283386,-3.0494749546051,-0.43188750743866,-0.71898752450943,-0.81427496671677,23.1169509887695,19.678050994873,14.9449510574341,-12.1879501342773,-8.98200035095215,-4.14795017242432,-5.94000005722046,-6.6559624671936,-6.99063730239868,11.7109508514404,7.18395042419434,0.12900000810623,-3.20581245422363,-1.63721251487732,2.32979989051819,0.50393748283386,2.13001251220703,0.61874997615814,-12.996000289917,-13.8460502624512,-11.0820007324219,14.4630002975464,20.0269508361816,16.582950592041,SHAKE
-6.16481256484985,-6.90511226654053,-0.64267498254776,10.5979509353638,3.04905009269714,-30.2880020141602,3.34372496604919,4.86351251602173,3.84106254577637,0.5906999707222,-1.05366253852844,-0.31707498431206,-9.47895050048828,-5.48700046539307,4.50705003738403,26.4090003967285,4.4389500617981,-6.04095029830933,3.07133746147156,1.3084499835968,-1.25468754768372,13.8600006103516,18.7129516601563,22.7380504608154,-3.02747488021851,-4.87588739395142,-5.73471260070801,-0.87656247615814,0.13502499461174,1.10385000705719,21.1350002288818,15.3610506057739,8.94600009918213,-16.3560009002686,-11.0710506439209,-2.19300007820129,-6.43720006942749,-6.75606250762939,-4.14534997940063,5.60700035095215,-3.55995011329651,-22.2169513702393,1.2667875289917,3.4134373664856,3.82511258125305,0.86927497386932,-0.28764998912811,-1.20271253585815,-13.2949504852295,-11.9860506057739,-11.0650501251221,27.3199520111084,19.4670009613037,9.01500034332275,5.08227491378784,3.69201254844666,-0.48262500762939,9.37095069885254,14.3029508590698,22.7209510803223,-0.55110001564026,-3.00795006752014,-3.60415005683899,-0.87174999713898,0.17531250417233,0.59193748235703,23.7990016937256,14.0359506607056,6.61305046081543,-7.25895023345947,-3.78405022621155,2.13705015182495,-5.76042509078979,-1.98041248321533,6.59724998474121,-10.4080505371094,-27.7420520782471,-25.4260520935059,4.05721235275269,3.33396244049072,2.62899994850159,-0.9620875120163,-0.21807499229908,0.45746248960495,-9.77505016326904,5.43300008773804,14.9809503555298,7.04295015335083,-3.32895016670227,-7.00995016098022,SHAKE
-6.73048734664917,-6.53248739242554,-3.5294873714447,2.81895017623901,-7.24695014953613,-24.1960506439209,0.66948747634888,2.25885009765625,2.33832502365112,0.52717500925064,0.01031249947846,-0.3951750099659,-14.0710506439209,-13.3890008926392,-12.6949510574341,23.2690505981445,16.7700004577637,8.47395038604736,7.40355014801025,5.333899974823,2.22475004196167,7.11405038833618,20.4810009002686,29.5330505371094,0.20281249284744,-1.56997501850128,-3.17281246185303,-1.62909996509552,-1.95043754577637,-1.3199999332428,25.4020519256592,20.5630512237549,14.2920007705688,-9.75405025482178,-10.8720006942749,-6.31305027008057,-7.25202512741089,-6.13910007476807,-1.75312495231628,1.61100006103516,-13.0110006332397,-30.4440021514893,2.86123752593994,4.33083724975586,3.88863754272461,-0.9560375213623,-1.26637494564056,-0.57722496986389,-11.7730503082275,-12.7230005264282,-11.1370506286621,27.1840515136719,17.4019508361816,6.75600051879883,6.42867517471313,5.18498754501343,3.88863754272461,1.71105003356934,9.7339506149292,14.2429504394531,0.5020124912262,0.62301248311996,0.48620000481606,1.23695003986359,-0.17049999535084,-1.56200003623962,19.0060501098633,22.252950668335,22.5379505157471,-2.5570502281189,-3.46800017356873,-4.45905017852783,-3.32791256904602,-4.34197521209717,-5.37185001373291,17.3770503997803,13.3930501937866,10.6410007476807,-3.66643738746643,-4.04511260986328,-2.68537497520447,-0.60293751955032,-0.1190750002861,0.80451250076294,1.82505011558533,-7.11195039749146,-12.832950592041,3.22095012664795,9.77295017242432,18.6529502868652,SHAKE
-5.37185001373291,-6.46291255950928,-6.81229972839355,10.6410007476807,5.91105031967163,-2.72205018997192,-2.68537497520447,0.03904999792576,2.29556250572205,0.80451250076294,1.12090003490448,0.45746248960495,-12.832950592041,-11.5579509735107,-10.1800508499146,18.6529502868652,24.351001739502,21.5920505523682,6.66682481765747,6.56053733825684,5.42808723449707,-20.2360515594482,4.63500022888184,11.7370510101318,0.51067501306534,-0.26276248693466,-2.92847490310669,0.85579997301102,-0.27912500500679,-0.80079996585846,20.181001663208,22.4830513000488,16.8660011291504,-3.78195023536682,-6.72000026702881,-5.69400024414063,-5.2167501449585,-6.57648754119873,-4.16611242294312,11.7679510116577,-3.87105011940002,-19.6900501251221,1.96927499771118,4.16597509384155,4.54588747024536,0.40617498755455,-0.34636250138283,-0.39765000343323,-10.0939502716064,-10.2850503921509,-10.6150503158569,28.9069519042969,22.1490001678467,11.5270509719849,7.91917514801025,6.62653732299805,4.25397491455078,-4.99305009841919,8.50005054473877,18.784049987793,2.45190000534058,1.54907500743866,0.24186250567436,0.7262749671936,0.17655000090599,-0.81056249141693,16.3500003814697,20.0539512634277,20.8579502105713,-5.42100048065186,-9.64905071258545,-11.4919509887695,-3.2876250743866,-4.42873764038086,-5.7017126083374,17.1690006256104,14.4940509796143,11.907000541687,-4.70002508163452,-4.3102126121521,-2.21251249313354,-0.29754999279976,0.61022502183914,1.62428748607636,-0.37095001339912,-8.84205055236816,-12.4909505844116,3.93195009231567,12.7450504302979,22.3120517730713,SHAKE
1.90946245193481,5.53189992904663,6.76830005645752,-29.6800518035889,-24.7729511260986,-9.75,3.15809988975525,2.52271246910095,1.7604124546051,0.27788749337196,0.67498749494553,1.08432495594025,-5.92500019073486,3.27705025672913,11.8920001983643,3.02700018882751,-3.31305027008057,-6.14595031738281,2.91623759269714,0.22110000252724,-2.06964993476868,19.1290512084961,23.7280502319336,20.4070510864258,-1.94383752346039,-3.49414992332459,-4.34321260452271,-0.70798748731613,-0.14478750526905,-0.1032624989748,20.0539512634277,14.7270002365112,7.49295043945313,-13.0540504455566,-8.425950050354,-1.71900010108948,-6.68524980545044,-5.85076236724854,-1.85088753700256,2.07195019721985,-11.2500009536743,-27.9430503845215,1.26568746566772,2.56795001029968,2.64123749732971,1.18937504291534,1.06961250305176,1.0231374502182,-8.08305072784424,-7.68600034713745,-5.0590500831604,21.0529518127441,13.1230506896973,5.56605005264282,5.38408756256104,3.90692496299744,1.65164995193481,3.79095029830933,13.6399507522583,21.8740501403809,0.856350004673,0.09886249899864,-0.74648749828339,-0.54670000076294,-0.50888746976852,-0.25836250185966,27.0769519805908,25.4260520935059,20.9080505371094,-3.44895005226135,-5.63895034790039,-3.92295026779175,-5.23998737335205,-5.69689989089966,-5.65042495727539,6.99705028533936,3.48900008201599,-3.16500020027161,-0.22852499783039,-0.53638750314713,-0.42638748884201,-0.55398750305176,0.5429875254631,1.10632503032684,-11.4169502258301,-14.451000213623,-12.2500505447388,8.83305072784424,5.67405033111572,6.83505010604858,SHAKE
-0.84177500009537,-2.53756237030029,-3.73601245880127,22.8910503387451,18.1290016174316,13.9990510940552,-1.38668751716614,-1.08377504348755,-0.45457500219345,-0.44165000319481,-0.78127497434616,-1.04032504558563,9.74505043029785,2.67900013923645,-4.66200017929077,3.54900026321411,7.11900043487549,10.2010507583618,-4.74388742446899,-2.27480006217957,1.71888744831085,-11.3239507675171,-21.5490016937256,-29.5129508972168,0.00357499998063,0.29919999837875,0.84411251544952,1.04884994029999,0.41483750939369,-0.56622499227524,-11.1630001068115,-11.331000328064,-5.87505006790161,7.27695035934448,5.74305009841919,5.53005027770996,6.10486268997192,5.24603748321533,2.42137503623962,6.99000024795532,14.695050239563,26.7600021362305,1.74212503433228,0.52896249294281,-0.64391249418259,-0.38060000538826,-0.05678749829531,0.20460000634193,25.1170520782471,23.4799518585205,18.5700016021729,-2.94195008277893,-6.27000045776367,-5.800950050354,-5.42684984207153,-6.2123875617981,-5.84595012664795,9.23400020599365,3.17295026779175,-7.24905014038086,-2.57056260108948,-1.21563744544983,0.21986250579357,1.81610000133514,1.52281248569489,-0.18754999339581,-8.34405040740967,-5.72205018997192,-5.06805038452148,4.96095037460327,9.36900043487549,8.61705017089844,6.32596254348755,6.07433748245239,5.19351243972778,-14.5000505447388,-1.29105007648468,5.97300004959106,2.07679986953735,1.45749998092651,0.58148747682571,-1.40799999237061,-0.92908751964569,-0.48193749785423,18.4939517974854,25.4380512237549,28.0129508972168,-1.74300003051758,-3.04905009269714,-4.12905025482178,SHAKE
0.82458752393723,-1.58826243877411,-3.29738759994507,25.1620502471924,24.1489505767822,18.8200511932373,-1.17040002346039,-1.14482498168945,-1.06782495975494,-0.39393749833107,-0.76298749446869,-1.13808751106262,19.5060005187988,13.2030010223389,5.97900009155273,-1.49895012378693,2.56800007820129,4.92000007629395,-5.08475017547607,-2.65842509269714,1.29621243476868,-10.5730504989624,-21.901050567627,-30.6109523773193,0.90516251325607,1.61012494564056,1.92541253566742,0.31459999084473,-0.68722498416901,-1.50328743457794,-9.73695087432861,-9.51705074310303,-4.99905014038086,8.64600086212158,4.71705007553101,1.60605013370514,6.18186235427856,5.48542499542236,3.3547248840332,6.06405019760132,13.0819501876831,23.4289512634277,0.16005000472069,-0.24681249260902,-0.63043749332428,-0.06655000150204,-0.56374996900558,-0.8790374994278,26.8039512634277,26.6149520874023,21.9420013427734,-3.30105018615723,-3.47100019454956,-2.82495021820068,-4.43244981765747,-5.26556253433228,-5.22898769378662,12.6780004501343,6.34905052185059,-2.6380500793457,-1.70183753967285,-0.83324998617172,0.46048748493195,-0.25588750839233,0.4476999938488,0.01649999991059,-9.69900035858154,-9.85905075073242,-8.20305061340332,9.67005062103272,11.4769506454468,11.5939502716064,4.18316268920898,4.6998872756958,4.44578742980957,-15.7300510406494,-5.85900020599365,7.62195014953613,0.03409999981523,-0.60486251115799,-0.39338749647141,-0.40741249918938,-0.07631249725819,-0.80451250076294,15.4980010986328,22.5060005187988,22.1670017242432,-2.20500016212463,-0.91995006799698,0.78795003890991,SHAKE
-0.74524998664856,2.29061245918274,4.18316268920898,-22.6759510040283,-23.67405128479,-15.7300510406494,1.54412496089935,0.60953748226166,0.03409999981523,-1.14166247844696,-1.13561248779297,-0.40741249918938,-3.58005023002625,9.90795040130615,15.4980010986328,2.81205010414124,-2.11605000495911,-2.20500016212463,-0.3103374838829,-1.42326247692108,-3.70053744316101,17.026050567627,15.0540008544922,9.99105072021484,-1.6579749584198,-1.91936254501343,-0.07699999958277,-1.45447504520416,0.89980000257492,1.18813753128052,4.23900032043457,-7.4850001335144,-6.33405017852783,0.67500001192093,10.0150508880615,12.7930507659912,4.60954999923706,4.37731266021729,0.66453748941422,-0.15705001354218,6.09000015258789,25.5280513763428,-1.03729999065399,-1.21316254138947,-0.95301246643066,0.02254999987781,-0.03602499887347,-0.27912500500679,27.748950958252,24.7290019989014,19.4389514923096,-5.51205015182495,-2.2020001411438,0.69900006055832,-5.10551261901855,-5.73718738555908,-5.70047473907471,10.8330001831055,5.92695045471191,-1.80795013904572,-1.48444998264313,-1.38668751716614,-0.40438750386238,0.83380001783371,2.11901259422302,2.24125003814697,-8.71005058288574,-12.6949510574341,-12.373950958252,6.48000049591064,8.04300022125244,10.113000869751,5.35961246490479,7.04192495346069,6.93563747406006,-23.5549507141113,-10.9060506820679,2.757000207901,2.11227488517761,2.11832499504089,1.73112499713898,-0.36217498779297,0.05431250110269,0.43917500972748,3.80100011825562,14.1960010528564,22.0969505310059,0.88800007104874,-0.86700004339218,-3.82500028610229,SHAKE
6.40901231765747,5.06151247024536,2.52642488479614,10.8330001831055,19.9159507751465,28.4020519256592,1.02740001678467,0.03052499890327,-1.74226248264313,0.53570002317429,0.3438875079155,-0.15702499449253,26.5390510559082,25.6360511779785,13.9230003356934,-6.43995046615601,-8.27100086212158,-4.69800043106079,-5.33527517318726,-4.42749977111816,-1.42326247692108,6.28905010223389,-9.86700057983398,-21.0919513702393,1.24602496623993,1.80564999580383,2.40061259269714,1.39947497844696,0.30841249227524,-0.29507499933243,-9.48105049133301,-8.20499992370605,-2.06505012512207,9.96705055236816,5.81295013427734,3.40995025634766,5.56118726730347,3.71277499198914,0.73906248807907,15.3840007781982,23.6800518035889,30.586051940918,-0.70248746871948,-2.0769374370575,-2.73542499542236,0.52469998598099,0.8093249797821,0.07755000144243,28.5730514526367,25.0980014801025,11.7690010070801,-10.7980508804321,-9.93105030059814,0.52905005216599,-6.37972497940063,-6.4409122467041,-5.52213764190674,6.52995014190674,0.5460000038147,-7.63005018234253,-0.88948750495911,0.39091250300407,1.36826252937317,1.32742500305176,1.79038751125336,1.64505004882813,-11.7810001373291,-11.8480501174927,-10.3969507217407,11.532000541687,12.2640008926392,9.17700004577637,6.99063730239868,7.56965017318726,6.87582492828369,-16.885950088501,-3.61500024795532,7.27200031280518,1.45749998092651,1.14963746070862,0.49472498893738,0.10449999570847,0.51012498140335,1.05366253852844,6.96900033950806,17.5290012359619,24.4180507659912,1.09395003318787,-0.16395001113415,-2.37900018692017,SHAKE
-6.32486248016357,-6.43967485427856,-5.49532508850098,5.91105031967163,-0.99900007247925,-10.1260509490967,-1.22911250591278,0.74524998664856,2.28813743591309,-0.19731250405312,1.15266251564026,1.10137498378754,-12.7690505981445,-11.6299505233765,-10.5169506072998,15.2269506454468,17.5600509643555,14.0130004882813,7.23250007629395,7.26921224594116,6.20867490768433,-16.885950088501,-2.97105002403259,9.15105056762695,2.87828755378723,0.14781250059605,-1.99759995937347,0.06531249731779,-0.37083750963211,-0.30360001325607,14.9329509735107,26.392951965332,24.0280513763428,-1.81500005722046,-12.3360004425049,-14.2939510345459,-5.29374980926514,-7.25092506408691,-6.61801242828369,16.9080009460449,2.70705008506775,-9.19500064849854,1.53436243534088,3.99011254310608,4.13668727874756,0.67993748188019,-0.56374996900558,-1.27971243858337,-11.6460008621216,-11.4859504699707,-4.77405023574829,24.9870014190674,18.201000213623,-0.4870500266552,5.93505001068115,3.58572506904602,0.81730002164841,10.9330501556396,22.1269512176514,26.7790508270264,-1.68726253509521,-3.05552506446838,-3.72996258735657,0.35488748550415,0.82527500391006,0.81180000305176,24.1380004882813,21.2670001983643,15.7750511169434,-13.1809501647949,-9.50295066833496,-4.71000003814697,-6.24057483673096,-6.90140008926392,-5.9252872467041,8.62395000457764,0.32295000553131,-11.5350008010864,-1.78983747959137,1.28273749351501,3.45743751525879,1.60599994659424,1.50823748111725,0.21683749556541,-8.67705059051514,-8.55195045471191,-9.14400005340576,19.5,22.1320514678955,16.6810512542725,SHAKE
2.33337497711182,-2.91871237754822,-4.37002515792847,24.9370517730713,22.7160015106201,16.5589504241943,-3.67867493629456,-3.58214998245239,-3.24981236457825,1.35671246051788,0.60541248321533,-0.18878750503063,11.7619504928589,5.88105010986328,-0.7590000629425,-2.65500020980835,3.61605024337769,7.89900016784668,-5.24232482910156,-2.15269994735718,1.98646247386932,-12.2670001983643,-23.5740013122559,-29.5489521026611,2.73528742790222,2.86728739738464,2.78423738479614,0.51122498512268,-0.19607499241829,-0.65546250343323,-8.52105045318604,-7.60005044937134,-4.0489501953125,11.4150009155273,5.48295021057129,1.78605008125305,6.16715002059937,4.39326238632202,2.17222499847412,6.45900011062622,17.0020503997803,23.4289512634277,-0.29809999465942,-1.66526246070862,-2.40198755264282,0.59193748235703,0.93761247396469,1.06589996814728,22.6600513458252,22.5499515533447,18.4860000610352,-9.36900043487549,-8.2300500869751,-4.9830002784729,-5.48680019378662,-6.36886262893677,-6.80735015869141,12.4500007629395,6.15195035934448,-0.86700004339218,-2.32127499580383,-1.85707497596741,-0.71719998121262,0.39160001277924,2.02248740196228,2.11667490005493,-7.02795028686523,-10.5430507659912,-9.58905029296875,8.57400035858154,9.87405014038086,12.2190008163452,4.15373754501343,6.73406267166138,7.80065011978149,-30.8290519714355,-20.9580001831055,-9.68805027008057,3.84463739395142,4.04868745803833,2.47637510299683,-2.59187507629395,-2.54416251182556,-1.41652500629425,0.8479500412941,8.69700050354004,18.5130004882813,6.16500043869019,0.4120500087738,-7.88100051879883,SHAKE
-0.26386249065399,-2.54237508773804,-4.27363729476929,25.7550010681152,23.5969505310059,18.3990001678467,-2.63532495498657,-2.51061248779297,-2.41903758049011,0.81551247835159,0.07631249725819,-0.49293750524521,12.7150506973267,5.99505043029785,-0.50505000352859,-1.44405007362366,2.99895024299622,6.44505023956299,-6.23315000534058,-3.95958757400513,0.02076249942183,-9.01095008850098,-19.3459510803223,-29.7210006713867,0.66577500104904,1.77512502670288,2.75976252555847,0.71403747797012,-0.61998748779297,-1.6938624382019,-7.8870005607605,-7.52805042266846,-4.72905015945435,12.1300506591797,9.1560001373291,6.94500017166138,7.50365018844604,5.18361234664917,1.98398745059967,1.6800000667572,16.5229511260986,25.9699516296387,-0.03918749839067,-1.9548374414444,-2.67313742637634,0.51741248369217,2.01148748397827,2.42330002784729,23.6719512939453,23.1259517669678,18.5989513397217,-12.6120004653931,-9.903000831604,-4.27695035934448,-5.96447515487671,-6.48738765716553,-6.4702000617981,11.0310001373291,4.15694999694824,-2.14800000190735,-1.69826245307922,-0.65491247177124,0.68282496929169,1.51181244850159,2.3695375919342,1.30047500133514,-5.57295036315918,-6.58500051498413,-7.23900032043457,6.05205011367798,8.08800029754639,9.51705074310303,2.58018755912781,5.27532482147217,7.01621246337891,-27.3550510406494,-24.0360012054443,-16.7200508117676,2.69623756408691,3.4684374332428,3.1409125328064,-2.10443758964539,-2.59792494773865,-3.0463125705719,-2.02005004882813,4.95900011062622,15.5910005569458,1.87200009822845,3.96105027198792,-0.06105000153184,SHAKE
0.54724997282028,-1.79836249351501,-3.76530003547669,27.9400520324707,27.3130512237549,20.7610511779785,-2.94442486763,-2.75990009307861,-2.28951239585876,3.30041241645813,1.79286253452301,0.69574999809265,14.4300003051758,6.94500017166138,-0.17505000531673,-2.91795015335083,1.87200009822845,5.0590500831604,-4.96869993209839,-1.51250004768372,2.29308748245239,-14.2459506988525,-25.1869506835938,-29.5609512329102,2.82576251029968,2.92352509498596,2.89904999732971,-1.83686244487762,-2.22172498703003,-2.49658751487732,-8.28000068664551,-7.10700035095215,-3.07500004768372,6.15000009536743,1.51800012588501,0.42600002884865,6.56782484054565,4.64612483978271,1.44649994373322,4.14495038986206,17.9610004425049,30.0340518951416,-0.4838624894619,-1.91207504272461,-2.64989995956421,1.39823746681213,2.81668758392334,2.50635004043579,24.7290019989014,22.2720012664795,15.44700050354,-11.1900005340576,-9.903000831604,-6.12405014038086,-5.61261224746704,-5.64685010910034,-4.98712491989136,2.50095009803772,-4.01205015182495,-9.13304996490478,-1.49792504310608,0.02433750033379,1.35121250152588,1.47028744220734,0.4476999938488,-1.26623749732971,-6.85605049133301,-5.99205017089844,-5.49900007247925,5.38695049285889,7.7509503364563,6.25305032730103,5.62594985961914,6.6203498840332,6.23672485351563,-19.0320014953613,-9.91695022583008,4.24995040893555,1.80812501907349,0.69877499341965,-0.52043747901917,-2.50511240959167,-0.33536249399185,1.82710003852844,15.4590005874634,23.2530002593994,26.4829521179199,3.32205009460449,-0.75000005960464,-2.04000020027161,SHAKE
0.91863751411438,-1.95965003967285,-4.02682495117188,29.9520015716553,27.9400520324707,18.7579517364502,-1.17906248569489,-1.01901245117188,-0.72448748350143,2.82026243209839,1.97119998931885,1.63652503490448,14.7270002365112,7.8070502281189,1.18800008296967,0.12300000339746,1.31400001049042,1.36905002593994,-4.49831247329712,-2.22846245765686,0.86982500553131,-9.79500007629394,-18.6520500183105,-25.0620002746582,0.52277499437332,0.98463749885559,1.00787496566772,-1.35423743724823,-1.97738754749298,-2.17896246910095,-7.80300045013428,-7.27695035934448,-3.81195020675659,0.52905005216599,-0.04605000093579,-0.83805006742477,6.76940011978149,5.64300012588501,2.21732497215271,1.43805003166199,15.7600507736206,33.7230033874512,0.94682496786118,-0.63896250724792,-1.67131245136261,0.93761247396469,2.95721244812012,3.21983742713928,29.5780506134033,26.0599517822266,16.8589515686035,0.08700000494719,-6.31095027923584,-5.85405015945435,-6.71824979782104,-6.72306251525879,-6.11957502365112,3.19005012512207,-1.99500012397766,-6.46695041656494,-0.47657498717308,0.3408625125885,1.08844995498657,1.83191251754761,0.90956246852875,-1.20642495155334,-9.36405086517334,-9.92100048065186,-8.40405082702637,2.5969500541687,1.83105003833771,1.2520500421524,7.03450012207031,8.25013732910156,8.01432514190674,-16.2970504760742,-9.36495018005371,5.8840503692627,1.95469999313354,2.20385003089905,0.63277500867844,-2.75797510147095,-0.94861251115799,1.35671246051788,16.9450511932373,27.6010513305664,31.1329517364502,10.0669507980347,5.76495027542114,-4.36094999313354,SHAKE
-2.42027497291565,-4.54478740692139,-5.92171239852905,30.5500507354736,19.4520015716553,10.1389503479004,-1.80207502841949,-1.59554994106293,-1.07387495040894,1.42147493362427,0.8729875087738,1.06466245651245,8.07194995880127,1.58295011520386,-4.71405029296875,-0.70905005931854,1.53900003433228,2.95800018310547,-4.98946237564087,-3.16799998283386,0.39586248993874,-8.04600048065186,-15.0139503479004,-26.7709522247314,0.50696247816086,-0.0196624994278,-0.61586248874664,-1.63405001163483,-2.16548752784729,-2.5636875629425,-7.65300035476685,-7.97295045852661,-4.98195028305054,-2.86005020141602,-4.32000017166138,-3.07095003128052,8.86104965209961,7.03697490692139,2.97357487678528,-1.63800013065338,18.3079509735107,35.3290519714355,1.67859995365143,0.25891250371933,-0.64515000581741,0.36588749289513,2.57358741760254,3.14159989356995,30.9250507354736,29.1319522857666,20.8410015106201,4.28595018386841,-3.72195029258728,-4.24395036697388,-5.95099973678589,-6.20015001296997,-6.17938756942749,5.81700038909912,0.34695002436638,-3.03105020523071,-1.1583000421524,-1.01530003547668,0.31638750433922,1.64986252784729,2.10691237449646,-1.39823746681213,-8.78700065612793,-10.7899503707886,-8.35095024108887,-0.72105002403259,-1.18800008296967,1.22100007534027,6.62653732299805,8.30266284942627,8.76576232910156,-20.074951171875,-12.4279508590698,-1.17105007171631,1.65783751010895,2.09151244163513,0.3616249859333,-3.20636248588562,-1.93696248531342,0.89485001564026,8.69700050354004,22.6069507598877,28.9290008544922,9.16499996185303,8.03295040130615,-3.07800006866455,SHAKE
-1.02506244182587,-3.08481240272522,-4.64007520675659,27.8490009307861,20.5530014038086,12.8209505081177,-1.36592495441437,-1.05435001850128,-0.90172499418259,2.03472495079041,0.75198751688004,0.24378749728203,12.8730001449585,6.07395029067993,-0.64605003595352,0.89805006980896,1.52700006961823,1.57305002212524,-5.12269973754883,-3.17281246185303,0.45319998264313,-7.11105012893677,-15.5860509872437,-26.650951385498,0.37262499332428,0.42872500419617,0.30538749694824,-0.95480000972748,-1.95414996147156,-2.5943500995636,-7.14495038986206,-7.48800039291382,-4.44405031204224,0.30705001950264,-1.52805006504059,-0.63495004177094,8.51042461395264,6.05109977722168,2.17098760604858,0.86595004796982,20.988000869751,32.1300010681152,0.98463749885559,-1.54178750514984,-2.70132493972778,0.02378750033677,2.68468737602234,3.5069375038147,28.348051071167,26.3899517059326,18.7900505065918,-5.8090500831604,-10.0219507217407,-5.05005025863647,-6.35167503356934,-6.61924982070923,-6.61924982070923,6.17595052719116,0.31800001859665,-2.91795015335083,-0.82101249694824,-0.29081249237061,0.26991251111031,1.47647500038147,2.01272487640381,0.81551247835159,-7.89705038070679,-10.0549507141113,-9.09794998168945,2.83800005912781,1.53000009059906,1.26900005340576,3.59548759460449,6.61182498931885,8.45913791656494,-29.7259521484375,-22.6290016174316,-14.5669507980347,0.82829999923706,2.00103759765625,2.97852492332459,-3.07559990882874,-3.59851241111755,-3.21860003471375,-2.12505006790161,4.73205041885376,19.3380012512207,1.51800012588501,7.57395029067993,9.71295070648193,SHAKE
-2.72813749313354,-4.75859975814819,-5.8984751701355,26.941951751709,17.9590511322021,8.95905017852783,-1.57602500915527,-0.98477500677109,-0.44591251015663,1.43247497081757,0.54188752174377,0.45870000123978,7.51305055618286,0.20895001292229,-5.25495004653931,2.9320502281189,3.22800016403198,3.46095013618469,-4.7915997505188,-2.1379873752594,1.99993753433228,-10.1040000915527,-19.5439510345459,-29.1730518341064,0.68777501583099,0.67801249027252,0.90282499790192,-1.17713749408722,-1.99319994449615,-2.94249987602234,-7.01595020294189,-7.03305053710938,-3.80505013465881,-0.44100001454353,-1.22400009632111,1.06305003166199,7.97774982452393,4.66564989089966,1.04692494869232,7.77195024490356,24.6400508880615,30.3810005187988,-0.45691248774529,-1.98660004138947,-2.18569993972778,1.23695003986359,2.96697497367859,3.02073740959167,29.3310012817383,25.0140018463135,17.1730499267578,-6.86895036697388,-5.24895048141479,-0.94095003604889,-5.88994979858398,-6.08781242370605,-6.17086267471313,4.53495025634766,0.46005001664162,-2.33700013160706,-0.34457498788834,-0.53886252641678,-0.64762496948242,0.38417500257492,1.45928752422333,0.98656249046326,-8.38005065917969,-10.8690004348755,-9.06704998016357,0.3979500234127,-1.26705002784729,-0.85995006561279,4.23073768615723,7.10902500152588,8.828049659729,-30.810001373291,-21.738000869751,-12.7840509414673,0.72930002212524,2.49713754653931,3.13610005378723,-3.46293759346008,-3.29188752174377,-2.31577491760254,-0.62505000829697,6.90495014190674,20.5849514007568,6.08100032806396,11.1780004501343,8.30595016479492,SHAKE
-1.76426243782043,-3.93758749961853,-5.3535623550415,27.3529510498047,20.053050994873,11.4739503860474,-1.53945004940033,-0.7539125084877,-0.32752498984337,1.79286253452301,0.42088750004768,-0.24365000426769,10.5400505065918,3.91800022125244,-2.60595011711121,2.42895007133484,3.27600026130676,2.44800019264221,-5.75313758850098,-3.88024997711182,-0.01952499896288,-5.92800045013428,-14.7580509185791,-27.4720516204834,-0.46186250448227,-0.30428749322891,-0.11852499842644,-0.86061251163483,-1.80015003681183,-2.53811240196228,-7.38495016098022,-8.11500072479248,-6.13095045089722,0.63495004177094,0.10305000841618,1.5940500497818,9.38877487182617,6.91363763809204,2.57290005683899,-1.82505011558533,19.9879512786865,32.1030006408691,1.3084499835968,-0.82225000858307,-1.68850004673004,0.02254999987781,2.24001240730286,2.93755006790161,28.8670520782471,29.0460014343262,22.3080005645752,-3.95205020904541,-7.34505033493042,-3.52095007896423,-5.85199975967407,-6.14405012130737,-6.25886249542236,8.7940502166748,2.68500018119812,-0.94395005702972,-0.76367497444153,-0.85030001401901,-0.72820001840591,0.27183750271797,1.31642496585846,2.12024998664856,-4.78800010681152,-8.78894996643066,-10.2970504760742,1.57500004768372,1.14195001125336,0.69900006055832,1.14716243743896,4.63636255264282,6.92463731765747,-26.9260520935059,-26.053050994873,-18.034049987793,0.27967500686646,0.25286251306534,1.07511246204376,-2.05796241760254,-2.50387501716614,-2.67616248130798,-6.06600046157837,-1.36695003509521,5.4810004234314,-1.09200000762939,1.28295004367828,6.59295034408569,SHAKE
-2.93452501296997,-4.80507516860962,-5.85199975967407,23.5660514831543,16.4010009765625,8.7940502166748,-1.06053745746613,-0.7539125084877,-0.76367497444153,0.91574996709824,0.11055000126362,0.27183750271797,8.12295055389404,1.29105007648468,-4.78800010681152,2.31000018119812,2.2350001335144,1.57500004768372,-5.05065011978149,-2.59380006790161,1.14716243743896,-9.25695037841797,-18.6850509643555,-26.9260520935059,0.37372499704361,0.52648746967316,0.27967500686646,-0.7763249874115,-1.60352504253387,-2.05796241760254,-8.65799999237061,-8.70300006866455,-6.06600046157837,2.0220000743866,-0.43905001878738,-1.09200000762939,9.08819961547852,7.63565015792847,4.13916254043579,-3.24600005149841,13.4629507064819,26.7960014343262,1.13973748683929,-0.42762500047684,-1.41968750953674,-1.05737495422363,1.48871254920959,2.85092496871948,26.1960010528564,28.678050994873,24.3970508575439,1.32105004787445,-3.03300023078919,-2.35095000267029,-5.75313758850098,-5.88623762130737,-5.94371223449707,5.22600030899048,0.46395000815392,-2.34405016899109,-0.95658749341965,-0.93101251125336,-0.36657500267029,1.18690001964569,2.17153739929199,1.39947497844696,-7.06395053863525,-8.93505001068115,-7.42305040359497,1.08705008029938,0.32595002651215,1.98405003547668,4.27473735809326,8.01198768615723,8.43095016479492,-28.2019519805908,-11.1070508956909,-2.49705004692078,2.11351251602173,2.46289992332459,0.95534998178482,-2.85450005531311,-3.11960005760193,-0.93761247396469,5.7199501991272,18.7450504302979,25.8850517272949,5.50200033187866,6.68400049209595,-3.40395021438599,SHAKE
-2.06469988822937,-4.13311243057251,-5.39151239395142,27.7480506896973,19.9069499969482,11.4310503005981,-1.35492503643036,-1.03729999065399,-1.02382504940033,1.67076253890991,0.47217500209808,0.20226250588894,10.0560007095337,3.95895028114319,-2.34000015258789,2.78295016288757,2.29305005073547,1.96695005893707,-5.11775016784668,-2.84542489051819,0.690249979496,-7.63200044631958,-16.4929504394531,-24.9690017700195,0.74634999036789,1.01145005226135,1.0176374912262,-0.9755625128746,-2.06896257400513,-2.67245006561279,-6.66405010223389,-7.41105031967163,-5.19000005722046,1.53000009059906,-0.77400004863739,-0.8929500579834,8.0888500213623,6.64235019683838,3.54296255111694,-1.46595001220703,13.348051071167,26.0850009918213,1.06768751144409,-1.54426252841949,-1.34268748760223,-0.40259999036789,3.64746236801147,3.16236257553101,26.0670013427734,21.6019515991211,15.0139503479004,0.51705002784729,-2.11905002593994,0.8400000333786,-5.52337503433228,-5.57108736038208,-5.51113748550415,3.82905006408691,0.03795000165701,-2.61900019645691,-0.47286251187325,-0.21999999880791,0.4641999900341,0.98285001516342,2.20329999923706,1.77086246013641,-6.85605049133301,-8.74395084381104,-6.64500045776367,-0.20205001533031,-0.11100000888109,0.92895007133484,4.22592496871948,7.23855018615723,8.74499988555908,-27.9460506439209,-21.5850009918213,-11.4559507369995,1.4745500087738,2.54347491264343,2.35056257247925,-3.88932490348816,-3.46417498588562,-2.07996249198914,0.55605000257492,9.56295013427734,21.6330013275146,1.92900013923645,6.54000043869019,3.12105011940002,SHAKE
-4.63154983520508,-5.57218742370605,-5.65042495727539,15.5899505615234,8.39895057678223,2.89305019378662,-0.24076250195503,-0.28352499008179,-0.95053750276566,-0.30236250162125,-0.91079998016357,-0.43917500972748,3.65295028686523,-1.85700011253357,-6.98805046081543,2.61105012893677,1.16595005989075,-0.51300001144409,-4.29921245574951,-1.29387497901917,2.88447499275208,-10.1299505233765,-21.0040512084961,-27.9930019378662,0.31638750433922,0.38362500071526,0.61448746919632,-1.19542503356934,-2.29625010490417,-3.26136255264282,-6.51795053482056,-5.96805047988892,-3.16395020484924,2.08905005455017,0.57495003938675,2.55105018615723,8.80123710632324,5.13356256484985,1.54783749580383,10.6699504852295,27.2389507293701,31.0360507965088,0.03657500073314,-1.39163744449615,-1.64821243286133,1.11237502098084,2.5173499584198,2.47335004806519,28.9099521636963,26.1630020141602,19.8019504547119,-7.59105014801025,-6.1360502243042,-2.12805008888245,-5.74942493438721,-5.90700006484985,-5.99252510070801,8.35095024108887,3.75495028495789,0.99795007705688,-1.12653744220734,-1.85707497596741,-1.93159997463226,-0.9120374917984,-0.15083749592304,1.35423743724823,-2.46000003814697,-8.11500072479248,-10.4020500183105,0.15795001387596,0.17295001447201,2.26395010948181,-1.34997498989105,3.04328751564026,6.6643500328064,-21.7189502716064,-28.5060005187988,-24.9739513397217,0.87463748455048,1.105637550354,1.8191249370575,-1.93338751792908,-2.92050004005432,-2.94002509117126,-7.38495016098022,-5.42505025863647,-1.05105006694794,1.8880500793457,2.62500023841858,4.13295030593872,SHAKE
-5.00417518615723,-5.74942493438721,-5.90700006484985,15.3940505981445,8.35095024108887,3.75495028495789,-0.62191247940063,-1.12653744220734,-1.85707497596741,-0.7262749671936,-0.9120374917984,-0.15083749592304,3.04995012283325,-2.46000003814697,-8.11500072479248,1.10805010795593,0.15795001387596,0.17295001447201,-4.53983736038208,-1.34997498989105,3.04328751564026,-10.4370002746582,-21.7189502716064,-28.5060005187988,0.69382500648499,0.87463748455048,1.105637550354,-0.58574998378754,-1.93338751792908,-2.92050004005432,-6.99705028533936,-7.38495016098022,-5.42505025863647,3.82395029067993,1.8880500793457,2.62500023841858,8.7059497833252,5.79328727722168,2.51789999008179,8.12400054931641,21.9769515991211,28.2630004882813,0.39091250300407,-1.24987494945526,-1.81678748130798,0.56374996900558,2.12877488136292,2.54416251182556,27.2760009765625,26.6650505065918,21.1810512542725,-6.02100038528442,-6.72705030441284,-3.02295017242432,-5.45380020141602,-5.82518768310547,-6.02181243896484,10.4740505218506,5.34600019454956,1.78800010681152,-1.10453748703003,-1.68355000019073,-1.64697504043579,-0.62851250171661,0.37564998865128,1.93572497367859,-1.78305006027222,-6.84195041656494,-8.9209508895874,1.24200010299683,0.57705003023148,1.83600008487701,0.0757625028491,4.04868745803833,6.86840009689331,-24.4279518127441,-26.6749515533447,-19.8649501800537,1.53807497024536,1.89241254329681,2.11956238746643,-1.9516749382019,-2.72140002250671,-2.62611246109009,-6.88695049285889,2.86500024795532,15.7369508743286,0.30000001192093,3.93900012969971,5.08095026016235,SHAKE
-2.69389986991882,-4.4763126373291,-5.45380020141602,24.0250511169434,17.3010005950928,10.4740505218506,-1.07277500629425,-0.79048746824265,-1.10453748703003,0.693274974823,-0.44165000319481,-0.62851250171661,9.6709508895874,4.24905014038086,-1.78305006027222,1.70895004272461,2.29800009727478,1.24200010299683,-5.57095003128052,-3.60043740272522,0.0757625028491,-5.80395030975342,-14.4540004730225,-24.4279518127441,0.8038250207901,1.51236248016357,1.53807497024536,0.15702499449253,-1.18318748474121,-1.9516749382019,-6.64305019378662,-7.80795049667358,-6.88695049285889,5.97105026245117,2.58495020866394,0.30000001192093,7.44507503509521,4.61560010910034,1.56859993934631,12.1110010147095,22.7329502105713,28.9849510192871,-0.68667501211166,-1.57850003242493,-1.43797504901886,1.44471251964569,2.75068759918213,2.58816242218018,27.4530010223389,24.6270008087158,18.8740501403809,-4.76295042037964,-2.76705002784729,0.78300005197525,-5.32908725738525,-5.52089977264404,-5.71271228790283,7.90905046463013,3.35295009613037,0.30900001525879,-1.15582501888275,-1.51868748664856,-1.02382504940033,-0.25959998369217,1.45323753356934,2.67863750457764,-4.01999998092651,-7.68600034713745,-7.36605024337768,0.46905001997948,0.69195002317429,2.82600021362305,2.29185009002686,5.52461242675781,7.39750003814697,-26.3160018920898,-22.5570011138916,-14.0809507369995,1.59788751602173,2.19408750534058,2.8197124004364,-2.49782490730286,-2.68111252784729,-2.5453999042511,-3.55605006217957,2.67900013923645,15.1699504852295,1.81200003623962,4.56405019760132,7.72005033493042,SHAKE
-3.29738759994507,-4.70359992980957,-5.32908725738525,22.2250518798828,14.4529504776001,7.90905046463013,-0.31281250715256,-0.50214999914169,-1.15582501888275,0.12883749604225,-0.64446252584457,-0.25959998369217,7.65105056762695,1.8510000705719,-4.01999998092651,2.60400009155273,1.43100011348724,0.46905001997948,-4.49597501754761,-1.62854993343353,2.29185009002686,-9.43905067443848,-19.4680500030518,-26.3160018920898,0.81111252307892,1.25826251506805,1.59788751602173,-0.62246251106262,-1.81486248970032,-2.49782490730286,-6.58305025100708,-6.60705041885376,-3.55605006217957,3.26700019836426,1.29300010204315,1.81200003623962,7.17502498626709,4.51178741455078,1.56378746032715,8.7649507522583,21.9049510955811,27.9780006408691,0.52896249294281,-0.34581249952316,-0.56086248159409,1.1368499994278,2.4672999382019,2.23877501487732,27.9289512634277,24.72705078125,18.4530010223389,-4.22399997711182,-4.2049503326416,-2.78895020484924,-5.72371244430542,-6.08781242370605,-6.20510005950928,8.24805068969727,2.47905015945435,-1.27695000171661,-2.4447500705719,-2.23451256752014,-1.00677502155304,1.51304996013641,2.92531251907349,2.23877501487732,-6.50205039978027,-8.24895000457764,-6.18795013427734,-1.13295006752014,0.48405003547668,4.16400003433228,3.8643000125885,6.67053747177124,8.26732540130615,-27.631950378418,-19.9270515441895,-11.9350509643555,2.36266255378723,3.66753745079041,1.78736245632172,-3.34193754196167,-2.91802501678467,-0.67869997024536,-1.30200004577637,17.9410514831543,25.443000793457,0.93105006217957,2.74005007743835,-8.75205039978027,SHAKE
3.13981246948242,0.22481249272823,-2.08917498588562,27.5760021209717,28.8040504455566,25.2379512786865,-2.11846256256104,-2.76113748550415,-3.11547493934631,2.33034992218018,1.73909997940063,0.87285000085831,21.4990501403809,14.4640502929688,7.51305055618286,-8.85195064544678,-4.18905019760132,-0.55605000257492,-6.49096250534058,-6.05233764648438,-4.36397504806519,-0.16200000047684,-5.07405042648315,-12.5950508117676,1.94246244430542,2.82699990272522,2.55337500572205,-0.73851251602173,-2.08972501754761,-2.42577505111694,-5.53995037078857,-6.76005029678345,-5.98995018005371,7.57605028152466,1.44600009918213,-3.44895005226135,7.89951229095459,6.45796251296997,3.63577508926392,-1.96800005435944,12.0679502487183,24.8340015411377,-0.80877500772476,-2.69389986991882,-3.36586236953735,-0.02021249942482,2.57963752746582,3.53017497062683,26.0790004730225,27.2539520263672,21.9420013427734,-6.03795051574707,-6.8779501914978,-2.32695007324219,-5.80800008773804,-6.29791259765625,-6.24167490005493,9.88800048828125,3.19500017166138,-1.85595011711121,-0.95548748970032,-0.01718750037253,1.32054996490479,1.89186251163483,2.38177490234375,0.88880002498627,-5.00895023345947,-6.56595039367676,-6.10500049591064,4.47795009613037,4.21695041656494,4.6429500579834,4.15016269683838,6.3504376411438,7.62588739395142,-24.2920513153076,-17.0560512542725,-10.1929502487183,1.73593747615814,1.91922497749329,1.96322500705719,-2.78616237640381,-3.28336238861084,-2.68111252784729,0.47700002789497,9.89805030822754,21.070951461792,-2.97300004959106,2.73105001449585,4.09995031356812,SHAKE
0.25657498836517,-2.59613752365112,-4.61312484741211,31.7440509796143,27.7440013885498,18.5929508209229,-2.78795003890991,-2.03060007095337,-1.57121253013611,2.60535001754761,1.17218744754791,0.97184997797012,14.9040002822876,7.63200044631958,0.19005000591278,3.24495005607605,5.36100006103516,4.40805006027222,-5.28508758544922,-2.77571249008179,0.7928249835968,-7.72095060348511,-17.4580516815186,-24.6460514068604,2.38590002059937,2.58623743057251,2.14280009269714,-1.30171251296997,-2.314537525177,-2.47458744049072,-7.17900037765503,-7.59795045852661,-4.88205003738403,1.81905007362366,-2.54205012321472,-4.95405006408691,7.90569972991943,6.34672498703003,3.02733755111694,-0.0709500014782,14.5200004577637,28.8280506134033,0.66453748941422,-1.05435001850128,-1.77760004997253,0.06173750013113,2.53687500953674,3.37988758087158,26.8900508880615,26.7490520477295,20.5729503631592,-2.88195013999939,-5.98095035552979,-3.31995010375977,-5.66389989852905,-5.97781229019165,-6.01328754425049,8.6980504989624,2.80695009231567,-0.89400005340576,-0.89801251888275,-0.75143748521805,-0.27128750085831,1.32371246814728,2.31935000419617,1.78310000896454,-4.65900039672852,-7.50000047683716,-7.09995031356812,-0.01095000095665,-0.97500002384186,-0.89805006980896,2.25651240348816,5.18856239318848,6.77929973602295,-25.4910011291504,-20.2429504394531,-11.917950630188,1.10440003871918,1.3914999961853,2.068274974823,-2.7885000705719,-3.21736240386963,-2.86673736572266,-0.83295005559921,7.48605012893677,18.6750011444092,-0.97995007038116,3.61605024337769,8.24895000457764,SHAKE
1.96693754196167,-0.94435000419617,-3.16428756713867,28.8540019989014,28.0980014801025,21.1750507354736,-1.54068744182587,-1.45997500419617,-0.98106247186661,3.81851243972778,2.97178745269775,2.32801246643066,17.6629505157471,10.5060005187988,3.58095026016235,-1.44900012016296,0.80400002002716,1.53405010700226,-5.22527503967285,-3.55643749237061,-0.73301249742508,-4.15500020980835,-11.1400508880615,-18.8910007476807,0.82706248760223,0.65106248855591,0.49224999547005,-1.0231374502182,-2.02138757705688,-2.67121243476868,-5.42505025863647,-6.15495014190674,-4.66605043411255,-5.07405042648315,-5.47605037689209,-3.76500010490417,6.93811225891113,6.46167516708374,4.48607492446899,-4.23900032043457,7.61400032043457,20.461950302124,0.96139997243881,-1.06301248073578,-2.52051258087158,-0.48688748478889,2.24729990959167,3.9028000831604,25.3470020294189,27.8400020599365,21.8479518890381,0.46905001997948,-5.26800012588501,-5.00895023345947,-6.03528738021851,-6.14515018463135,-5.85928726196289,8.46900081634521,1.95000004768372,-1.86495006084442,-0.38005000352859,0.18191249668598,0.45691248774529,1.34942495822906,1.59500002861023,1.4777125120163,-2.61105012893677,-5.89605045318604,-6.93195009231567,2.28600001335144,0.67995005846024,-1.60395002365112,1.00539994239807,4.01087474822998,6.00710010528564,-22.381950378418,-22.0879516601563,-15.5670003890991,0.33219999074936,0.57048749923706,1.47083747386932,-3.0243124961853,-3.55822491645813,-3.73051238059998,-3.64200019836426,1.00905001163483,8.07194995880127,-1.51095008850098,0.97695004940033,6.40905046463013,SHAKE
-2.91871237754822,-5.08722496032715,-6.03528738021851,31.0290012359619,19.1550006866455,8.46900081634521,-2.00488758087158,-1.11911249160767,-0.38005000352859,2.84968757629395,1.77457499504089,1.34942495822906,7.58700037002563,2.00595021247864,-2.61105012893677,2.34795022010803,3.08295011520386,2.28600001335144,-4.23073768615723,-2.11117506027222,1.00539994239807,-8.16300010681152,-15.4930505752563,-22.381950378418,0.2894375026226,0.27362498641014,0.33219999074936,-1.47152495384216,-2.45506238937378,-3.0243124961853,-6.14805030822754,-5.98200035095215,-3.64200019836426,-3.65700006484985,-2.74095010757446,-1.51095008850098,7.99727487564087,7.212975025177,4.23197507858276,-2.77500009536743,10.2679500579834,26.4439506530762,2.03898739814758,-0.11247500032187,-1.63473749160767,-0.95232498645782,1.73662495613098,3.35788750648499,26.6989517211914,29.4409523010254,24.3780002593994,2.71605014801025,-6.73905038833618,-6.23700046539307,-5.47566270828247,-5.75190019607544,-5.6394248008728,11.3280000686646,4.27605009078979,0.12495000660419,-0.08923749625683,0.02309999987483,-0.04523750022054,0.26936250925064,0.62370002269745,0.99989998340607,-1.39800012111664,-5.26200008392334,-6.80295038223267,2.31195020675659,0.84300005435944,-1.00604999065399,0.44838750362396,3.14833736419678,5.09698724746704,-20.0059509277344,-20.4820518493652,-15.4279508590698,0.83929997682571,0.99687498807907,1.38407504558563,-1.83933746814728,-2.23877501487732,-2.6834499835968,-3.79095029830933,1.09005010128021,8.30700016021729,-0.807000041008,0.27600002288818,3.1519501209259,SHAKE
-4.27473735809326,-5.47566270828247,-5.75190019607544,20.6700000762939,11.3280000686646,4.27605009078979,-0.47409999370575,-0.08923749625683,0.02309999987483,0.81551247835159,0.26936250925064,0.62370002269745,4.28894996643066,-1.39800012111664,-5.26200008392334,2.95305013656616,2.31195020675659,0.84300005435944,-2.2210373878479,0.44838750362396,3.14833736419678,-15.3610506057739,-20.0059509277344,-20.4820518493652,0.65353751182556,0.83929997682571,0.99687498807907,-1.39576244354248,-1.83933746814728,-2.23877501487732,-6.31695032119751,-3.79095029830933,1.09005010128021,-0.43200001120567,-0.807000041008,0.27600002288818,6.88063764572144,4.90517520904541,1.47578752040863,5.16600036621094,19.5480003356934,31.0960521697998,0.26867499947548,-1.75931251049042,-1.53092503547668,0.76656252145767,2.63945007324219,1.92596244812012,28.2040519714355,18.0889511108398,11.6400003433228,-4.65000009536743,-3.75300025939941,-0.54704999923706,-5.80800008773804,-5.64437484741211,-5.1580376625061,2.03205013275146,-1.64805006980896,-5.139000415802,-0.78320002555847,-0.54133749008179,-0.08923749625683,1.49847495555878,1.49105000495911,0.27183750271797,-6.18600034713745,-7.02795028686523,-6.19800043106079,-0.24705001711845,-0.46305000782013,-0.29505002498627,4.03039979934692,5.81405019760132,6.77682495117188,-20.7120018005371,-14.3059511184692,-8.27595043182373,0.66082501411438,1.33526253700256,2.02675008773804,-2.83992505073547,-3.25764989852905,-2.94731259346008,2.7529501914978,10.5990009307861,19.1730003356934,1.49400007724762,6.00900030136108,7.68900012969971,SHAKE
-2.17098760604858,-4.03039979934692,-5.1874623298645,27.1620006561279,18.8509502410889,10.8280506134033,-1.5272125005722,-1.07758748531342,-0.92124998569489,1.94191253185272,0.90351247787476,0.69093751907349,9.7829999923706,4.69395017623901,-0.32595002651215,0.77595001459122,2.0749499797821,1.43595004081726,-4.38721227645874,-2.82095003128052,-0.34938749670982,-6.3139500617981,-11.7360010147095,-18.5560512542725,0.09528750181198,0.26138749718666,0.35296249389648,-0.40493750572205,-1.59004998207092,-2.23024988174438,-5.13105010986328,-5.800950050354,-4.90995025634766,-1.68795013427734,-2.6620500087738,-2.13105010986328,7.39007472991943,5.92157506942749,2.57537508010864,2.45295000076294,15.5680503845215,29.9040012359619,1.13492500782013,-0.73067498207092,-1.57121253013611,-0.03121249936521,2.49906253814697,3.27360010147095,28.2450008392334,26.8740005493164,20.3910007476807,-1.35105001926422,-6.42600011825562,-3.49005007743835,-5.50508737564087,-5.71395015716553,-5.63337516784668,8.26995086669922,2.61795020103455,-0.78105002641678,-0.39462500810623,-0.02076249942183,0.22838750481606,1.5020500421524,2.1484375,1.73428750038147,-3.28995013237,-6.29595041275024,-6.79605054855347,1.19205009937286,-0.71205002069473,-2.87505006790161,1.61259996891022,4.45926237106323,6.23920011520386,-22.3219509124756,-20.2480506896973,-13.3579502105713,-1.13753747940063,-0.59619998931885,0.68529999256134,-2.35234999656677,-3.23812508583069,-3.78427505493164,-1.90500009059906,3.88995027542114,14.8560009002686,-2.31495022773743,3.84795022010803,12.1129503250122,SHAKE
-2.95652508735657,-4.67554998397827,-5.50508737564087,25.0630512237549,16.4389514923096,8.26995086669922,-1.04953753948212,-0.69396251440048,-0.39462500810623,1.35918748378754,1.01461243629456,1.5020500421524,7.54395055770874,1.50195002555847,-3.28995013237,2.27100014686584,2.20395016670227,1.19205009937286,-3.947350025177,-1.53573751449585,1.61259996891022,-9.09899997711182,-17.0050506591797,-22.3219509124756,-0.2065249979496,-0.80877500772476,-1.13753747940063,-1.1368499994278,-1.64505004882813,-2.35234999656677,-5.69295024871826,-4.64205026626587,-1.90500009059906,-6.06900024414063,-5.54100036621094,-2.31495022773743,6.36143732070923,4.54478740692139,1.8631249666214,5.23305034637451,17.1379508972168,26.6209506988525,-0.00976249948144,-0.98353749513626,-1.00553750991821,0.78856247663498,2.57358741760254,2.94854998588562,27.1560020446777,25.4110507965088,19.276050567627,2.71200013160706,1.28295004367828,2.84295010566711,-4.82212495803833,-4.9919376373291,-4.9308876991272,6.19995021820068,1.57200002670288,-1.59495007991791,0.40672498941422,0.08662500232458,-0.20047499239445,0.83132499456406,1.31518745422363,1.13313746452332,-2.21399998664856,-4.81995010375977,-5.81295013427734,-0.23295001685619,-2.86800003051758,-4.32300043106079,1.42573750019073,4.08416271209717,5.89833736419678,-20.1540012359619,-19.159049987793,-13.6120510101318,-0.10876250267029,0.22591249644756,1.27902495861053,-2.60287499427795,-3.26617503166199,-3.90513753890991,-1.58700013160706,4.0639500617981,12.7549505233765,-0.32205000519753,3.17295026779175,10.2900009155273,SHAKE
-2.74766254425049,-4.2198748588562,-4.82212495803833,20.9719505310059,13.278000831604,6.19995021820068,0.05486249923706,0.43367499113083,0.40672498941422,1.21371245384216,0.6542249917984,0.83132499456406,7.37895011901855,2.11395001411438,-2.21399998664856,3.31005024909973,2.24505019187927,-0.23295001685619,-3.34757494926453,-1.32687497138977,1.42573750019073,-9.4150505065918,-15.2419509887695,-20.1540012359619,-0.20157499611378,-0.1552374958992,-0.10876250267029,-1.35671246051788,-2.01148748397827,-2.60287499427795,-4.97505044937134,-4.44405031204224,-1.58700013160706,-2.94705009460449,-2.10900020599365,-0.32205000519753,6.94539976119995,5.48061227798462,2.55089998245239,1.50300002098084,14.9029502868652,27.0739517211914,0.65601247549057,-0.88824999332428,-1.38297498226166,0.02021249942482,2.54663753509521,3.52274990081787,27.1560020446777,26.4139518737793,20.6400012969971,0.5460000038147,-2.52795004844666,-0.14505000412464,-5.07870006561279,-5.35108757019043,-5.25332498550415,8.43495082855225,2.71395015716553,-1.45905005931854,-0.04647500067949,-0.37633749842644,-0.59743750095367,1.20271253585815,1.78186249732971,1.31394994258881,-2.18505001068115,-5.50395011901855,-6.88695049285889,-0.38895002007484,-3.26700019836426,-4.04295015335083,1.76164996623993,4.46531248092651,6.3161997795105,-21.9679508209229,-19.1710510253906,-12.9210004806519,0.30291250348091,0.9589250087738,2.2760374546051,-2.97426247596741,-3.56551241874695,-3.4568874835968,-1.62000012397766,4.82295036315918,16.125,1.5130500793457,5.83695030212402,11.8210506439209,SHAKE
-2.50332498550415,-4.25287485122681,-5.07870006561279,24.4150505065918,16.5469512939453,8.43495082855225,-0.42405000329018,-0.00618749996647,-0.04647500067949,1.68162500858307,1.0060875415802,1.20271253585815,8.19900035858154,2.46300005912781,-2.18505001068115,3.03705024719238,1.88595008850098,-0.38895002007484,-3.50762486457825,-1.22292494773865,1.76164996623993,-10.2070503234863,-17.659049987793,-21.9679508209229,-0.06118749827147,0.12333749979734,0.30291250348091,-1.41652500629425,-2.15324997901917,-2.97426247596741,-6.37695026397705,-5.06805038452148,-1.62000012397766,-1.96800005435944,-0.75495004653931,1.5130500793457,6.82439994812012,4.4580249786377,1.44031250476837,6.55005025863647,20.9569511413574,29.5620021820068,0.33715000748634,-0.88701248168945,-1.1032999753952,0.97927498817444,2.63587498664856,2.73363757133484,28.431001663208,25.3729515075684,19.2280502319336,-3.175950050354,-3.307950258255,-0.50295001268387,-5.30708742141724,-5.54537487030029,-5.67613744735718,7.82295036315918,3.06795024871826,0.01905000023544,-0.20281249284744,-0.57791250944138,-0.76848751306534,0.64693748950958,1.44471251964569,1.35918748378754,-4.17300033569336,-7.5949501991272,-7.81305027008057,-0.91500002145767,-2.92305016517639,-3.35805010795593,1.6053124666214,4.63636255264282,6.5922999382019,-24.6049518585205,-21.9130516052246,-14.8800010681152,0.59977501630783,1.34021246433258,2.36761260032654,-3.04259991645813,-3.67798757553101,-3.71456241607666,-2.01705002784729,4.82805013656616,15.5670003890991,1.69200003147125,5.18805027008057,9.71100044250488,SHAKE
-3.07999992370605,-4.64254999160767,-5.30708742141724,22.5460510253906,14.9059505462646,7.82295036315918,-0.27610000967979,-0.02694999985397,-0.20281249284744,0.78622502088547,0.28888750076294,0.64693748950958,7.27800035476685,1.07595002651215,-4.17300033569336,1.79505014419556,1.09905004501343,-0.91500002145767,-4.35668754577637,-1.8191249370575,1.6053124666214,-9.39795017242432,-18.7620010375977,-24.6049518585205,-0.03066249936819,0.30043751001358,0.59977501630783,-1.54604995250702,-2.18020009994507,-3.04259991645813,-6.47805023193359,-5.55900049209595,-2.01705002784729,-0.83400005102158,-0.3120000064373,1.69200003147125,7.0602126121521,4.83188724517822,1.77017498016357,5.40105009078979,19.8679504394531,28.4449520111084,0.28586250543594,-1.35121250152588,-2.05369997024536,0.77522498369217,2.78616237640381,3.26012492179871,28.068000793457,25.0210514068604,18.3280506134033,-3.99195027351379,-5.80395030975342,-2.91795015335083,-5.40485000610352,-5.50261259078979,-5.29498767852783,5.63295030593872,0.89505004882813,-2.41800022125244,-0.14300000667572,0.49348750710487,0.74524998664856,1.73538744449615,2.07515001296997,1.09161245822906,-3.87900018692017,-5.88705015182495,-5.73600006103516,2.26695013046265,0.09600000083447,-2.41095018386841,3.10914993286133,5.55994987487793,7.00163745880127,-23.2650012969971,-18.1180515289307,-10.9030504226685,0.23938749730587,1.00911247730255,1.77636253833771,-2.86068749427795,-3.35417509078979,-3.26012492179871,-0.28695002198219,7.32105016708374,18.4980010986328,0.48600003123283,5.61195039749146,9.0,SHAKE
0.66577500104904,-1.85954999923706,-4.02806234359741,29.5500011444092,26.67405128479,19.9090518951416,-2.76718759536743,-2.02193737030029,-1.09477496147156,3.4482250213623,2.3205873966217,1.27242493629456,15.3250503540039,9.42900085449219,3.62595009803772,1.31700003147125,4.55700016021729,4.96605014801025,-4.60226249694824,-3.11533737182617,1.60654997825623,-6.03405046463013,-11.1349506378174,-20.2930507659912,0.91258752346039,0.42267498373985,0.00728749996051,-0.89361250400543,-1.22347497940063,-1.77086246013641,-6.41805028915405,-5.44905042648315,-2.17095017433167,-3.22905015945435,-3.6739501953125,-1.96800005435944,6.89534997940063,5.2007999420166,2.28208756446838,4.17600011825562,18.4900512695313,29.4760513305664,1.40978753566742,-1.64573752880096,-1.93764996528625,-0.16183750331402,3.3041250705719,3.04026246070862,28.1610012054443,19.5180015563965,12.211950302124,-1.31205010414124,-4.60005044937134,-1.79595005512238,-6.38219976425171,-6.40420007705688,-5.82766246795654,3.04905009269714,-1.21395003795624,-5.43795013427734,0.00481249997392,0.05733750015497,0.08786249905825,1.92114996910095,1.13437497615814,-0.54546248912811,-7.97595024108887,-6.99900054931641,-6.69300031661987,-0.71895003318787,-3.03000020980835,-3.16200017929077,5.11527490615845,6.3834376335144,6.85258769989014,-17.9479503631592,-11.1400508880615,-2.800950050354,0.49967500567436,0.94187498092651,0.32986250519753,-3.00602507591248,-2.85450005531311,-0.40988749265671,8.778000831604,21.2929515838623,26.9689521789551,5.77005004882813,10.3759508132935,5.44695043563843,SHAKE
0.03052499890327,-2.34932494163513,-4.13558769226074,28.94700050354,23.5990505218506,15.8389511108398,-1.50892496109009,-1.08006250858307,-0.67938750982285,3.18312501907349,2.13001251220703,1.61452496051788,13.9609508514404,7.18200016021729,0.65700000524521,1.28100001811981,2.58495020866394,1.90005004405975,-4.40426254272461,-1.88265001773834,1.24849998950958,-8.81400012969971,-16.8450012207031,-22.1670017242432,1.01145005226135,1.3914999961853,1.24244999885559,-1.7879124879837,-2.8215000629425,-3.40065002441406,-6.72900009155273,-6.46095037460327,-3.29805016517639,-2.23605012893677,-2.35095000267029,-3.07305026054382,7.03697490692139,5.64671230316162,2.30037498474121,0.29205000400543,14.7499504089355,30.2419509887695,0.59619998931885,-0.68914997577667,-1.2804000377655,0.53570002317429,2.92654991149902,3.50941252708435,28.6369514465332,26.4640522003174,19.4509506225586,2.43600010871887,-1.49595010280609,-0.86205005645752,-5.57590007781982,-5.78847503662109,-5.31698751449585,6.09000015258789,0.67995005846024,-4.42799997329712,-0.89196246862411,-0.27252501249313,0.44948750734329,2.1214873790741,1.31518745422363,-0.18754999339581,-4.90800046920776,-6.48000049591064,-6.70995044708252,-0.7950000166893,-0.85305005311966,-1.20000004768372,4.0034499168396,5.79823732376099,6.8781623840332,-19.498950958252,-14.2320003509521,-7.88100051879883,0.74401247501373,1.82270002365112,2.3810875415802,-3.99437499046326,-4.62604999542236,-2.70173740386963,4.14300012588501,14.7510004043579,22.8300018310547,2.16405010223389,11.1420001983643,9.09794998168945,SHAKE
-1.76660001277924,-3.74096250534058,-4.97722482681274,26.0850009918213,18.9420013427734,10.2850503921509,-1.80083751678467,-1.35121250152588,-0.71348750591278,2.74216246604919,1.90286254882813,1.6768125295639,9.32595062255859,3.60000014305115,-1.61805009841919,0.85005003213882,2.94405007362366,2.45595002174377,-3.30714988708496,-1.07758748531342,1.29373753070831,-11.1790504455566,-16.6560001373291,-19.1280002593994,0.88330000638962,0.65230000019073,0.32120001316071,-1.81967496871948,-1.84538745880127,-1.73538744449615,-5.800950050354,-3.8860502243042,-0.8400000333786,-4.69605016708374,-3.88500022888184,-2.75505018234253,6.40420007705688,4.34073734283447,1.5332624912262,3.90105009078979,19.0720500946045,28.2049522399902,0.28819999098778,-1.00801253318787,-1.59554994106293,0.56388747692108,2.70187497138977,3.33093738555908,28.2019519805908,25.3330516815186,18.6589508056641,-0.46995002031326,-3.1360502243042,-1.85295009613037,-5.41213750839233,-5.59542512893677,-5.54785013198853,5.9800500869751,1.182000041008,-2.09295010566711,-0.14547500014305,0.16486249864101,0.26743748784065,1.59609997272491,2.03843760490417,1.02561247348785,-4.82205009460449,-7.37805032730103,-6.72195053100586,1.24500000476837,-1.15200006961823,-2.74605011940002,2.66942501068115,5.15075016021729,6.65706253051758,-24.5239505767822,-19.2450008392334,-12.5380506515503,0.27114999294281,1.111687541008,2.42632508277893,-3.18560004234314,-3.87103748321533,-4.15566253662109,-0.54795002937317,5.71095037460327,16.6219501495361,0.48105001449585,5.62395048141479,11.0940008163452,SHAKE
-3.2155749797821,-4.74636268615723,-5.41213750839233,22.1200504302979,13.5889511108398,5.9800500869751,-0.9872499704361,-0.56209999322891,-0.14547500014305,1.70004999637604,1.27847504615784,1.59609997272491,6.05505037307739,-0.28005000948906,-4.82205009460449,2.04900002479553,1.72095012664795,1.24500000476837,-3.47819995880127,-0.63291251659393,2.66942501068115,-12.0040502548218,-20.8909511566162,-24.5239505767822,0.11481250077486,0.11481250077486,0.27114999294281,-2.07143759727478,-2.53563737869263,-3.18560004234314,-6.22695016860962,-4.875,-0.54795002937317,-3.47805023193359,-2.18099999427795,0.48105001449585,6.91239976882935,4.59731245040894,1.46602499485016,7.12095022201538,21.385950088501,30.4260005950928,0.24062499403954,-1.54921245574951,-2.30903744697571,0.90584999322891,2.93273758888245,3.38112497329712,28.5049514770508,24.9090003967285,17.776050567627,-5.33205032348633,-6.76605033874512,-3.7390501499176,-5.72618770599365,-5.85928726196289,-5.70913743972778,5.70705032348633,0.96705007553101,-2.31495022773743,-0.61696249246597,-0.05018749833107,0.55343747138977,1.72081243991852,1.89543747901917,0.80575001239777,-5.10195016860962,-7.4850001335144,-6.82200050354004,2.36700010299683,1.3050000667572,0.92895007133484,3.24486255645752,5.72247505187988,7.16897487640381,-25.195951461792,-19.5420017242432,-12.8299503326416,0.76601248979568,1.37073743343353,2.73294997215271,-2.55516242980957,-3.02554988861084,-3.40917491912842,-1.9939501285553,4.14300012588501,14.8639507293701,-1.26900005340576,3.03000020980835,9.10095024108887,SHAKE
-3.77272486686707,-5.13369989395142,-5.72618770599365,22.1899509429932,12.8860502243042,5.70705032348633,-1.638312458992,-1.14730000495911,-0.61696249246597,1.74281251430511,1.47152495384216,1.72081243991852,5.4190502166748,-0.30405002832413,-5.10195016860962,1.87200009822845,2.27595019340515,2.36700010299683,-3.28515005111694,-0.15633749961853,3.24486255645752,-13.863000869751,-22.6810512542725,-25.195951461792,1.09340000152588,0.92111247777939,0.76601248979568,-1.65481245517731,-2.0237250328064,-2.55516242980957,-7.27695035934448,-5.84805011749268,-1.9939501285553,-2.19300007820129,-2.68095016479492,-1.26900005340576,7.470787525177,5.04570007324219,1.66512501239777,6.05400037765503,21.4429512023926,31.0189514160156,0.72324997186661,-1.40744996070862,-2.49851250648499,0.55893748998642,2.49163746833801,3.01578760147095,28.2930011749268,25.4070014953613,18.4939517974854,-8.65799999237061,-10.8169507980347,-7.30395030975342,-5.86905002593994,-6.05109977722168,-6.05976247787476,7.27905035018921,1.90995013713837,-1.73895013332367,-1.77526247501373,-1.30968749523163,-0.60114997625351,0.87656247615814,1.65962493419647,2.01396250724792,-4.17105007171631,-7.81305027008057,-8.53305053710938,2.55600023269653,2.54205012321472,2.43900012969971,1.59678745269775,4.56307506561279,6.42867517471313,-24.8989505767822,-22.7650508880615,-15.6010503768921,0.53996247053146,0.85387498140335,2.10732507705688,-2.45987486839294,-2.97302508354187,-3.24788737297058,-4.65405035018921,0.29595002532005,7.71105051040649,-0.70905005931854,2.41305017471313,7.91895055770874,SHAKE
-5.12269973754883,-5.86905002593994,-6.05109977722168,15.082950592041,7.27905035018921,1.90995013713837,-2.06236243247986,-1.77526247501373,-1.30968749523163,0.75927501916885,0.87656247615814,1.65962493419647,1.20000004768372,-4.17105007171631,-7.81305027008057,1.92900013923645,2.55600023269653,2.54205012321472,-1.8130749464035,1.59678745269775,4.56307506561279,-19.594051361084,-24.8989505767822,-22.7650508880615,0.62672501802444,0.53996247053146,0.85387498140335,-1.890625,-2.45987486839294,-2.97302508354187,-7.59795045852661,-4.65405035018921,0.29595002532005,-0.61095005273819,-0.70905005931854,2.41305017471313,6.78534984588623,4.02916240692139,0.90887498855591,13.1560506820679,24.9820518493652,30.8040008544922,-0.46915000677109,-1.96459996700287,-2.31522488594055,1.18937504291534,2.66268754005432,2.66021251678467,27.9580516815186,23.623950958252,17.0410499572754,-9.5179500579834,-7.70595026016235,-3.46800017356873,-5.79576253890991,-5.95347499847412,-6.06704998016357,6.79095029830933,2.33100008964539,-0.81495004892349,-1.71778750419617,-1.70183753967285,-0.83943748474121,0.40136250853539,1.58633744716644,1.58757495880127,-6.0730504989624,-9.00195026397705,-7.97595024108887,1.11600005626678,1.3860000371933,4.07595014572144,3.4537250995636,6.02057504653931,7.2899751663208,-26.9620513916016,-20.2860012054443,-12.0570001602173,1.50507497787476,2.25885009765625,2.90881252288818,-2.49163746833801,-2.73968744277954,-2.58334994316101,-2.09400010108948,5.54805040359497,17.5390510559082,2.44095015525818,6.35400009155273,7.59105014801025,SHAKE
-4.00234985351563,-5.31327486038208,-5.79576253890991,22.4500503540039,13.5079507827759,6.79095029830933,-1.47468745708466,-1.43550002574921,-1.71778750419617,0.46117499470711,-0.04826249927282,0.40136250853539,5.7199501991272,-0.26295000314713,-6.0730504989624,2.05395007133484,1.80495011806488,1.11600005626678,-3.87282490730286,-0.29438748955727,3.4537250995636,-14.413950920105,-24.877950668335,-26.9620513916016,0.99316251277924,1.32426249980927,1.50507497787476,-1.21261250972748,-1.91509997844696,-2.49163746833801,-8.70795059204102,-6.97605037689209,-2.09400010108948,2.60895013809204,1.54095005989075,2.44095015525818,6.69982481002808,4.38473749160767,1.41349995136261,9.4980001449585,21.1750507354736,28.9330520629883,0.2894375026226,-1.07277500629425,-1.56145000457764,1.28947496414185,2.58445000648499,2.47582507133484,28.021951675415,24.3469505310059,18.0990009307861,-6.56505012512207,-6.99300050735474,-4.27200031280518,-5.62113761901855,-5.88499975204468,-4.96746253967285,6.97305011749268,2.23995018005371,-9.67305088043213,-1.88636243343353,-0.58038747310638,0.7928249835968,1.21866250038147,1.12695002555847,-0.02254999987781,-9.51405048370361,-8.89695072174072,-8.51895046234131,2.93700003623962,6.84405040740967,6.33705043792725,6.36019992828369,7.31926250457764,7.04921245574951,-17.1970500946045,-8.69895076751709,2.68995022773743,2.85999989509583,2.06579995155334,0.25038748979568,-2.77021241188049,-1.89310002326965,0.1545500010252,11.5279502868652,21.6570014953613,27.3229503631592,4.588050365448,-1.10205006599426,-6.69600009918213,SHAKE
-0.08304999768734,-2.51432490348816,-4.31392478942871,28.4160022735596,24.7930507659912,17.3869514465332,-1.7080249786377,-1.24987494945526,-1.33168745040894,1.63033747673035,0.29741248488426,-0.64817500114441,14.5050010681152,8.8410005569458,2.05200004577637,-0.55800002813339,1.90005004405975,1.58505010604858,-5.65647506713867,-3.7445375919342,-0.24186250567436,-4.7989501953125,-14.8609504699707,-24.7630519866943,0.52648746967316,1.48802495002747,2.21484994888306,0.12649999558926,-1.33223748207092,-2.31082487106323,-7.85100030899048,-7.81800031661987,-5.72595024108887,7.24395036697388,4.2810001373291,2.83395004272461,5.67600011825562,4.50559997558594,2.05122494697571,3.86505007743835,11.6659507751465,23.7550506591797,-1.40992498397827,-1.94012498855591,-1.69331252574921,1.30666244029999,2.7885000705719,3.16359996795654,29.2399520874023,26.377950668335,19.3770008087158,0.8400000333786,1.02495002746582,2.16795015335083,-6.07186269760132,-6.25886249542236,-5.92281246185303,6.40605020523071,0.75195002555847,-5.4190502166748,-0.49238750338554,-0.71472501754761,0.18081249296665,0.75198751688004,1.37747502326965,0.54422497749329,-9.69105052947998,-11.9820003509521,-11.5030508041382,-0.43605002760887,0.14205001294613,4.13505029678345,5.98386240005493,7.51959991455078,7.62107515335083,-23.6170501708984,-13.0740003585815,-1.65495002269745,2.91733741760254,2.17456245422363,0.56801247596741,-2.77268743515015,-2.17525005340576,-0.42212501168251,6.83295011520386,19.8840007781982,27.177001953125,1.13895010948181,-1.28100001811981,-5.81100034713745,SHAKE
0.17833749949932,-2.33708739280701,-4.12568759918213,24.3220520019531,22.4599514007568,16.3920001983643,-1.19116246700287,-0.94682496786118,-0.8259624838829,0.57722496986389,-0.04949999973178,-1.18318748474121,16.3229999542236,10.0540504455566,2.46105003356934,-0.63705003261566,2.0460000038147,3.97695016860962,-5.46837520599365,-3.67248749732971,0.30662500858307,-4.92795038223267,-15.4950008392334,-27.5650520324707,0.61930000782013,1.65659999847412,2.45918750762939,1.01090002059937,-0.69946247339249,-2.15077495574951,-11.0220003128052,-10.7989501953125,-8.04495048522949,10.8280506134033,7.05495023727417,4.53495025634766,7.01992511749268,5.07251262664795,2.31632494926453,5.96100044250488,16.8580513000488,24.1710014343262,-1.33787500858307,-2.15269994735718,-2.08436250686646,0.79351252317429,1.45200002193451,1.40799999237061,28.2930011749268,26.9500503540039,21.2020511627197,-6.96000051498413,-3.23595023155212,0.2490000128746,-5.67490005493164,-6.09028768539429,-6.05852508544922,8.93505001068115,3.97995018959045,-2.382000207901,-1.35863745212555,-1.04211246967316,0.63029998540878,-0.43559998273849,1.36523747444153,1.09037494659424,-10.7419500350952,-13.2949504852295,-10.443000793457,4.45095014572144,7.4520001411438,12.2260503768921,7.37673759460449,8.31008720397949,6.95158767700195,-25.5430507659912,-6.38295030593872,10.9210500717163,2.79647493362427,0.42996248602867,-1.37568747997284,-0.21807499229908,1.1611875295639,0.71527498960495,13.8679504394531,23.5429515838623,27.340051651001,-4.54500007629395,-12.4369506835938,-4.4850001335144,SHAKE
-1.14592504501343,3.75182509422302,7.00892496109009,-28.4530506134033,-32.6760025024414,-23.5189514160156,2.84528756141663,2.65966248512268,2.40790009498596,-1.83686244487762,-2.0653874874115,-1.40566253662109,-8.7679500579834,-1.50795006752014,9.50595092773438,1.38405001163483,-0.52500003576279,-1.24800002574921,2.92105007171631,-0.0867625027895,-2.83552503585815,23.8380012512207,26.9800510406494,24.3100509643555,-2.03293752670288,-2.85147500038147,-3.27662491798401,0.72380000352859,0.94489997625351,0.90832501649857,21.9660015106201,14.8489503860474,7.52895021438599,-6.94995021820068,-4.19099998474121,-0.80505001544952,-6.99187517166138,-6.36748743057251,-2.76718759536743,1.84005010128021,-7.84995031356812,-26.0460014343262,0.74524998664856,2.64123749732971,3.2936749458313,-0.01278750039637,-0.99137496948242,-1.6438125371933,-11.4499502182007,-11.7589502334595,-11.5459508895874,16.8919506072998,12.4530010223389,6.59100008010864,8.06079959869385,6.48724985122681,3.97182488441467,2.65905022621155,13.6350002288818,23.5870513916016,1.16544997692108,-0.70496249198914,-2.31151247024536,0.13378749787807,0.48922500014305,0.64446252584457,23.9830513000488,27.106050491333,24.4729518890381,-11.7090005874634,-13.5090007781982,-11.3839502334595,-5.57342481613159,-6.57882499694824,-7.11149978637695,15.4750509262085,10.0410003662109,4.6230001449585,-3.01894998550415,-1.89007496833801,-0.05499999970198,0.33783748745918,0.47217500209808,0.61269998550415,-6.60900020599365,-14.1300010681152,-13.5060005187988,8.8279504776001,12.0610504150391,15.0370502471924,SHAKE
-0.38486251235008,4.74388742446899,7.91064977645874,-32.9250030517578,-34.5379524230957,-22.9159507751465,2.65718746185303,2.88076257705688,2.85752487182617,-1.62800002098084,-1.74652504920959,-0.67869997024536,-10.81605052948,-2.86695003509521,8.20905017852783,5.09505033493042,3.15900015830994,0.07695000618696,3.5454375743866,0.98477500677109,-1.75436246395111,20.8500003814697,25.7239513397217,25.6980018615723,-0.91877502202988,-2.26146245002747,-3.32681250572205,-0.35131248831749,-0.014024999924,0.54670000076294,24.3750019073486,18.5100002288818,11.3170509338379,-9.63195037841797,-8.33505058288574,-4.67700004577637,-7.60883760452271,-8.09503746032715,-5.97176265716553,8.36295032501221,-0.12105000764132,-18.6559505462646,-0.54491251707077,2.16108751296997,3.53801250457764,1.33347499370575,-0.28036248683929,-1.69509994983673,-14.331000328064,-12.3910503387451,-14.5369510650635,16.4419498443604,16.7890510559082,9.70605087280273,8.23061275482178,6.72677516937256,5.45984983444214,-1.7940000295639,8.93295001983643,14.7499504089355,1.21549999713898,0.65230000019073,0.09762500226498,1.07937502861023,0.85579997301102,-0.0677874982357,19.840950012207,25.3489513397217,26.4550514221191,-7.1650505065918,-6.34500026702881,-6.57705020904541,-4.29797506332397,-5.69318723678589,-6.83416223526001,19.7179508209229,15.6430511474609,11.9839506149292,-3.08605003356934,-2.78918743133545,-2.17222499847412,0.37070000171661,0.86061251163483,1.55704998970032,1.51800012588501,-8.87805080413818,-15.4200010299683,3.79995012283325,7.41600036621094,8.92605018615723,SHAKE
-0.07328750193119,5.06041240692139,7.85441255569458,-36.318000793457,-35.7300033569336,-21.8080501556396,2.81599998474121,2.52518749237061,1.62607502937317,-2.30601239204407,-1.74281251430511,-0.30855000019073,-10.3849506378174,-1.9410001039505,8.39595031738281,4.82895040512085,0.23295001685619,-3.50895023345947,4.51055002212524,1.70554995536804,-1.43302500247955,18.9570007324219,27.6480007171631,29.3539505004883,-0.31281250715256,-1.71407496929169,-3.14599990844727,-0.55646252632141,0.02007500082254,0.72256249189377,26.506950378418,21.04905128479,13.0279502868652,-7.7920503616333,-8.3899507522583,-5.7529501914978,-8.28313732147217,-8.73771286010742,-6.58377504348755,10.0260000228882,-1.15694999694824,-21.0660018920898,-0.16981250047684,2.34189987182617,3.28020000457764,0.66151249408722,-1.2919499874115,-1.79162502288818,-17.5020008087158,-16.9300498962402,-17.284049987793,17.461950302124,15.9439506530762,8.15295028686523,8.33937454223633,7.41454982757568,6.6657247543335,-7.14405012130737,4.81500005722046,10.5649509429932,0.87711250782013,0.97968751192093,0.7732999920845,0.46598750352859,0.30841249227524,-0.19978749752045,14.7220506668091,23.0329513549805,27.5389518737793,-2.34600019454956,-3.72195029258728,-6.50205039978027,-3.16786241531372,-5.07980012893677,-6.46648740768433,26.9730014801025,21.1080017089844,15.939001083374,-4.61931228637695,-4.92112493515015,-3.62491250038147,0.9315624833107,1.92596244812012,2.61016249656677,6.52905035018921,-4.79805040359497,-17.8180503845215,-2.1979501247406,4.33905029296875,12.2329502105713,SHAKE
4.81841230392456,8.04251289367676,8.33937454223633,-40.0300521850586,-25.6630516052246,-7.14405012130737,2.05480003356934,1.08721244335175,0.87711250782013,-0.98051249980927,0.03973750025034,0.46598750352859,-7.51395034790039,4.19805002212524,14.7220506668091,-2.18099999427795,-3.29595017433167,-2.34600019454956,2.54484987258911,-0.49843749403954,-3.16786241531372,28.312952041626,30.553050994873,26.9730014801025,-1.66526246070862,-3.40614986419678,-4.61931228637695,-0.36712500452995,0.02859999984503,0.9315624833107,22.5970516204834,15.3370504379272,6.52905035018921,-9.99900054931641,-7.52400016784668,-2.1979501247406,-8.70705032348633,-8.33084964752197,-4.0804500579834,5.20005035400391,-9.70905017852783,-32.9250030517578,2.47994995117188,3.9056875705719,3.40848755836487,-1.09408748149872,-1.43371248245239,-1.05861246585846,-16.9780502319336,-17.2579517364502,-14.6070003509521,20.8159503936768,12.702000617981,3.87495017051697,7.30826234817505,6.66201257705688,6.10252475738525,-1.62105011940002,6.37695026397705,11.6490001678467,2.52518749237061,3.50996255874634,3.07133746147156,-0.30855000019073,-1.49600005149841,-2.16191244125366,18.6229515075684,23.401050567627,26.6220016479492,0.89505004882813,-1.49895012378693,-9.13199996948242,-3.1959125995636,-5.0907998085022,-6.72663736343384,22.8570003509521,20.1480007171631,15.8869504928589,-5.96928739547729,-5.32674980163574,-2.77337503433228,1.7659125328064,1.96748745441437,1.8379625082016,1.24095010757446,-10.9650001525879,-19.9159507751465,-1.46295011043549,9.18195056915283,18.0930004119873,SHAKE
4.06106233596802,6.85258769989014,7.39997482299805,-36.8350524902344,-24.082950592041,-8.13195037841797,0.74758750200272,-0.03066249936819,0.40191251039505,0.27788749337196,0.93266248703003,0.79956251382828,-6.33900022506714,3.49995017051697,13.9350004196167,-2.91495013237,-1.12604999542236,2.04900002479553,3.2155749797821,0.18823750317097,-2.24784994125366,26.8650016784668,29.8759517669678,25.7890510559082,-1.03125,-2.85890007019043,-3.94129991531372,-0.254787504673,0.45498749613762,0.9620875120163,24.3370513916016,17.8810501098633,10.0729503631592,-12.4339504241943,-9.2659502029419,-3.26505017280579,-7.69436264038086,-7.8324122428894,-5.57590007781982,5.61195039749146,-4.41105031967163,-21.65505027771,1.07868754863739,1.99993753433228,1.74693751335144,0.16912500560284,-0.80327498912811,-0.93651247024536,-16.9489517211914,-15.5850009918213,-14.9940004348755,15.5449504852295,10.6560001373291,4.82505035400391,7.02487516403198,6.49591255187988,6.01700019836426,-3.77505016326904,3.71400022506714,9.35205078125,1.45131254196167,1.82270002365112,1.60407495498657,-0.14973749220371,-0.52236247062683,-0.76051247119904,16.9020004272461,23.3389511108398,27.0960006713867,2.01495003700256,0.19695000350475,-3.54495024681091,-2.93452501296997,-4.51412487030029,-5.71395015716553,21.1459503173828,17.1360015869141,12.8119506835938,-3.02994990348816,-3.11299991607666,-2.25169992446899,0.86556249856949,1.06342494487762,0.89237499237061,6.97395038604736,-3.00105023384094,-13.9819507598877,-1.08705008029938,3.78600025177002,9.32295036315918,SHAKE
4.59731245040894,7.14092493057251,7.02487516403198,-36.7990531921387,-21.5230503082275,-3.77505016326904,1.14221251010895,1.07140004634857,1.45131254196167,-0.57969999313354,-0.11921250075102,-0.14973749220371,-1.1539500951767,8.625,16.9020004272461,1.87905013561249,2.03895020484924,2.01495003700256,1.68959999084473,-0.92729997634888,-2.93452501296997,26.1859512329102,25.3120517730713,21.1459503173828,-0.88701248168945,-2.25527501106262,-3.02994990348816,-0.07768750190735,0.42693749070168,0.86556249856949,21.127950668335,14.6959505081177,6.97395038604736,-8.41200065612793,-5.62905025482178,-1.08705008029938,-7.31073760986328,-6.7413501739502,-2.86481237411499,1.71300005912781,-11.1690006256104,-30.4530010223389,1.84112501144409,2.90757489204407,2.77571249008179,-0.98656249046326,-1.46299993991852,-1.62428748607636,-13.3450508117676,-13.2829504013062,-12.6630010604858,15.1069507598877,9.70395088195801,4.46595001220703,7.82512474060059,6.56424999237061,5.16903734207153,1.2520500421524,9.81795024871826,16.1809501647949,0.87958747148514,0.80506247282028,0.36891248822212,0.86432498693466,0.25464999675751,-0.8289874792099,20.1109504699707,24.9900016784668,26.0700016021729,-2.30100011825562,-2.85795021057129,-5.09295034408569,-3.96068739891052,-5.27037477493286,-6.39801263809204,19.5450000762939,15.4890003204346,12.151050567627,-3.19852495193481,-2.83813738822937,-1.86807501316071,0.64198750257492,0.99261248111725,1.49600005149841,1.83705008029938,-8.28194999694824,-17.60205078125,2.59905004501343,7.00005054473877,10.2949504852295,SHAKE
6.87211227416992,8.50685024261475,7.82512474060059,-30.681001663208,-14.788950920105,1.2520500421524,1.67612504959106,1.17149996757507,0.87958747148514,-0.85579997301102,0.34264999628067,0.86432498693466,2.04495000839233,12.1879501342773,20.1109504699707,0.71100002527237,-0.89595001935959,-2.30100011825562,0.55220001935959,-2.16479992866516,-3.96068739891052,26.8939514160156,25.2169513702393,19.5450000762939,-2.03417491912842,-2.96147489547729,-3.19852495193481,-0.08373750001192,0.47698751091957,0.64198750257492,17.3260517120361,10.4149503707886,1.83705008029938,-6.78495025634766,-2.91300010681152,2.59905004501343,-7.99851226806641,-6.49948740005493,-1.40731251239777,-1.69995009899139,-17.6269512176514,-37.0510520935059,1.61755001544952,2.30285000801086,2.24180006980896,-0.60912501811981,-0.92922496795654,-1.04156243801117,-12.2280006408691,-12.7930507659912,-11.2350006103516,13.3720502853394,7.63905048370361,3.68100023269653,7.19840002059937,5.9595251083374,4.16363763809204,4.29105043411255,12.9840002059937,20.0689506530762,0.98216247558594,0.5154874920845,-0.1380500048399,0.39393749833107,0.30112498998642,-0.09955000132322,23.121000289917,26.6890506744385,25.6320018768311,-4.20795011520386,-5.14800024032593,-5.15805006027222,-4.73041248321533,-5.8678126335144,-6.8941125869751,17.239049911499,13.1899509429932,9.48795032501221,-3.33781242370605,-3.06171250343323,-1.40744996070862,1.20271253585815,1.57904994487762,1.26252496242523,-2.67300009727478,-15.0180006027222,-16.4869499206543,2.36205005645752,6.64305019378662,12.9990005493164,SHAKE
