gyro_x_0,gyro_y_0,gyro_z_0,acc_x_0,acc_y_0,acc_z_0,gyro_x_1,gyro_y_1,gyro_z_1,acc_x_1,acc_y_1,acc_z_1,gyro_x_2,gyro_y_2,gyro_z_2,acc_x_2,acc_y_2,acc_z_2,gyro_x_3,gyro_y_3,gyro_z_3,acc_x_3,acc_y_3,acc_z_3,gyro_x_4,gyro_y_4,gyro_z_4,acc_x_4,acc_y_4,acc_z_4,gyro_x_5,gyro_y_5,gyro_z_5,acc_x_5,acc_y_5,acc_z_5,gyro_x_6,gyro_y_6,gyro_z_6,acc_x_6,acc_y_6,acc_z_6,gyro_x_7,gyro_y_7,gyro_z_7,acc_x_7,acc_y_7,acc_z_7,gyro_x_8,gyro_y_8,gyro_z_8,acc_x_8,acc_y_8,acc_z_8,gyro_x_9,gyro_y_9,gyro_z_9,acc_x_9,acc_y_9,acc_z_9,gyro_x_10,gyro_y_10,gyro_z_10,acc_x_10,acc_y_10,acc_z_10,gyro_x_11,gyro_y_11,gyro_z_11,acc_x_11,acc_y_11,acc_z_11,gyro_x_12,gyro_y_12,gyro_z_12,acc_x_12,acc_y_12,acc_z_12,gyro_x_13,gyro_y_13,gyro_z_13,acc_x_13,acc_y_13,acc_z_13,gyro_x_14,gyro_y_14,gyro_z_14,acc_x_14,acc_y_14,acc_z_14,motion_type
0.00962499994785,0.04619999974966,-0.14038750529289,-0.05115000158548,-0.01663750037551,0.41222500801086,1.7940000295639,1.71495008468628,1.56105005741119,11.2780504226685,11.5720500946045,10.207950592041,11.4426126480103,18.7383632659912,15.710337638855,-2.44305014610291,-2.32500004768372,-2.83995008468628,-2.17868757247925,-1.60599994659424,-1.22595000267029,2.87209987640381,2.24193739891052,1.86326253414154,1.71900010108948,2.59995007514954,2.90505003929138,9.24705028533936,8.52000045776367,8.92905044555664,4.16171264648438,3.3130624294281,4.63553762435913,-9.11295032501221,-18.9270000457764,-35.1850509643555,-11.8171625137329,-10.2957248687744,-7.60471248626709,3.01812505722046,-1.03400003910065,-2.06167507171631,-45.6000022888184,-32.9010009765625,-18.5329513549805,5.88105010986328,25.4970016479492,1.14000010490417,-3.09141254425049,-8.57202529907227,-9.08228778839111,53.2789535522461,32.0560531616211,18.2020511627197,-6.45576238632202,-14.1524620056152,-4.46929979324341,-0.44838750362396,7.04426240921021,12.370325088501,-3.36705017089844,-2.87895011901855,1.0150500535965,1.64805006980896,4.2529501914978,11.6110506057739,13.9156875610352,27.6666507720947,22.8618507385254,1.20300006866455,5.20095014572144,5.86395025253296,0.6154500246048,1.65233743190765,1.34901249408722,-7.31279993057251,-5.56215000152588,-4.44812488555908,2.97405004501343,2.41395020484924,2.15505003929138,8.56995010375977,8.96700000762939,9.19200038909912,7.17530012130737,4.64351224899292,3.8585250377655,3.06300020217896,3.47295022010803,3.58305025100708,SWING_LEFT
0.73356246948242,0.38609999418259,0.30414998531342,-2.3234748840332,-2.52133750915527,-2.56822490692139,2.20500016212463,2.44500017166138,2.36100006103516,10.3390502929688,10.1809501647949,9.43695068359375,-8.12556266784668,-7.86953735351563,-7.57858753204346,-0.66105002164841,-1.28895008563995,-1.29795002937317,0.40411248803139,0.54381251335144,0.65573751926422,-1.81101250648499,-1.52418744564056,-1.59678745269775,2.7679500579834,3.5440502166748,3.82905006408691,9.05295085906982,10.7970008850098,11.2420501708984,-6.72388744354248,-6.60618734359741,-6.53413724899292,2.15295004844666,4.17600011825562,6.37695026397705,0.06599999964237,-0.21064999699593,-0.7178875207901,-3.87144994735718,-3.50075006484985,0.43009999394417,2.51400017738342,-6.69795036315918,-20.1229515075684,11.8399505615234,15.939001083374,3.67605018615723,1.65783751010895,2.88488745689392,1.02987504005432,-47.5369529724121,-16.9189510345459,6.32895040512085,-9.04763698577881,-7.98833751678467,-7.14725017547607,2.88172507286072,0.12966249883175,-3.16758751869202,-31.4959506988525,-15.1879510879517,-6.20895051956177,24.3310508728027,14.2350006103516,5.7180004119873,-4.27955007553101,-7.58518743515015,-10.4656753540039,38.1490516662598,26.1010513305664,13.5259504318237,-2.32375001907349,-1.78708744049072,-0.82183748483658,-2.22406244277954,-1.83369994163513,-0.79997497797012,1.0110000371933,-2.13195013999939,-3.8730001449585,9.23295021057129,3.1800000667572,1.6429500579834,-7.68611240386963,-5.7369122505188,25.0722999572754,-12.0439510345459,-7.17105054855347,-1.4800500869751,SWING_LEFT
2.03568744659424,1.83383750915527,1.64051246643066,-0.41951251029968,-0.77824997901917,-0.97088748216629,2.02305006980896,2.2870500087738,2.64795017242432,9.4819507598877,9.54900074005127,10.0159502029419,-5.09299993515015,-4.61229991912842,-4.58768749237061,-0.58995002508163,-0.37605002522469,1.14105010032654,1.64999997615814,1.09271252155304,0.76161247491837,-2.50648736953735,-4.41278743743896,-4.6157374382019,5.24895048141479,3.40305018424988,3.11505007743835,11.3110504150391,12.0270004272461,12.1230001449585,-12.7206745147705,-13.9042749404907,-13.6496248245239,5.14605045318604,0.8890500664711,-13.5430507659912,-1.51139998435974,1.25881254673004,6.60783767700195,0.2938374876976,7.95506238937378,10.769962310791,-15.0610504150391,-32.4319534301758,-59.7480010986328,1.02495002746582,-8.55795001983643,-3.08895015716553,-14.4480876922607,-14.2572374343872,-13.376275062561,2.83095002174377,18.9990005493164,33.5089530944824,-1.552649974823,-11.2003374099731,-5.97712516784668,1.65439999103546,-14.4571628570557,-14.7994003295898,-8.34794998168945,-2.67300009727478,3.91305017471313,10.746000289917,10.0999507904053,17.2470016479492,-2.71851253509521,-3.0243124961853,-3.01839995384216,28.2390022277832,14.3070011138916,3.38895010948181,4.32973766326904,4.29206228256226,4.04689979553223,-8.99387454986572,-6.36240005493164,-2.95418739318848,-2.01495003700256,-4.27695035934448,-3.46605014801025,3.06105017662048,2.62200021743774,6.13005018234253,0.50214999914169,-0.33811250329018,-1.64106249809265,-6.87195014953613,-2.46405005455017,2.88600015640259,SWING_LEFT
-0.97693747282028,-1.21206247806549,-1.41418755054474,1.13698744773865,0.98917502164841,0.80134999752045,2.21700000762939,2.25104999542236,2.33700013160706,-8.2630500793457,-8.54594993591309,-8.17995071411133,-6.30877494812012,-5.74323749542236,-5.02906227111816,-1.89000010490417,-2.22000002861023,-3.14205026626587,-1.43233752250671,-1.25083744525909,-1.00705003738403,-0.06971249729395,-0.29081249237061,-0.42308750748634,2.37105011940002,2.70105004310608,2.77995014190674,-7.78200054168701,-7.80600023269653,-7.81305027008057,-1.75683748722076,-0.85071247816086,-0.24887499213219,-5.74395036697388,-3.19500017166138,-0.59400004148483,0.34471249580383,0.83146250247955,1.14262497425079,-0.9121749997139,0.57681250572205,2.48723745346069,-1.4190000295639,-1.63200008869171,-5.48400020599365,-10.3180503845215,-9.0799503326416,-17.5270500183105,-11.1647253036499,-12.5290002822876,-9.08077526092529,59.0370025634766,46.0620040893555,7.06605052947998,8.19513702392578,6.90057516098022,4.46421241760254,4.65506267547607,3.11052489280701,1.56694996356964,-49.1320533752441,-26.7169513702393,-15.0949506759644,-17.5530014038086,-49.1430015563965,-29.2090511322021,4.88784980773926,6.26518726348877,9.19022464752197,-28.8540019989014,-31.1910018920898,-31.5330009460449,0.2729375064373,-0.84727501869202,-6.10087490081787,-2.76924991607666,-4.3231372833252,-7.90858745574951,5.4810004234314,3.29205012321472,1.12095010280609,-1.83705008029938,3.07305026054382,-0.52305001020432,0.36217498779297,1.98398745059967,4.05886268615723,7.1980504989624,7.27200031280518,5.4810004234314,SWING_LEFT
-0.36849999427795,-0.42913749814034,-0.4823499917984,-1.0592999458313,-1.05421245098114,-1.08157503604889,2.21700000762939,2.31795001029968,2.43795013427734,-8.69204998016357,-8.36595058441162,-8.28705024719238,3.35898756980896,4.03232479095459,4.37538766860962,1.83495008945465,1.81305003166199,1.09005010128021,-0.86638748645782,-0.83751249313354,-0.83283752202988,-1.01915001869202,-1.10989999771118,-1.20780003070831,2.4190502166748,2.43495011329651,2.70300006866455,-9.10395050048828,-9.1230001449585,-8.62005043029785,4.85086250305176,5.11444997787476,6.51323747634888,-6.64500045776367,-9.0169506072998,5.12700033187866,0.74621248245239,0.40782499313354,-0.25327500700951,-2.93961238861084,2.48709988594055,9.08146286010742,-8.50605010986328,-23.8840503692627,-47.4730529785156,-31.2390022277832,-0.32595002651215,-17.1460514068604,9.18280029296875,8.5296745300293,8.31146240234375,-23.2350006103516,-35.659049987793,-45.9420013427734,6.65651226043701,5.71821260452271,4.81909990310669,-1.25702500343323,-8.37388706207275,0.86171251535416,-0.52799999713898,0.37395000457764,0.69900006055832,-1.0110000371933,-3.72405028343201,-9.83205032348633,15.136137008667,13.1280870437622,11.1014747619629,-6.03900051116943,1.61505007743835,5.9650502204895,-1.84552502632141,-3.82731246948242,-4.34953737258911,-0.35777500271797,4.01788759231567,9.33941268920898,0.30000001192093,0.87195003032684,0.93600004911423,-12.1489505767822,-12.3310508728027,-11.2990503311157,6.17168760299683,6.87541246414185,5.9105749130249,2.84805011749268,0.11295000463724,-1.61205005645752,SWING_LEFT
-1.22292494773865,-1.35643744468689,-1.38696253299713,-0.11068750172853,-0.51314997673035,-0.84823751449585,1.68300008773804,1.95600008964539,1.92795014381409,-8.03805065155029,-9.49605083465576,-8.90295028686523,5.50605010986328,5.82188749313354,6.14762496948242,1.33395004272461,1.18095004558563,1.42500007152557,-1.37857496738434,-1.3330625295639,-1.12681245803833,-1.54096245765686,-1.63666248321533,-2.19051241874695,1.94700014591217,2.03295016288757,3.41895008087158,-9.38895034790039,-9.25695037841797,-10.7440509796143,7.51987504959106,8.19087505340576,8.36701202392578,-8.49300003051758,-7.2940502166748,3.85605025291443,1.20518743991852,0.49994999170303,-0.6650875210762,-3.63673758506775,0.67732501029968,6.48862504959106,-2.46495008468628,-7.2199501991272,-20.2180519104004,-14.4240007400513,-8.70195007324219,7.69395017623901,6.93384981155396,8.01185035705566,7.96743726730347,34.3639526367188,-24.9540004730225,-34.0980033874512,2.60438752174377,4.73852491378784,1.85693752765656,2.86123752593994,-2.27053737640381,-8.52637481689453,-6.05100011825562,-3.61395025253296,-1.3900500535965,-5.47395038604736,-5.69205045700073,-8.83800029754639,10.1147747039795,12.8660125732422,11.74098777771,-13.689001083374,-6.42705011367798,-1.73400008678436,2.46152496337891,1.13011252880096,-1.01901245117188,-1.37623751163483,0.74786251783371,4.39367485046387,0.91005003452301,-0.36300000548363,-0.88200002908707,-10.0090503692627,-10.452000617981,-8.79705047607422,6.33764982223511,5.65042495727539,4.94752502441406,4.19099998474121,1.40400004386902,-0.87000006437302,SWING_LEFT
-0.21147499978542,-0.262212485075,-0.2924624979496,-0.08552499860525,0.02516249939799,0.11673749983311,1.73400008678436,1.83405005931854,1.68795013427734,-8.27295017242432,-8.45700073242188,-8.44500064849854,4.30966234207153,4.84591245651245,6.68731260299683,1.24095010757446,0.966000020504,0.90300005674362,-0.55907499790192,-0.64955002069473,-0.67636251449585,-0.46846249699593,-0.77577501535416,-1.07263743877411,1.77705013751984,1.75995004177094,2.07600021362305,-8.81205081939697,-8.79705047607422,-9.21900081634522,9.4335994720459,9.40568733215332,9.3154878616333,-0.67095005512238,-0.40305000543594,-2.03805017471313,-0.15138749778271,0.49142500758171,0.49266248941422,-2.67121243476868,-3.43708753585815,-1.71242499351501,2.89305019378662,-1.66005003452301,-10.2769508361816,-11.3520002365112,-8.35905075073242,-14.2609510421753,9.74091243743896,9.92502498626709,10.5674247741699,64.6590042114258,27.0349521636963,7.39005041122437,-0.87202501296997,-0.67430001497269,-0.1915374994278,8.53022480010986,5.44293737411499,4.72284984588623,-33.9210014343262,-25.2780017852783,-13.0330505371094,-53.7550506591797,-6.61605024337769,7.04700040817261,13.8143501281738,16.8056621551514,17.3799991607666,-43.8420028686523,-30.2430019378662,-13.9879503250122,-2.94923758506775,-2.66667509078979,-3.0387499332428,-4.23183727264404,-6.25129985809326,-4.72711229324341,-0.85305005311966,-1.31595003604889,-1.38300001621246,-8.70900058746338,-6.93495035171509,-8.31405067443848,5.8909125328064,-0.25203749537468,-2.96504998207092,13.4059505462646,10.3300504684448,5.90295028686523,SWING_LEFT
-0.15881249308586,-0.31542500853539,-0.44536250829697,-0.14918750524521,-0.24172499775887,-0.29878750443459,1.83195006847382,1.92795014381409,1.9039500951767,-8.62005043029785,-8.66805076599121,-8.6850004196167,4.34829998016357,5.10551261901855,6.23163747787476,1.12395000457764,0.77205002307892,0.57300001382828,-0.9092875123024,-0.59262502193451,-0.52827501296997,-1.34763753414154,-2.45066237449646,-2.40831255912781,2.82300019264221,2.53800010681152,0.72300004959106,-10.9830007553101,-8.78505039215088,-9.09899997711182,7.61296224594116,8.77868747711182,11.0538997650146,40.5550537109375,60.435001373291,27.9949512481689,-3.81342506408691,-2.5946249961853,-2.38287496566772,9.24495029449463,6.92051267623901,5.65001249313354,-44.5609512329102,-33.234001159668,-21.1330509185791,-38.860050201416,-26.4580516815186,10.3390502929688,13.5304126739502,15.9684247970581,17.8507995605469,-77.9680557250977,-42.3460502624512,-4.23405027389526,-2.31687498092651,-2.0153374671936,-1.88718748092651,-7.68680000305176,-8.20806217193604,-7.7726001739502,-3.35595011711121,1.34595000743866,3.28500008583069,-8.22300052642822,-6.63000011444092,-5.56995010375977,7.86458730697632,-0.69134998321533,8.16598701477051,10.6789503097534,9.47700023651123,5.46495008468628,-8.1298246383667,-6.30299997329712,-4.18261241912842,9.52503776550293,6.42537498474121,3.64196252822876,2.75400018692017,2.31105017662048,2.21700000762939,-9.81705093383789,-7.17405033111572,-6.59700012207031,-0.90777498483658,-2.08065009117126,-2.60177493095398,-3.51300024986267,-3.77895021438599,-3.40305018424988,SWING_LEFT
-0.01333750039339,-0.03272499889135,0.09569999575615,-0.23264999687672,-0.29727500677109,-0.20322500169277,1.32705008983612,1.1779500246048,1.14705002307892,-8.92695045471191,-8.56695079803467,-9.5110502243042,3.13431239128113,3.95793747901917,4.76423740386963,2.10795021057129,1.90905010700226,1.77300012111664,-0.06558749824762,-0.27610000967979,-0.57571250200272,0.02419999986887,-0.19483749568462,-0.55522501468658,1.53705012798309,1.63800013065338,1.8270001411438,-9.30000019073486,-9.20895004272461,-9.09705066680908,8.15856266021729,8.69508743286133,8.97325038909912,0.25500002503395,-0.39300000667572,-4.77705001831055,-0.44673749804497,0.00921249948442,0.33687499165535,-3.43282508850098,-4.00001239776611,-1.42381250858307,3.04605007171631,1.44600009918213,-12.1260004043579,-11.2350006103516,-9.39795017242432,-8.84505081176758,13.640549659729,15.8892250061035,16.2885246276855,52.6320037841797,19.9909515380859,-6.36900043487549,-7.37164974212646,-7.2040376663208,-9.04626274108887,7.08331251144409,5.82972478866577,8.8217248916626,-11.9959506988525,-9.91095066070557,-0.78405004739761,-29.4600009918213,2.44800019264221,-3.64200019836426,18.6704368591309,19.4750881195068,18.1473865509033,-33.1470031738281,-19.5330009460449,-5.63700008392334,-4.53653764724731,-13.4125747680664,-14.3200750350952,-2.53426241874695,-9.12738704681396,-1.00278747081757,3.91695022583008,3.97695016860962,3.13005018234253,-7.5450005531311,-9.09195041656494,-8.57895088195801,-1.06865000724792,1.82476246356964,2.68936252593994,5.58195018768311,2.64900016784668,-0.29295000433922,SWING_LEFT
0.51919996738434,0.19772499799728,-0.0283249989152,0.32037499547005,0.11687500029802,-0.05004999786615,1.46100008487701,1.40295004844666,1.34295010566711,-9.06105041503906,-8.3299503326416,-8.5290002822876,8.37127494812012,9.62829971313477,10.7168874740601,1.7610000371933,1.51395010948181,1.26705002784729,-0.98312497138977,-1.12860000133514,-0.90103751420975,-1.05256247520447,-1.32082498073578,-2.17662501335144,1.67100012302399,1.81500005722046,2.13795018196106,-8.91195011138916,-9.44595050811768,-11.0239505767822,10.3254251480103,9.49355030059814,8.46876239776611,-4.79400014877319,-2.88795018196106,6.82905054092407,0.2910875082016,-2.78781247138977,-4.68160009384155,-1.9901750087738,3.11781239509583,7.63482475280762,-1.56900012493134,-11.9010009765625,-34.8210029602051,-8.44799995422363,-0.71895003318787,11.4810009002686,6.27990007400513,3.41467499732971,2.75659990310669,-6.69495010375977,-31.3440017700195,-43.1460037231445,5.19337511062622,3.39556241035461,3.59191250801086,-7.01951265335083,-6.00916242599487,-3.62958741188049,-4.78695011138916,0.25905001163483,4.389000415802,1.59795010089874,3.46005010604858,-6.87495040893555,12.0011377334595,11.1944246292114,10.6888370513916,-3.34500026702881,0.70995002985001,4.71300029754639,-2.62198758125305,-7.3830623626709,-6.46428728103638,-0.8927875161171,4.33619976043701,8.70457458496094,3.09600019454956,2.12595009803772,1.76700007915497,-7.96905040740967,-6.8580002784729,-7.70805025100708,5.30062484741211,4.26648759841919,3.18133759498596,1.37805008888245,-1.87500011920929,-4.04505014419556,SWING_LEFT
-1.50163745880127,-0.01017499994487,1.01626253128052,-0.2576749920845,-0.62768751382828,-0.47121250629425,-1.20105004310608,1.0200001001358,0.07005000114441,-9.98505020141602,-10.1520004272461,-9.28605079650879,-1.3556125164032,-2.26077508926392,-2.92490005493164,2.71800017356873,1.86795008182526,2.38800001144409,2.19477510452271,1.91097497940063,1.40030002593994,-0.30524998903275,-0.14382499456406,-0.41346248984337,1.07805001735687,1.24305009841919,1.56900012493134,-9.21900081634522,-8.824049949646,-9.32400035858154,-3.38566255569458,-3.19976258277893,-2.91884994506836,1.78905010223389,1.8469500541687,2.12895011901855,0.43230000138283,-1.128737449646,-2.81558752059937,-0.33811250329018,-0.98518747091293,-0.690249979496,1.60395002365112,1.40595006942749,-2.61105012893677,-9.32895088195801,-11.2320003509521,-18.5089511871338,9.33913707733154,9.08641242980957,9.61908721923828,23.7550506591797,16.3750514984131,-3.58500027656555,-1.21797502040863,0.69891250133514,-2.85917496681213,3.85288739204407,2.86715006828308,-20.643424987793,-10.4689502716064,-3.76695013046265,3.45795011520386,1.54005002975464,4.44705009460449,-0.12495000660419,-3.44767498970032,-3.35389995574951,-3.35389995574951,-10.9879503250122,-2.03805017471313,-2.03805017471313,-10.5884628295898,-4.32038736343384,-2.48682498931885,-7.87833738327026,3.81851243972778,5.41241264343262,3.98205018043518,3.18900012969971,2.62395024299622,-11.8789501190186,-12.7120504379272,-8.95305061340332,1.30336248874664,1.1258499622345,0.55866247415543,-1.76805007457733,-3.71895027160645,-3.74505019187927,SWING_LEFT
-2.80403757095337,-1.17603754997253,0.89471250772476,-0.60486251115799,-0.78210002183914,-0.22068749368191,1.2720000743866,1.32705008983612,1.42005002498627,-8.63895034790039,-9.23505020141602,-9.53205013275146,-9.87868785858154,-11.3096494674683,-16.8827991485596,1.88295006752014,1.53600001335144,1.25805008411407,4.78156232833862,3.8643000125885,2.30216240882874,1.83342504501343,1.41157495975494,0.55068749189377,1.3819500207901,1.52805006504059,1.63605010509491,-9.32895088195801,-9.72900009155273,-10.0810508728027,-6.74437475204468,-5.28632497787476,-4.07714986801147,-0.23295001685619,0.54195004701614,2.04299998283386,0.52346247434616,1.65481245517731,4.17285013198853,0.90378749370575,3.13995003700256,6.21334981918335,-0.98505002260208,-4.29195022583008,-25.957950592041,-13.818000793457,-13.3200006484985,2.84295010566711,0.10738749802113,0.71458750963211,2.60809993743896,-3.42405009269714,-29.0310020446777,-22.8439502716064,0.41580000519753,-1.42133748531342,-1.80358743667603,-8.96073722839355,-8.82681274414063,-8.87810039520264,-0.32400000095367,1.85805010795593,3.58200025558472,-12.2160005569458,-6.68595027923584,-5.34705018997192,5.48501253128052,4.36452484130859,3.06487488746643,-5.03595018386841,-0.82905006408691,-0.4120500087738,-4.37249994277954,-5.34077501296997,-7.47326231002808,-1.24368751049042,0.19456249475479,3.82194995880127,3.45795011520386,3.28500008583069,2.99100017547607,-6.10095024108887,-8.49105072021484,-8.51504993438721,-4.81965017318726,-3.36971259117126,-2.0732250213623,-1.03305006027222,-3.90105009078979,-4.44900035858154,SWING_LEFT
0.99412500858307,0.96731251478195,0.90076249837875,0.97336250543594,1.43219995498657,1.29250001907349,0.63705003261566,1.42995011806488,1.40595006942749,-8.99100017547607,-9.77700042724609,-9.48405075073242,2.4256374835968,3.22767496109009,4.40082502365112,0.30705001950264,1.15200006961823,1.35405004024506,0.5823125243187,0.4687374830246,0.07108750194311,0.17710000276566,-0.38802498579025,-1.68272495269775,1.2720000743866,1.58505010604858,1.80105006694794,-9.68100070953369,-9.71205043792725,-9.23295021057129,15.8886747360229,15.1680374145508,13.7040748596191,-1.2960000038147,-2.68905019760132,-5.83305025100708,1.01915001869202,1.4025000333786,1.96886253356934,-3.67070007324219,-4.12389993667603,-3.97663736343384,2.00400018692017,0.74700003862381,-1.97895014286041,-7.60995054244995,-8.26800060272217,-17.0100002288818,20.6797256469727,17.8634490966797,16.1585865020752,56.452953338623,24.4660511016846,17.215950012207,-4.1325626373291,-2.93851256370544,-1.21797502040863,7.43022489547729,4.78403759002686,3.74329996109009,-32.6740531921387,-16.7370014190674,-6.4150505065918,-54.7510528564453,-8.90700054168701,10.3030500411987,12.8682126998901,12.7810373306274,11.8559370040894,-30.7930507659912,-27.7650012969971,-15.493950843811,-0.73136252164841,-0.21642500162125,-2.99103736877441,-6.93398761749268,-7.69477510452271,-4.28642511367798,1.43700003623962,0.22095000743866,-1.87605011463165,-8.74905014038086,-12.3379507064819,-7.93095016479492,3.55272507667542,-3.534987449646,-3.84477496147156,9.17805004119873,-1.16895008087158,0.2569500207901,SWING_LEFT
-0.60981249809265,-0.60678750276566,-0.58437502384186,-0.35571250319481,-0.1907124966383,-0.0141624994576,2.35095000267029,2.36595010757446,2.35905003547669,-9.16394996643066,-8.27505016326904,-7.6360502243042,-0.56938749551773,-0.49445000290871,-0.40314999222755,-1.24095010757446,-2.01705002784729,-2.15295004844666,-0.24584999680519,-0.11110000312328,0.50352501869202,-0.49527499079704,-1.18236243724823,-0.7236624956131,2.31600022315979,1.3819500207901,1.21395003795624,-7.60305023193359,-11.3500509262085,-10.135950088501,4.44097518920898,6.72072505950928,9.41847515106201,1.43700003623962,2.50305008888245,2.91195011138916,0.6210874915123,0.26193749904633,-0.06091250106692,0.27610000967979,0.10078749805689,0.08579999953508,0.96300005912781,0.98700004816055,-1.14300000667572,-10.0260000228882,-10.0690507888794,-19.2169513702393,9.15846252441406,8.36151218414307,7.60567474365234,35.4550514221191,23.5099506378174,9.94695091247559,2.69280004501343,1.67928743362427,3.84669995307922,3.46939992904663,1.73304998874664,1.04554998874664,-4.35195016860962,-3.42000007629395,1.32000005245209,-30.0780010223389,-8.62695026397705,2.3929500579834,13.6904621124268,11.9200124740601,8.64723777770996,-16.2240009307861,-9.28095054626465,-1.54695010185242,-4.89857482910156,-8.18991279602051,-8.53613758087158,-1.36702501773834,1.12323749065399,3.5011625289917,3.12000012397766,3.20595026016235,3.39495015144348,-10.8229503631592,-11.7970504760742,-10.6720504760742,-2.96394991874695,-1.87976253032684,-1.43797504901886,-0.49605002999306,-1.7700001001358,-3.85500025749207,SWING_LEFT
-0.32243749499321,-0.32491248846054,-0.30882498621941,-0.93334996700287,-1.00842499732971,-1.08597505092621,1.43700003623962,1.62600004673004,1.56105005741119,-9.4150505065918,-8.73300075531006,-9.27405071258545,4.90696239471436,4.54437494277954,4.19828748703003,-0.13500000536442,-0.03900000080466,-0.53895002603531,-0.12801249325275,-0.08566249907017,-0.04867500066757,-0.77027499675751,-0.70248746871948,-0.67031252384186,1.57095003128052,1.62600004673004,1.68795013427734,-8.87595081329346,-9.13500022888184,-9.39600086212158,3.07408738136292,2.84501242637634,2.67575001716614,-1.69800007343292,-2.46705007553101,-1.05900001525879,0.30456250905991,2.2922625541687,5.96873760223389,1.42106246948242,5.01613759994507,5.9545750617981,-13.2199506759644,-34.0240516662598,-41.0820007324219,-31.7179508209229,-1.92105007171631,8.52195072174072,-1.41295003890991,1.46712493896484,3.23207497596741,2.51205015182495,-35.2060508728027,-33.9300003051758,5.80772495269775,0.84796249866486,-0.57254999876022,-6.6879997253418,-12.1750745773315,-8.0812873840332,2.62005019187927,1.46295011043549,1.75305008888245,6.36705017089844,-14.1439504623413,-4.46595001220703,9.02123737335205,8.69577503204346,7.7089376449585,-7.53795051574707,-0.53205001354218,4.11195039749146,-1.4499374628067,-2.65292501449585,-2.08133745193481,-0.57365000247955,7.2806248664856,8.59801292419434,2.02800011634827,2.65800023078919,2.25300002098084,-9.72900009155273,-11.97705078125,-9.78105068206787,5.15129995346069,4.59525012969971,3.71126246452332,-0.60600000619888,-2.62695002555847,-4.4370002746582,SWING_LEFT
0.4779500067234,0.44426250457764,0.39985001087189,-0.17874999344349,-0.26179999113083,-0.35640001296997,0.96300005912781,1.13295006752014,1.03694999217987,-8.86005020141602,-9.42495059967041,-10.0969505310059,5.43853759765625,5.7266001701355,6.02758741378784,0.16095000505447,-0.01305000018328,-0.30900001525879,0.28613749146461,0.25121250748634,0.22769999504089,-0.73466247320175,-0.75129997730255,-0.72696250677109,0.98700004816055,0.96495002508163,1.07504999637604,-9.10395050048828,-9.71895027160644,-9.32205009460449,6.59504985809326,6.37422513961792,6.13923740386963,-0.52005004882813,-1.87995004653931,-3.40800023078919,0.2035000026226,0.52731251716614,0.78017497062683,-1.67639994621277,-2.48393750190735,-2.4256374835968,1.88505005836487,1.03500008583069,-2.19900012016296,-8.80905055999756,-10.5859508514404,-23.7259502410889,6.17292499542236,5.36607503890991,6.07763767242432,35.2660522460938,33.8179512023926,4.99095010757446,2.14665007591248,1.91221249103546,6.0792875289917,7.06323766708374,4.50023746490479,-3.47737503051758,-11.7520503997803,-5.4529504776001,1.2960000038147,-31.0279521942139,-17.2560005187988,7.31295013427734,1.69303750991821,6.88544988632202,13.0905494689941,-26.9149513244629,-20.2470016479492,-10.4160003662109,7.10283756256104,2.92132496833801,1.08198750019073,-4.44496250152588,-2.21251249313354,1.60833752155304,2.45400023460388,1.73895013332367,2.44200015068054,-8.36595058441162,-9.12105083465576,-11.1600008010864,8.75503730773926,10.0985498428345,9.66294956207275,3.38895010948181,0.48405003547668,-2.44995021820068,SWING_LEFT
-0.07988750189543,-0.0417999997735,-0.01374999992549,-0.14066250622272,-0.14148749411106,-0.11673749983311,2.75100016593933,2.62200021743774,2.62200021743774,-8.60805034637451,-8.52195072174072,-8.76405048370361,0.19566249847412,0.24365000426769,0.25368750095367,-2.19405007362366,-2.08605003356934,-1.99305009841919,0.10298749804497,0.12333749979734,0.10917499661446,0.07796250283718,0.10766249895096,0.1024374961853,2.58405017852783,2.5860002040863,2.59305024147034,-8.71605014801025,-8.43600082397461,-8.28000068664551,0.03286249935627,0.00247499998659,-0.06132499873638,-2.43105006217957,-2.72805023193359,-2.55000019073486,-0.05238749831915,-0.09198749810457,-0.69464999437332,-0.1915374994278,-0.39421248435974,-1.56200003623962,3.08400011062622,5.5620002746582,7.07100009918213,-8.01000022888184,-8.4529504776001,-7.73895025253296,-1.60269999504089,-2.12657499313354,-2.66956257820129,-25.6530017852783,-24.199951171875,-18.2470512390137,0.34746250510216,1.23832499980927,1.82613754272461,-5.24122476577759,-4.45417499542236,-3.01963758468628,-18.610050201416,-16.9360504150391,-11.7810001373291,-7.87605047225952,-11.6779508590698,-14.3280010223389,-8.668137550354,-13.5007123947144,-13.0304622650146,14.131950378418,16.3510513305664,18.7530002593994,2.15311241149902,0.37083750963211,-0.83380001783371,8.10260009765625,9.38409996032715,8.54562473297119,-3.48495006561279,-1.51695013046265,-0.18105000257492,-10.7989501953125,-11.4570007324219,-9.98205089569092,-5.92239999771118,-4.26813745498657,0.29067498445511,3.80505013465881,-0.55395001173019,-2.5860002040863,SWING_LEFT
0.09515000134706,0.07548750191927,0.03891250118613,0.00398749997839,-0.04936249926686,-0.16609999537468,1.60200011730194,1.62795007228851,1.70700013637543,-9.32895088195801,-8.95995044708252,-8.97900009155273,-0.16266250610352,-0.11976250261068,-0.0417999997735,-0.56595003604889,-1.03305006027222,-2.98395013809204,-0.18535000085831,-0.20762500166893,-0.14176249504089,-0.88302499055862,-1.32439994812012,-1.40236246585846,2.25795006752014,1.88205003738403,1.62405002117157,-9.03705024719238,-8.95095062255859,-8.75895023345947,1.24203753471375,1.95854997634888,3.44685006141663,4.28400039672852,20.6320514678955,41.3359527587891,0.06435000151396,-14.7349128723145,-15.5396995544434,5.31877517700195,2.40501236915588,4.47851228713989,-36.5670013427734,-43.0480537414551,-40.7280006408691,-2.35905003547669,3.41700005531311,-26.8909511566162,19.9827365875244,19.4526748657227,18.53857421875,-34.0470008850098,-50.6400032043457,-44.4360008239746,-4.98231267929077,-2.16919994354248,-0.75831252336502,8.43823719024658,8.54699993133545,7.77383756637573,1.39395010471344,2.97900009155273,2.91405010223389,0.74295002222061,-2.86695003509521,-6.09195041656494,16.6065616607666,13.1034746170044,11.8702373504639,-3.38595008850098,7.88505029678345,11.8690509796143,-5.4795126914978,-7.50255012512207,-6.65362501144409,6.88297510147095,11.6903877258301,13.6083745956421,1.03500008583069,1.67400002479553,1.89900004863739,-12.985050201416,-11.9550008773804,-9.29295063018799,2.75948739051819,4.23431253433228,4.83147478103638,-0.02505000121891,-3.37905025482178,-5.91195011138916,SWING_LEFT
0.06971249729395,0.06957499682903,0.06544999778271,-0.00481249997392,-0.04881250113249,-0.37578749656677,1.15694999694824,1.20195007324219,1.13295006752014,-9.4819507598877,-9.12105083465576,-9.4680004119873,0.72297501564026,0.78044998645782,0.86088746786118,-0.08205000311136,-0.08895000070333,-0.03900000080466,0.09624999761581,0.19470000267029,0.23361249268055,-0.36726251244545,-0.3121249973774,-0.2231625020504,0.7620000243187,0.72105002403259,0.7950000166893,-9.57495021820068,-9.26400089263916,-9.14700031280518,2.20288753509521,2.34286260604858,2.49947500228882,-0.26399999856949,-1.71000003814697,-5.02395009994507,-0.0671000033617,-0.19263750314713,0.09748750180006,-1.19432497024536,-1.94672501087189,-2.49342489242554,2.46600008010864,1.46100008487701,-4.37100028991699,-11.6730003356934,-9.31395053863525,-16.2720012664795,11.6381378173828,12.4205121994019,10.4810752868652,48.4999504089355,42.9349517822266,0.12300000339746,0.08139999955893,1.87481248378754,4.40811252593994,6.90772485733032,3.86897492408752,1.884850025177,-17.2140007019043,-11.0749502182007,-4.63905000686646,-25.0399513244629,10.1550006866455,11.4930009841919,11.4709377288818,16.5886878967285,14.8380374908447,-37.6050033569336,-28.6980018615723,-1.72200012207031,6.27962493896484,3.47283744812012,-1.3362250328064,-0.66990000009537,0.29782500863075,10.133337020874,1.5660001039505,1.06605005264282,1.44900012016296,-12.8029508590698,-11.0410509109497,-10.8799505233765,15.4833250045776,20.1317882537842,16.3883495330811,3.02205014228821,-0.6810000538826,-3.1470000743866,SWING_LEFT
-0.09858749806881,-0.11632499843836,-0.11577499657869,-0.38953748345375,-0.38225001096725,-0.35502499341965,0.35895001888275,0.47205001115799,0.47400003671646,-8.47200012207031,-8.89500045776367,-9.14400005340576,5.95979976654053,7.23758745193481,7.99466228485107,0.55200004577637,0.30300000309944,0.2790000140667,-0.31116250157356,-0.35612499713898,-0.37014999985695,-0.04936249926686,-0.24708749353886,-0.3827999830246,0.6730500459671,0.8479500412941,1.04700005054474,-9.0130500793457,-9.0100507736206,-9.08700084686279,7.59453725814819,7.38512516021729,7.33438730239868,-0.48405003547668,-1.36800003051758,-2.2300500869751,0.06008749827743,0.51631247997284,0.64391249418259,-1.36331248283386,-1.81279993057251,-1.66333746910095,1.23600006103516,0.36705002188683,-0.79800003767014,-9.69000053405762,-9.2160005569458,-12.4339504241943,4.08347511291504,1.75422501564026,2.0092875957489,53.2039527893066,38.8459510803223,19.4689502716064,4.12967491149902,2.87649989128113,2.74725008010864,8.66208744049072,6.08093738555908,4.21162509918213,-27.3370513916016,-13.1599502563477,-4.53600025177002,-35.8650016784668,-15.1729507446289,9.64695072174072,9.40527534484863,8.82598781585693,8.65961265563965,-31.359001159668,-23.484001159668,-13.1880006790161,-0.32683750987053,1.67942500114441,-0.40603750944138,-7.76984977722168,-1.46341252326965,1.80867493152618,-0.37695002555847,0.72105002403259,0.03105000220239,-15.9130506515503,-12.5560503005981,-10.6240501403809,6.37779998779297,5.87221240997314,4.83284997940063,4.14300012588501,2.60805010795593,-1.47105002403259,SWING_LEFT
0.13323749601841,0.1032624989748,0.08139999955893,0.09322500228882,0.04633750021458,0.00508749997243,0.52905005216599,0.60405004024506,0.54900002479553,-9.34305000305176,-9.49605083465576,-9.39300060272217,0.63937497138977,0.8896250128746,1.43715000152588,0.6690000295639,0.89895004034042,1.08495008945465,-0.05527500063181,-0.10642500221729,-0.1385999917984,0.14547500014305,0.22646249830723,0.21848750114441,0.48900002241135,0.51495003700256,0.63705003261566,-9.09705066680908,-9.09705066680908,-9.33105087280273,2.675612449646,2.57166242599487,2.29886245727539,-0.13005000352859,-0.39300000667572,-1.21695005893707,-0.23347499966621,-0.36877501010895,-0.39476248621941,-0.49555000662804,-0.98161250352859,-0.94861251115799,1.71705007553101,1.47795009613037,-3.33195018768311,-10.2870006561279,-10.6909503936768,-19.4970016479492,8.72492504119873,10.1699123382568,9.42809963226318,39.0490531921387,32.4630012512207,17.7109508514404,-1.036749958992,-0.04743750020862,1.22361254692078,8.35477542877197,6.05000019073486,3.57898759841919,-19.9549503326416,-20.7979507446289,-16.2460498809814,-27.1420516967773,-27.1470012664795,-2.08905005455017,7.93044996261597,14.6557121276855,20.4528503417969,-35.4409523010254,-36.4660530090332,-26.002950668335,4.14424991607666,4.32767486572266,2.76663756370544,10.6429128646851,6.95791244506836,3.48163747787476,1.57800006866455,1.1380500793457,0.73500001430511,-12.8680505752563,-12.8719501495361,-9.32595062255859,11.9695119857788,9.3289623260498,5.37432479858398,7.53105020523071,7.45695018768311,1.9450501203537,SWING_LEFT
-0.24626250565052,-0.37716248631477,-0.57296252250671,0.39737498760223,0.26523751020432,-0.08497499674559,0.82200002670288,0.8479500412941,0.8359500169754,-10.6120500564575,-10.1689500808716,-9.44400024414062,8.70883750915527,7.54764986038208,6.94099998474121,0.35505002737045,-0.1950000077486,-0.32595002651215,-0.3962749838829,-0.32903748750687,-0.29603749513626,-1.01378750801086,-1.05366253852844,-1.07978749275208,1.10895001888275,1.13505005836487,1.36995005607605,-9.39300060272217,-9.34605026245117,-9.45600032806396,4.8895001411438,4.74581241607666,4.68558740615845,-1.67895007133484,-2.42805004119873,-2.31105017662048,-0.05087500065565,-0.01127499993891,-0.03135000169277,-1.62854993343353,-1.40648746490479,1.1310750246048,1.16400003433228,-2.36400008201599,-10.1650505065918,-7.78500032424927,-10.8439502716064,-9.80100059509277,10.4952373504639,13.338324546814,12.9795875549316,41.7739524841309,24.6120014190674,9.98505020141602,-4.51261234283447,-4.18440008163452,-4.89032506942749,7.42101240158081,5.68713760375977,12.3862752914429,-25.9140014648438,-17.332950592041,-0.86100006103516,-31.252950668335,4.69095039367676,-2.31405019760132,19.106725692749,17.5305633544922,7.33204984664917,-28.3630504608154,-11.5579509735107,10.7970008850098,-8.27213764190674,-7.30757474899292,-5.5338249206543,-7.99961233139038,-0.9560375213623,6.64592504501343,-1.12200009822845,0.25605002045631,1.53000009059906,-9.99900054931641,-11.026050567627,-11.2900505065918,-0.92702502012253,0.96854996681213,0.24227499961853,1.98105013370514,-5.82105016708374,-7.49205017089844,SWING_LEFT
-0.49953749775887,-0.36437499523163,-0.26482498645782,-0.42611250281334,-0.66852498054504,-0.68626248836517,1.19700002670288,1.21395003795624,1.03694999217987,-9.42495059967041,-9.29505062103272,-9.16394996643066,0.3284874856472,0.32615000009537,0.29067498445511,1.71300005912781,1.40595006942749,1.5619500875473,0.12416250258684,0.0954250022769,0.06256250292063,-0.68818747997284,-0.65958750247955,-0.69891250133514,1.36695003509521,1.23795008659363,1.46100008487701,-8.89305019378662,-9.421950340271,-8.7450008392334,-0.0504624992609,-0.06489999592304,0.0054999999702,0.69000005722046,2.29200005531311,5.56500005722046,-0.53597497940063,-1.26568746566772,-1.70252501964569,0.18864999711514,2.21924996376038,5.15129995346069,5.99595022201538,7.31505012512207,-24.7030506134033,-11.5099506378174,-15.3000011444092,-12.292950630188,3.03613758087158,4.1267876625061,4.75034999847412,37.2010536193848,8.30895042419434,-2.87595009803772,2.06896257400513,1.28466248512268,0.55577498674393,3.17198753356934,4.19168758392334,6.52602481842041,-29.4100513458252,-15.6070508956909,-14.3790006637573,18.3340511322021,20.9410514831543,9.68295001983643,13.4586372375488,13.023175239563,11.6483125686646,-9.17295074462891,-3.16095018386841,-2.9719500541687,4.00124979019165,0.78017497062683,-2.53769993782043,2.33406257629395,2.28923749923706,3.60043740272522,0.57495003938675,1.28805005550385,3.55305027961731,-11.3260507583618,-3.27405023574829,-0.09900000691414,8.36563777923584,10.8158874511719,12.3435125350952,-7.92300033569336,-4.07295036315918,-2.54100012779236,SWING_LEFT
-0.04702499881387,-0.04344999790192,-0.02268750034273,-0.83517497777939,-0.73026251792908,-0.62287497520447,0.28995001316071,0.10305000841618,-0.32700002193451,-8.79300022125244,-9.36195087432861,-9.8700008392334,0.42693749070168,0.5543999671936,0.76642501354218,-1.60200011730194,0.44400003552437,1.42500007152557,0.52222502231598,0.50572502613068,0.49197500944138,-0.3287625014782,-0.17091250419617,-0.10848750174046,-0.58095002174377,-0.56595003604889,-0.3529500067234,-9.30000019073486,-9.58695030212402,-8.5890007019043,1.7462500333786,1.27201247215271,0.18823750317097,-3.39300012588501,-4.18800020217896,-0.99405002593994,0.60939997434616,-0.35708749294281,-2.25720000267029,-1.4161125421524,2.88997507095337,6.82673740386963,3.38295006752014,5.61195039749146,-33.5550003051758,-17.131950378418,-26.6520004272461,-20.836051940918,5.07457494735718,5.79974985122681,6.42207479476929,20.719051361084,1.73895013332367,-4.41105031967163,0.55206251144409,1.14427495002747,5.86987495422363,6.81037473678589,8.94795036315918,7.00837516784668,-13.6489505767822,-11.1540002822876,-6.45600032806396,16.9210510253906,8.43105030059814,-7.87605047225952,11.2036371231079,11.0823621749878,9.45381259918213,0.7140000462532,-4.09995031356812,-13.3270502090454,-2.80376243591309,-2.72786259651184,-1.35066246986389,4.55578756332397,4.41608762741089,2.88901257514954,3.10305023193359,4.11105012893677,5.00895023345947,0.14699999988079,-2.7610502243042,-7.29105043411255,9.03333759307861,8.17574977874756,7.74399995803833,-1.33695006370544,-2.85705018043518,-2.52195000648499,SWING_LEFT
0.35488748550415,0.30648750066757,0.31294998526573,0.57543748617172,0.41937500238419,0.21546250581741,-0.99195003509521,-0.80805003643036,-0.77400004863739,-9.1830005645752,-8.89305019378662,-8.99805068969727,2.26448750495911,1.86931252479553,1.6131500005722,-0.52995002269745,-0.82395005226135,-0.30900001525879,0.35254999995232,0.340725004673,0.38101249933243,-0.58451247215271,-0.49279999732971,-0.6375874876976,-1.31805002689362,-1.37505006790161,-1.31805002689362,-8.91000080108643,-8.7810001373291,-8.06700038909912,1.07360005378723,1.05435001850128,1.08253753185272,-0.8029500246048,-1.22205007076263,-1.05900001525879,0.76725000143051,0.67430001497269,-0.47657498717308,-0.61764997243881,0.7596874833107,4.63058757781982,-1.46205008029938,0.45795002579689,-7.07895040512085,-9.87705039978027,-16.4280014038086,-27.0469512939453,1.93283748626709,2.54704999923706,3.17790007591248,44.6689529418945,-0.4200000166893,-17.6580009460449,2.95446252822876,-1.79327499866486,0.28902500867844,3.95092487335205,13.3544120788574,17.793737411499,-20.998950958252,-7.76805019378662,-7.1980504989624,21.3049507141113,8.43105030059814,-7.67895030975342,11.901312828064,13.1538000106812,9.88927459716797,3.80100011825562,-6.24495029449463,-11.1390008926392,-4.27239990234375,-1.54824995994568,-1.52556252479553,7.4204626083374,0.92991250753403,1.68355000019073,1.31700003147125,3.3139500617981,3.99405026435852,-4.73699998855591,-12.0919504165649,-8.20394992828369,4.96663761138916,4.27913761138916,2.91499996185303,-4.52100038528442,-4.37700033187866,-2.71095013618469,SWING_LEFT
1.02808749675751,0.9840874671936,0.8955374956131,-0.3755125105381,0.03368749842048,0.54642498493195,0.56100004911423,0.01905000023544,-0.22605000436306,-7.73400020599365,-8.89800071716309,-10.2049503326416,1.96239995956421,2.31879997253418,2.45231246948242,0.39600002765656,1.61505007743835,1.23405003547668,0.0686125010252,-0.07686249911785,-0.06201250106096,1.11911249160767,1.28108751773834,0.99976247549057,0.22800001502037,0.28800001740456,0.85695004463196,-9.98700046539307,-10.3780508041382,-8.99805068969727,2.55653738975525,2.34465003013611,1.34158754348755,-0.04605000093579,-1.54500007629395,0.68805003166199,-0.08579999953508,-0.06572499871254,-0.6182000041008,-0.12113749980927,-0.12856249511242,1.75394999980927,0.36195001006126,0.66405004262924,2.79000020027161,-9.04200077056885,-8.06505012512207,-17.6560516357422,4.79476261138916,5.46562480926514,5.81803750991821,29.1850509643555,1.83495008945465,-10.2910509109497,-0.12856249511242,-2.72813749313354,0.66329997777939,5.52997493743896,11.2432374954224,13.15269947052,-11.4390001296997,-4.63905000686646,-6.57300043106079,21.609001159668,18.8959503173828,6.68595027923584,14.0157871246338,11.7275123596191,10.7757377624512,-6.93900012969971,3.51600027084351,-3.37695026397705,-6.42963743209839,-5.93889999389648,-3.26108741760254,8.64888763427734,8.5229377746582,2.52573752403259,3.39105010032654,3.67605018615723,4.86105012893677,-3.68595027923584,-4.4040002822876,-9.79605007171631,6.78548765182495,5.59542512893677,4.85086250305176,-2.32500004768372,-4.02300024032593,-4.36800003051758,SWING_LEFT
0.13213749229908,0.36588749289513,0.38596248626709,-0.38967499136925,-0.10367500036955,-0.07342500239611,2.49300003051758,2.71095013618469,2.15505003929138,-9.3720006942749,-8.37105083465576,-8.70600032806396,1.78914999961853,1.52693748474121,1.41006255149841,-1.30305004119873,0.91800004243851,1.18605005741119,0.45031249523163,0.54766249656677,0.62562501430511,-0.24007499217987,-0.24488750100136,-0.23512500524521,1.45395004749298,1.43205010890961,1.36305010318756,-9.3550500869751,-9.62805080413818,-9.29295063018799,1.09972500801086,1.08226251602173,1.02121245861053,-0.34800001978874,-1.21695005893707,-0.57495003938675,0.83517497777939,0.74236249923706,0.24378749728203,-0.36245000362396,-0.32106250524521,1.3668874502182,1.4389500617981,2.70300006866455,5.72505044937134,-7.42500019073486,-9.76500034332275,-19.4280014038086,3.42622494697571,3.84642505645752,4.47617483139038,25.1070003509521,1.53795003890991,-0.26595002412796,-1.48500001430511,-4.63388729095459,4.91988754272461,6.02511262893677,11.3517246246338,10.7017621994019,-13.8660011291504,-10.5460500717163,-7.18395042419434,18.3889503479004,16.7490005493164,-7.33395051956177,12.1375370025635,8.46175003051758,6.8260498046875,1.44900012016296,-7.04505014419556,-9.8100004196167,-6.69363737106323,-3.93566250801086,-2.17689990997314,9.33638763427734,4.81085014343262,-0.19387499988079,4.30500030517578,4.60395002365112,5.20500040054321,-2.35005021095276,-7.42995023727417,-11.110050201416,6.03363752365112,5.55623769760132,5.22733736038208,-3.62100028991699,-4.28894996643066,-6.23505020141602,SWING_LEFT
0.25286251306534,0.09831249713898,0.03189999982715,0.30992498993874,-0.00907499995083,-0.35241249203682,1.22100007534027,1.34100008010864,1.33395004272461,-8.84295082092285,-9.21195030212402,-9.07500076293945,0.82568746805191,0.69011247158051,0.66453748941422,0.87495005130768,1.48500001430511,1.09995007514954,-0.29644998908043,-0.2729375064373,-0.22412499785423,-0.49197500944138,-0.5380374789238,-0.53322499990463,1.357950091362,1.38705003261566,1.46805012226105,-9.42000007629394,-8.93100070953369,-8.4330005645752,0.2374625056982,0.06104999780655,-0.14519999921322,-0.12495000660419,-0.05595000088215,0.89400005340576,-0.20143750309944,-1.41583752632141,-2.16260004043579,-0.53583747148514,0.25162500143051,1.46410000324249,3.29505014419556,4.30500030517578,7.3560004234314,-6.06495046615601,-4.36094999313354,-11.2159509658813,3.71263742446899,5.04666233062744,5.29636240005493,56.8290023803711,33.6809997558594,12.6619510650635,0.87986248731613,-3.44203758239746,-8.1378002166748,3.15356254577637,5.02699995040894,9.08517456054688,-31.5960006713867,-27.4519519805908,-17.7040500640869,14.1889505386353,20.191951751709,15.3940505981445,14.9500999450684,12.7239751815796,12.5798749923706,-9.89595031738281,-0.3529500067234,2.36205005645752,-0.96827501058578,-9.88583755493164,-8.78061199188232,0.28256249427795,7.57941246032715,8.47659969329834,3.96300029754639,4.31700038909912,4.19700002670288,-7.47600030899048,-6.41700029373169,-8.8840503692627,11.65931224823,9.94798755645752,8.07152462005615,-3.67605018615723,-3.67605018615723,-4.55505037307739,SWING_LEFT
0.6289250254631,0.69244998693466,0.82568746805191,-1.39754998683929,-1.13492500782013,-0.03396249935031,0.88395005464554,1.357950091362,0.90795004367828,-9.29295063018799,-9.34305000305176,-9.66600036621094,2.89423751831055,3.49442505836487,3.5100998878479,1.17900002002716,0.34605002403259,1.07805001735687,0.39214998483658,0.19731250405312,0.24653749167919,0.80575001239777,0.50118750333786,-0.01842499896884,1.11105000972748,0.93600004911423,1.09905004501343,-9.03000068664551,-10.2550506591797,-9.2160005569458,1.77526247501373,1.61617493629456,1.06232500076294,0.53205001354218,-1.27395009994507,-1.63305008411407,-0.27981248497963,-0.49073749780655,-2.14541244506836,-0.81674998998642,-0.92509996891022,2.8168249130249,1.87695014476776,3.76200008392334,3.25905013084412,-6.49905014038086,-5.60805034637451,-20.8410015106201,4.79998731613159,5.81487512588501,6.18736267089844,55.6110038757324,17.3380508422852,-2.3449501991272,-0.13887499272823,-2.92627501487732,1.99732494354248,4.1504373550415,11.1909875869751,10.712212562561,-24.2410507202148,-14.3290510177612,-12.1380004882813,20.4570007324219,9.9660005569458,-0.12495000660419,14.0408124923706,12.0117244720459,11.0099000930786,2.5530002117157,2.81895017623901,-1.13295006752014,-4.42199993133545,-9.73156261444092,-8.47907447814941,4.96182489395142,8.26691246032715,8.68958759307861,4.04400014877319,4.00605010986328,4.08300018310547,-6.36495018005371,-6.22095012664795,-6.87195014953613,12.6190624237061,7.96757507324219,6.39553737640381,-2.88795018196106,-2.20995020866394,-3.61800026893616,SWING_LEFT
0.59661251306534,0.61311250925064,0.64418751001358,-0.19277499616146,-0.23306250572205,-0.22714999318123,1.39095008373261,1.06800007820129,1.19700002670288,-9.54000091552734,-9.31695079803467,-9.13005065917969,0.92413747310638,0.99027496576309,1.06136250495911,-0.5460000038147,-0.69495004415512,0.23100000619888,0.45416250824928,0.37028750777245,0.31130000948906,0.01374999992549,0.20363749563694,0.13557499647141,1.16595005989075,1.09005010128021,1.52295005321503,-9.34995079040527,-9.36195087432861,-8.85000038146973,1.60888743400574,1.68795001506805,1.59389996528625,1.14300000667572,-0.26895001530647,0.67395001649857,-0.27802500128746,-0.34608748555183,-0.27829998731613,-0.02804999984801,-0.03808749839664,-0.09253749996424,1.71000003814697,1.48500001430511,2.73900008201599,-8.19900035858154,-8.33805084228516,-15.1540508270264,4.88977479934692,6.13868761062622,11.6587619781494,45.528003692627,-13.252950668335,-34.6630516052246,6.14239978790283,5.24287509918213,0.98477500677109,8.74376201629639,1.7850250005722,2.93301248550415,-4.70595026016235,4.05404996871948,3.10305023193359,-15.3670511245728,-11.4480009078979,-8.11995029449463,7.91394996643066,10.4475250244141,12.0033378601074,-10.8370504379272,-7.47600030899048,-4.32000017166138,-1.86504995822906,-1.52625000476837,-1.29690003395081,-0.23127499222755,-0.19855000078678,2.11103749275208,4.27605009078979,5.03505039215088,4.52295017242432,-10.4730005264282,-8.625,-8.12700080871582,3.72776246070862,3.36971259117126,2.30917501449585,-4.00605010986328,-3.95100021362305,-4.32195043563843,SWING_LEFT
0.64418751001358,0.23856249451637,0.21216249465942,3.15837502479553,2.22612500190735,1.30239999294281,1.98300004005432,1.95600008964539,2.24400019645691,-13.4419507980347,-11.3899507522583,-10.4610004425049,3.5543749332428,1.59238743782043,1.33003747463226,-2.80695009231567,0.22605000436306,2.34195017814636,-0.23828749358654,-0.02117500081658,0.29479998350143,-1.01323747634888,-0.86597502231598,-0.54449999332428,0.81900006532669,0.46005001664162,0.18900001049042,-9.69300079345703,-9.78405094146728,-9.42495059967041,2.19491243362427,2.1290500164032,1.46465003490448,0.78900003433228,0.08700000494719,-0.87405002117157,0.96332502365112,0.76683747768402,0.67347496747971,-0.39737498760223,-0.8318749666214,-1.35121250152588,-0.20505000650883,-0.39105001091957,-0.71895003318787,-9.35295009613037,-8.2470006942749,-7.69095039367676,1.74556243419647,4.08430004119873,6.47528743743896,63.3700523376465,-5.72295045852661,-25.6699504852295,1.29414999485016,1.29414999485016,7.51093769073486,13.2713623046875,13.2713623046875,8.49516201019287,-11.1250505447388,-11.1250505447388,0.70695000886917,-5.80005025863647,-5.80005025863647,-15.2670011520386,11.6192998886108,9.32167530059814,8.23707485198975,-1.85400009155273,-7.31295013427734,-10.9900503158569,-5.50082492828369,-3.33753752708435,-1.85459995269775,9.58828735351562,5.21152496337891,1.10440003871918,1.52505004405975,2.1739501953125,2.3730001449585,-2.79000020027161,-6.63795042037964,-10.9380006790161,6.87967491149902,5.00912475585938,4.6927375793457,-3.10605025291443,-5.27295017242432,-4.57800006866455,SWING_LEFT
1.57258749008179,1.78103744983673,2.02991247177124,-0.23649999499321,-0.90117502212524,-1.54467499256134,0.48600003123283,0.94095003604889,0.99405002593994,-8.44305038452148,-8.26800060272217,-7.57395029067993,-0.79887497425079,-0.8896250128746,-0.30744999647141,4.25505018234253,2.28495001792908,-0.89805006980896,1.8191249370575,1.39576244354248,0.58684998750687,-1.49751245975494,0.12388750165701,4.42859983444214,-0.53295004367828,-1.88100004196167,-14.0560503005981,-9.02505016326904,-5.79495048522949,-18.034049987793,2.30174994468689,2.14389991760254,1.58372497558594,11.9220008850098,3.77895021438599,12.4390506744385,2.59765005111694,2.76196241378784,1.85350000858307,2.12313747406006,1.30982494354248,2.29900002479553,-30.1309509277344,-31.8640518188477,-19.8430500030518,0.30705001950264,4.54995012283325,4.8400502204895,10.4014625549316,12.0887250900269,10.754150390625,-77.9059524536133,-8.9839506149292,-2.74200010299683,2.38837504386902,0.80506247282028,-0.07177499681711,-3.79431247711182,-3.18752503395081,-2.35152506828308,0.85995006561279,2.83800005912781,4.65705013275146,-7.96695041656494,-3.132000207901,-1.02300000190735,10.3728628158569,9.1865119934082,7.85482501983643,-0.65400004386902,0.16095000505447,-0.4120500087738,-5.08488750457764,-4.45788764953613,-3.39927506446838,3.7445375919342,4.59662485122681,4.46338748931885,5.88495016098022,4.83000040054321,4.35300016403198,-10.0759506225586,-7.14000034332275,-7.4370002746582,3.55520009994507,3.56757497787476,3.46816253662109,-4.32495021820068,-5.15505027770996,-4.85895013809204,SWING_LEFT
-0.67003750801086,-0.89209997653961,-0.859375,1.28287494182587,1.20903754234314,1.09738755226135,5.58405017852783,4.2960000038147,1.24995005130768,-5.9650502204895,-6.6739501953125,-9.76500034332275,-1.05159997940063,-0.98188751935959,-1.0393625497818,2.07195019721985,1.60005009174347,1.52805006504059,1.43852496147156,1.14867496490479,0.33027499914169,-1.04596245288849,-0.64281249046326,-0.17613749206066,2.93805003166199,2.34000015258789,2.05200004577637,-8.9239501953125,-7.31805038452148,-7.28895044326782,2.54773759841919,3.7144250869751,4.51343727111816,4.21500015258789,5.52705049514771,5.06700038909912,-1.94315004348755,-2.24344992637634,-3.37796258926392,-0.10766249895096,-0.20679999887943,0.90021246671677,3.331050157547,4.55895042419434,5.28900003433228,-8.32800006866455,-5.77605009078979,-2.85900020599365,6.44902515411377,7.20843744277954,7.13748741149902,49.8000030517578,34.3920021057129,22.5120010375977,-2.08573746681213,10.2074499130249,9.72894954681396,4.03287506103516,-0.07232499867678,-3.43282508850098,-15.9019508361816,-12.69105052948,-9.99705028533936,-14.4190502166748,-4.0900502204895,1.28400003910065,4.79930019378662,10.0644502639771,18.1671867370605,-9.95100021362305,-16.9879512786865,-18.1110000610352,3.65997505187988,2.65086245536804,0.60417497158051,5.41543769836426,3.25008749961853,2.23121237754822,-3.69495010375977,-1.90005004405975,-0.18495000898838,-12.4680004119873,-11.8309507369995,-11.2110004425049,9.21414947509766,9.36897468566894,9.44446277618408,-0.32100000977516,-0.6280500292778,-1.74405002593994,SWING_LEFT
-0.25368750095367,-0.32738751173019,-0.38197499513626,-0.06544999778271,-0.02034999988973,0.01443750038743,2.01900005340576,1.95900011062622,1.66395008563995,-8.99805068969727,-9.50595092773438,-9.34605026245117,2.80101251602173,2.88131237030029,3.03242492675781,-0.19905000925064,0.4870500266552,2.71800017356873,-0.37262499332428,-0.46488749980927,-0.71183747053146,-0.18466250598431,-0.1537249982357,-0.29466250538826,2.04299998283386,1.66905009746552,0.72300004959106,-7.67700052261353,-7.33695030212402,-8.14395046234131,4.85883760452271,5.46535015106201,7.16732501983643,-1.78905010223389,0.1540500074625,2.8090500831604,-0.30401250720024,-0.61393749713898,-2.04118752479553,-1.6686999797821,-1.28576254844666,0.89099997282028,1.31700003147125,1.66200006008148,2.54100012779236,-9.78600025177002,-7.26705026626587,-1.05405008792877,9.60286235809326,9.01023769378662,8.20091247558594,47.5900535583496,31.548002243042,-3.21105003356934,-0.47066250443459,3.51064991950989,6.31441259384155,2.6727249622345,0.09872499853373,-4.63457489013672,-27.142951965332,-20.8219509124756,-15.657000541687,-8.13195037841797,-2.26995015144348,-7.61505031585693,15.252049446106,11.852912902832,10.2906370162964,-16.9900512695313,-3.85500025749207,-5.56995010375977,-3.04768753051758,-4.90517520904541,-6.41808748245239,-0.5791500210762,1.26829993724823,4.38652515411377,1.71495008468628,2.37495017051697,2.90700006484985,-8.86695003509521,-9.21405029296875,-9.92295074462891,3.9114625453949,3.98708748817444,3.98612499237061,1.300950050354,-0.15105000138283,0.20895001292229,SWING_LEFT
0.30662500858307,0.38499999046326,0.40878748893738,-0.34636250138283,-0.22192500531673,-0.19483749568462,0.86205005645752,0.75000005960464,1.03005003929138,-9.57495021820068,-8.47395038604736,-8.67000007629395,1.31064999103546,1.50177502632141,1.34791254997253,-1.77195012569427,-3.08700013160706,-1.07595002651215,0.6484500169754,0.62741249799728,0.51727497577667,-0.72586250305176,-0.47863748669624,0.13736249506474,0.85995006561279,1.50195002555847,-0.14699999988079,-10.3660507202148,-9.64005088806152,-9.34305000305176,3.9308500289917,7.96001243591309,8.88621234893799,4.0969500541687,3.55605006217957,3.18495011329651,-2.76498746871948,-4.50477504730225,-7.54448747634888,0.6238374710083,0.1515250056982,1.06260001659393,3.21795010566711,4.81305027008057,0.40500003099442,-8.89500045776367,-3.37395024299622,-2.54595017433167,14.3800249099731,13.3478126525879,-10.0784749984741,39.8920516967773,11.9650506973267,-12.4129505157471,8.13395023345947,0.78292500972748,2.97962498664856,-1.93833744525909,3.19357490539551,1.38324999809265,-21.1570510864258,-14.848051071167,-6.08700037002563,-6.14400005340576,-1.80795013904572,-10.6150503158569,11.5753002166748,9.63613700866699,6.29818725585938,-3.04605007171631,2.58705019950867,7.33695030212402,-7.25367498397827,-7.60979986190796,-7.11521244049072,5.48391246795654,6.63905000686646,6.55214977264404,4.09500026702881,3.27795004844666,2.5770001411438,-9.04200077056885,-9.43200016021728,-9.05595016479492,4.89651250839233,3.0746374130249,1.70293748378754,-0.87405002117157,-1.03305006027222,-1.77495002746582,SWING_LEFT
0.25107499957085,0.25121250748634,0.27266249060631,0.32092499732971,0.3091000020504,0.15083749592304,0.47205001115799,0.57705003023148,-1.17195010185242,-8.53200054168701,-8.38094997406006,-9.79305076599121,1.36441254615784,1.30239999294281,2.05988740921021,-2.63895010948181,-0.70905005931854,2.51700019836426,0.65450000762939,-0.16197499632835,-1.24409997463226,2.26379990577698,2.74381256103516,2.35963749885559,1.39395010471344,1.03200006484985,1.92105007171631,-9.51300048828125,-9.21405029296875,-8.55795001983643,9.0560245513916,8.97421264648438,8.17286205291748,6.08505010604858,29.1730518341064,43.9810523986816,-2.92531251907349,5.22513723373413,4.74058771133423,6.08918762207031,3.95807504653931,0.11618749797344,-19.3800010681152,-20.9100017547607,-22.8550510406494,-11.4790506362915,-13.3080005645752,-7.27905035018921,12.2614250183105,18.1838245391846,13.8078870773315,-55.7680511474609,-3.70005011558533,-5.57400035858154,-2.77846240997314,-6.28938770294189,-8.32851219177246,4.69067478179932,5.83990001678467,6.63712501525879,3.43605017662048,3.76395010948181,3.38100004196167,-7.07595014572144,-9.25500011444092,-9.82200050354004,6.40089988708496,5.75863742828369,4.59648752212524,0.41505002975464,-0.05595000088215,-0.1489500105381,-2.75467491149902,-1.12846255302429,-0.73562496900558,2.62281250953674,-0.31900000572205,-0.87532502412796,1.62795007228851,1.55895006656647,1.43700003623962,-8.29905033111572,-9.56100082397461,-9.61605072021484,0.1545500010252,0.06022499874234,0.06806249916553,-1.06800007820129,-0.00795000046492,-0.63705003261566,SWING_LEFT
0.26289999485016,0.28916248679161,0.33646249771118,-0.48166251182556,-0.70221251249313,-0.5516499876976,-0.43005001544952,-0.1540500074625,-0.01800000108778,-9.1560001373291,-8.74005031585693,-8.49105072021484,1.13726246356964,1.31532502174377,1.75958752632141,-0.77895003557205,-0.71205002069473,-0.62100005149841,0.01058750040829,-0.13832500576973,-0.13983750343323,0.72531247138977,0.57048749923706,0.51081252098083,0.50100004673004,0.74295002222061,0.71595001220703,-9.38205051422119,-10.7920503616333,-10.9500007629395,2.67877507209778,2.89121246337891,2.9247624874115,2.41695022583008,0.40095001459122,-1.21395003795624,0.24378749728203,0.24901250004768,0.23498749732971,0.05004999786615,0.01567500084639,0.20473749935627,-0.30300000309944,0.15105000138283,2.41605019569397,-8.90295028686523,-9.86505031585693,-6.13200044631958,7.25298738479614,5.92886257171631,4.77207517623901,45.6889533996582,34.5930023193359,-22.746000289917,0.73672497272491,-5.51443767547607,-9.46481227874756,1.97243750095367,4.01582479476929,14.3514251708984,-9.23100090026856,-7.96200037002563,-3.84195017814636,-10.7970008850098,-14.5120506286621,-7.24095010757446,18.4149627685547,15.7125377655029,10.7577247619629,-8.40900039672852,-5.86395025253296,1.04505002498627,-8.15883731842041,-7.6217622756958,-5.13920021057129,1.87660002708435,4.06505012512207,5.58249998092651,5.24895048141479,4.66005039215088,3.61800026893616,-6.76500034332275,-8.11995029449463,-9.36495018005371,5.10056257247925,4.5043625831604,3.49799990653992,0.8320500254631,1.23105001449585,0.77400004863739,SWING_LEFT
-0.3964124917984,-0.2744500041008,-0.33893749117851,0.28077501058578,-0.02873750030994,-0.14451250433922,0.06495000422001,1.84905004501343,1.15905010700226,-9.14700031280518,-8.86695003509521,-9.2590503692627,4.66564989089966,5.76510000228882,6.29997491836548,2.2350001335144,3.57105016708374,1.99305009841919,-1.76962494850159,-2.16864991188049,-2.19697499275208,-0.17091250419617,-0.87821251153946,-1.06576251983643,2.23395013809204,2.77800011634827,2.52900004386902,-8.53395080566406,-8.97195053100586,-9.66900062561035,8.14742469787598,8.56542491912842,9.109375,0.68295001983643,-0.02505000121891,0.01500000059605,-1.0674124956131,-1.20395004749298,-7.07478761672974,-3.16043758392334,-2.97412490844727,1.36991250514984,3.07695007324219,4.83195018768311,-4.83495044708252,-8.51504993438721,-5.69895029067993,-5.6850004196167,10.9738750457764,7.58669996261597,5.35686254501343,40.2919502258301,0.05295000225306,-2.2630500793457,7.33466243743896,5.13452482223511,3.50611257553101,0.01608750037849,-4.92016267776489,-4.98382520675659,-21.9660015106201,-13.0950002670288,-5.80200004577637,-9.93705081939697,-10.2430505752563,-11.826000213623,8.86242485046387,6.23576259613037,4.64268732070923,-2.82795023918152,-0.28095000982285,2.16795015335083,-4.3547625541687,-5.42066240310669,-5.33527517318726,1.32385003566742,3.70493745803833,4.68627500534058,2.96205019950867,2.7439501285553,1.7700001001358,-11.5030508041382,-10.2960004806519,-9.0130500793457,3.35678744316101,2.06428742408752,0.69190001487732,-1.16400003433228,-0.70200002193451,-1.62195003032684,SWING_LEFT
-0.02749999985099,0.11935000121593,0.18603749573231,-0.91107499599457,-0.70317500829697,-0.61393749713898,0.91305005550385,0.65205001831055,0.46005001664162,-9.66195011138916,-9.44895076751709,-9.64005088806152,0.60596251487732,0.98229998350143,1.48912501335144,-0.95805007219315,-0.09900000691414,1.24605000019073,0.38802498579025,-0.05802499875426,-0.37647500634193,1.01392495632172,1.15981245040894,0.98395001888275,1.42005002498627,1.44195008277893,1.5900000333786,-9.77700042724609,-8.95800018310547,-9.28095054626465,7.71883726119995,8.93805027008057,9.40981197357178,1.4800500869751,0.75495004653931,-0.13199999928474,-1.26596248149872,-1.43522500991821,-2.00103759765625,-1.91908752918243,-2.25898742675781,-1.96363747119904,2.38695001602173,3.16095018386841,4.52295017242432,-8.90505027770996,-8.01405048370361,-6.91305017471313,12.5486621856689,11.3161125183105,8.38117504119873,49.933952331543,35.9410514831543,12.6000003814697,3.79609990119934,6.36460018157959,6.89012479782104,2.7945499420166,0.35846251249313,-4.48098754882813,-20.2830009460449,-18.328950881958,-12.0870008468628,-0.15195000171661,-4.69395017623901,-11.8570508956909,9.90604972839356,8.27461242675781,5.68892478942871,-3.55605006217957,-5.94795036315918,0.03195000067353,-4.82872486114502,-5.72577476501465,-5.30983734130859,2.05741238594055,3.83088755607605,4.6646876335144,4.72905015945435,4.6279501914978,3.69705009460449,-9.64500045776367,-10.7650508880615,-9.64005088806152,4.76176261901855,3.82181239128113,1.31449997425079,0.19695000350475,-1.22205007076263,-1.70100009441376,SWING_LEFT
0.10202500224113,0.12567499279976,0.03382499888539,-0.27073749899864,-0.35392498970032,0.07672499865294,1.14705002307892,1.68795013427734,2.24100017547607,-8.61795043945313,-9.1560001373291,-8.89995002746582,3.00300002098084,3.97814989089966,6.30808734893799,1.10205006599426,2.26800012588501,2.05800008773804,-1.25510001182556,-1.71558749675751,-1.78612494468689,-0.11371249705553,-0.92551249265671,-1.24313747882843,2.48295021057129,3.60795021057129,2.12400007247925,-7.1569504737854,-7.96200037002563,-9.25695037841797,6.37188768386841,5.77334976196289,6.12755012512207,-1.89705014228821,1.78695011138916,-1.88505005836487,0.10889999568462,-0.02681249938905,-2.06800007820129,-3.0049250125885,-2.6417875289917,-0.0086624994874,2.425950050354,2.95005011558533,3.63000011444092,-8.92695045471191,-8.30895042419434,-8.56305027008057,11.297550201416,10.1311378479004,8.44937515258789,36.0660018920898,26.4619522094727,12.2640008926392,-0.82940000295639,3.6510374546051,7.7094874382019,3.5483250617981,2.82631254196167,-2.95239996910095,-17.3089504241943,-24.6430511474609,-17.0010013580322,-9.72900009155273,-7.69395017623901,-13.9350004196167,9.5600996017456,11.5102624893188,9.28111267089844,-22.5790519714355,-9.82395076751709,-1.5330001115799,-0.70509999990463,-4.36617517471313,-6.05591249465942,-2.42893743515015,1.15101253986359,4.72711229324341,5.16000032424927,5.38500022888184,3.63705015182495,-4.75305032730103,-9.32400035858154,-11.1889505386353,10.5084371566772,4.35366249084473,1.83122503757477,-1.77705013751984,-2.1889500617981,-1.80105006694794,SWING_LEFT
-0.55921250581741,-0.62493747472763,-0.79543751478195,0.90241247415543,0.74497497081757,0.10573749989271,1.05405008792877,1.14705002307892,1.72200012207031,-9.68595027923584,-8.83095073699951,-9.55605030059814,7.12470006942749,6.95667505264282,6.47047519683838,3.52500009536743,4.61505031585693,3.35805010795593,-2.33736252784729,-2.44392490386963,-2.59874987602234,0.63153749704361,0.68035000562668,0.84658747911453,3.26595020294189,3.4980001449585,3.53400015830994,-6.55605030059814,-6.90795040130615,-7.46400022506714,3.11960005760193,2.27947497367859,1.09449994564056,-0.03900000080466,-1.10895001888275,-2.6100001335144,0.7928249835968,0.89402496814728,0.74153751134872,-3.16717505455017,-2.99048757553101,-0.93940001726151,1.77195012569427,1.60395002365112,3.46500015258789,-10.8280506134033,-10.3150501251221,-6.71700048446655,2.84432506561279,4.45926237106323,5.21221256256104,33.6570014953613,30.9420013427734,24.7240505218506,-1.75738751888275,6.57305002212524,6.12411260604858,6.38495016098022,5.56531238555908,-1.01956248283386,-17.5939502716064,-19.8139514923096,-12.8490009307861,-0.8770500421524,-15.4969511032104,-15.247950553894,16.3545246124268,16.597074508667,12.7917623519897,-13.5070505142212,-11.5270509719849,-7.27005052566528,-1.13561248779297,-3.04095005989075,-5.27381229400635,-0.68145000934601,0.08689999580383,4.38899993896484,3.84300017356873,4.05404996871948,3.64395022392273,-7.51905012130737,-8.4529504776001,-9.31395053863525,6.00063753128052,4.97956228256226,2.23066258430481,-1.70505011081696,-1.1380500793457,-1.59300005435944,SWING_LEFT
0.66096252202988,0.7374125123024,0.7705500125885,-0.20817500352859,0.02309999987483,0.34773749113083,0.36705002188683,0.27600002288818,0.54900002479553,-9.68100070953369,-9.65700054168701,-9.16800022125244,2.12671256065369,3.48933744430542,4.19498729705811,0.91095006465912,1.13100004196167,0.78900003433228,-0.11522500216961,-0.17943750321865,0.31487500667572,0.80396246910095,0.29823750257492,-0.59235000610352,0.83295005559921,-0.31695002317429,-0.39600002765656,-9.46305084228516,-10.0380001068115,-10.4130001068115,3.47476243972778,5.36841249465942,6.89892482757568,1.30605006217957,-2.18204998970032,0.10605000704527,0.27981248497963,-0.21903750300407,-2.78437495231628,0.32532501220703,0.22178749740124,1.39287495613098,1.12305009365082,2.35605001449585,5.89695024490356,-8.2300500869751,-5.78805017471313,-5.50500011444092,19.4174747467041,14.6183128356934,12.4647874832153,40.8450012207031,27.4849510192871,26.5030517578125,-3.6421000957489,2.55076241493225,5.80648756027222,2.04503750801086,-0.20239999890327,-3.4152250289917,-21.9930019378662,-24.3870010375977,-19.9549503326416,-7.08795022964478,-3.4939501285553,-8.65799999237061,12.191575050354,11.125675201416,8.20311260223389,-9.11295032501221,-3.82905006408691,1.98300004005432,-4.72504997253418,-7.15343761444092,-7.80986261367798,1.01557505130768,4.81758737564087,4.97048759460449,6.38100051879883,5.94300031661987,2.90505003929138,-7.62900018692017,-9.59505081176758,-9.23505020141602,4.79476261138916,2.50854992866516,-0.33673748373985,-2.20995020866394,-3.42900013923645,-2.90700006484985,SWING_LEFT
0.60500001907349,0.54285001754761,0.46598750352859,0.60527497529984,0.8564875125885,1.10536253452301,-0.13800001144409,-0.01305000018328,0.24000000953674,-10.0849504470825,-9.69300079345703,-9.25005054473877,2.43842506408691,3.00079989433289,2.94002509117126,1.42800009250641,-0.86700004339218,-1.36995005607605,-0.22261250019073,0.23182499408722,0.54614996910095,0.40094998478889,-1.31876254081726,-1.56529998779297,-0.16200000047684,-2.07000017166138,-1.38300001621246,-9.93900012969971,-10.81605052948,-10.6980009078979,2.35661244392395,10.1120252609253,13.4913625717163,3.37695026397705,3.38895010948181,4.300950050354,-2.99007487297058,-3.70851254463196,-5.01916265487671,2.09591245651245,1.25963747501373,-0.90447497367859,1.26705002784729,2.20095014572144,3.3120002746582,-7.588050365448,-8.86005020141602,-9.06105041503906,12.2405252456665,10.2278003692627,7.03601264953613,37.1749534606934,27.6000003814697,19.0830001831055,2.64604997634888,5.83879995346069,6.30781269073486,2.20797491073608,0.02914999984205,-3.55918741226196,-19.8709506988525,-21.7819519042969,-14.7829504013062,-7.44195032119751,-5.84505033493042,-11.8789501190186,11.8527746200562,10.6257247924805,8.01185035705566,-13.8949508666992,-7.62195014953613,1.96200013160706,-3.24582505226135,-5.55156230926514,-6.46084976196289,0.3227125108242,3.5677125453949,5.7297625541687,5.36295032501221,5.1889500617981,3.87705016136169,-8.67495059967041,-10.5430507659912,-10.900050163269,8.83300018310547,4.1784873008728,0.90516251325607,-0.50295001268387,-2.77305006980896,-2.01405000686646,SWING_LEFT
0.61861246824265,0.5654000043869,0.50228750705719,0.66522496938705,0.78361248970032,0.92895001173019,0.16095000505447,0.33105000853539,0.7950000166893,-9.83205032348633,-9.95595073699951,-9.91995048522949,2.95377492904663,3.06019997596741,3.15012502670288,-0.77400004863739,-0.60195004940033,2.10300016403198,0.02199999988079,-0.53460001945496,-1.25565004348755,1.49902498722076,1.78901243209839,2.02413749694824,1.52805006504059,1.66200006008148,3.01200008392334,-8.66295051574707,-7.13595056533813,-6.74295043945313,8.60653781890869,7.66149997711182,5.11197519302368,0.49200001358986,-3.04095005989075,-3.21405005455017,0.30442500114441,0.92454999685287,0.33054998517036,-3.93937492370605,-4.16226243972778,-1.62057495117188,0.72105002403259,1.33395004272461,2.20500016212463,-10.7029504776001,-10.9330501556396,-7.58100032806396,15.61243724823,18.1887741088867,13.0092878341675,47.6299514770508,33.0130500793457,27.1380004882813,-8.72258758544922,-3.91627502441406,10.3658494949341,2.07363748550415,2.20728754997253,-10.944037437439,-26.1370506286621,-27.3700504302979,-15.2359504699707,3.44805026054382,-12.1900501251221,-2.68500018119812,6.74231243133545,6.99434995651245,6.04436254501343,-2.02095007896423,-9.0130500793457,-0.07995000481606,-1.97229993343353,-5.55678749084473,-5.57534980773926,-2.07006239891052,2.30298757553101,3.42980003356934,1.18800008296967,3.60600018501282,3.76200008392334,-12.937050819397,-9.28095054626465,-11.4739503860474,6.66352510452271,9.17537498474121,11.4305124282837,1.82805013656616,3.01500010490417,0.54704999923706,SWING_LEFT
-2.4033625125885,-2.47541236877441,-2.14953756332397,0.46887499094009,0.35461249947548,0.16623750329018,3.9340500831604,2.02605009078979,1.62105011940002,-6.39795017242432,-7.29795026779175,-7.99995040893555,4.29316234588623,3.99121236801147,3.86814999580383,4.8400502204895,4.6360502243042,4.71795034408569,-0.67993748188019,-0.63854998350143,-0.69836246967316,-0.29906249046326,-0.35296249389648,-0.26826250553131,1.53000009059906,0.97500002384186,0.79995006322861,-7.57905054092407,-8.4790506362915,-9.18000030517578,2.99928736686707,2.08793759346008,0.80561250448227,0.3790500164032,-2.48100018501282,-3.02895021438599,0.62150001525879,0.83393746614456,-2.34203743934631,-2.59558749198914,-3.20319986343384,1.9461749792099,0.85005003213882,2.44995021820068,-1.09305000305176,-9.2790002822876,-7.64805030822754,-4.0639500617981,4.74814987182617,6.24071264266968,6.58570003509521,53.3430023193359,14.8380002975464,7.64595031738281,-1.62456250190735,-2.63669991493225,-0.75542497634888,5.0894250869751,7.0303750038147,7.99548768997192,-20.9940013885498,-15.6480007171631,-10.8420009613037,8.16795063018799,-0.27600002288818,-3.48405027389526,11.838475227356,11.9736375808716,11.2188997268677,5.38305044174194,-4.73895025253296,-9.04605007171631,-7.08881235122681,-7.22988748550415,-5.64932489395142,3.7618625164032,3.72872495651245,2.10540008544922,2.47800016403198,2.83500003814697,4.25699996948242,-8.2300500869751,-11.6269502639771,-9.40995025634766,5.13741254806519,3.45963740348816,2.99227499961853,-3.40800023078919,-1.9780501127243,-1.42800009250641,SWING_LEFT
-0.8454874753952,-0.63786250352859,-0.66082501411438,0.3605250120163,-0.1395625025034,0.19855000078678,-0.67200005054474,-0.97305005788803,-0.43695002794266,-10.1910009384155,-10.150050163269,-8.05005073547363,5.70652484893799,4.87712478637695,4.3338623046875,1.81605005264282,1.33005011081696,1.22895002365112,-0.33522498607635,-0.1733874976635,0.01072499994189,0.21023750305176,0.14066250622272,-0.21711249649525,-0.9250500202179,-0.93705004453659,-0.86805003881454,-10.2870006561279,-9.31005001068115,-8.31105041503906,1.5633749961853,1.30088746547699,0.87766247987747,-0.58500003814697,-1.75095009803772,0.12795001268387,0.39613750576973,0.32188749313354,-0.35708749294281,-1.41075003147125,-0.69973748922348,6.47102499008179,-1.22505009174347,0.81195002794266,-51.4450531005859,-11.8759508132935,-15.7840509414673,-25.6270503997803,2.03307509422302,4.2479248046875,12.4606628417969,31.4329509735107,-13.5310506820679,-63.1710014343262,-1.69922494888306,3.74495005607605,1.75257503986359,16.972038269043,7.0793251991272,-2.42453742027283,-12.6019506454468,3.48900008201599,2.04704999923706,15.1180505752563,-27.0750007629395,-20.7109508514404,11.2561626434326,8.89638710021973,3.83432507514954,-6.07500028610229,-17.742000579834,-14.9959506988525,-6.85506248474121,-4.16734981536865,-3.7571873664856,4.31062507629395,0.91712498664856,0.60651248693466,3.3550500869751,4.76505041122437,2.77305006980896,-13.8799505233765,-14.0740509033203,-5.95800018310547,3.84532499313354,3.27043747901917,1.59046244621277,-7.73895025253296,-5.21295022964478,-2.89800024032593,SWING_LEFT
-0.22247499227524,-0.09776250272989,-0.0622874982655,-0.56168746948242,-1.13808751106262,-1.20367503166199,0.52905005216599,0.38805001974106,0.40500003099442,-8.17995071411133,-9.3120002746582,-9.00104999542236,0.48166251182556,0.62314999103546,0.81069999933243,1.84905004501343,1.98600006103516,2.09295010566711,-0.1907124966383,-0.23182499408722,-0.29136249423027,-0.4779500067234,-0.16321249306202,0.11508750170469,0.16995000839233,0.15105000138283,0.08595000207424,-9.4680004119873,-9.36000061035156,-9.15900039672852,1.89268743991852,1.72259998321533,1.54646253585815,0.99000006914139,0.95595002174377,0.65895003080368,0.01347499992698,0.19181250035763,0.22274999320507,-0.29507499933243,-0.85250002145767,-1.14317500591278,-0.08295000344515,0.16995000839233,2.12205004692078,-9.37005043029785,-7.10700035095215,-4.23405027389526,4.26744985580444,6.59917497634888,6.7566123008728,66.4830017089844,9.76200008392334,7.57905054092407,-1.74803745746613,-8.60186290740967,-7.21723747253418,6.06759977340698,11.3225746154785,15.5625247955322,-23.5990505218506,-16.8190517425537,-13.5960006713867,22.3230018615723,11.1529502868652,0.61800003051758,10.3928003311157,11.9608497619629,9.88817501068115,-1.26195001602173,-12.2160005569458,-10.0450506210327,-6.80198764801025,-6.27398729324341,-5.93559980392456,0.38348749279976,1.67406249046326,3.14269995689392,3.75000023841858,5.35395002365112,3.66405010223389,-11.5099506378174,-9.36495018005371,-7.37295055389404,4.64007520675659,4.09777498245239,3.34949994087219,-7.84905052185059,-7.73400020599365,-4.72905015945435,SWING_LEFT
2.09605002403259,2.5972375869751,2.80637502670288,-1.80152499675751,-1.75683748722076,-1.1588499546051,0.93195003271103,0.43800002336502,0.17505000531673,-10.6219501495361,-10.0110006332397,-9.57495021820068,5.4751124382019,4.371262550354,3.91764998435974,3.10095024108887,-1.77195012569427,-2.74905014038086,1.95634996891022,1.18291246891022,0.88824999332428,-0.32106250524521,-1.05544996261597,-1.10109996795654,0.25605002045631,-0.0679500028491,-0.06300000101328,-8.75400066375732,-9.74805068969727,-8.62995052337646,0.01677500084043,0.86803752183914,3.81259989738464,-1.06095004081726,34.1459999084473,51.2629508972168,2.58953738212585,3.26397490501404,2.91596245765686,6.22971248626709,5.45517492294312,6.52643728256226,-68.5060501098633,-55.6180534362793,-33.6599998474121,-29.1630020141602,16.9710006713867,21.0390014648438,10.2286252975464,13.1624622344971,11.183424949646,-74.7259521484375,8.61300086975098,20.9920501708984,3.09292507171631,-4.27693748474121,-8.84455013275146,1.59183752536774,5.41309976577759,7.83007478713989,-1.6840500831604,-0.96105003356934,1.83195006847382,-1.28400003910065,-3.18300008773804,-8.83995056152344,8.09379959106445,7.10228729248047,6.39512491226196,3.98505020141602,-4.69305038452148,-12.9679508209229,-2.49163746833801,-1.72108745574951,-0.59125000238419,2.95473742485046,1.08776247501373,-1.77251243591309,1.46595001220703,3.28995013237,3.78105020523071,-3.1800000667572,-8.16000080108643,-7.25805044174194,1.88856244087219,2.31769990921021,2.00873756408691,-7.7029504776001,-6.73095035552979,-4.86105012893677,SWING_LEFT
1.77017498016357,1.63363754749298,1.22787499427795,1.78901243209839,1.38765001296997,1.69015002250671,0.99600005149841,1.18095004558563,0.56505000591278,-9.2590503692627,-7.389000415802,-8.65395069122314,4.77647495269775,3.36283755302429,3.13018751144409,1.15005004405975,0.99900007247925,1.01805007457733,1.09422504901886,0.98298752307892,0.8454874753952,0.62411248683929,0.37729999423027,0.40424999594688,-0.96405005455017,-0.78405004739761,-1.09800004959106,-10.1599502563477,-9.85095024108887,-10.1290502548218,1.79437494277954,0.96827501058578,0.78856247663498,-0.09195000678301,-0.19695000350475,2.62305021286011,0.48578751087189,-1.16215002536774,-1.73868751525879,-0.02736249938607,4.23390007019043,6.6082501411438,1.25505006313324,-4.64100027084351,-38.8720512390137,-13.2220506668091,-24.7890014648438,-37.5139503479004,3.27799987792969,3.78839993476868,1.2392874956131,33.3799514770508,0.65895003080368,-73.2229537963867,12.7940998077393,6.90084981918335,7.98517513275146,-15.017749786377,-11.8104248046875,-5.081862449646,-16.8930015563965,-1.69395005702972,11.9449501037598,10.1860504150391,-21.6190509796143,-31.431001663208,5.93353748321533,12.8181619644165,-12.3418626785278,11.613000869751,-19.3489513397217,-30.9829521179199,-1.84717500209808,-4.84536266326904,-7.61777496337891,-10.0014753341675,-8.6530122756958,-13.332275390625,-4.03800010681152,-1.11000001430511,4.0009503364563,-1.40595006942749,-6.20895051956177,-12.7069501876831,-7.77603769302368,-4.0746750831604,-2.79386258125305,8.01705074310303,-12.6160507202148,-14.368950843811,SWING_LEFT
0.49403750896454,1.18428754806519,1.61535000801086,-0.82486248016357,-0.18507499992847,0.36574998497963,2.73000001907349,2.17200016975403,1.92105007171631,-8.84805011749268,-8.87400054931641,-8.89995002746582,1.7575249671936,3.48988747596741,3.95532488822937,3.37905025482178,1.70805013179779,2.66100001335144,0.81317502260208,1.0729124546051,1.23969995975494,1.40346252918243,0.04798749834299,-0.48675000667572,0.97200006246567,-0.21405000984669,0.22800001502037,-9.68100070953369,-8.66805076599121,-8.77305030822754,3.2716748714447,2.33034992218018,1.21371245384216,-2.15805006027222,-3.97695016860962,-4.03305006027222,3.01454997062683,3.40381240844727,-3.08206248283386,-1.9239000082016,0.43834999203682,6.34356260299683,-5.51805019378662,4.66005039215088,-14.6710510253906,-7.90395021438599,-17.3640003204346,-17.6610012054443,8.97682476043701,8.26539993286133,7.07684993743896,14.0790004730225,4.01805019378662,15.1090507507324,1.15018749237061,-7.02734994888306,0.28874999284744,5.37336254119873,20.5918617248535,16.1873245239258,-31.957950592041,-12.937050819397,0.53700000047684,19.5090007781982,5.50800037384033,-18.9709510803223,6.64674997329712,12.8420877456665,6.75124979019165,11.5699501037598,1.27905011177063,-19.3780517578125,-11.4230871200562,-7.43187475204468,-5.08309984207153,6.77104997634888,0.15592500567436,0.03671250119805,1.23795008659363,4.85805034637451,4.85400009155273,-5.67000007629395,-12.4099502563477,-8.94600009918213,4.58892488479614,3.70246243476868,3.27332496643066,-7.18305015563965,-6.19500017166138,-5.80695009231567,SWING_LEFT
-1.63473749160767,-1.47564995288849,-1.00141251087189,-4.04016256332397,-3.18009996414185,-0.96731251478195,1.05599999427795,0.91995006799698,0.5869500041008,-9.28605079650879,-9.93705081939697,-9.36000061035156,-2.34492492675781,-1.27957499027252,-1.2002375125885,0.64995002746582,-0.46695002913475,-0.28305000066757,0.05733750015497,0.04317500069737,0.03671250119805,-1.24918746948242,-1.19817495346069,-0.95810002088547,0.4650000333786,0.60405004024506,0.48195001482964,-9.38205051422119,-8.94600009918213,-8.71395015716553,-0.85016250610352,-0.63222497701645,-0.2435124963522,0.44400003552437,0.05805000290275,0.50805002450943,0.25561249256134,0.518649995327,-0.25836250185966,-0.10216250270605,0.24722500145435,4.71432495117188,-0.61605000495911,-0.59205001592636,-20.3809509277344,-8.98200035095215,-12.0820503234863,-33.901050567627,3.33905005455017,5.04583740234375,11.8152370452881,40.1890525817871,0.67395001649857,-62.2780532836914,-1.05531251430511,5.25717496871948,1.01337504386902,13.7618246078491,5.42781257629395,0.31143748760223,-20.0370006561279,-1.69095003604889,2.34195017814636,13.0849504470825,-15.0319509506226,-6.13500022888184,9.69058704376221,8.25962448120117,10.7571744918823,-16.7940006256104,-4.92105007171631,0.00795000046492,-2.60535001754761,-3.0832998752594,-2.63491249084473,-0.13516250252724,3.88767504692078,4.15910005569458,5.23905038833618,4.75800037384033,5.31300020217896,-8.97405052185059,-5.7810001373291,-3.72900009155273,3.95353746414185,2.78079986572266,2.28071260452271,-6.81495046615601,-5.60295009613037,-6.64695024490356,SWING_LEFT
1.1921249628067,1.17246246337891,1.18717503547668,0.25863748788834,0.38225001096725,0.40534999966621,1.28805005550385,1.25505006313324,1.3819500207901,-10.1689500808716,-10.9519500732422,-9.51300048828125,2.99378752708435,3.07903742790222,2.48902487754822,1.56000006198883,1.20000004768372,-0.40500003099442,0.41648748517036,0.38334998488426,0.26523751020432,-0.02419999986887,-0.01429999992251,0.02254999987781,0.94605004787445,1.53495001792908,1.43205010890961,-9.84795093536377,-8.85494995117188,-8.10795021057129,0.8650124669075,0.93788748979568,-0.46887499094009,1.26495003700256,-0.57495003938675,-6.17505025863647,-0.04015000164509,0.69767498970032,0.58258748054504,-2.5618999004364,-1.53216254711151,2.71741247177124,-1.48305010795593,-0.6690000295639,-6.09195041656494,-4.97595024108887,-14.742000579834,-33.693000793457,7.08702516555786,6.24703741073608,6.66063737869263,11.9790010452271,4.77000045776367,-26.2660503387451,-2.69692492485046,-0.51122498512268,4.05542516708374,17.0838241577148,16.6834239959717,7.14986228942871,-12.0420007705688,-7.92105054855347,2.69400024414063,15.2380504608154,-3.29805016517639,-15.0250511169434,11.1170120239258,6.05508756637573,7.07368755340576,-15.2620506286621,-12.328950881958,1.42500007152557,-5.17522478103638,-3.34661245346069,-3.32571244239807,1.41734993457794,-0.03079999983311,0.88701248168945,2.83800005912781,3.44295024871826,2.35395002365112,-12.2880001068115,-7.72905015945435,-7.13100051879883,4.59002494812012,4.51879978179932,3.29408740997314,-6.57300043106079,-5.79705047607422,-3.12000012397766,SWING_LEFT
1.63212502002716,1.78571248054504,1.94369995594025,-0.53253751993179,0.00632499996573,0.62755000591278,0.44100001454353,-0.3790500164032,-1.14300000667572,-7.0900502204895,-8.74905014038086,-9.7170000076294,3.94020009040833,4.78417491912842,6.13923740386963,2.11005020141602,2.82795023918152,1.1050500869751,1.46836245059967,0.90254998207092,0.69905000925064,1.19350004196167,0.91327500343323,0.78622502088547,-1.09305000305176,-1.03095006942749,-1.03800010681152,-10.8319501876831,-10.9669504165649,-10.4710502624512,2.93864989280701,2.30188751220703,1.87811243534088,-1.52100002765656,-1.90200006961823,-2.25795006752014,0.36355000734329,0.23319999873638,-0.03533750027418,-0.85318750143051,-1.21632504463196,0.30112498998642,-0.3649500310421,-0.31005001068115,-3.94905018806458,-8.22300052642822,-12.2190008163452,-34.5790519714355,2.66089987754822,3.67207503318787,4.90696239471436,56.9920539855957,24.3360004425049,1.85895013809204,1.8495124578476,0.428312510252,-1.27888751029968,5.56971263885498,8.21851253509521,11.8296747207642,-56.2840538024902,-39.318000793457,-26.590051651001,30.8059520721436,19.7149505615234,5.96700048446655,13.9801750183105,12.1019248962402,10.3450870513916,-3.45795011520386,26.6160011291504,20.5699501037598,3.76048755645752,0.30085000395775,-2.39634990692139,3.45936250686646,0.82238751649857,2.14939999580383,2.53800010681152,4.20195007324219,4.07805013656616,-6.83895015716553,4.77000045776367,-2.03805017471313,1.10769999027252,4.96718740463257,9.97768783569336,2.64705014228821,5.09295034408569,1.23405003547668,SWING_LEFT
1.04733753204346,1.00883746147156,1.14578747749329,-0.07328750193119,0.04551250115037,0.02406249940395,2.14995002746582,1.42695009708405,1.33905005455017,-8.49105072021484,-8.68695068359375,-7.89900016784668,2.65347504615784,2.69348740577698,2.74491238594055,0.23295001685619,-1.81095004081726,0.81495004892349,2.19546246528625,2.24276256561279,2.21746253967285,0.42542499303818,0.73672497272491,0.48565000295639,-0.95400005578995,-1.13100004196167,-1.54800009727478,-10.5040502548218,-10.0810508728027,-9.05805015563965,2.76636242866516,2.71878743171692,2.67231249809265,-2.85195016860962,-2.65305018424988,4.38495016098022,1.9519499540329,1.62084996700287,-1.09917497634888,1.58963751792908,1.62607502937317,6.42977476119995,-3.40800023078919,-1.03500008583069,-43.3399505615234,-14.4169502258301,-15.7429504394531,-38.3950500488281,3.87626242637634,4.50834989547729,8.02683734893799,22.1460018157959,-1.36800003051758,-67.6579513549805,0.01306249946356,2.23795008659363,4.77358770370483,12.0507745742798,15.1133127212524,12.5200624465942,-16.2919502258301,-20.0890502929688,-5.46705007553101,27.4270515441895,16.617000579834,-17.1580505371094,9.02893733978272,8.98933792114258,3.69008755683899,23.9839515686035,0.88695001602173,-19.4299507141113,-12.6576995849609,-6.16330003738403,-3.14008736610413,7.83351230621338,0.1342000067234,-0.3647874891758,1.73895013332367,3.45300006866455,5.75895023345947,-1.29105007648468,-20.9530506134033,-5.94795036315918,7.64871263504028,5.03112506866455,4.75048732757568,-8.71305084228516,-8.60595035552979,-6.17505025863647,SWING_LEFT
0.38582500815392,-0.51768749952316,0.12044999748468,3.5205500125885,2.75274991989136,0.81936252117157,2.11905002593994,1.49700009822845,1.91295003890991,-10.1190004348755,-11.2200002670288,-10.6699504852295,5.55307483673096,4.95302486419678,3.32378745079041,3.71700024604797,2.28495001792908,1.68600010871887,-0.68378752470016,-0.74153751134872,-0.72311252355576,-0.43051248788834,-0.63332498073578,-0.86831247806549,2.40900015830994,2.40705013275146,2.35905003547669,-8.44095039367676,-7.94295024871826,-7.89000034332275,1.16764998435974,0.82665002346039,0.60321247577667,0.64695000648499,0.69000005722046,0.2790000140667,-0.43037500977516,-0.09941250085831,0.11151249706745,-1.01502501964569,-1.37238752841949,-1.23832499980927,2.12895011901855,1.69095003604889,4.39604997634888,-8.24400043487549,-8.3569507598877,-16.6339511871338,5.87729978561401,7.06667518615723,8.0852746963501,44.6230506896973,-3.56805014610291,-25.4299507141113,-2.00117492675781,-1.33237504959106,3.51092505455017,5.05422496795654,11.6996002197266,4.27377510070801,-14.6689510345459,-22.7659511566162,4.62600040435791,37.7629508972168,-13.207950592041,-16.2750015258789,13.5467748641968,11.1619749069214,6.65953731536865,15.0970506668091,-5.11200046539307,-16.935001373291,-9.76511287689209,-11.1145372390747,-4.2866997718811,7.10558748245239,6.59394979476929,-1.63666248321533,1.44900012016296,1.49700009822845,3.23505020141602,0.79305005073547,-5.03805017471313,-13.3630504608154,7.3665623664856,5.59116268157959,4.48140001296997,-0.59700000286102,-5.02395009994507,-5.5290002822876,SWING_LEFT
0.75858747959137,0.81111252307892,1.10522496700287,-0.65780001878738,0.34278750419617,1.01571249961853,3.44100022315979,2.91195011138916,2.425950050354,-6.63795042037964,-6.91305017471313,-7.78005027770996,2.8773250579834,5.72013759613037,6.64248752593994,4.27905035018921,3.34995007514954,3.06300020217896,1.32673752307892,0.92482501268387,0.69176250696182,1.1061874628067,0.64363747835159,0.24089999496937,1.18800008296967,1.21395003795624,1.03905010223389,-12.0820503234863,-11.9869508743286,-11.0100002288818,6.67108726501465,5.59638738632202,4.8093376159668,1.04505002498627,0.2710500061512,-1.54695010185242,1.27600002288818,1.0422500371933,-1.07442498207092,-1.80331254005432,-1.27407503128052,2.83579993247986,-0.34800001978874,3.58695006370544,-19.2150001525879,-8.69700050354004,-23.8429508209229,-35.3640022277832,6.32018756866455,7.30991268157959,9.17867469787598,37.7059516906738,-4.88295030593872,-32.9959526062012,-1.85047495365143,-0.81358748674393,4.48827505111694,6.84639978408813,13.4378747940063,2.59132504463196,-12.8059501647949,-11.6920509338379,4.28400039672852,13.4689502716064,-3.74295020103455,-16.4830513000488,12.311749458313,9.22143745422363,3.00712490081787,7.49295043945313,-5.54805040359497,-13.689001083374,-9.29211235046387,-8.37223720550537,-5.24631261825562,8.53531265258789,6.09826231002808,1.35258746147156,0.26100000739098,1.4800500869751,1.94700014591217,-1.93500006198883,-4.14300012588501,-8.6850004196167,7.38210010528564,6.08409976959229,5.45476245880127,0.49395000934601,0.09405000507832,-3.61095023155212,SWING_LEFT
1.4137749671936,0.81083750724792,0.58520001173019,-0.41648748517036,0.49059998989105,0.57392501831055,-0.30495002865791,-0.09705000370741,-0.43395000696182,-9.14700031280518,-9.95400047302246,-10.9830007553101,3.12730002403259,3.10158753395081,2.89657497406006,-0.36000001430511,-0.8359500169754,-1.24800002574921,0.20377500355244,0.31432500481606,0.45966249704361,-0.10862500220537,-0.87807500362396,-1.83713746070862,-0.3529500067234,-0.8770500421524,-1.58400011062622,-8.47605037689209,-9.66600036621094,-8.23200035095215,0.10848750174046,-0.77494996786118,-1.67089998722076,-2.48295021057129,-5.49105024337769,-6.73800039291382,1.03509998321533,4.3917498588562,-1.47867500782013,-4.2861499786377,4.02641248703003,10.7223873138428,-8.25705051422119,1.13295006752014,-30.4440021514893,-6.34605026245117,-30.9330005645752,-32.1420021057129,9.76978778839111,8.10631275177002,6.40873765945435,20.2330513000488,7.10205030441284,17.6710510253906,2.16589999198914,-9.61234951019287,1.35836243629456,6.697350025177,22.3877506256104,18.1949615478516,-20.5350017547607,-11.3239507675171,-6.87495040893555,1.95000004768372,13.5619506835938,-9.4750509262085,9.11198711395264,12.0217628479004,12.3039121627808,19.5930004119873,10.0860004425049,-4.86795043945313,-9.4785623550415,-9.66831207275391,-7.04618740081787,8.65686225891113,7.39873743057251,3.05951237678528,-0.05595000088215,0.81000006198883,2.59095001220703,1.81995010375977,-2.98200011253357,-9.11805057525635,7.34126234054565,6.13703727722168,5.79988765716553,2.7850501537323,-3.69495010375977,-6.22800016403198,SWING_LEFT
0.1095874980092,-0.10683749616146,-0.18590000271797,-0.2926000058651,-0.5020124912262,-0.55549997091293,1.84095013141632,1.48695003986359,1.32405006885529,-8.86395072937012,-9.61905002593994,-10.4280004501343,2.74876236915588,2.48545002937317,2.15930008888245,0.22800001502037,0.44400003552437,-0.24195000529289,0.28792500495911,0.24158750474453,0.28283751010895,-1.42518746852875,-1.14578747749329,-0.9649749994278,0.93195003271103,0.6280500292778,0.53700000047684,-8.87400054931641,-9.3190507888794,-9.17805004119873,1.4690500497818,1.44746243953705,1.29607498645782,-0.90795004367828,-1.26705002784729,-1.84395003318787,0.78526252508163,0.95246249437332,0.90983748435974,-1.10000002384186,-1.10288751125336,0.78264999389648,-1.19805002212524,-1.19295001029968,7.22595024108887,-8.91900062561035,-10.2100505828857,-18.4729499816895,4.88881254196167,5.59831237792969,5.55981254577637,53.5320014953613,6.39105033874512,-6.06495046615601,0.44866248965263,-4.77771234512329,-5.7827000617981,5.93573760986328,10.0717372894287,14.5917749404907,-19.9909515380859,-8.81400012969971,-10.1580009460449,15.3580503463745,1.1910001039505,6.95100021362305,16.153636932373,14.6618995666504,13.4959001541138,-14.3419504165649,4.66500043869019,14.4859504699707,1.03042495250702,-2.8831000328064,-6.92587518692017,1.90478754043579,3.13527488708496,7.22108745574951,3.62505006790161,1.63800013065338,0.96795004606247,-16.465950012207,-11.9269504547119,-5.22000026702881,2.91252493858337,9.76964950561523,8.41073703765869,-11.9479503631592,-6.73305034637451,-2.07405018806458,SWING_LEFT
2.05259990692139,1.89034998416901,1.84360003471375,0.73383748531342,0.80767500400543,0.95878750085831,-1.54095005989075,-2.14904999732971,-2.68305015563965,-10.2750005722046,-10.6240501403809,-12.4459505081177,4.73027515411377,4.6668872833252,3.75484991073608,1.28205001354218,-0.19905000925064,-1.29300010204315,1.00787496566772,1.037024974823,0.90516251325607,-1.18497502803802,-1.63680005073547,-1.5057624578476,-2.24205017089844,-1.89495003223419,-3.06105017662048,-7.30605030059814,-7.77300024032593,-9.6379508972168,1.97862493991852,3.04933738708496,4.08704996109009,4.42799997329712,4.30800008773804,5.77605009078979,-2.80073738098145,-3.44836258888245,-4.60707473754883,3.33987498283386,3.55162501335144,4.57998752593994,3.02400016784668,12.8940010070801,-3.74805021286011,-10.2750005722046,-16.94700050354,-12.7909507751465,4.41416263580322,5.75891256332397,10.8564500808716,27.0319519042969,-10.0639505386353,-44.7379531860351,2.61112499237061,3.60497498512268,5.75093746185303,8.71763706207275,7.298912525177,4.83559989929199,-13.9770002365112,-7.54995012283325,-4.21005010604858,2.49300003051758,-38.5770034790039,-11.5099506378174,7.64692497253418,3.90953755378723,6.8718376159668,-12.492000579834,-12.4320001602173,-5.46705007553101,-0.97350001335144,-2.39813756942749,-3.77932500839233,-3.16744995117188,-1.38820004463196,2.00598740577698,2.84205007553101,3.48405027389526,6.09600019454956,-10.252950668335,-10.0020008087158,-5.99805021286011,6.78521251678467,6.3281626701355,4.53488731384277,-0.05295000225306,-3.57795023918152,-4.56900024414063,SWING_LEFT
0.96428751945496,0.77962499856949,0.49032500386238,2.16562509536743,1.74033749103546,1.06480002403259,-0.06599999964237,0.19905000925064,0.45495003461838,-11.1529502868652,-11.2320003509521,-9.84600067138672,3.88588738441467,3.55355000495911,2.87003755569458,1.95000004768372,1.08495008945465,1.28205001354218,-0.47272500395775,-0.45457500219345,-0.36877501010895,0.08483749628067,-0.04826249927282,-0.29892501235008,0.29700002074242,0.51495003700256,0.45300000905991,-9.03900051116943,-8.86005020141602,-8.46705055236816,1.64972496032715,1.51552498340607,1.51373744010925,0.31395000219345,0.38895002007484,0.58500003814697,0.76147496700287,0.76779997348785,-2.94332504272461,-0.3783999979496,-0.20638750493526,5.37817478179932,-0.99495005607605,1.4800500869751,-24.6000003814697,-8.97195053100586,-12.1729507446289,-26.3689517974854,5.41832494735718,6.46923732757568,7.00246238708496,34.9069519042969,1.9450501203537,-5.27505016326904,-2.91720008850098,-2.59517502784729,1.16764998435974,9.28138732910156,12.5309247970581,11.6555995941162,-13.2010507583618,-11.577000617981,-10.8090009689331,5.19600009918213,3.11595010757446,2.65605020523071,13.4433746337891,11.5777750015259,10.9520120620728,8.11995029449463,13.7029504776001,-2.11005020141602,-10.9709873199463,-7.59728765487671,-4.56444978713989,9.81846237182617,4.33083724975586,0.3103374838829,3.22800016403198,3.84105014801025,5.32005023956299,-0.65400004386902,-10.2240009307861,-11.4930009841919,5.58580017089844,4.73274993896484,4.34266233444214,-5.01195001602173,-4.20000028610229,-3.34995007514954,SWING_LEFT
-0.19470000267029,-0.22852499783039,-0.26207500696182,-0.67828750610352,-0.6542249917984,-0.50668752193451,1.99500012397766,2.13795018196106,2.40705013275146,-8.50005054473877,-8.81400012969971,-8.43795013427734,0.93321251869202,0.94929999113083,1.01351249217987,-0.97995007038116,-0.91305005550385,0.70200002193451,-0.0961124971509,-0.03588749840856,0.05816249921918,-0.06833750009537,0.07136250287294,0.04399999976158,2.05200004577637,1.7980500459671,1.33395004272461,-8.55795001983643,-8.62005043029785,-9.62805080413818,1.2667875289917,1.21137499809265,0.47272500395775,-0.60405004024506,-0.43395000696182,-4.49895000457764,0.88838750123978,1.41212499141693,2.1872124671936,-1.28480005264282,-1.55113744735718,0.85909998416901,-1.44195008277893,-2.16600012779236,3.04605007171631,-7.48800039291382,-14.812050819397,-32.2420501708984,8.45666217803955,8.98823738098145,11.1249876022339,18.5160007476807,-13.4680509567261,-47.7310523986816,0.87064999341965,5.43839979171753,5.46012496948242,14.1171245574951,9.63490009307861,6.01287508010864,-23.4870014190674,3.50805020332336,1.45605003833771,1.93800008296967,-29.2800006866455,-15.457950592041,7.24226236343384,4.26511240005493,8.67129993438721,-18.0700511932373,-7.27005052566528,-0.68805003166199,-1.87907493114471,-2.47252488136292,-3.73436236381531,-0.86528748273849,0.08855000138283,4.33839988708496,3.66600012779236,3.7590000629425,5.1889500617981,-12.5899505615234,-8.11005020141602,-3.5440502166748,5.33169984817505,4.00826263427734,2.69252490997314,-3.96105027198792,-3.52005004882813,-3.98205018043518,SWING_LEFT
0.97624999284744,1.09064996242523,1.30611252784729,0.08992499858141,-0.22563749551773,-0.02928750030696,0.73305004835129,0.03105000220239,0.00705000013113,-8.51700019836426,-8.93400001525879,-9.78105068206787,5.05257511138916,5.13603734970093,4.48497486114502,0.92700004577637,-0.95805007219315,1.90200006961823,0.71843749284744,0.64569997787476,0.88646250963211,0.72572499513626,0.57365000247955,-0.50586247444153,-0.72705000638962,-0.82005006074905,-1.09095001220703,-9.64995002746582,-9.60900020599365,-9.09899997711182,2.15545010566711,1.46781253814697,1.1863499879837,-2.04495000839233,-1.40805006027222,-1.54005002975464,0.61572498083115,0.85579997301102,0.08277499675751,-1.27448749542236,-0.61503750085831,2.85133743286133,-1.73205006122589,0.72600001096725,4.39905023574829,-8.40900039672852,-13.3560009002686,-27.9660015106201,3.41948747634888,4.28958749771118,5.33664989471436,21.8509502410889,1.78005003929138,-0.33105000853539,1.18208754062653,0.2255000025034,3.72363758087158,6.61306238174438,12.2912626266479,10.902512550354,-18.9900016784668,-15.8659505844116,-13.6410007476807,18.3030014038086,5.3929500579834,-1.44000005722046,11.3987503051758,9.27327537536621,4.14218759536743,14.0149507522583,-3.62595009803772,-13.2340507507324,-9.11019992828369,-1.86986243724823,-0.92647498846054,7.08922481536865,-0.85579997301102,-1.70994997024536,2.38305020332336,3.6780002117157,3.82395029067993,-2.03805017471313,-14.3160009384155,-14.131950378418,6.41190004348755,5.2684497833252,5.01902484893799,-5.05695009231567,-5.19600009918213,-5.09595012664795,SWING_LEFT
0.07081250101328,0.11384999752045,0.38926249742508,-0.32188749313354,-0.31803750991821,0.0527999997139,4.48200035095215,4.08300018310547,4.24500036239624,-6.68100023269653,-7.95195055007935,-7.75800037384033,0.46942499279976,0.73026251792908,1.10412502288818,-1.80600011348724,-1.21395003795624,0.2790000140667,0.8925125002861,1.15403747558594,1.19143748283386,0.99742501974106,0.92619997262955,0.86432498693466,2.77500009536743,2.62395024299622,2.77500009536743,-8.8279504776001,-8.03595066070557,-7.62195014953613,3.04314994812012,3.56908750534058,3.62601256370544,3.3550500869751,1.00394999980927,2.04105019569397,0.96882498264313,1.1394624710083,0.99893748760223,0.31583750247955,0.10821250081062,0.55000001192093,0.22305001318455,-0.57600003480911,4.6690502166748,-8.26095008850098,-8.27805042266846,-19.6189517974854,7.99122476577759,8.16557502746582,8.93351268768311,56.286003112793,10.0780506134033,-13.8870010375977,-3.52935004234314,-1.71806252002716,5.26872491836548,5.95787477493286,12.7047252655029,4.59525012969971,-16.1669998168945,-10.4260501861572,0.52500003576279,9.19995021820068,7.65495014190674,-13.1880006790161,13.2097625732422,9.67463779449463,5.09616231918335,8.7180004119873,-7.82295036315918,-11.2800006866455,-10.284725189209,-7.24693727493286,-4.31543731689453,7.93594980239868,6.35085010528564,3.01152491569519,2.51400017738342,3.52005004882813,3.75195026397705,-4.09305000305176,-7.93095016479492,-12.1399507522583,8.48058700561523,6.94333744049072,6.23177480697632,-1.26000010967255,-0.90105003118515,-3.71205019950867,SWING_LEFT
1.07414996623993,1.56722497940063,1.70816254615784,-0.56938749551773,2.19601249694824,3.39913749694824,3.02400016784668,3.76905012130737,5.13795042037964,-6.76695013046265,-9.94200038909912,-11.7019510269165,6.67754983901978,7.79102516174316,7.62382507324219,3.26400017738342,0.40500003099442,-1.16895008087158,0.50875002145767,0.29768750071526,0.14849999547005,0.20226250588894,-0.19566249847412,-0.71499997377396,3.92205023765564,3.78300023078919,2.76600003242493,-7.42995023727417,-7.99500036239624,-8.02605056762695,2.16892504692078,2.18996238708496,2.22516250610352,-1.00095009803772,-0.44100001454353,-0.89595001935959,1.9988374710083,2.6805624961853,3.06322503089905,-1.2838374376297,-1.4580500125885,0.10119999945164,-2.0310001373291,-2.06505012512207,8.58105087280273,-5.12700033187866,-8.94795036315918,-22.1790008544922,8.83602523803711,8.67872524261475,8.03508758544922,63.435001373291,8.94105052947998,-14.2510509490967,-0.92221248149872,-2.09618759155273,3.65818738937378,4.96636247634888,12.5159378051758,10.6664247512817,-11.017050743103,-8.09400081634521,-5.47695016860962,4.04505014419556,1.09005010128021,-1.49205005168915,14.1717128753662,9.99487495422363,7.33617496490479,5.24205017089844,-6.31005048751831,-8.99100017547607,-4.30416250228882,-1.59733748435974,-1.41171252727509,3.90912508964539,0.14891250431538,0.01003750041127,2.53605008125305,3.69900012016296,4.97805023193359,-6.10395050048828,-11.0479507446289,-10.2720003128052,5.72701263427734,5.73540019989014,5.15570020675659,-3.81705021858215,-4.96200037002563,-3.08700013160706,SWING_LEFT
1.39356243610382,1.31848752498627,1.22966253757477,0.2727999985218,0.13337500393391,-0.00123749999329,3.69000005722046,3.52500009536743,3.22995018959045,-8.45505046844482,-8.24205017089844,-9.01500034332275,1.49448752403259,1.41638743877411,1.27572500705719,-1.27905011177063,-2.08605003356934,-1.90605008602142,1.03221249580383,0.97226250171661,0.81798750162125,-0.28751251101494,-0.44536250829697,-0.5681499838829,2.50005006790161,1.94700014591217,1.41300010681152,-7.65300035476685,-7.42095041275024,-7.7509503364563,1.25014996528625,3.12743759155273,5.38504981994629,0.79095005989075,2.57205009460449,2.22000002861023,1.41776251792908,1.27847504615784,-0.27623748779297,1.47235000133514,1.46107494831085,3.05181241035461,-1.14300000667572,-1.79895007610321,6.25200033187866,-9.57495021820068,-10.6410007476807,-22.981050491333,4.93803739547729,5.34490013122559,5.54743766784668,54.9450035095215,13.7940006256104,10.5210008621216,-0.60568749904633,-0.01154999993742,4.10341262817383,6.13964986801147,11.9992122650146,9.83262538909912,-18.4950008392334,-9.08505058288574,-4.41105031967163,3.23505020141602,1.80600011348724,-7.06395053863525,12.2938747406006,6.96465015411377,3.34688758850098,5.89605045318604,-11.8069505691528,-13.8559503555298,-4.56458759307861,-0.89237499237061,-1.30075001716614,2.36568737030029,-2.78506255149841,-1.78048753738403,2.581050157547,5.75595045089722,6.03900051116943,-5.1889500617981,-10.2840003967285,-9.34800052642822,6.61980009078979,6.73750019073486,5.25813770294189,-4.02795028686523,-5.17695045471191,-3.73095011711121,SWING_LEFT
1.56406247615814,1.42078745365143,1.26403748989105,-0.03355000168085,-0.04207500070333,-0.15633749961853,3.00495004653931,2.80200004577637,2.34405016899109,-8.82600021362305,-8.20604991912842,-8.36400032043457,1.74514997005463,1.63927495479584,1.77608752250671,-1.05195009708405,-0.53400003910065,-0.16605000197887,1.30528748035431,1.65110003948212,1.53917503356934,0.03904999792576,0.58712500333786,0.63593751192093,1.2720000743866,1.08300006389618,0.74505001306534,-10.7629508972168,-10.5210008621216,-9.40995025634766,2.52944993972778,2.44722509384155,1.49063754081726,-0.79305005073547,-0.46995002031326,-4.44405031204224,3.39693737030029,4.20282506942749,-0.89966249465942,-1.41184997558594,0.15936249494553,8.19499969482422,-6.53295040130615,-0.17595000565052,-50.6520042419434,-9.82905006408691,-17.920051574707,-28.2510013580322,5.26597499847412,4.46036243438721,3.76983737945557,-2.4019501209259,-0.44400003552437,12.3000001907349,3.33836245536804,-1.65715003013611,6.62529993057251,3.51903748512268,18.3071632385254,12.7716875076294,-14.568000793457,-7.24905014038086,-3.34605026245117,10.8370504379272,12.4609508514404,-5.86695051193237,12.1713628768921,9.35508728027344,6.37546253204346,6.06795024871826,-8.50005054473877,-7.80405044555664,-5.15129995346069,-1.89887499809265,-1.69592499732971,6.41629981994629,0.51108747720718,1.37197494506836,2.83500003814697,4.2049503326416,6.01695013046265,-8.27805042266846,-11.1769504547119,-6.01005029678345,4.46929979324341,4.1588249206543,4.1588249206543,-6.00795030593872,-3.07695007324219,-3.07695007324219,SWING_LEFT
0.49252501130104,0.45113748311996,0.42473748326302,-0.23677499592304,-0.23498749732971,-0.28819999098778,1.03200006484985,1.00800001621246,0.89595001935959,-9.30705070495606,-8.98605060577393,-9.19995021820068,1.88677501678467,1.81843745708466,1.77705001831055,0.05100000277162,0.8890500664711,2.0310001373291,0.23677499592304,0.18314999341965,0.1032624989748,-0.24983750283718,-0.17531250417233,0.08621250092983,0.81705003976822,0.7950000166893,0.56505000591278,-9.59205055236816,-9.66195011138916,-9.26700019836426,2.17002487182617,2.13317489624023,2.05328750610352,0.51300001144409,1.05705010890961,1.93800008296967,0.19731250405312,-0.23512500524521,-1.56983745098114,0.12787500023842,1.19308745861053,3.65378737449646,1.98495006561279,6.46500015258789,-7.53105020523071,-11.532000541687,-16.5330009460449,-18.3120002746582,4.97598743438721,5.64877510070801,7.19014978408813,4.99095010757446,-9.23505020141602,-18.6979503631592,-0.54065001010895,0.29809999465942,4.22001266479492,7.65531253814697,10.7676248550415,9.72455024719238,-10.1700000762939,-8.64705085754395,-4.53299999237061,2.58195018768311,-2.01405000686646,2.34705018997192,14.2601251602173,13.0238628387451,12.1148500442505,3.64695024490356,8.74995040893555,6.91605043411255,-2.02908754348755,-5.849524974823,-8.68271255493164,4.47755002975464,7.54503726959229,9.57632541656494,2.63895010948181,2.53605008125305,4.01595020294189,-10.5570001602173,-2.63700008392334,0.16095000505447,9.81722450256348,10.403525352478,6.50925016403198,-9.37395000457764,-6.52995014190674,-1.63800013065338,SWING_LEFT
-0.12732499837875,-0.1127500012517,-0.06613750010729,-0.71582502126694,-0.7870500087738,-0.88151252269745,0.86895006895065,0.67095005512238,0.18000000715256,-8.66295051574707,-8.65605068206787,-8.62695026397705,-0.07507500052452,0.11962500214577,0.31858751177788,-0.52695000171661,0.16395001113415,0.34305000305176,0.64693748950958,0.63291251659393,0.51177501678467,-0.49252501130104,-0.21628749370575,0.64817500114441,-0.23595000803471,-0.05595000088215,-0.55695003271103,-8.99100017547607,-9.70200061798096,-10.3320007324219,2.01753759384155,1.94700002670288,1.8463499546051,0.1950000077486,0.5869500041008,2.30895018577576,0.58657497167587,0.14891250431538,-0.81730002164841,0.77247500419617,2.09439992904663,5.03030014038086,-0.37500002980232,1.14000010490417,-38.7930030822754,-17.0239505767822,-28.9960517883301,-37.9879531860351,3.603600025177,4.40302515029907,6.60481262207031,3.45795011520386,-7.69095039367676,-29.0820007324219,0.42789998650551,0.08910000324249,3.43296241760254,7.04838752746582,11.4966497421265,12.1292877197266,-1.51695013046265,-7.62000036239624,-8.03205013275146,21.9439506530762,3.59205007553101,-13.6579504013062,13.5286245346069,13.6749248504639,12.0136499404907,11.6989507675171,-2.69205021858215,-8.18205070495605,-6.08657503128052,-7.01744985580444,-5.18443727493286,8.30788707733154,8.18908786773682,6.41698741912842,1.34805011749268,2.16495013237,3.21300005912781,0.16305001080036,-1.41300010681152,-4.56405019760132,9.02316284179688,7.89085006713867,7.21971225738525,-4.74600028991699,-2.49300003051758,-3.28305006027222,SWING_LEFT
0.18603749573231,0.25547498464584,0.57887500524521,-0.37125000357628,-0.35007500648499,-0.02584999985993,5.03805017471313,4.77705001831055,4.80600023269653,-7.76805019378662,-8.11005020141602,-7.08795022964478,1.02011251449585,1.14798748493195,1.08143746852875,-2.46000003814697,-2.16300010681152,-1.07295000553131,0.94050002098083,0.93664997816086,0.95878750085831,-0.03244999796152,-0.0169124994427,-0.02584999985993,4.41300010681152,3.65895009040833,3.16305017471313,-7.87800025939941,-8.19600009918213,-8.79705047607422,1.27283751964569,0.74634999036789,-0.26922500133514,-2.29200005531311,-3.45795011520386,-1.91400003433228,2.56134986877441,3.97141242027283,4.86488723754883,0.04633750021458,0.75817501544952,3.05841255187988,-2.050950050354,-5.22795009613037,3.21105003356934,-7.60995054244995,-9.94905090332031,-26.8170013427734,9.77377510070801,7.18739986419678,6.79813766479492,35.2210502624512,1.16700005531311,0.56805002689362,-6.25514984130859,-5.08406257629395,0.68557500839233,11.9444875717163,17.6540374755859,16.1631240844727,-8.42400074005127,-6.48495054244995,-4.62195014953613,8.44995021820068,2.2630500793457,-0.68295001983643,12.0971126556396,12.976149559021,14.0431499481201,-2.37600016593933,1.07595002651215,0.55605000257492,-2.15888738632202,-4.52883768081665,-5.59776258468628,3.06198740005493,5.20753765106201,5.92281246185303,0.32595002651215,0.02895000204444,2.17695021629334,-6.57495021820068,-4.24095010757446,-3.5179500579834,7.25367498397827,6.66228723526001,5.85804986953735,-6.18000030517578,-4.42500019073486,-3.07995009422302,SWING_LEFT
0.38444998860359,0.69753748178482,1.09092497825623,-0.12471249699593,-0.04276249930263,0.47382500767708,5.2819504737854,5.41395044326782,5.25600004196167,-6.84105014801025,-7.35405015945435,-8.44500064849854,1.67254996299744,2.00708746910095,1.94026243686676,-1.37205004692078,-1.12800002098084,-1.70505011081696,1.09147500991821,1.09147500991821,1.0723625421524,0.08524999767542,0.08524999767542,-0.00178749999031,4.71195030212402,4.71195030212402,4.6840500831604,-8.05305004119873,-8.05305004119873,-7.18095016479492,1.32770001888275,0.69905000925064,0.42473748326302,-4.52805042266846,-3.80700016021729,-3.43200016021729,0.89017498493195,0.98834997415543,2.04352498054504,-1.24066245555878,-2.4479124546051,-3.90362501144409,-0.33900001645088,-5.71395015716553,-10.3920001983643,-1.83000004291534,-1.10699999332428,-1.98300004005432,-11.6285123825073,16.2546997070313,13.7757120132446,78.808952331543,19.6909503936768,11.2300500869751,-1.64023745059967,-7.89634990692139,-2.88131237030029,5.02933740615845,11.8788995742798,12.6130123138428,-29.238000869751,-16.6369514465332,-12.6619510650635,23.3950519561768,11.2510509490967,5.70600032806396,12.2363996505737,13.847900390625,9.25292491912842,14.8810510635376,5.95995044708252,-14.4760503768921,-11.043999671936,-7.29162502288818,-3.21749997138977,7.05828762054443,2.96298742294312,-2.4389750957489,3.55800008773804,3.92895007133484,5.58105039596558,-1.91400003433228,-9.54705047607422,-11.2249507904053,6.41795015335083,5.74419975280762,4.70085000991821,-7.11900043487549,-5.02605009078979,-5.04495000839233,SWING_LEFT
1.43096244335175,2.45300006866455,2.16603755950928,-0.97679996490479,-0.98229998350143,-0.83228749036789,3.4459502696991,3.5269501209259,3.82905006408691,-10.231050491333,-6.00300025939941,-8.75699996948242,-1.11979997158051,-1.03881251811981,-0.80134999752045,2.62500023841858,4.32495021820068,4.75605010986328,0.44714999198914,0.42652499675751,0.34196248650551,0.10793749988079,0.14822499454021,0.13818749785423,4.33905029296875,4.70700025558472,4.71705007553101,-11.2320003509521,-8.47395038604736,-4.41105031967163,0.18218749761581,0.98738747835159,1.37568747997284,3.98505020141602,6.40305042266846,4.31100034713745,-2.52188754081726,-0.81812500953674,-0.65862500667572,0.68309998512268,-0.39297500252724,-0.68502497673035,1.71900010108948,2.28194999694824,3.13005018234253,-6.63495016098022,-11.9719505310059,-12.8340005874634,6.73598766326904,7.80092477798462,8.68560028076172,40.6819534301758,-11.5699501037598,-8.13899993896484,-5.44871234893799,-0.75996249914169,3.33025002479553,6.17924976348877,7.54654979705811,5.64148759841919,-9.5179500579834,-11.53005027771,-11.4670505523682,11.1049509048462,1.54995012283325,-8.86695003509521,14.070650100708,9.87758731842041,6.0984001159668,-0.51105004549026,-1.4230500459671,-8.02395057678223,-7.69642496109009,-7.01057481765747,-5.44073724746704,5.1282000541687,3.72707486152649,0.50077497959137,4.57095003128052,5.10300016403198,4.7310004234314,-3.74295020103455,-5.57205009460449,-10.9260005950928,5.25964975357056,3.96907496452332,3.32103753089905,-2.11500000953674,-1.90200006961823,-0.65895003080368,SWING_LEFT
-1.30900001525879,-0.95700001716614,-0.71252501010895,-0.61489999294281,-0.73273748159409,-0.75748747587204,3.10605025291443,3.57300019264221,2.74695014953613,10.9140005111694,10.94700050354,8.80905055999756,2.41326260566711,0.63401252031326,-0.70496249198914,0.38595002889633,1.1380500793457,2.75205016136169,0.87725001573563,0.48633748292923,-0.93816250562668,-2.45396256446838,-3.15260004997253,-4.39257478713989,2.92095017433167,2.24100017547607,3.20895004272461,6.94695043563843,7.99005031585693,11.9719505310059,-3.78276252746582,-2.97536253929138,-2.2372624874115,5.89095020294189,6.65205049514771,6.49905014038086,-0.9454500079155,-0.39448750019073,-0.19456249475479,-2.94978737831116,-3.54021239280701,-5.31121253967285,3.96795010566711,8.63205051422119,6.75195026397705,2.14800000190735,8.15295028686523,21.094051361084,-0.39586248993874,0.0244750007987,0.65560001134872,49.5049514770508,31.4899520874023,8.25600051879883,-2.7277250289917,-2.61360001564026,-7.04934978485107,-1.84263753890991,-1.68176245689392,-6.04078769683838,-24.8830509185791,-19.1770515441895,-8.04795074462891,-10.7250003814697,-26.8930511474609,-11.1649503707886,12.7917623519897,11.6697626113892,9.68000030517578,-11.1390008926392,-11.0860509872437,-0.76005005836487,-6.87637519836426,-6.92037487030029,-6.10953760147095,0.73796248435974,1.57190001010895,5.34077501296997,4.76295042037964,5.21295022964478,3.39795017242432,-12.1129503250122,-9.34095001220703,-9.34800052642822,12.504937171936,10.4211254119873,7.06969976425171,-0.74805003404617,0.74505001306534,0.966000020504,SWING_LEFT
0.59441250562668,0.76010000705719,0.80245000123978,-0.8427374958992,-0.92193746566772,-0.90873748064041,2.24400019645691,2.70105004310608,2.29605007171631,-10.10205078125,-8.86905002593994,-8.99805068969727,-1.16531252861023,0.23251250386238,0.83091247081757,3.97500014305115,3.59700012207031,3.45300006866455,-0.16719999909401,-0.14217500388622,-0.04056249931455,0.55866247415543,0.53116250038147,0.40961250662804,2.41395020484924,2.13405013084412,1.98000013828278,-8.08095073699951,-8.44095039367676,-8.95800018310547,0.52497500181198,-0.0086624994874,-0.57681250572205,2.27100014686584,2.2390501499176,1.83495008945465,0.35461249947548,0.3603875041008,-1.41638743877411,-0.47327500581741,-0.52607500553131,2.21966242790222,2.33505010604858,3.35205006599426,4.1850004196167,-8.84805011749268,-7.44705057144165,-4.82805013656616,3.69063758850098,4.28298759460449,5.81666231155396,43.6939506530762,7.42995023727417,-7.54995012283325,-0.55536252260208,-5.97918748855591,-3.88602495193481,3.12097501754761,7.08771228790283,8.88291263580322,-25.1290512084961,-17.2639503479004,-9.85605049133301,-14.0119504928589,-17.8309516906738,-10.9230003356934,14.0606126785278,10.5242500305176,6.98087501525879,-4.57095003128052,8.35395050048828,10.8949508666992,-7.99713754653931,-8.13202476501465,-7.05210018157959,10.416862487793,8.37594985961914,6.68868732452393,4.79595041275024,3.14595007896423,2.94300007820129,-9.70500087738037,-5.22705030441284,-6.21900033950806,4.9710373878479,1.28218746185303,-0.19442500174046,-0.57795000076294,-0.93900007009506,-2.01900005340576,SWING_LEFT
-0.24103750288486,0.07191249728203,0.15661250054836,-0.74208748340607,-0.89333748817444,-0.84988749027252,2.41605019569397,2.25104999542236,1.28400003910065,-8.85195064544678,-10.7340002059937,-12.0510005950928,-0.42363750934601,-0.54326248168945,-0.37083750963211,-0.01500000059605,0.64995002746582,3.13695025444031,-0.29713749885559,-0.98532497882843,-1.9962249994278,0.64391249418259,0.9454500079155,1.29841244220734,1.89900004863739,3.05100011825562,2.54505014419556,-6.75000047683716,-7.94700050354004,-11.7880506515503,3.46912503242493,4.06147480010986,6.00696229934692,8.91195011138916,31.7730007171631,42.8370018005371,-2.58857488632202,-2.2624249458313,-0.25987499952316,5.3935751914978,5.58263731002808,2.16988754272461,-16.8880500793457,-35.3860511779785,-35.1610527038574,8.61495018005371,-24.1590003967285,-8.81205081939697,10.949125289917,16.6212749481201,13.3593626022339,-31.6000518798828,-26.0959510803223,-3.37200021743774,-1.51469993591309,-3.94693756103516,-6.74726247787476,5.67710018157959,4.35599994659424,7.17612504959106,2.3490002155304,6.45300006866455,6.95100021362305,-11.8050003051758,-10.818000793457,-9.32595062255859,8.4926872253418,10.7691373825073,9.64493751525879,4.76505041122437,2.64705014228821,1.66005003452301,-4.39133739471436,-2.4982373714447,-1.05338752269745,2.95129990577698,1.45309996604919,0.19126249849796,1.32195007801056,0.8890500664711,0.92895007133484,-7.03005027770996,-8.11995029449463,-8.72504997253418,-0.86088746786118,-1.369500041008,-1.30528748035431,-0.78795003890991,-1.86300003528595,1.0110000371933,SWING_LEFT
-0.30799999833107,-0.30153748393059,-0.29864999651909,0.28104999661446,0.02158750034869,-0.27651250362396,2.64405012130737,2.25300002098084,1.82505011558533,-8.52195072174072,-8.96295070648193,-8.7610502243042,1.27668750286102,1.04665005207062,0.98601251840591,-0.13500000536442,0.73605000972748,1.67205011844635,-0.32601249217987,-0.15798750519753,-0.12636250257492,0.23127499222755,0.18535000085831,0.19744999706745,1.65495002269745,3.21105003356934,3.59895014762878,-9.50100040435791,-6.91995048522949,-6.82200050354004,0.92812502384186,1.13066244125366,1.29470002651215,1.13295006752014,0.8320500254631,1.98795008659363,-0.45141249895096,-0.17984999716282,-1.68451249599457,0.78539997339249,0.48743748664856,2.14610004425049,2.87295007705688,7.5730504989624,9.20895004272461,-8.71395015716553,-10.3459501266479,-16.5379505157471,4.53488731384277,5.13232517242432,5.55307483673096,44.1589508056641,40.4809532165527,3.02205014228821,-1.31202495098114,-1.95305001735687,-3.26507496833801,4.3471999168396,4.27789974212646,7.97541236877441,-21.8370018005371,-23.1109504699707,-14.6250009536743,-4.47795009613037,-17.4379501342773,-12.8029508590698,16.9431629180908,12.9122123718262,9.74146270751953,-17.4409503936768,3.99000024795532,6.95895051956177,-5.64244985580444,-7.59563732147217,-5.08529996871948,4.72119998931885,7.88906240463257,4.26071262359619,7.61400032043457,4.15005016326904,2.44695019721985,-8.48099994659424,-8.25900077819824,-7.40595054626465,6.99462509155273,1.46561253070831,0.02846249938011,-0.73305004835129,-4.0090503692627,-3.69495010375977,SWING_LEFT
