gyro_x_0,gyro_y_0,gyro_z_0,acc_x_0,acc_y_0,acc_z_0,gyro_x_1,gyro_y_1,gyro_z_1,acc_x_1,acc_y_1,acc_z_1,gyro_x_2,gyro_y_2,gyro_z_2,acc_x_2,acc_y_2,acc_z_2,gyro_x_3,gyro_y_3,gyro_z_3,acc_x_3,acc_y_3,acc_z_3,gyro_x_4,gyro_y_4,gyro_z_4,acc_x_4,acc_y_4,acc_z_4,gyro_x_5,gyro_y_5,gyro_z_5,acc_x_5,acc_y_5,acc_z_5,gyro_x_6,gyro_y_6,gyro_z_6,acc_x_6,acc_y_6,acc_z_6,gyro_x_7,gyro_y_7,gyro_z_7,acc_x_7,acc_y_7,acc_z_7,gyro_x_8,gyro_y_8,gyro_z_8,acc_x_8,acc_y_8,acc_z_8,gyro_x_9,gyro_y_9,gyro_z_9,acc_x_9,acc_y_9,acc_z_9,gyro_x_10,gyro_y_10,gyro_z_10,acc_x_10,acc_y_10,acc_z_10,gyro_x_11,gyro_y_11,gyro_z_11,acc_x_11,acc_y_11,acc_z_11,gyro_x_12,gyro_y_12,gyro_z_12,acc_x_12,acc_y_12,acc_z_12,gyro_x_13,gyro_y_13,gyro_z_13,acc_x_13,acc_y_13,acc_z_13,gyro_x_14,gyro_y_14,gyro_z_14,acc_x_14,acc_y_14,acc_z_14,motion_type
-7.46267509460449,-7.37536239624023,-4.46476268768311,0.18105000257492,-19.0380001068115,-39.8479537963867,0.99577498435974,0.96373748779297,-0.26963749527931,1.48169994354248,-0.10284999758005,-0.97336250543594,-29.5260009765625,-24.1300506591797,-15.7009506225586,-1.6270500421524,-6.16305017471313,-7.38195037841797,7.66081237792969,6.39443731307983,5.78682518005371,9.86895084381104,10.992000579834,18.5389499664307,0.6434999704361,1.40964996814728,0.82761251926422,-0.85841250419617,-0.77976250648499,-0.08153750002384,41.7370529174805,33.8550033569336,21.2359504699707,13.8319501876831,8.6419506072998,5.73195028305054,-7.64032506942749,-7.84354972839355,-6.66448736190796,4.30800008773804,-8.31494998931885,-34.8829498291016,2.2121000289917,-1.11993753910065,-3.41962504386902,1.40084993839264,-0.7402999997139,-0.55935001373291,-39.3360023498535,-21.2599506378174,-11.90505027771,-3.8620502948761,-8.1540002822876,0.79995006322861,7.30537509918213,6.96162509918213,1.62043750286102,10.7260503768921,21.5449504852295,28.291051864624,1.74487495422363,0.70620000362396,-0.45471251010895,-1.44168746471405,-0.59565001726151,0.08236250281334,36.6240005493164,13.8810005187988,2.87805008888245,11.5750503540039,5.47305011749268,5.84205007553101,-7.29973745346069,-8.04265022277832,-1.72548747062683,3.06495022773743,-9.10800075531006,-45.9670524597168,1.97477495670319,0.57859998941422,-1.60517501831055,-1.33416247367859,-1.01488745212555,0.11852499842644,-32.2200012207031,-23.5840511322021,-13.2660007476807,-2.67105007171631,-3.79995012283325,-1.50000011920929,SHAKE
-6.66022491455078,-7.44658756256104,-7.99576234817505,12.3070507049561,5.72295045852661,-4.38000011444092,1.40552496910095,2.07267498970032,0.89677500724792,0.54422497749329,-1.32027494907379,-1.2500125169754,-36.5809516906738,-31.303050994873,-23.4709510803223,3.26205015182495,-0.6240000128746,-4.20195007324219,7.6725001335144,7.32448768615723,5.29622507095337,10.4320507049561,22.6540508270264,39.8590507507324,1.70554995536804,1.76096248626709,0.67540001869202,-0.73081248998642,-0.12306249886751,-0.05609999969602,44.0820007324219,34.2600021362305,20.860050201416,8.11005020141602,0.96105003356934,-1.03305006027222,-7.04756259918213,-8.60667514801025,-7.06351232528687,12.8170509338379,-8.60805034637451,-41.896053314209,2.59737491607666,3.07944989204407,-1.51469993591309,0.11206249892712,-1.80991244316101,0.0323125012219,-40.2859535217285,-30.9240016937256,-1.57800006866455,3.94005012512207,-1.32300007343292,-0.95700001716614,7.33727502822876,6.01136255264282,2.48985004425049,16.9699516296387,31.4479522705078,36.9139518737793,1.50122499465942,0.40507498383522,-1.18910002708435,-0.35076248645782,-0.28380000591278,0.33989998698235,25.3240509033203,12.2430009841919,-0.34695002436638,1.30305004119873,0.19005000591278,2.90805006027222,-8.54067516326904,-8.01817512512207,4.98643732070923,-4.33200025558472,-37.6639518737793,-31.2000007629395,2.03018760681152,-2.42137503623962,-2.04682493209839,-1.95346248149872,0.20473749935627,0.15468749403954,-22.6300506591797,3.62100028991699,22.3380012512207,-4.82505035400391,7.31700038909912,11.2309503555298,SHAKE
-7.82980012893677,-6.67617511749268,-0.71238750219345,-7.23795032501221,-39.9220504760742,-49.7440528869629,1.41391253471375,0.33907499909401,-1.36248743534088,-2.10141253471375,-1.23832499980927,-0.60307496786118,-31.0540523529053,-17.3159999847412,-2.85705018043518,2.47395014762878,-0.17595000565052,2.40300011634827,7.43737506866455,6.34232473373413,2.53027486801147,16.6759510040283,35.2320022583008,41.1139526367188,0.82761251926422,1.62249994277954,1.68643748760223,0.95493751764297,0.60376250743866,0.13131250441074,39.1549530029297,25.0489521026611,11.0160007476807,9.7170000076294,6.47595024108887,4.78095006942749,-7.76696252822876,-8.33745002746582,-8.27571201324463,9.02100086212158,1.90995013713837,-30.4620018005371,0.71582502126694,1.24052500724792,0.51796251535416,2.30229997634888,-0.82651251554489,-2.37916254997253,-46.4890518188477,-36.9480018615723,-22.863000869751,0.31395000219345,-3.5220000743866,-2.34105014801025,8.23762512207031,6.88283729553223,2.93892502784729,19.8229503631592,38.275951385498,43.8060035705566,-0.83366250991821,-1.08157503604889,-0.91767501831055,-0.69244998693466,-0.10711249709129,-0.35722500085831,43.6290016174316,12.1830005645752,-2.17905020713806,4.74000024795532,5.32395029067993,10.8349504470825,-8.73757457733154,-9.07059955596924,-6.39196252822876,7.10295057296753,-11.0700006484985,-44.1160507202149,1.68533754348755,2.18336248397827,-1.06026244163513,-0.23264999687672,-1.26926255226135,-0.41992500424385,-45.0450019836426,-31.8540019989014,2.11605000495911,7.7790002822876,1.44000005722046,5.05395030975342,SHAKE
-7.41578769683838,-8.53104972839355,-8.73757457733154,18.7570514678955,10.8769502639771,7.10295057296753,-0.63139998912811,0.11137499660254,1.68533754348755,1.22416245937347,1.76797497272491,-0.23264999687672,-38.5260009765625,-50.6740531921387,-45.0450019836426,10.0000505447388,9.89700031280518,7.7790002822876,7.39901256561279,8.9271879196167,8.18235015869141,-17.239049911499,14.1940507888794,26.2819519042969,-1.33375000953674,-0.23443749547005,2.0376124382019,0.25685000419617,0.51218748092651,0.06531249731779,40.4970016479492,45.9070510864258,22.4980506896973,13.9030504226685,14.706000328064,3.04005002975464,-6.82192516326904,-7.42747497558594,-7.30509996414185,12.1590003967285,7.58895015716553,-36.4999504089355,0.57859998941422,2.41216254234314,-0.34622499346733,0.21848750114441,-1.25963747501373,0.04399999976158,-44.9370002746582,-34.3780517578125,0.31800001859665,12.44700050354,6.11205005645752,1.55205011367798,7.51616239547729,5.45998764038086,1.80661249160767,22.1479511260986,34.1740531921387,36.8419532775879,1.73222494125366,-0.55797499418259,-2.67464995384216,0.30579999089241,-0.46681249141693,0.43450000882149,37.0789527893066,10.5160503387451,-4.41600036621094,1.32495009899139,-2.07000017166138,5.92800045013428,-8.10534954071045,-0.45374998450279,6.27096223831177,-7.47495031356812,-50.8320007324219,-23.0059509277344,1.97051250934601,-1.24863743782043,-1.12736248970032,-3.21887493133545,-1.03083753585815,-0.83709996938705,-14.002950668335,17.5039501190186,37.0980033874512,-0.55395001173019,5.70105028152466,10.5120000839233,SHAKE
-0.53460001945496,-3.71236252784729,-6.13868761062622,29.4480018615723,18.738000869751,8.33895015716553,-0.42707499861717,-0.47712498903275,1.61617493629456,-1.53848743438721,-0.80836248397827,0.37922498583794,-8.94000053405762,-30.3540019989014,-29.7030010223389,9.76200008392334,17.1180000305176,8.44799995422363,7.31706237792969,7.47243738174438,7.18093729019165,-4.89795017242432,6.14205026626587,16.606050491333,0.38912498950958,1.44375002384186,0.44027498364449,1.42326247692108,0.37716248631477,-0.23691250383854,31.47705078125,38.7289505004883,27.7290019989014,2.9610002040863,-8.62800025939941,-10.5319509506226,-6.99324989318848,-7.63289976119995,-6.24621248245239,7.97700023651123,-7.59705018997192,-37.935001373291,0.59345000982285,2.49301242828369,2.10031247138977,1.07098746299744,-0.45196250081062,-1.14358747005463,-35.1420021057129,-23.8110008239746,-9.75195026397705,13.3450508117676,2.70000004768372,-1.35900008678436,6.82646226882935,6.39333724975586,4.67252492904663,8.61195087432861,19.1160011291504,30.9520511627197,1.3501124382019,0.85841250419617,-0.52181249856949,-0.72228747606277,-0.94888746738434,-0.74882501363754,34.465950012207,24.6799507141113,13.1479501724243,-2.26695013046265,-3.22005009651184,0.40995001792908,-6.94649982452393,-5.25016260147095,0.12416250258684,5.54100036621094,-39.2329521179199,-39.328052520752,3.33492493629456,1.09463751316071,-0.25575000047684,-0.88824999332428,0.21642500162125,1.28699994087219,-18.9490509033203,0.90000003576279,15.7320003509521,2.38305020332336,-1.02600002288818,2.32605004310608,SHAKE
1.18937504291534,-2.70132493972778,-6.17705011367798,34.1260528564453,21.7120513916016,10.8649501800537,-1.24011254310608,0.91272497177124,0.9147874712944,-1.72576248645782,-1.79712498188019,-0.87339997291565,-0.54300004243851,-31.7790012359619,-37.2690010070801,10.5430507659912,13.6590003967285,13.6210508346558,4.28408765792847,8.20888710021973,7.22658729553223,-31.8870010375977,13.0570507049561,14.0670003890991,0.00811249949038,1.06920003890991,0.74456250667572,0.56223750114441,0.35585001111031,-2.38768744468689,31.5919513702393,47.767951965332,31.5270023345947,1.77495002746582,-4.72605037689209,-11.5450506210327,-6.06003761291504,-7.55301237106323,-8.50547504425049,19.2240009307861,14.8200006484985,6.76995038986206,-0.80176252126694,2.36004996299744,3.44547486305237,1.25193750858307,1.16352498531342,0.91341251134872,-46.4539527893066,-38.7030029296875,-24.7930507659912,23.8860015869141,11.9400005340576,-3.19095015525818,9.31246280670166,7.5491623878479,5.54097509384155,15.1309509277344,25.2330017089844,41.9929504394531,1.13203752040863,-1.93393743038177,-4.66152477264404,-3.4007875919342,-2.84858751296997,-1.94920003414154,36.3340530395508,20.6440505981445,3.30000019073486,-16.4740505218506,-10.5630006790161,2.04299998283386,-8.98122501373291,-5.36401224136353,0.79351252317429,8.14200019836426,-40.2409515380859,-40.0090522766113,4.08402490615845,1.64065003395081,-0.97198748588562,-1.86408746242523,-1.44801247119904,-0.0922624990344,-26.1750011444092,-14.0470504760742,21.79905128479,-5.44500017166138,-5.36295032501221,6.10500049591064,SHAKE
-6.12177515029907,-7.92976236343384,-8.98122501373291,23.427001953125,18.996000289917,8.14200019836426,-0.04922499880195,3.89894986152649,4.08402490615845,0.81124997138977,-0.90420001745224,-1.86408746242523,-38.7490501403809,-34.8040504455566,-26.1750011444092,22.6860008239746,5.82705020904541,-5.44500017166138,8.21741199493408,8.03756237030029,5.6451997756958,3.19905018806458,24.2490005493164,38.0730018615723,1.91207504272461,0.24653749167919,-2.94717502593994,-2.25156259536743,-1.96735000610352,-0.79997497797012,49.4250030517578,38.1060028076172,20.1630001068115,-8.31195068359375,-12.6469507217407,-6.50805044174194,-8.43108749389648,-9.23340034484863,-8.15113735198975,15.868950843811,1.35900008678436,-26.9460010528564,1.04788744449615,4.57792520523071,4.43959999084473,0.68681252002716,-1.60132503509521,-1.54591250419617,-45.2629508972168,-40.7290534973145,-26.7090015411377,18.5230503082275,6.36405038833618,-2.90100002288818,10.0520753860474,7.49265003204346,4.40962505340576,14.9299507141113,32.7460517883301,38.2620010375977,1.46396243572235,-5.71834993362427,-5.97698736190796,-2.42385005950928,-0.28159999847412,0.77192497253418,32.7460517883301,1.53705012798309,-12.9259510040283,-21.385950088501,1.56000006198883,14.3269510269165,-8.21823787689209,-0.49417498707771,4.75337505340576,-13.5769510269165,-40.2700500488281,-22.5589504241943,1.23736250400543,0.05389999970794,0.70207500457764,0.18658749759197,0.12801249325275,-0.29438748955727,-13.9150505065918,-3.87195014953613,29.4990005493164,-0.9709500670433,1.23405003547668,5.96895027160645,SHAKE
4.75337505340576,7.48096227645874,7.51506233215332,-22.5589504241943,0.483000010252,8.87295055389404,0.70207500457764,2.25156259536743,2.60369992256165,-0.29438748955727,-1.07978749275208,-1.65453743934631,29.4990005493164,43.006950378418,40.9560012817383,5.96895027160645,-0.94500005245209,-8.4820499420166,-3.96880006790161,-7.4391622543335,-7.78937482833862,22.0399513244629,10.6950006484985,1.17000007629395,0.95851248502731,3.06033754348755,3.3796124458313,0.31006249785423,-0.96277499198914,-0.66054999828339,-27.8659515380859,-27.6220512390137,-22.4410514831543,14.9290504455566,9.87495040893555,2.87400007247925,7.13831233978271,7.14793729782104,6.89782476425171,-0.62505000829697,12.3930006027222,29.776050567627,2.93892502784729,0.41676250100136,-2.49053740501404,-1.12983751296997,-1.3894374370575,-1.23942494392395,43.0860023498535,29.5489521026611,16.4290504455566,-6.00495052337646,-15.9850511550903,-8.56800079345703,-7.35721254348755,-8.14797496795654,-7.67758750915527,11.1340503692627,-0.34200000762939,-18.1609516143799,-0.27816250920296,2.68138742446899,2.99543738365173,-0.50833749771118,-0.82871252298355,0.57818752527237,-30.1530017852783,-27.8710517883301,-22.5919513702393,22.381950378418,14.8039503097534,4.35195016860962,7.93003749847412,7.54489994049072,7.10214996337891,5.05695009231567,11.5000505447388,16.3549499511719,0.6903874874115,1.12241244316101,0.79145002365112,1.2167375087738,0.44096249341965,-0.20817500352859,35.3500518798828,44.7259521484375,38.284049987793,-1.54800009727478,-6.06300020217896,-6.6589503288269,SHAKE
-4.65423727035522,0.5157625079155,5.45366239547729,-34.6150512695313,-34.4640007019043,-17.5410003662109,1.58537495136261,0.3466374874115,0.15922500193119,1.63074994087219,1.48706245422363,1.41047501564026,-12.2719507217407,0.02805000171065,15.2080507278442,-1.10805010795593,0.97500002384186,2.22495007514954,6.04958724975586,2.13647508621216,-2.00433754920959,32.2890014648438,33.751953125,22.8120002746582,-0.28022500872612,-1.70733749866486,-2.82576251029968,-0.27843749523163,-0.44453749060631,-0.2050125002861,26.9050521850586,14.2830009460449,2.04900002479553,-6.29295015335083,-1.91700005531311,4.37805032730103,-7.4721622467041,-7.27952480316162,-5.2746376991272,1.62795007228851,-13.0290002822876,-36.9289512634277,0.57639998197556,1.98123753070831,0.40617498755455,0.35268750786781,0.25052499771118,0.86982500553131,-36.3319511413574,-30.4189510345459,-2.00400018692017,12.7110004425049,6.51000022888184,-1.73505008220673,8.09503746032715,6.34548759460449,2.02166247367859,24.5890502929688,38.5039520263672,35.6230506896973,1.07978749275208,-0.87518751621246,-1.9181250333786,-1.44484996795654,-1.71833753585815,-1.2809499502182,25.291051864624,14.9920511245728,4.47795009613037,-11.2650003433228,-2.59500002861023,3.60000014305115,-7.01676225662231,-5.3543872833252,-0.31226250529289,-11.6710510253906,-33.1279525756836,-40.0489501953125,2.52504992485046,1.0063624382019,-0.21532499790192,1.18910002708435,0.96662497520447,0.81124997138977,-16.1089515686035,-3.60705018043518,10.5280504226685,-0.60000002384186,-2.15895009040833,2.35199999809265,SHAKE
6.45301246643066,8.875075340271,8.58880043029785,-19.2799510955811,3.72105026245117,13.8810005187988,-1.05599999427795,2.40899991989136,1.62153744697571,0.22274999320507,0.34732499718666,0.11962500214577,19.9039516448975,46.678050994873,37.2900009155273,10.6800003051758,-4.79595041275024,-7.96395015716553,-6.55490016937256,-7.68611240386963,-7.93402481079102,15.247950553894,9.08100032806396,0.4420500099659,-2.9024875164032,-0.62933748960495,3.81369996070862,2.35331249237061,1.55306243896484,-0.81798750162125,-26.4120006561279,-35.965950012207,-30.6679515838623,10.2850503921509,13.5060005187988,-1.00499999523163,10.4447746276855,7.53637504577637,6.24648761749268,7.33305025100708,21.8269519805908,33.7020034790039,2.03431248664856,0.45718750357628,-2.0787250995636,-0.15716250240803,-0.87339997291565,-0.47740000486374,48.2779541015625,25.4029502868652,10.4890508651733,-3.39495015144348,-11.578950881958,-8.20394992828369,-8.72588729858398,-7.79460000991821,-3.14723753929138,10.7790002822876,-28.8379516601563,-46.4250030517578,2.78781247138977,3.73601245880127,2.26215004920959,-0.8595125079155,-2.80060005187988,-2.49837493896484,-33.6809997558594,-26.0100021362305,-14.5950002670288,0.40995001792908,-6.03405046463013,-5.1670503616333,9.41146278381348,8.05571269989014,5.67929983139038,19.746000289917,28.5880508422852,36.4939498901367,0.73823750019073,-0.89649999141693,-2.8194375038147,0.48565000295639,0.1142624989152,0.1876875013113,46.3549537658691,23.1280517578125,7.79295015335083,0.08400000631809,-7.96005058288574,-1.33695006370544,SHAKE
7.27773761749268,6.80515003204346,4.72257518768311,14.9749507904053,24.4830017089844,37.1719512939453,1.52680003643036,2.08862495422363,1.03509998321533,0.63992500305176,-0.35722500085831,-0.54559999704361,42.8029518127441,32.1280517578125,19.570951461792,1.16400003433228,-4.48905038833618,-4.47705030441284,-7.32847499847412,-8.10012531280518,-8.45020008087158,12.1180505752563,5.77800035476685,-8.54100036621094,-2.85669994354248,-1.1614625453949,0.64776247739792,2.34588742256165,2.15008759498596,-0.07947500050068,-35.0320510864258,-34.006950378418,-27.8389511108398,10.4449501037598,7.28595018386841,2.9800500869751,8.46216201782227,7.35006237030029,7.0201997756958,-1.90200006961823,13.4970006942749,26.7610511779785,0.41786250472069,1.58949995040894,0.13901250064373,0.65271252393723,0.35158750414848,-1.14894998073578,44.6640014648438,45.1810531616211,20.2300510406494,3.95700025558472,-4.11794996261597,-6.64005041122437,-7.75101232528687,-8.54699993133545,-0.90076249837875,13.2700510025024,-11.1010503768921,-45.8740539550781,1.96735000610352,1.7630250453949,0.93183749914169,-0.66687500476837,-1.49696254730225,-1.76412498950958,-29.8230018615723,-17.4829502105713,-5.81205034255981,1.8880500793457,-0.77700001001358,-0.01305000018328,7.41812515258789,7.16168737411499,4.30649995803833,13.9170007705688,29.0119514465332,39.8400001525879,1.9013500213623,2.53027486801147,0.9648374915123,0.24626250565052,-0.84466248750687,-1.14785003662109,44.0599517822266,31.7119522094727,18.4840507507324,0.61305004358292,-7.15305042266846,-7.43295049667358,SHAKE
7.41812515258789,7.16168737411499,4.30649995803833,13.9170007705688,29.0119514465332,39.8400001525879,1.9013500213623,2.53027486801147,0.9648374915123,0.24626250565052,-0.84466248750687,-1.14785003662109,44.0599517822266,31.7119522094727,18.4840507507324,0.61305004358292,-7.15305042266846,-7.43295049667358,-7.39021253585815,-7.90322494506836,-7.85001230239868,9.57705020904541,2.07300019264221,-17.3179512023926,-2.25651240348816,1.04252505302429,2.55048751831055,2.77474999427795,0.90488749742508,-1.0755250453949,-38.6410522460938,-36.5119514465332,-27.2959518432617,14.5309505462646,7.39395046234131,-1.1050500869751,8.61973762512207,8.01418781280518,7.47463750839233,4.36005020141602,17.1259517669678,38.3479499816895,0.51782500743866,3.44561243057251,1.76728749275208,0.08016250282526,-0.59661251306534,-0.598812520504,50.2110023498535,29.0989513397217,14.0580005645752,12.1120510101318,-5.01600027084351,-6.80295038223267,-8.0554370880127,-8.42256259918213,-3.66767501831055,7.85700035095215,-0.12000000476837,-46.6570510864258,1.59486246109009,0.67966252565384,-1.66691243648529,0.89746248722076,-2.17483758926392,-0.90639996528625,-30.7879505157471,-11.6200504302979,0.42300000786781,-0.43200001120567,-3.44295024871826,1.79205012321472,7.37673759460449,0.87119996547699,-4.89788770675659,23.5639514923096,29.7960014343262,17.4799499511719,-0.83792501688004,-5.47249984741211,-3.00244998931885,-1.56296253204346,2.69280004501343,2.97907495498657,9.02400016784668,-24.2470512390137,-34.3159523010254,-9.2629508972168,10.3110008239746,13.7550010681152,SHAKE
2.68358755111694,7.1403751373291,7.5193247795105,-33.316951751709,0.70605003833771,9.50700092315674,-2.59063744544983,3.29340004920959,2.97522497177124,-0.34017500281334,-0.54449999332428,-1.84387493133545,22.1340007781982,44.662052154541,24.2029514312744,12.8400001525879,6.66105031967163,-15.6330003738403,-6.9177622795105,-8.08513736724854,-6.27384996414185,13.2150001525879,-11.1970500946045,-35.6640014648438,1.34584999084473,3.73078751564026,-0.42074999213219,0.53033751249313,-1.85982501506805,-1.18511247634888,-33.0220527648926,-26.802001953125,-7.39305019378662,7.69305038452148,-3.59595012664795,-2.83005023002625,7.29258728027344,7.09046268463135,5.28550004959106,10.1470508575439,21.2929515838623,34.9450531005859,2.05988740921021,2.03334999084473,-0.70482498407364,-0.74772500991821,-0.65518748760223,-0.09968750178814,46.2970504760742,21.0300006866455,8.05605030059814,8.81205081939697,-7.72995042800903,-3.30600023269653,-7.61695003509521,-5.88761234283447,-0.92619997262955,-11.2420501708984,-33.3150024414063,-42.8490028381348,1.04142498970032,-1.59238743782043,-3.99547505378723,-2.16424989700317,-0.77439999580383,0.38664999604225,-19.0189514160156,-8.21895027160645,7.10295057296753,-5.6650505065918,-3.21300005912781,4.62000036239624,7.08290004730225,-1.39768743515015,-4.92236232757568,32.2740020751953,31.6710014343262,21.6330013275146,2.30463743209839,0.15812499821186,-1.558424949646,-0.64556246995926,-0.0527999997139,1.60627496242523,12.0409507751465,-2.25600004196167,-18.7290000915527,-1.69005012512207,1.33200001716614,3.94995021820068,SHAKE
2.68674993515015,5.91552495956421,8.31957530975342,-32.0719528198242,-14.4439506530762,11.5549507141113,-0.32601249217987,1.7960250377655,3.0080873966217,-1.66622495651245,-2.09618759155273,-1.55017495155334,27.295051574707,43.9360504150391,43.6800003051758,10.336950302124,8.50305080413818,-5.41095018386841,-4.1784873008728,-6.9177622795105,-8.48320007324219,25.6210517883301,17.6670017242432,7.92705059051514,-5.03731250762939,-3.41756248474121,0.89787501096725,2.31824994087219,2.68743753433228,0.27169999480247,-25.9330520629883,-41.4619522094727,-40.794002532959,7.51605033874512,15.5200510025024,12.3750009536743,5.44939994812012,8.83671283721924,8.7612247467041,-24.0049514770508,8.56095027923584,31.336051940918,-0.41964998841286,1.88856244087219,3.21145009994507,-0.38802498579025,0.01842499896884,-0.60307496786118,45.6889533996582,45.9169540405273,34.6620025634766,14.9449510574341,7.25505018234253,-0.97605001926422,-7.45731258392334,-7.95753765106201,-7.70522499084473,9.08100032806396,0.08805000782013,-28.6560020446777,-1.49558746814728,1.58743751049042,0.90736252069473,2.32773756980896,-1.15321254730225,-1.98440003395081,-38.7130508422851,-30.8500518798828,-10.1430006027222,5.70795011520386,4.42200040817261,-6.28995037078857,8.07166290283203,4.01692485809326,-0.55701249837875,12.2110509872437,39.5389518737793,29.4289512634277,3.36572504043579,-0.51754999160767,-2.85133743286133,-1.09683752059937,-0.1922249943018,1.6328125,30.4590015411377,0.25095000863075,-16.159049987793,-0.94500005245209,-2.08695006370544,3.50205016136169,SHAKE
1.33938753604889,7.12236261367798,7.16168737411499,-39.7090530395508,1.39800012111664,6.83205032348633,-0.04509999975562,-0.83476251363754,1.25647497177124,-1.41501247882843,0.51012498140335,0.69629997014999,27.316951751709,43.1530532836914,29.9749507904053,4.61100006103516,9.57300090789795,2.89095020294189,-6.75276231765747,-8.07881259918213,-7.96276235580444,16.5529499053955,7.22505044937134,-4.84500026702881,-0.15895000100136,1.14785003662109,1.08831250667572,1.69991254806519,-0.07947500050068,-1.00100004673004,-34.2769508361816,-29.6430015563965,-19.4040012359619,4.16805028915405,0.83895003795624,-1.4190000295639,7.64912509918213,7.65448760986328,7.01373767852783,2.67900013923645,11.1259508132935,25.7599506378174,0.21243749558926,3.20072507858276,0.86061251163483,-0.34553748369217,-1.03729999065399,-1.59706246852875,44.6760025024414,28.3369522094727,14.7480010986328,12.2149505615234,-11.1760501861572,-12.5770502090454,-7.28708744049072,-7.67222499847412,-1.87769997119904,7.15995025634766,-6.73905038833618,-45.730052947998,2.85917496681213,3.68610000610352,-0.87092500925064,-1.25331246852875,-1.92472493648529,0.19731250405312,-27.0439510345459,-14.8180503845215,17.4090003967285,7.63800048828125,-2.21595001220703,-1.182000041008,1.51497495174408,-2.15118741989136,-4.94051265716553,30.6100521087646,22.9530010223389,17.8129501342773,-2.11708760261536,-3.3217248916626,0.50517499446869,0.45581248402596,2.32677507400513,1.04005002975464,-6.47805023193359,-25.5000019073486,-33.2639999389648,2.59200000762939,7.88205051422119,5.52795028686523,SHAKE
5.671875,7.15852499008179,7.37879991531372,-14.4780006408691,-0.29700002074242,19.0990505218506,-1.32109999656677,1.02877497673035,2.51432490348816,-0.03575000166893,0.0536249987781,-0.92441248893738,41.170051574707,45.949951171875,38.1180000305176,12.2410507202148,6.10005044937134,-3.41595005989075,-5.26927518844604,-7.23483753204346,-8.1628246307373,17.9470500946045,13.9000511169434,4.67700004577637,-4.21465015411377,-2.11488747596741,3.36366248130798,3.22698760032654,3.46431255340576,-1.4522750377655,-24.7549514770508,-37.2379531860351,-28.5079517364502,11.2930507659912,11.5540504455566,-2.24295020103455,7.69271230697632,8.07908725738525,8.02793788909912,-3.09705018997192,6.5590500831604,14.4049510955811,0.42006251215935,3.10186243057251,0.96057498455048,0.12594999372959,-0.49348750710487,-1.94177496433258,47.3899536132813,42.0649528503418,15.6049509048462,11.6899509429932,-1.3330500125885,-8.31900024414063,-7.41372489929199,-7.95959997177124,-7.04756259918213,8.58300018310547,-3.27900004386902,-32.2540512084961,-0.36959999799728,2.94112491607666,0.81166249513626,1.74143743515015,-1.13300001621246,-1.09793746471405,-38.2410011291504,-30.0210018157959,-4.51395034790039,12.0379505157471,2.90295004844666,-4.79595041275024,8.0514497756958,2.13647508621216,-2.02565002441406,16.9320011138916,33.3690032958984,23.1400508880615,2.87306237220764,-0.1727000027895,-3.79101252555847,-2.60479998588562,-1.73854994773865,0.89856249094009,26.8860015869141,10.1710500717163,-10.5739507675171,-9.47805023193359,-6.63795042037964,0.91500002145767,SHAKE
-1.19872498512268,-6.26752519607544,-7.41372489929199,25.3600521087646,13.701000213623,8.58300018310547,-4.14974975585938,-3.71332502365112,-0.36959999799728,1.17521250247955,2.77048754692078,1.74143743515015,-19.8160514831543,-36.6240005493164,-38.2410011291504,7.60005044937134,14.6460008621216,12.0379505157471,4.17656230926514,8.05777454376221,8.0514497756958,-26.427001953125,5.69205045700073,16.9320011138916,0.49665001034737,3.01661252975464,2.87306237220764,-0.01979999989271,-1.52569997310638,-2.60479998588562,48.7590026855469,41.110050201416,26.8860015869141,8.99400043487549,-2.12100005149841,-9.47805023193359,-6.90291261672974,-8.07881259918213,-8.23624992370605,14.367000579834,4.39394998550415,-20.6140518188477,-3.48356246948242,0.91698747873306,3.47751259803772,3.49524998664856,0.02062499895692,-1.8631249666214,-40.6380004882813,-31.5949516296387,-18.7530002593994,14.9290504455566,11.3959503173828,2.206050157547,7.11919975280762,7.25216245651245,6.17622518539429,0.87105005979538,10.6879501342773,24.7440013885498,-1.12103748321533,1.06920003890991,2.58995008468628,-0.06984999775887,-0.47423750162125,-1.3171124458313,42.037052154541,40.8199501037598,29.7570018768311,9.01995086669922,5.81805038452148,-0.07500000298023,-5.89297485351563,-7.2040376663208,-8.17245006561279,12.8700008392334,9.14595031738281,-2.11905002593994,-4.68709993362427,-2.54058742523193,1.2447874546051,3.51326251029968,2.22461247444153,-1.00746250152588,-38.0160026550293,-38.6650505065918,-28.8670520782471,7.16595029830933,12.0520505905151,8.66295051574707,SHAKE
3.06666254997253,-0.55701249837875,-3.3706750869751,29.731050491333,23.1760501861572,17.4130516052246,-0.27059999108315,-2.21705007553101,-2.01272487640381,-1.34158754348755,-0.07521250098944,1.45832502841949,4.84905004501343,-10.032000541687,-35.8720512390137,-1.43295001983643,4.29195022583008,12.246000289917,2.58568739891052,6.92436265945435,7.74166250228882,-35.2429504394531,-9.09105014801025,2.31300020217896,0.48496249318123,0.7871875166893,1.69276249408722,-0.94036251306534,0.45265001058578,0.39091250300407,11.2459506988525,45.9670524597168,39.646053314209,-0.20895001292229,2.44095015525818,-6.02700042724609,-6.75702476501465,-7.58601236343384,-7.85537481307983,11.7949504852295,4.80600023269653,-8.82600021362305,-0.81028747558594,0.8456249833107,1.2447874546051,1.93407499790192,-1.17452502250671,-2.4505250453949,-36.2680511474609,-25.9740009307861,-13.0189504623413,3.42000007629395,0.8890500664711,-1.28505003452301,8.12061214447021,6.0048999786377,1.191575050354,19.498950958252,36.9300003051758,32.9620513916016,2.4505250453949,0.29658749699593,-2.64068746566772,-0.96167498826981,-1.27448749542236,-0.40397500991821,34.5949516296387,19.6020011901855,4.68600034713745,-7.588050365448,-6.89400053024292,2.27295017242432,-7.78084993362427,-7.96922492980957,2.48668742179871,0.55500000715256,-23.9260501861572,-34.183952331543,0.96593749523163,1.03193747997284,1.14578747749329,-0.79997497797012,-2.02056241035461,-1.98123753070831,-20.484001159668,-9.61305046081543,4.546950340271,-0.47805002331734,1.89000010490417,4.60395002365112,SHAKE
6.53592491149902,7.69491243362427,8.4365873336792,-11.7589502334595,-1.60695004463196,9.5580005645752,1.78639996051788,3.48383736610413,4.61614990234375,-1.20642495155334,-0.30291250348091,-0.20391249656677,26.052001953125,40.8610534667969,40.1130027770996,7.588050365448,2.8050000667572,-11.3820009231567,-2.83442497253418,-5.33211231231689,-7.19441223144531,21.1950016021729,17.1709499359131,13.4140510559082,-4.85952520370483,-0.99330002069473,4.05432510375977,1.57863748073578,0.06957499682903,-2.58458757400513,-32.4139518737793,-38.9860534667969,-25.0369510650635,13.9969511032104,14.1480007171631,-4.34100008010864,8.35999965667725,8.29619979858398,7.75761222839355,4.0900502204895,12.3480005264282,30.2959518432617,-0.10779999941587,1.62360000610352,-0.77302497625351,0.58987498283386,-1.64491248130798,-1.13726246356964,48.177001953125,30.4260005950928,15.6409511566162,6.20805025100708,-6.58500051498413,-2.26200008392334,-7.55521249771118,-8.29166221618652,-7.1284122467041,7.93395042419434,-5.3580002784729,-32.6580009460449,0.13584999740124,2.15462493896484,0.60197502374649,1.64559996128082,-0.49445000290871,-1.00856244564056,-37.336051940918,-28.195951461792,-0.73695003986359,8.11005020141602,1.33395004272461,-1.37595009803772,7.66301250457764,5.90273761749268,-1.558424949646,17.5350017547607,33.3760528564453,21.8010005950928,1.17026245594025,-0.65381246805191,-2.68001246452332,-1.16600000858307,-1.04252505302429,0.32601249217987,26.1240005493164,12.2280006408691,-3.19905018806458,-5.06205034255981,-1.50000011920929,3.88305020332336,SHAKE
-7.34978723526001,-7.8350248336792,-6.54733753204346,5.96805047988892,-7.4239501953125,-36.8539505004883,-0.25038748979568,1.38201248645782,1.41391253471375,1.41363751888275,-0.39338749647141,-1.13616251945496,-39.1489524841309,-28.9699516296387,-13.0309505462646,7.01505041122437,2.69205021858215,-0.61695003509521,8.02903747558594,7.83860015869141,5.88994979858398,8.95905017852783,20.9959506988525,40.5349502563477,2.22915005683899,3.23166251182556,1.40442502498627,0.37070000171661,-1.02657496929169,-2.11640000343323,46.4100036621094,36.6599998474121,23.8180503845215,1.67700004577637,-10.5220508575439,-8.69700050354004,-7.10393762588501,-8.31393718719482,-8.76204967498779,14.1610507965088,5.47695016860962,-16.0440006256104,-2.08944988250732,1.09903752803802,2.51116251945496,3.49414992332459,1.24973750114441,-0.87972497940063,-43.444953918457,-37.3000526428223,-23.9929504394531,11.5080003738403,5.47305011749268,0.29295000433922,8.61863708496094,8.28231239318848,7.56401252746582,5.55300045013428,13.0519504547119,28.5289516448975,0.26042500138283,2.06745004653931,2.52711248397827,0.93898749351501,-0.01127499993891,-1.01695001125336,41.9740524291992,41.1430511474609,32.1550521850586,5.98095035552979,-1.64400005340576,-8.90100002288818,-7.13267517089844,-8.15429973602295,-8.3096752166748,12.2040004730225,3.03600025177002,-18.75,1.44911253452301,2.7219500541687,1.72259998321533,-0.12099999934435,-1.47138750553131,-1.71833753585815,-32.423999786377,-21.0420017242432,-6.76995038986206,6.22695016860962,-1.40700006484985,-2.88705015182495,SHAKE
-7.13267517089844,-8.15429973602295,-8.3096752166748,12.2040004730225,3.03600025177002,-18.75,1.44911253452301,2.7219500541687,1.72259998321533,-0.12099999934435,-1.47138750553131,-1.71833753585815,-32.423999786377,-21.0420017242432,-6.76995038986206,6.22695016860962,-1.40700006484985,-2.88705015182495,7.83860015869141,6.92339992523193,4.14260005950928,11.6269502639771,24.0190505981445,32.859001159668,1.89708745479584,2.06208753585815,0.07301250100136,-0.75308752059937,-1.74597501754761,-1.60985004901886,42.211051940918,32.2219505310059,19.1880016326904,-2.50395011901855,-8.57295036315918,-6.71895027160645,-6.88586235046387,-7.90212488174438,-7.92659997940063,10.6110000610352,1.27095007896423,-19.723051071167,-1.55196249485016,1.3278374671936,2.27920007705688,2.32141256332397,0.38774999976158,-0.96387499570847,-35.5560035705566,-31.9090518951416,-21.9810009002686,11.6670007705688,5.0779504776001,-1.03305006027222,8.45679950714111,8.07908725738525,7.3309497833252,3.41700005531311,11.0950508117676,21.8680515289307,1.28411245346069,3.46472501754761,4.70236253738403,-0.0709500014782,-0.28063750267029,-1.60654997825623,36.5329513549805,38.1109504699707,30.0930023193359,6.86700010299683,-0.01800000108778,-8.88705062866211,-3.45056247711182,-4.49666261672974,-5.54812479019165,10.9300508499146,9.30105018615723,6.26205015182495,-4.08691263198853,-5.51292514801025,-4.47741270065308,0.51328748464584,2.16919994354248,2.75137495994568,-14.1690006256104,-28.6180515289307,-29.7100505828857,1.07805001735687,8.42400074005127,12.2149505615234,SHAKE
-6.91033744812012,-6.69955015182495,-2.30972504615784,-4.9699501991272,-28.5700511932373,-43.066951751709,-1.84786248207092,0.27211248874664,1.294837474823,1.38173747062683,-0.39132499694824,-1.54384994506836,-23.3490009307861,-11.776050567627,2.581050157547,9.7170000076294,5.42505025863647,2.04105019569397,6.41354990005493,5.08337497711182,1.48953747749329,16.7910003662109,31.4839515686035,32.5519523620605,1.45969998836517,0.24227499961853,-1.75738751888275,-1.01378750801086,-1.87577497959137,-1.21811246871948,35.9580001831055,25.4220008850098,12.1300506591797,-9.55695056915283,-7.12605047225952,1.20495009422302,-7.90212488174438,-8.11181259155273,-6.12919998168945,3.97695016860962,-11.3809509277344,-34.6890029907227,0.02516249939799,0.65738749504089,0.14011250436306,1.13905000686646,0.42391249537468,-0.12416250258684,-32.7040519714355,-23.8540515899658,-10.5000009536743,6.23505020141602,0.8770500421524,-0.98295003175735,7.47037506103516,6.86056232452393,5.03016233444214,9.1360502243042,19.3960514068604,31.980001449585,3.1081874370575,2.69843745231628,0.21147499978542,-0.53391247987747,-1.07868754863739,-0.94462502002716,41.776050567627,34.4490013122559,22.0050010681152,-2.49900007247925,-10.7620506286621,-6.61605024337769,-6.23562479019165,-7.30826234817505,-6.99861240386963,10.0129508972168,-1.357950091362,-21.9600009918213,0.26565000414848,1.64271247386932,1.29579997062683,1.65206253528595,0.32491248846054,-0.24763749539852,-32.4910507202148,-26.4670505523682,-16.1059513092041,5.89005041122437,-0.64305001497269,-4.9680004119873,SHAKE
6.01452493667603,4.48414993286133,1.0063624382019,18.07200050354,30.9480018615723,27.0580520629883,2.94744992256165,0.45828750729561,-1.90849995613098,-2.12382507324219,-1.37252497673035,-0.00068749999627,35.1559524536133,24.4909515380859,10.3579502105713,-7.49700021743774,-4.0489501953125,4.00695037841797,-7.23593759536743,-7.36147499084473,-5.74502515792847,3.03795003890991,-10.2070503234863,-30.9940509796143,2.15888738632202,1.08088743686676,-0.88261246681213,0.66976249217987,0.2056999951601,0.05678749829531,-34.3830032348633,-25.9789505004883,-13.6609506607056,-3.59805011749268,-7.47300052642822,-3.54600024223328,7.46075010299683,7.14890003204346,6.52960014343262,8.64495086669922,14.7000007629395,33.4480514526367,2.70379996299744,3.75209999084473,1.71833753585815,-0.87339997291565,-1.42243754863739,-1.38737499713898,46.242000579834,40.5330009460449,30.2770519256592,5.11395025253296,-9.1429500579834,-9.31305027008057,-5.66087484359741,-7.25188732147217,-7.86596250534058,15.6310510635376,8.70000076293945,-2.25795006752014,-0.29837501049042,1.05421245098114,0.93610000610352,1.43274998664856,1.41047501564026,0.75803750753403,-28.5340518951416,-35.2420501708984,-30.502950668335,11.0100002288818,1.1620500087738,-3.64395022392273,6.57744979858398,7.75238752365112,7.07877492904663,-12.3679504394531,5.72595024108887,10.3579502105713,-1.72864997386932,0.50943750143051,3.44767498970032,-0.34443750977516,-0.51892501115799,-1.0456874370575,21.5190010070801,39.1360511779785,42.669002532959,10.0590000152588,11.5780506134033,-1.93605005741119,SHAKE
-7.11136245727539,-3.83899998664856,1.90024995803833,-20.2620010375977,-40.0729522705078,-36.586051940918,-0.14300000667572,-1.12419998645782,-1.71159994602203,0.34732499718666,-0.07411249727011,-0.35296249389648,-19.9669513702393,-7.64505052566528,4.32705020904541,-3.37305021286011,-0.42705002427101,2.28795003890991,6.83292484283447,5.35370016098022,1.75450003147125,20.1840000152588,34.7050514221191,29.041051864624,3.77863740921021,1.552374958992,-0.90392500162125,-1.95772504806519,-2.48462510108948,-2.05988740921021,37.021053314209,28.3399505615234,14.8219509124756,-13.747950553894,-9.95505046844482,-2.18295001983643,-7.29231262207031,-8.08733749389648,-7.3594126701355,8.94705009460449,-3.65505027770996,-26.7349510192871,0.04853750020266,1.30336248874664,1.08088743686676,1.39122498035431,0.64638751745224,0.08016250282526,-37.503002166748,-30.7690505981445,-18.3979511260986,8.91000080108643,1.96695005893707,-0.06105000153184,8.0768871307373,7.37027502059937,6.56150007247925,7.69395017623901,14.7499504089355,29.2900505065918,1.27985000610352,3.5147750377655,2.24936246871948,0.15468749403954,-1.29799997806549,-2.06098747253418,43.0260009765625,42.3360023498535,33.8479499816895,3.65295028686523,-11.0320501327515,-15.4729509353638,-5.21399974822998,-7.0486626625061,-7.75321245193481,17.9380512237549,9.46905040740967,-1.61400008201599,-1.62002503871918,0.22206249833107,1.1394624710083,1.36248743534088,1.18593752384186,0.84961247444153,-23.1499519348145,-31.1490020751953,-29.367000579834,12.247950553894,7.44195032119751,0.70500004291534,SHAKE
7.41400003433228,3.95106244087219,-0.63566249608994,33.0979499816895,40.7700004577637,27.8340015411377,1.00429999828339,-2.10746240615845,-3.77300000190735,-1.43206250667572,-0.68502497673035,0.43669998645782,31.4119510650635,17.871000289917,3.4740002155304,-14.9149503707886,-3.65595006942749,5.92095041275024,-7.98723745346069,-7.25834989547729,-5.51512479782104,-0.38100001215935,-10.5640506744385,-26.1010513305664,2.70806241035461,1.08404994010925,-1.00388753414154,0.91245001554489,0.01842499896884,-0.93830001354218,-34.3489532470703,-27.1069507598877,-15.7639503479004,-6.70695018768311,-11.0110502243042,-3.4830002784729,7.48632478713989,7.30757474899292,7.29684972763062,7.81395053863525,11.2630500793457,27.4440021514893,1.53106248378754,3.40834999084473,2.09398746490479,-0.99151247739792,-1.5246000289917,-1.47042500972748,47.6359519958496,44.1439514160156,33.0270004272461,9.12495040893555,-4.88400030136108,-9.25305080413818,-5.44169998168945,-7.18066263198853,-7.7063250541687,15.5760011672974,9.02595043182373,0.86100006103516,-1.20284998416901,1.23199999332428,2.22172498703003,1.42532503604889,1.60943746566772,1.43591248989105,-19.7680511474609,-29.9470520019531,-31.7599506378174,15.4630508422852,8.20095062255859,-4.37895011901855,3.52316236495972,6.98293733596802,7.48206233978271,-29.0470504760742,-6.52200031280518,7.3759503364563,-0.64212501049042,1.7331874370575,3.9308500289917,-0.42322498559952,-0.39132499694824,-0.91382497549057,25.3270511627197,44.6110534667969,46.3120536804199,11.5540504455566,8.13899993896484,-4.86300039291382,SHAKE
6.98293733596802,7.48206233978271,7.23937511444092,-6.52200031280518,7.3759503364563,20.2390518188477,1.7331874370575,3.9308500289917,3.51683759689331,-0.39132499694824,-0.91382497549057,-1.46286249160767,44.6110534667969,46.3120536804199,35.8789520263672,8.13899993896484,-4.86300039291382,-14.2420511245728,-4.87657499313354,-6.61017513275146,-7.67552518844604,16.2400512695313,12.8749504089355,3.74295020103455,-3.31966257095337,0.34443750977516,1.1756249666214,1.31353747844696,1.49874997138977,-0.21243749558926,-24.4620018005371,-36.8260536193848,-26.8410015106201,12.5340003967285,1.91205012798309,-3.12900018692017,8.69838714599609,8.30472469329834,6.95846223831177,4.76295042037964,11.3749504089355,35.0359535217285,0.66907501220703,2.34093737602234,1.5916999578476,-0.03684999793768,-0.92441248893738,-1.45969998836517,47.743953704834,41.97705078125,30.6150016784668,4.50795030593872,-4.84095001220703,-7.83300018310547,-5.62691259384155,-7.10393762588501,-7.59989976882935,15.7300510406494,9.93105030059814,2.04900002479553,-1.62112498283386,0.5348749756813,1.96308743953705,1.95525002479553,1.815962433815,1.35932505130768,-18.0409507751465,-29.6170520782471,-33.3000030517578,11.8150501251221,7.86795043945313,-3.81405019760132,3.41041254997253,7.80766248703003,7.16058731079102,-31.0990524291992,8.33595085144043,10.4100008010864,-1.30611252784729,0.68282496929169,3.3987250328064,-0.89361250400543,-0.97226250171661,-1.13836252689362,21.7819519042969,39.7830009460449,36.9019508361816,9.84900093078613,12.0139503479004,-9.44204998016357,SHAKE
7.16594982147217,6.76266241073608,5.97189998626709,-0.17700000107288,8.43195056915283,7.61295032501221,-0.23553749918938,2.74202489852905,3.15603756904602,-0.55728751420975,-1.52033746242523,-1.81197500228882,42.4890022277832,43.8900032043457,36.8179512023926,14.5170011520386,3.82500028610229,-5.41095018386841,-6.16316223144531,-7.18066263198853,-7.32324981689453,10.9399509429932,4.83195018768311,-3.42705011367798,0.16348749399185,0.87229996919632,-0.43669998645782,1.25936245918274,1.27957499027252,0.17806249856949,-29.3749523162842,-32.170051574707,-20.131950378418,10.1410503387451,-6.98505020141602,-4.65495014190674,7.69917488098145,7.24157476425171,5.99637508392334,6.29100036621094,8.00100040435791,32.5000534057617,2.22172498703003,2.80376243591309,-0.5878124833107,-1.02657496929169,-1.02767503261566,-0.88082498311996,46.0170021057129,40.2019500732422,15.2560510635376,3.05205011367798,-6.52005052566528,-1.59105002880096,-6.81023740768433,-7.28172492980957,-6.863450050354,7.09995031356812,-0.58200001716614,-15.9550504684448,0.36148750782013,-0.30579999089241,-0.63043749332428,1.11773753166199,-0.08579999953508,-1.1255749464035,-31.9950008392334,-21.2479515075684,-8.86605072021484,-4.13505029678345,-2.80800008773804,0.79305005073547,7.33837509155273,5.41956233978271,1.51291251182556,20.2729511260986,33.5080528259277,28.6720504760742,2.61112499237061,-1.45406246185303,-2.82906246185303,-1.13093745708466,-0.8094624876976,0.14079999923706,37.795051574707,13.7490005493164,0.75600004196167,-9.59295082092285,-0.99000006914139,5.48700046539307,SHAKE
6.18475008010864,7.53417491912842,7.33837509155273,-13.5940504074097,3.64395022392273,20.2729511260986,0.7871875166893,2.65374994277954,2.61112499237061,-0.99577498435974,-1.191575050354,-1.13093745708466,40.5229530334473,44.452953338623,37.795051574707,7.53495025634766,-0.64800000190735,-9.59295082092285,-5.71312475204468,-6.77613735198975,-6.61237478256226,11.6389503479004,5.75700044631958,-16.8420009613037,0.41896250844002,1.025475025177,0.58918750286102,1.3860000371933,0.89746248722076,-0.03904999792576,-34.8160514831543,-31.4680519104004,-20.1349506378174,5.38200044631958,-1.11705005168915,-2.94000005722046,7.57679986953735,6.6923999786377,5.97726249694824,8.5489501953125,13.8469505310059,36.375,1.16283750534058,1.15747499465942,-0.73039996623993,0.169537499547,-1.5246000289917,-1.26610004901886,48.0649528503418,27.4170017242432,13.6290006637573,1.01295006275177,-6.53205013275146,-1.19595003128052,-7.59989976882935,-7.82237482070923,-3.84862494468689,7.20795011520386,-1.92795014381409,-41.3790016174316,1.38737499713898,1.48211252689362,0.9286749958992,1.07951247692108,0.02158750034869,-0.73067498207092,-32.2819519042969,-19.7779502868652,-6.79200029373169,1.05195009708405,-2.73105001449585,-2.40300011634827,6.9850001335144,4.93858766555786,1.37032496929169,20.3929500579834,30.5500507354736,25.2589511871338,1.59280002117157,-0.36643749475479,-2.11378741264343,-1.56722497940063,-1.12131249904633,-0.12306249886751,26.9820003509521,14.5969505310059,1.31895005702972,-5.79195022583008,-1.87200009822845,3.81300020217896,SHAKE
2.60163760185242,7.52675008773804,8.14604949951172,-36.529052734375,-8.01600074768066,7.25595045089722,-1.04431247711182,-0.47286251187325,1.2809499502182,0.08662500232458,0.49623748660088,-0.12099999934435,22.1359519958496,39.4159507751465,43.2559509277344,2.85495018959045,5.46300029754639,1.300950050354,-3.76873755455017,-5.4661750793457,-6.51433753967285,14.8699502944946,11.3059501647949,6.20895051956177,-2.62473750114441,-1.69991254806519,0.59345000982285,0.78581249713898,1.2838374376297,0.57722496986389,-12.3130502700806,-27.0630016326904,-30.7300510406494,9.3120002746582,10.57200050354,0.50295001268387,7.17337512969971,7.17021226882935,6.66682481765747,-9.02400016784668,11.7709503173828,21.9300003051758,-0.71445000171661,1.38531243801117,0.34127500653267,-0.40933749079704,-0.81908750534058,-0.55838751792908,43.6339530944824,35.6059532165527,23.238000869751,8.94600009918213,-1.1340000629425,0.26100000739098,-6.29942512512207,-6.92945003509521,-6.93481254577637,9.22695064544678,3.1840500831604,-7.13505029678345,0.88082498311996,1.81417500972748,1.41184997558594,1.53807497024536,0.95810002088547,0.29933750629425,-29.3650512695313,-32.7779998779297,-26.5170021057129,6.64905023574829,-1.74195003509521,-3.49305009841919,7.70550012588501,7.97046232223511,6.85519981384277,-3.64305019378662,10.3290004730225,12.4870510101318,-1.18483746051788,0.87119996547699,3.14435005187988,-0.79351252317429,-0.74772500991821,-1.17026245594025,27.1129512786865,41.7829513549805,34.0300521850586,10.0519504547119,11.3959503173828,-8.34794998168945,SHAKE
-6.97949981689453,1.3501124382019,8.03866291046143,-17.9170513153076,-37.0080032348633,7.17900037765503,-1.18057501316071,-0.11632499843836,1.56186246871948,-0.39022499322891,-0.94036251306534,-0.79887497425079,5.28705024719238,41.6580009460449,37.1410522460938,-0.20205001533031,8.57895088195801,-7.38495016098022,-4.77124977111816,-7.39873743057251,-7.45731258392334,16.6399517059326,4.19805002212524,-4.24905014038086,-0.1717374920845,0.58066248893738,-0.86446249485016,2.13936257362366,1.91482496261597,-0.11879999935627,-29.7720012664795,-36.8779525756836,-20.8240509033203,5.45100021362305,-4.02705001831055,-3.40905022621155,8.48031234741211,7.64912509918213,7.51712512969971,10.0650005340576,12.0390005111694,24.8070011138916,1.10756254196167,3.15603756904602,3.08687496185303,-1.42890000343323,-1.37995004653931,-1.07016253471375,44.191951751709,45.9210014343262,37.7779502868652,10.8349504470825,1.93995010852814,-7.38495016098022,-4.36466264724731,-6.33668756484985,-7.46679973602295,17.695951461792,12.5730009078979,5.31105041503906,-1.78076243400574,-0.39833748340607,0.90846252441406,1.34653747081757,1.41789996623993,1.35080003738403,-14.8780508041382,-28.5679512023926,-35.659049987793,9.98295021057129,8.70600032806396,-0.22605000436306,2.03967499732971,6.90098762512207,8.00882530212402,-35.7480010986328,-10.1550006866455,8.19495010375977,-1.78076243400574,-2.33200001716614,-1.50727498531342,-0.86913746595383,-0.95851248502731,-0.776462495327,2.97105002403259,17.7340507507324,37.7179527282715,-1.28700006008148,5.84700012207031,13.9900503158569,SHAKE
5.23971223831177,8.21424961090088,6.87444972991943,-23.0160007476807,3.35700011253357,14.3260507583618,0.10821250081062,1.86518752574921,1.86202502250671,-1.86202502250671,-0.83613747358322,-0.1380500048399,40.0420532226563,48.7360534667969,40.0660514831543,13.0030508041382,4.04595041275024,-5.03295040130615,-6.4974250793457,-7.51052474975586,-7.53499984741211,11.9100008010864,5.01000022888184,-0.5100000500679,0.92441248893738,-0.19717499613762,-1.49985003471375,0.81551247835159,1.18799996376038,0.65587496757507,-34.6840515136719,-36.3820533752441,-29.3119506835938,-1.24605000019073,-7.03305053710938,-3.34200024604797,8.76865005493164,7.85454988479614,7.39694976806641,14.5200004577637,15.5910005569458,33.5959510803223,1.84813749790192,2.910325050354,1.5576000213623,-0.97982501983643,-0.68928748369217,-0.690249979496,49.3770027160645,45.2290534973145,33.4650001525879,5.62905025482178,-6.94905042648315,-11.3389501571655,-5.83756256103516,-7.52537488937378,-8.10865020751953,16.2660007476807,9.2920503616333,0.67200005054474,-1.02726244926453,0.89045000076294,-0.02804999984801,0.8262374997139,1.48280000686646,0.83572500944138,-24.0670509338379,-36.892951965332,-26.7709522247314,14.0830507278442,-4.73805046081543,-5.27700042724609,8.09930038452148,7.21063756942749,5.4568247795105,14.1780004501343,20.9869518280029,37.7760009765625,1.92266249656677,-0.76120001077652,-2.47678756713867,-1.535325050354,-0.46997499465942,0.4643374979496,49.219051361084,22.9600505828857,6.8299503326416,-1.32300007343292,-5.1259503364563,2.83395004272461,SHAKE
-2.05108737945557,4.11592483520508,8.13010025024414,-43.2199516296387,-31.291051864624,10.3240509033203,-1.28273749351501,-1.94576251506805,1.19693744182587,-1.76508748531342,-1.55017495155334,-1.26610004901886,4.07805013656616,23.5180511474609,47.5159530639649,-1.73505008220673,8.74695014953613,5.7940502166748,-4.60624980926514,-6.56012487411499,-7.33809995651245,18.4170017242432,11.3230504989624,-2.2540500164032,0.59771251678467,1.15005004405975,0.44343748688698,1.21783745288849,1.71159994602203,1.18057501316071,-27.1450519561768,-35.9749526977539,-34.2289505004883,7.26000022888184,-3.53595018386841,-9.08295059204102,8.4441499710083,7.44053745269775,6.93935012817383,8.04900074005127,12.6709508895874,17.0490016937256,2.19092488288879,1.46726250648499,-0.97404998540878,-0.21243749558926,-1.02341246604919,-0.54449999332428,51.6720008850098,23.6479511260986,8.57295036315918,5.36295032501221,-9.68895053863525,-3.69900012016296,-7.75211238861084,-7.45841264724732,-2.32993745803833,2.5860002040863,-8.09700012207031,-38.3970031738281,1.52143752574921,0.11879999935627,-0.97831249237061,0.56017500162125,-0.05183750018477,-0.21353749930859,-29.9809513092041,-19.2769508361816,-6.27705049514771,-5.2630500793457,-4.11794996261597,1.56405007839203,7.05429983139038,5.50687503814697,-2.19161248207092,20.1199512481689,35.4889526367188,21.6499519348145,0.63813751935959,-3.86443758010864,-3.28239989280701,-1.63006246089935,0.27390000224113,0.62933748960495,24.8310012817383,-5.14200019836426,-18.7459506988525,-12.7759504318237,6.45300006866455,15.2659511566162,SHAKE
-5.36401224136353,-6.96024990081787,-7.75211238861084,15.4489507675171,10.5709505081177,2.5860002040863,-2.47994995117188,1.35657501220703,1.52143752574921,0.87835001945496,0.94435000419617,0.56017500162125,-17.2750511169434,-33.75,-29.9809513092041,12.4710006713867,3.63105010986328,-5.2630500793457,7.49911260604858,8.52073764801025,7.05429983139038,-8.7940502166748,10.4149503707886,20.1199512481689,0.80423748493195,3.77863740921021,0.63813751935959,0.08758749812841,-2.07913756370544,-1.63006246089935,42.928050994873,36.9760513305664,24.8310012817383,10.2100505828857,-16.8499507904053,-12.7759504318237,-7.62327480316162,-7.550950050354,-6.46538734436035,3.8620502948761,-5.62800025939941,-23.2840518951416,0.75528746843338,0.60307496786118,-0.71761250495911,0.94641250371933,1.01461243629456,0.5292375087738,-39.3760528564453,-32.0239524841309,-17.6290512084961,4.64700031280518,-4.46805000305176,-4.69305038452148,7.21173763275146,6.94141244888306,0.52318751811981,14.3140506744385,25.6789512634277,29.8459510803223,1.37775003910065,-1.99471247196198,-2.27136254310608,-1.70348751544952,-0.30511251091957,0.6239749789238,35.9149513244629,7.69905042648315,-4.35105037689209,-5.9719500541687,6.52200031280518,13.3980007171631,-6.64317512512207,-5.73223733901978,-3.42498755455017,-5.63505029678345,-16.4509506225586,-36.1000518798828,-2.09041237831116,-2.3703625202179,-1.08377504348755,1.56585001945496,0.37606251239777,-0.49555000662804,-18.5830516815186,-4.89495038986206,8.48505020141602,-3.41595005989075,3.74895024299622,7.26000022888184,SHAKE
3.88822507858276,6.44875001907349,5.98785018920898,-25.3870506286621,8.54699993133545,10.5160503387451,1.33842504024506,2.1377124786377,0.88082498311996,-1.2447874546051,-2.28978753089905,-1.9514000415802,45.3799514770508,40.3219528198242,31.1899509429932,0.45300000905991,-6.76005029678345,-2.4060001373291,-4.8819375038147,-6.36322498321533,-6.74959993362427,12.8029508590698,5.3449501991272,-3.32895016670227,-0.21422499418259,-0.82403749227524,-1.53381252288818,1.14647495746613,2.12987494468689,2.07762503623962,-31.0660514831543,-31.2259521484375,-21.9090003967285,6.24705028533936,-0.51600003242493,-2.46795010566711,7.18836259841919,6.80941247940063,5.91236257553101,4.07100009918213,9.17700004577637,33.7399520874023,2.40583753585815,1.97381246089935,-0.62617498636246,-1.90987503528595,-1.32137501239777,-0.23594999313354,47.2170028686523,39.3250503540039,13.1359510421753,1.6270500421524,-5.51895046234131,7.41795015335083,-6.48573732376099,-6.31963729858398,-5.5204873085022,1.21605002880096,-5.70195007324219,-14.7799510955811,-0.262212485075,-3.5069375038147,-2.89602494239807,1.24547493457794,2.09893751144409,0.44838750362396,-28.6350021362305,-22.6710014343262,-10.0969505310059,-4.57800006866455,-2.22405004501343,0.93195003271103,7.10421228408813,5.79521226882935,2.12162494659424,11.2129507064819,33.7639503479004,31.9870510101318,2.33021259307861,0.40191251039505,-0.58561247587204,-0.54766249656677,0.32601249217987,-0.00811249949038,37.9600524902344,25.348051071167,-1.84605014324188,-4.82895040512085,-2.28299999237061,7.26705026626587,SHAKE
-6.69638729095459,-6.19093751907349,-1.28589999675751,-1.26900005340576,-8.93295001983643,-38.3230514526367,-1.99787497520447,-2.20426249504089,-0.43559998273849,1.75628745555878,-0.32202500104904,-1.33416247367859,-25.5979518890381,-0.20100000500679,36.2929534912109,-5.01405000686646,2.2129499912262,9.75,3.10172510147095,-3.49208736419678,-6.55490016937256,33.9649505615234,16.4099998474121,4.49700021743774,-0.59413748979568,1.12351250648499,-2.4033625125885,0.12375000119209,0.19194999337196,1.73497498035431,-7.91805028915405,-29.9899520874023,-27.5040016174316,10.3879508972168,0.60405004024506,-3.72495007514954,8.30252456665039,7.51506233215332,6.54554986953735,1.00005006790161,17.8350009918213,32.9670028686523,2.44516253471375,2.35152506828308,-1.8350750207901,-1.74707496166229,-0.96799999475479,0.49623748660088,49.6480522155762,44.7600021362305,14.401050567627,3.22395014762878,-7.52595043182373,0.09600000083447,-7.61158752441406,-7.55947494506836,-6.4377498626709,4.99995040893555,-3.64305019378662,-16.7220001220703,2.67726254463196,0.61902499198914,-2.16603755950928,0.04936249926686,1.15719997882843,1.1944625377655,-34.4710502624512,-33.9679527282715,-25.1500511169434,-0.99300003051758,-10.6609506607056,-3.35895013809204,8.49942493438721,6.5668625831604,4.02874994277954,9.51900005340576,27.6660003662109,38.3170509338379,0.2050125002861,-0.77082496881485,0.31459999084473,-0.4657124876976,0.21958750486374,-0.06558749824762,34.2379531860352,3.93195009231567,-7.7839503288269,-1.57905006408691,11.0410509109497,14.0850009918213,SHAKE
-6.4377498626709,-3.60167503356934,1.39906251430511,-16.7220001220703,-33.4270515441895,-38.6220016479492,-2.16603755950928,-2.61511254310608,-0.8038250207901,1.1944625377655,0.39737498760223,-1.36606252193451,-25.1500511169434,-8.01600074768066,31.6810512542725,-3.35895013809204,4.7590503692627,6.1080002784729,4.02874994277954,-3.55162501335144,-7.24336242675781,38.3170509338379,21.2809505462646,5.93400049209595,0.31459999084473,2.14293742179871,-0.06201250106096,-0.06558749824762,0.07479999959469,1.35080003738403,-7.7839503288269,-32.026050567627,-35.3209533691406,14.0850009918213,-0.89895004034042,-5.69205045700073,4.9576997756958,7.99067497253418,6.82219982147217,-26.6800518035889,12.9799509048462,31.9890022277832,1.03400003910065,1.99718749523163,-0.82293748855591,-0.87229996919632,-0.87546247243881,-0.59661251306534,47.742000579834,43.5340538024902,18.106050491333,6.30600023269653,-4.73805046081543,0.69495004415512,-7.03271245956421,-6.83897495269775,-0.8953999876976,8.02005004882813,-11.9440507888794,-40.4299507141113,-0.94861251115799,-0.96139997243881,-0.32284998893738,1.17314994335175,-0.49128749966621,-1.40222501754761,-24.9559516906738,1.43595004081726,35.8120498657227,-1.66995012760162,-0.35805001854897,6.38100051879883,2.51748752593994,-4.21465015411377,-6.0717248916626,36.8819999694824,19.0489501953125,13.3180503845215,-0.64418751001358,-0.23870000243187,0.51796251535416,-0.07631249725819,-0.12842500209808,1.35080003738403,0.72300004959106,-12.9880504608154,-36.4999504089355,7.17795038223267,11.9920501708984,-0.15900000929832,SHAKE
-0.38458749651909,-5.24590015411377,-6.57607507705688,25.9420509338379,12.901050567627,6.47295045852661,-2.53742504119873,-1.42312502861023,0.65312498807907,0.88577497005463,1.27531254291534,1.13052499294281,-9.01200008392334,-19.1410503387451,-20.998950958252,10.9189500808716,14.4450006484985,9.55905055999756,3.28583741188049,4.41608762741089,5.16738748550415,-13.8169507980347,-6.17205047607422,-0.60600000619888,-2.32773756980896,-1.47427499294281,3.33808755874634,0.54202497005463,-0.36574998497963,-1.98123753070831,8.27895069122314,21.7219505310059,38.1640510559082,3.85905027389526,8.06205081939697,-1.63005006313324,-4.33922481536865,-5.99830007553101,-7.5370626449585,14.7960004806519,12.235050201416,-2.14305019378662,1.18305003643036,1.44168746471405,0.6212249994278,1.0422500371933,0.53996247053146,0.43986248970032,-39.870002746582,-32.7160530090332,-18.844051361084,4.93905019760132,-0.29805001616478,-1.52700006961823,7.74702501296997,6.86798763275146,-0.16211250424385,16.5319499969482,30.271951675415,26.9530506134033,1.17026245594025,-1.11567497253418,-2.88227486610413,-1.46286249160767,-1.08515000343323,-0.25286251306534,31.851001739502,19.7580013275146,6.58605051040649,-11.6430006027222,-4.9350004196167,2.44605016708374,-7.8350248336792,-6.01961231231689,6.60302495956421,-10.6309509277344,-37.8289527893066,-19.9530010223389,1.04678750038147,0.51150000095367,0.19978749752045,-0.1199000030756,-0.6318125128746,-0.66907501220703,-12.3169507980347,1.02195000648499,16.7479515075684,-1.72995007038116,-0.98295003175735,2.49600005149841,SHAKE
-6.57084989547729,-7.8350248336792,-6.01961231231689,10.0750503540039,-10.6309509277344,-37.8289527893066,1.31284999847412,1.04678750038147,0.51150000095367,0.31116250157356,-0.1199000030756,-0.6318125128746,-26.1750011444092,-12.3169507980347,1.02195000648499,0.73995006084442,-1.72995007038116,-0.98295003175735,7.44796228408813,6.11242485046387,2.400475025177,19.6530017852783,35.0020523071289,36.4630508422851,2.58568739891052,0.48276248574257,-1.95634996891022,-1.57354998588562,-1.55869996547699,-1.03826248645782,39.2610015869141,28.1100006103516,14.3599510192871,-13.3770008087158,-11.7460508346558,-3.12900018692017,-7.4168872833252,-8.11387538909912,-6.60274982452393,7.31805038452148,-7.84095048904419,-41.568000793457,-0.38238748908043,4.07550001144409,2.54636240005493,1.05599999427795,-1.39273750782013,-1.1617374420166,-42.013053894043,-10.9330501556396,1.4479501247406,18.9190502166748,-4.62600040435791,-6.54705047607422,7.57679986953735,5.09616231918335,1.07662498950958,27.0559520721436,37.3999519348145,31.3090515136719,-0.22591249644756,-1.53807497024536,-2.79386258125305,-1.17026245594025,-0.90103751420975,0.7400249838829,25.5799503326416,14.1730508804321,-6.65295028686523,-4.65495014190674,0.06300000101328,12.646050453186,-6.18131256103516,-4.44455003738403,-1.0422500371933,-11.6250009536743,-24.8170509338379,-27.4489517211914,1.43742501735687,-0.2759625017643,-0.48344999551773,0.16321249306202,0.58134996891022,-0.05389999970794,-14.1259508132935,-1.73595011234283,5.40195035934448,1.20495009422302,-0.07500000298023,2.66100001335144,SHAKE
-5.84388732910156,-5.08626270294189,-1.82228744029999,-7.96605014801025,-20.9659519195557,-37.2900009155273,-2.03087496757507,-1.15293753147125,-0.7899374961853,-0.18590000271797,-0.06242499873042,-0.64459997415543,-25.8319511413574,-20.6209506988525,-6.10200023651123,7.49400043487549,5.48295021057129,5.86305046081543,8.66538715362549,6.20069980621338,2.77502489089966,25.3290004730225,34.9980010986328,38.6520004272461,2.09302496910095,-0.27912500500679,-2.53948760032654,0.64102500677109,0.04399999976158,-0.61159998178482,42.1420516967773,30.2220020294189,14.367000579834,-15.808051109314,-14.296950340271,-5.36100006103516,-8.95565032958984,-10.1699123382568,-8.68642520904541,14.9130010604858,-2.46705007553101,-33.0870018005371,-0.3089624941349,2.60163760185242,2.8804874420166,1.8243499994278,-0.87656247615814,-1.69592499732971,-38.4090003967285,-29.3200511932373,-16.1490001678467,6.29400014877319,-1.44000005722046,-7.00605010986328,7.25532484054565,4.91301250457764,1.6799750328064,21.5230503082275,29.2830009460449,32.6599502563477,-1.22526252269745,-2.8524374961853,-3.4036750793457,0.18975000083447,0.95287501811981,1.96803748607636,26.9530506134033,9.06900024414062,-10.3150501251221,-2.6620500087738,3.02805018424988,10.4020500183105,-4.81593751907349,7.23511266708374,9.16355037689209,-38.7580528259277,-16.7650508880615,8.17605018615723,-0.23443749547005,1.84387493133545,3.20828747749329,-1.18305003643036,-0.60829997062683,-0.79145002365112,9.6540002822876,40.480052947998,43.0429534912109,5.07105016708374,4.6279501914978,-4.0339503288269,SHAKE
4.91301250457764,1.6799750328064,-5.39907503128052,29.2830009460449,32.6599502563477,20.3179512023926,-2.8524374961853,-3.4036750793457,0.55728751420975,0.95287501811981,1.96803748607636,2.31714987754822,9.06900024414062,-10.3150501251221,-39.1369514465332,3.02805018424988,10.4020500183105,6.13905048370361,7.23511266708374,9.16355037689209,7.91408729553223,-16.7650508880615,8.17605018615723,16.2450008392334,1.84387493133545,3.20828747749329,0.46901249885559,-0.60829997062683,-0.79145002365112,-1.47564995288849,40.480052947998,43.0429534912109,21.2290515899658,4.6279501914978,-4.0339503288269,-8.69295024871826,-6.61980009078979,-7.728600025177,-7.66906261444092,11.8639507293701,2.07600021362305,-20.7430515289307,-1.55402493476868,0.62012499570847,1.00856244564056,1.9765625,0.79420000314713,-0.10504999756813,-38.076000213623,-32.8690528869629,-19.0710010528564,9.90405082702637,2.84100008010864,-1.57500004768372,8.45047473907471,7.2054123878479,5.59308767318726,10.4530506134033,17.7289505004883,28.8379516601563,0.25822499394417,1.50232493877411,0.23911249637604,0.04716249927878,-1.23199999332428,-1.51084995269775,43.1190032958984,40.4610023498535,29.5489521026611,3.22905015945435,-4.67400026321411,-5.76300048828125,-6.09303760528564,-7.38814973831177,-7.4721622467041,14.053050994873,4.77495002746582,-7.15395021438599,1.13520002365112,1.70128750801086,-0.43133750557899,0.72187501192093,0.43450000882149,0.60802501440048,-29.2960510253906,-26.1820507049561,-14.4900007247925,13.9390506744385,-5.53605031967163,-3.30405020713806,SHAKE
-7.82237482070923,-6.56232500076294,-1.6797000169754,-6.68895053863525,-30.0430507659912,-42.7050018310547,1.83644998073578,1.74927496910095,0.89787501096725,-0.12306249886751,-0.39448750019073,-0.25506249070168,-24.0649509429932,-9.65895080566406,3.78300023078919,3.70305013656616,0.07200000435114,-1.00499999523163,6.20179986953735,4.91947507858276,1.94397497177124,15.1570510864258,26.6320514678955,28.1380519866943,1.94287502765656,0.6403374671936,-1.63074994087219,-1.62580001354218,-1.80454993247986,-0.87656247615814,35.0790023803711,25.9180507659912,14.1630010604858,-7.85700035095215,-7.28205013275146,-1.30605006217957,-6.57607507705688,-7.05718755722046,-5.91098737716675,6.02700042724609,-7.32600021362305,-30.5170516967773,-2.67148756980896,-0.12801249325275,1.75670003890991,2.26283740997314,-0.43601250648499,-3.42429995536804,-36.6409530639649,-25.9039516448975,4.35300016403198,5.90595006942749,2.3860502243042,4.55805015563965,7.33727502822876,4.58521270751953,0.37950000166893,25.9039516448975,36.0919532775879,28.0860004425049,1.39906251430511,-0.55261248350143,-2.15214991569519,-0.9787250161171,-0.93403750658035,0.169537499547,33.7020034790039,20.4100513458252,5.1870002746582,-8.26905059814453,-1.74900007247925,6.09795045852661,-6.90277481079102,-3.36435008049011,2.73253750801086,-21.6250514984131,-41.367000579834,-32.7730522155762,1.17246246337891,0.64776247739792,0.52854996919632,0.1876875013113,-0.53707498311996,-0.78072500228882,-14.8459510803223,-0.64200001955032,13.2319507598877,-1.33005011081696,-0.10605000704527,3.39900016784668,SHAKE
-1.36262500286102,-3.57293748855591,-5.30653762817383,18.646951675415,15.0019502639771,9.64905071258545,-2.41394996643066,-0.91341251134872,0.22742499411106,1.43701243400574,1.5274875164032,1.31780004501343,-15.7590007781982,-29.3790016174316,-30.9190521240234,12.9330005645752,10.0620002746582,3.65805006027222,6.68497514724731,6.85946226119995,6.69666242599487,-2.65800023078919,6.19695043563843,16.113000869751,1.53958749771118,1.69812500476837,0.35928750038147,-0.76161247491837,-1.36826252937317,-1.1978999376297,39.412052154541,36.577953338623,27.8149509429932,-1.6800000667572,-6.0600004196167,-3.61500024795532,-4.92868757247925,-6.38673734664917,-5.95361232757568,11.1070508956909,-2.66100001335144,-19.4350509643555,-1.18579995632172,-0.3121249973774,0.71582502126694,1.88086247444153,-0.37001249194145,-2.00034999847412,-30.9870014190674,-14.8900508880615,-5.55105018615723,2.79105019569397,2.7240002155304,3.00600004196167,6.96162509918213,6.74244976043701,0.72751247882843,8.5420503616333,23.3029518127441,25.3120517730713,2.03018760681152,0.01567500084639,-2.07130002975464,-1.41501247882843,-1.16063749790192,-0.15922500193119,32.5330505371094,22.1100006103516,8.88705062866211,-7.79700040817261,-4.71405029296875,2.82405018806458,-7.01992511749268,-7.07946252822876,-4.84673738479614,2.67405009269714,-13.2180004119873,-33.8730010986328,1.26499998569489,1.3278374671936,0.64569997787476,-0.0527999997139,-1.11814999580383,-1.29057502746582,-18.4409999847412,-7.39995050430298,4.37295007705688,1.08495008945465,-0.17295001447201,1.35600006580353,SHAKE
-4.55620002746582,-6.35896253585815,-7.37742519378662,17.2860012054443,12.106050491333,2.72505021095276,-2.88007497787476,-1.44333744049072,-0.12278749793768,1.24341249465942,1.25083744525909,1.04651248455048,-17.6490001678467,-28.0330505371094,-30.1219520568848,10.3320007324219,9.56805038452148,1.1620500087738,4.16817474365234,6.81271266937256,6.39333724975586,-26.6370010375977,4.97400045394897,8.64495086669922,-1.87329995632172,3.50941252708435,3.28803753852844,-0.39228749275208,-1.34378755092621,-1.49489998817444,25.2430515289307,39.2440528869629,30.271951675415,13.8700504302979,1.65300011634827,-9.34905052185059,-5.17137479782104,-7.56909990310669,-7.05072498321533,15.4060506820679,-1.76700007915497,-21.3130512237549,-0.31006249785423,1.77581250667572,2.01519989967346,1.34021246433258,0.14726249873638,-0.44233748316765,-37.2520523071289,-33.8460006713867,-19.8499507904053,12.1240501403809,4.56494998931885,-0.21405000984669,8.74733734130859,7.66617488861084,3.10282492637634,9.42600059509277,16.840950012207,37.3399505615234,2.9837498664856,0.78828752040863,-2.44694995880127,-1.25757503509521,-1.71407496929169,-0.98505002260208,36.4660530090332,25.8919506072998,13.0470008850098,-14.3140506744385,-15.0799503326416,-3.51000022888184,-7.42967510223389,-7.95423746109009,-6.06636238098145,7.86000061035156,-9.58695030212402,-32.3539505004883,0.65944999456406,1.34694993495941,0.95314997434616,0.98367500305176,0.69423747062683,-0.56045001745224,-33.9400520324707,-25.9279518127441,-11.2369508743286,10.7640008926392,1.67400002479553,4.27305030822754,SHAKE
1.42353749275208,-1.92761254310608,-4.26992511749268,30.1120510101318,22.2319507598877,19.2769508361816,-2.1128249168396,-4.09749984741211,-4.20282506942749,-0.5849249958992,1.31147503852844,2.94291257858276,10.863000869751,-5.97795009613037,-23.976001739502,1.18395006656647,9.01800060272217,14.2560005187988,-4.86378765106201,1.08721244335175,7.33411264419556,-40.7560501098633,-38.6580009460449,-2.007000207901,0.9149249792099,1.23846244812012,3.37851238250732,-0.94462502002716,-0.44659999012947,-1.14894998073578,4.50195026397705,33.8479499816895,37.2730522155762,-1.2150000333786,7.46805047988892,-2.53995013237,-1.89887499809265,-6.52506256103516,-7.99370002746582,23.2189502716064,13.3870506286621,-20.7360000610352,-2.56932497024536,3.15191245079041,2.2121000289917,2.46826243400574,-1.455437541008,-1.16283750534058,-36.097053527832,-18.6619510650635,-6.85695028305054,12.9100503921509,1.25805008411407,-5.8690505027771,7.16814994812012,6.50828742980957,0.49665001034737,10.16100025177,22.6680011749268,26.9890518188477,2.48036241531372,-0.12594999372959,-3.03751254081726,-2.17593741416931,-1.5916999578476,0.00041249999776,34.4040031433105,22.816951751709,7.08105039596558,-8.33295059204102,-5.34705018997192,5.9089503288269,-7.17309999465942,-4.45197486877441,0.57433748245239,-16.6620006561279,-35.0610008239746,-35.1400527954102,0.49128749966621,-1.12832498550415,-1.27737498283386,0.13021250069141,-0.168850004673,-0.55838751792908,-9.22500038146973,3.01200008392334,17.6580009460449,-5.08995008468628,0.52005004882813,9.43395042419434,SHAKE
-2.3735249042511,-4.90641260147095,-6.8272876739502,22.3039512634277,18.105001449585,10.40505027771,-2.31714987754822,0.4945875108242,2.30477499961853,2.50126242637634,1.70417499542236,0.22921249270439,-23.9190006256104,-33.6520500183105,-31.3789520263672,17.6680507659912,10.0950002670288,2.83095002174377,7.26288747787476,7.24583768844604,6.75303745269775,-1.20000004768372,8.27595043182373,17.506950378418,0.61586248874664,3.11561250686646,1.02135002613068,-0.63607501983643,-1.15114998817444,-1.94507503509521,34.0399513244629,40.360050201416,25.0750503540039,10.9699506759644,0.40500003099442,-9.07800006866455,-5.53959989547729,-7.15714979171753,-5.58318758010864,12.2860507965088,-9.34800052642822,-31.5420017242432,0.27417498826981,0.91066247224808,1.02657496929169,1.58606255054474,-0.0496375001967,-1.09793746471405,-32.7160530090332,-23.310001373291,-10.9930505752563,3.36495018005371,1.33005011081696,1.59105002880096,7.14683723449707,5.33444976806641,-1.56694996356964,19.6380004882813,30.3679523468018,22.7250003814697,0.30401250720024,-2.06703758239746,-2.82906246185303,-1.59060001373291,-0.33384999632835,1.63185000419617,24.3640518188477,11.3730001449585,-19.5480003356934,-7.12905025482178,1.32495009899139,11.1660003662109,-5.57369995117188,-0.03973750025034,7.08716249465942,-36.5890502929688,-41.4889526367188,-1.88700008392334,0.66577500104904,0.05499999970198,0.69134998321533,-1.46189999580383,-0.61159998178482,-0.1017500013113,3.81195020675659,19.4730014801025,35.5650024414063,2.07705020904541,5.53500032424927,5.90205049514771,SHAKE
-1.56694996356964,-4.13063764572144,-6.15999984741211,22.7250003814697,18.901050567627,13.7509508132935,-2.82906246185303,-1.3029500246048,0.10615000128746,1.63185000419617,1.52858746051788,0.95493751764297,-19.5480003356934,-31.5210018157959,-30.6300010681152,11.1660003662109,8.79705047607422,4.32300043106079,7.08716249465942,7.07451248168945,6.90208768844604,-1.88700008392334,6.24300050735474,19.8660011291504,0.69134998321533,2.08546257019043,1.49696254730225,-0.1017500013113,-0.67856252193451,-1.15431249141693,35.5650024414063,38.7720031738281,32.1379508972168,5.90205049514771,-4.29300022125244,-11.2669506072998,-4.79146242141724,-6.69322490692139,-7.77122497558594,17.5470008850098,11.2870502471924,1.37595009803772,-1.7297500371933,0.23485000431538,1.41075003147125,1.92981243133545,0.57928746938705,-0.85208749771118,-34.1929512023926,-30.9720020294189,-19.9020004272461,8.94105052947998,5.52795028686523,1.95000004768372,7.9939751625061,7.6012749671936,4.24902486801147,4.12800025939941,12.0679502487183,33.6469497680664,1.60338747501373,-1.15610003471375,-3.10571241378784,-0.54559999704361,-1.06383752822876,0.28558748960495,40.4610023498535,16.7380504608154,1.71900010108948,-5.31300020217896,-2.94900012016296,4.72800016403198,-7.79680013656616,-1.46148753166199,7.11919975280762,-6.87600040435791,-40.2820510864258,-5.14005041122437,1.82366251945496,0.7732999920845,0.62328749895096,-1.25331246852875,-0.82651251554489,0.0716374963522,-0.37605002522469,13.1569509506226,28.9740009307861,-1.43295001983643,1.94295012950897,4.78305006027222,SHAKE
3.06872487068176,-0.73782497644424,-3.53567504882813,32.4439506530762,24.6010513305664,18.1030502319336,-3.97306251525879,-4.98506259918213,-4.42956256866455,0.38458749651909,1.81692504882813,2.3703625202179,0.5020500421524,-17.239049911499,-30.7420520782471,2.32095003128052,6.20100021362305,13.4839506149292,4.37882518768311,6.96808767318726,7.02652502059937,-24.5800514221191,-4.1050500869751,4.32195043563843,2.1707124710083,1.7598625421524,0.55618751049042,-1.44691252708435,0.24612499773502,-0.39338749647141,19.5589504241943,35.4340515136719,33.256950378418,2.07405018806458,-0.61905002593994,-9.19305038452148,-4.52746248245239,-7.85111236572266,-8.30541229248047,18.8620510101318,4.72905015945435,-13.5840005874634,-2.86838746070862,-0.65807497501373,1.32247495651245,2.13413739204407,1.23804998397827,-0.27101248502731,-35.7889518737793,-32.661003112793,-22.7050514221191,9.12795066833496,8.13105010986328,1.01295006275177,8.72286224365234,8.00456237792969,6.89136266708374,3.54900026321411,12.1830005645752,19.7989501953125,1.96955001354218,1.83122503757477,0.16994999349117,-0.60939997434616,-1.07442498207092,-1.19583749771118,38.1060028076172,34.5379524230957,24.025951385498,-3.10005021095276,-8.76405048370361,-7.26000022888184,-7.10723733901978,-7.83722496032715,-6.18763732910156,4.53299999237061,-10.7440509796143,-35.3070030212402,-0.61764997243881,1.53958749771118,2.46647500991821,1.11567497253418,0.03011249937117,-1.75339996814728,-30.832950592041,-21.7939510345459,4.60005044937134,10.4980506896973,3.61905026435852,0.70500004291534,SHAKE
-0.96882498264313,-3.73257493972778,-7.10723733901978,24.0139503479004,17.3610000610352,4.53299999237061,-3.71552491188049,-2.80555009841919,-0.61764997243881,1.73827493190765,1.84676253795624,1.11567497253418,-18.5950508117676,-31.1520023345947,-30.832950592041,7.66395044326782,10.5600004196167,10.4980506896973,5.47387504577637,7.36285018920898,6.59243726730347,-21.1810512542725,8.86800003051758,19.1809501647949,1.8853999376297,1.27242493629456,-0.33343750238419,-0.19332499802113,-0.95314997434616,-1.22457504272461,36.949951171875,33.0310516357422,23.2210502624512,-8.47695064544678,-11.1829509735107,-6.93900012969971,-5.66513729095459,-7.85207509994507,-6.32706260681152,11.1670503616333,-9.99000072479248,-35.4730529785156,-1.15816247463226,1.28631246089935,2.38026237487793,1.87440001964569,-0.58712500333786,-1.03193747997284,-30.4500007629395,-6.22395038604736,8.14500045776367,7.10595035552979,6.49095010757446,0.83400005102158,6.26560020446777,3.6924250125885,-0.40369999408722,24.1579513549805,33.7399520874023,28.5409507751465,-3.06844997406006,-4.42640018463135,-2.21705007553101,-0.53817498683929,0.262212485075,0.8846749663353,16.699951171875,0.5500500202179,-30.5290508270264,-3.04305005073547,6.16005039215088,18.3610515594482,-1.37953746318817,4.93748760223389,7.57776260375977,-42.1279525756836,-25.3680019378662,11.8999509811401,1.07346248626709,1.87164998054504,1.15431249141693,-0.31253749132156,-0.88398748636246,-1.5054874420166,19.4710502624512,37.8120002746582,31.9750518798828,1.35600006580353,-6.47700023651123,-9.72495079040527,SHAKE
7.97692489624023,6.84571266174316,3.4742124080658,4.2810001373291,12.2040004730225,32.0329513549805,2.76347494125366,-2.6001250743866,-4.52952480316162,-0.86597502231598,0.00041249999776,1.38380002975464,39.3300018310547,14.9059505462646,-18.6829509735107,-11.8009510040283,-6.12705039978027,11.1850509643555,-5.77376270294189,5.77610015869141,7.49691247940063,-34.0260009765625,-20.1109504699707,8.9209508895874,1.47468745708466,2.88255000114441,0.75212502479553,-0.99041247367859,-1.26706254482269,-1.77581250667572,24.0019512176514,38.3119506835938,30.0930023193359,4.34295034408569,-14.0809507369995,-14.9680509567261,-5.28632497787476,-7.0709376335144,-7.14010000228882,16.3740005493164,10.3099508285522,-32.862003326416,-1.83823752403259,3.49772500991821,3.53924989700317,1.93723750114441,-2.27177500724792,-2.04929995536804,-36.2560501098633,-11.3160009384155,19.6429500579834,13.9969511032104,1.21695005893707,-3.55005025863647,4.78114986419678,-2.08408737182617,-6.59958744049072,32.0470504760742,21.3750019073486,15.2190008163452,-4.88399982452393,-3.17377495765686,3.4126124382019,0.80602496862411,2.3310375213623,-0.88824999332428,-10.3630504608154,-39.6160507202149,-20.4750003814697,6.61995029449463,16.7490005493164,1.2720000743866,8.85169982910156,5.65262508392334,2.21952509880066,9.69705009460449,29.3860511779785,31.5270023345947,-0.82087498903275,-4.31145000457764,-4.47851228713989,-0.74346250295639,0.776187479496,1.94782495498657,24.8689517974854,-4.8880500793457,-21.9169502258301,-9.85905075073242,4.50495004653931,8.10000038146973,SHAKE
5.82931232452393,2.45258760452271,-1.65522503852844,30.037052154541,34.642951965332,24.892951965332,0.13474999368191,-2.32883739471436,-3.87832498550415,-1.02341246604919,-0.40081250667572,1.01887500286102,25.5040512084961,10.7070007324219,-6.24105024337769,-10.1370000839233,-2.26905012130737,6.35205030441284,-6.10362482070923,-0.16541250050068,8.96665000915527,-36.3990020751953,-44.6260528564453,5.99100017547607,1.81101250648499,2.57826256752014,0.83929997682571,-1.67254996299744,-0.61586248874664,-1.4522750377655,28.840051651001,41.8330535888672,30.2700023651123,3.96705007553101,-1.87605011463165,-15.2359504699707,-5.68328762054443,-7.30730009078979,-7.58931255340576,15.7390508651733,9.71100044250488,-26.0359516143799,-0.1205874979496,2.12918758392334,2.06098747253418,1.10825002193451,-0.43491250276566,-0.951087474823,-38.4370536804199,-30.3660011291504,-15.4690504074097,10.0759506225586,2.52705001831055,-1.63005006313324,8.78996276855469,5.39082479476929,2.1290500164032,12.2110509872437,29.5060520172119,31.1989517211914,0.56155002117157,-4.60088729858398,-5.09464979171753,-1.8492374420166,0.36753749847412,1.35932505130768,25.113000869751,-3.43395018577576,-21.7579517364502,-13.2930002212524,3.31995010375977,10.0120506286621,-0.56333750486374,6.11132478713989,8.17904949188232,-45.7660522460938,-19.6680011749268,5.296950340271,1.93764996528625,1.6024249792099,-0.00989999994636,0.14822499454021,-0.18590000271797,-1.32247495651245,27.6379508972168,34.7610015869141,24.8950519561768,-2.39805006980896,-15.4030504226685,-14.2150506973267,SHAKE
0.17943750321865,0.24227499961853,0.45512500405312,-1.66005003452301,-1.85595011711121,-2.51895022392273,-0.49939998984337,-1.01557505130768,-1.31243753433228,0.53886252641678,0.80176252126694,0.09295000135899,7.55295038223267,7.58400058746338,13.1359510421753,0.71205002069473,0.79605001211166,5.82000017166138,0.49334999918938,-0.29947498440742,-1.47647500038147,7.02405023574829,10.8510007858276,12.8269510269165,2.13028740882874,1.0393625497818,-0.48454999923706,-1.12983751296997,-0.0954250022769,1.06356251239777,18.3120002746582,12.6160507202148,6.5110502243042,2.09100008010864,-0.38895002007484,-0.83400005102158,-5.94934988021851,-7.04976224899292,-7.10077476501465,1.19700002670288,-4.67700004577637,-28.4580020904541,-2.14582490921021,-0.58038747310638,0.96387499570847,0.16101250052452,-0.81482499837875,-1.15747499465942,-30.9790515899658,-26.5699520111084,-17.5650005340576,4.38105010986328,6.27495050430298,2.45505023002625,10.4139747619629,8.3621997833252,5.07691240310669,17.9190006256104,27.8629512786865,35.9269523620605,1.2639000415802,-3.60800004005432,-4.36576271057129,-0.16775000095367,0.96552497148514,1.11677503585815,41.827953338623,20.8500003814697,8.49195003509521,-12.6160507202148,-3.28905010223389,3.3510000705719,-7.79886245727539,-8.38309955596924,-0.09295000135899,5.38800048828125,-9.35700035095215,-44.3130035400391,2.37077498435974,2.65058755874634,2.80596256256104,-0.5157625079155,-1.16283750534058,-1.73965001106262,-23.9790019989014,-11.3140506744385,7.33005046844482,2.0310001373291,0.12705001235008,3.69300007820129,SHAKE
0.86693751811981,-4.98519992828369,-6.60055017471313,31.150951385498,15.1090507507324,11.1000003814697,-4.11661243438721,-3.11093759536743,0.55412501096725,1.37637495994568,1.56158745288849,0.64735001325607,-4.71300029754639,-21.435001373291,-32.1840019226074,7.85400056838989,9.51300048828125,8.66595077514648,6.75097513198853,9.80526256561279,9.03581237792969,-21.610050201416,4.05600023269653,17.8399505615234,4.44482517242432,3.27951240539551,0.13695000112057,-1.16820001602173,-0.66371250152588,-0.77866250276566,37.2540016174316,38.6550025939941,28.4950504302979,-6.76005029678345,-19.2400512695313,-18.5340003967285,-7.06997489929199,-8.1043872833252,-7.95423746109009,10.0510501861572,0.04905000329018,-20.2860012054443,-1.55512499809265,2.10471248626709,3.76488757133484,0.46007499098778,-0.47643750905991,-0.86913746595383,-35.1109504699707,-30.7810516357422,-19.1500511169434,17.0550003051758,10.7880001068115,-0.20205001533031,9.09961223602295,5.73457479476929,2.46427488327026,10.2829504013062,27.1320018768311,32.3610000610352,0.33907499909401,-1.65728747844696,-4.47741270065308,-0.39338749647141,-0.64240002632141,1.1944625377655,36.3870010375977,23.8110008239746,-3.1279501914978,-13.2450008392334,-8.03595066070557,5.04900026321411,-7.72653722763062,-6.08877515792847,-0.32284998893738,-9.59895038604736,-34.5049514770508,-44.2360534667969,2.06318759918213,2.15792489051819,2.93576240539551,-0.57969999313354,-1.52143752574921,-1.37348747253418,-10.2169504165649,8.9040002822876,26.3010005950928,-0.32400000095367,3.1470000743866,0.3120000064373,SHAKE
2.46427488327026,-1.65096247196198,-4.41691255569458,32.3610000610352,23.9089508056641,16.8529510498047,-4.47741270065308,-4.17945003509521,-2.49810004234314,1.1944625377655,1.50191247463226,1.26362502574921,-3.1279501914978,-19.1839504241943,-33.5230522155762,5.04900026321411,9.8100004196167,15.2329511642456,-0.32284998893738,9.39867496490478,8.56652450561523,-44.2360534667969,4.39394998550415,16.7430000305176,2.93576240539551,2.26641249656677,-0.34828749299049,-1.37348747253418,-0.942562520504,-1.30858755111694,26.3010005950928,41.5150527954102,29.3310012817383,0.3120000064373,-17.6640014648438,-14.2129507064819,-5.86946249008179,-7.83406257629395,-6.70807504653931,14.3929510116577,-6.64095020294189,-30.8740520477295,0.80533748865128,2.82507491111755,2.29088759422302,0.0716374963522,0.09721250087023,0.38458749651909,-37.9540519714355,-27.8659515380859,-9.70200061798096,15.82200050354,4.66800022125244,-1.91895008087158,8.34088706970215,6.3784875869751,3.61473751068115,17.7940502166748,26.2510509490967,32.5549507141113,0.1922249943018,-2.37132501602173,-4.0804500579834,-1.41817498207092,-0.74140000343323,0.36753749847412,29.8510513305664,14.9560508728027,-0.57900005578995,-11.0880002975464,-3.54600024223328,5.50395011901855,-8.31503772735596,-7.38911247253418,-2.02344989776611,-4.54605007171631,-30.4720516204834,-47.5579528808594,1.25441253185272,1.37142503261566,1.19377493858337,0.1717374920845,-0.09116250276566,-0.74882501363754,-26.8459510803223,-10.6770000457764,8.3100004196167,5.00595045089722,0.91800004243851,2.04105019569397,SHAKE
-7.39131259918213,-8.31503772735596,-7.38911247253418,9.1960506439209,-4.54605007171631,-30.4720516204834,-0.45155000686646,1.25441253185272,1.37142503261566,0.6154500246048,0.1717374920845,-0.09116250276566,-36.6720008850098,-26.8459510803223,-10.6770000457764,12.0540008544922,5.00595045089722,0.91800004243851,8.25783729553223,6.50512504577637,4.21176242828369,15.0450010299683,22.0620002746582,30.5620517730713,1.49806249141693,0.32216250896454,-1.71696245670319,-0.44659999012947,-0.86597502231598,-0.72751247882843,41.1409530639649,31.8150024414063,17.8489513397217,-7.50195026397705,-9.18600082397461,-4.07505035400391,-7.05718755722046,-8.37457466125488,-7.87228727340698,10.9129505157471,-1.73595011234283,-30.1240520477295,-0.85593748092651,2.80169987678528,2.22708749771118,-0.06558749824762,-0.83503746986389,-1.31601250171661,-40.3939514160156,-13.771050453186,9.14100074768066,16.1909999847412,0.16095000505447,0.5059500336647,7.24047517776489,-0.68887501955032,-3.95078754425049,31.4820022583008,28.4689521789551,19.9999504089355,-2.70558738708496,-3.6313750743866,-1.0144749879837,0.33453750610352,0.86982500553131,0.95177501440048,12.6979503631592,-2.58900022506714,-33.3859519958496,-0.77700001001358,7.58295059204102,14.0160007476807,-2.59489989280701,4.43410015106201,8.08541202545166,-44.3959503173828,-28.1340007781982,14.2110004425049,1.10220003128052,1.61837494373322,1.95456254482269,-0.14547500014305,-0.12306249886751,-0.30085000395775,22.230001449585,35.6659507751465,41.6130027770996,2.67300009727478,-0.54704999923706,-7.37100028991699,SHAKE
-0.68887501955032,-3.95078754425049,-6.10362482070923,28.4689521789551,19.9999504089355,14.6569509506226,-3.6313750743866,-1.0144749879837,1.13203752040863,0.86982500553131,0.95177501440048,0.47079998254776,-2.58900022506714,-33.3859519958496,-35.4409523010254,7.58295059204102,14.0160007476807,10.7250003814697,4.43410015106201,8.08541202545166,6.27632474899292,-28.1340007781982,14.2110004425049,18.6439514160156,1.61837494373322,1.95456254482269,1.17246246337891,-0.12306249886751,-0.30085000395775,-1.10742497444153,35.6659507751465,41.6130027770996,33.5629501342773,-0.54704999923706,-7.37100028991699,-10.9080009460449,-4.76905012130737,-6.175950050354,-7.17956256866455,14.7640504837036,10.1110506057739,1.17300009727478,-1.38489997386932,1.16393744945526,2.12382507324219,0.91987496614456,0.21642500162125,-0.25396248698235,-39.9409523010254,-35.487003326416,-19.4160003662109,16.453950881958,9.6670503616333,2.9610002040863,9.54442501068115,7.7268123626709,1.54591250419617,16.5180015563965,23.8510513305664,34.1190032958984,0.68296247720718,-3.86127495765686,-4.61903762817383,-0.62534999847412,0.01306249946356,1.38916254043579,34.5570030212402,3.96495008468628,-12.8509502410889,-15.1039505004883,2.83095002174377,10.2750005722046,-7.68391227722168,-4.32533740997314,7.53211259841919,-20.2810516357422,-43.5409507751465,-8.45700073242188,1.29263746738434,0.41896250844002,-0.28022500872612,-0.81702500581741,-0.79461246728897,-0.10601250082254,0.06599999964237,14.4100503921509,29.8770008087158,-0.30495002865791,0.34005001187325,3.22605013847351,SHAKE
2.61016249656677,-1.27215003967285,-3.96137499809265,32.7250518798828,24.8089504241943,18.0360012054443,-3.29504990577698,-3.3217248916626,-2.04682493209839,0.93046247959137,1.73923754692078,1.46685004234314,-2.18204998970032,-17.2650012969971,-32.5150527954102,7.00800037384033,10.300950050354,13.1470508575439,-1.71050000190735,5.75808763504028,8.33662509918213,-47.2849540710449,-26.5030517578125,18.2520008087158,2.6496250629425,2.86027503013611,1.14262497425079,-0.98931246995926,-0.16032500565052,-1.07662498950958,25.2499504089355,39.2899513244629,30.3900012969971,2.41500020027161,-14.3929510116577,-16.1650505065918,-5.50976228713989,-7.04976224899292,-8.14151287078857,16.5420017242432,11.9929504394531,0.62895005941391,-0.93046247959137,1.66306245326996,1.99402499198914,1.15610003471375,0.25575000047684,-0.08689999580383,-38.3850021362305,-30.3540019989014,-15.1750507354736,16.0930500030518,7.12605047225952,0.28305000066757,8.24724960327148,6.78603744506836,5.06948757171631,10.8130502700806,17.3970012664795,28.1890506744385,1.54811251163483,-0.64735001325607,-3.15356254577637,-1.30858755111694,-1.47895002365112,-0.69451248645782,34.6579513549805,23.8440017700195,10.9519500732422,-12.5959501266479,-8.82900047302246,-0.51105004549026,-7.33920001983643,-8.00965023040771,-6.08657503128052,5.71395015716553,-10.9999504089355,-38.3299522399902,2.65374994277954,2.19408750534058,1.90781247615814,-0.23691250383854,-0.05816249921918,-0.6434999704361,-25.2150020599365,-9.81900024414062,22.957950592041,4.71900033950806,0.83100003004074,2.69700002670288,SHAKE
-4.84357500076294,-6.35483741760254,-7.45841264724732,15.892050743103,11.3470506668091,3.40005016326904,-3.99753737449646,-1.69661247730255,1.08515000343323,0.92619997262955,0.99852502346039,0.51974999904633,-24.9319515228271,-36.6940536499023,-34.7179527282715,16.3920001983643,19.4220008850098,12.8350505828857,7.59701251983643,9.35824966430664,7.92481231689453,-15.35205078125,9.45000076293945,18.6640510559082,1.59073746204376,2.24620008468628,0.43174999952316,-0.23801249265671,-0.62865000963211,-1.41817498207092,28.0759506225586,38.2879524230957,28.4350509643555,0.3979500234127,-14.1799507141113,-13.9570503234863,-7.16457509994507,-8.11703777313232,-7.58931255340576,9.01605033874512,-3.18795013427734,-29.8180522918701,-0.67925000190735,2.69857501983643,2.04407501220703,1.24121248722076,-0.47753748297691,-0.95851248502731,-38.800952911377,-14.1589508056641,3.01905012130737,16.746000289917,-0.68595004081726,0.07905000448227,7.06062507629395,1.91413748264313,-1.71270000934601,20.4910507202148,31.9300518035889,24.5959510803223,-0.80588752031326,-4.6424126625061,-4.70511245727539,-1.62580001354218,0.59207499027252,1.70953750610352,23.1450004577637,-3.67095017433167,-19.6270503997803,-9.59295082092285,6.66300010681152,11.8630504608154,-6.50484991073608,-0.862399995327,6.01026248931885,-34.1959533691406,-46.2529525756836,-23.5140018463135,2.36541247367859,2.22915005683899,2.01313757896423,-0.7595499753952,-0.64886248111725,0.82513749599457,8.49900054931641,22.2610511779785,38.0370025634766,2.53905010223389,1.04895007610321,-10.40505027771,SHAKE
5.74213743209839,0.8094624876976,-2.88969993591309,19.1380500793457,31.2829513549805,21.6480007171631,-0.37276250123978,-2.61717510223389,-4.18907499313354,-1.45447504520416,-1.111687541008,-0.0283249989152,18.3670501708984,6.65295028686523,-9.25200080871582,-10.7910003662109,-2.83395004272461,4.06695032119751,-3.96563744544983,3.37205004692078,7.82264995574951,-48.1090507507324,-36.5050506591797,-8.55495071411133,1.81101250648499,2.73157501220703,3.66808748245239,-1.75023746490479,-1.06809997558594,-0.95534998178482,17.988000869751,34.3560028076172,39.4549522399902,6.2989501953125,3.88995027542114,-9.51600074768066,-4.92442512512207,-6.96781253814697,-8.39272499084473,18.7279510498047,13.5120010375977,4.10700035095215,-2.15105009078979,1.51084995269775,3.78716254234314,1.37417495250702,-1.32247495651245,-3.04865002632141,-40.2310523986816,-34.2100524902344,-19.3230018615723,13.4170503616333,9.99000072479248,2.4580500125885,7.15536260604858,5.16628742218018,1.07016253471375,16.9320011138916,31.1610012054443,32.1160507202148,0.41690000891685,-2.33736252784729,-3.59727501869202,0.50160002708435,0.68681252002716,1.42848753929138,31.0030517578125,7.57500028610229,-7.21395015716553,-6.55095052719116,-0.29595002532005,4.29000043869019,-7.56153726577759,-4.51481246948242,3.05181241035461,-17.4550514221191,-46.7170524597168,-40.85205078125,3.19549989700317,3.28487491607666,3.23908758163452,-1.35547494888306,-1.69812500476837,-2.41546249389648,-22.1560516357422,-5.41005039215088,15.3130502700806,3.60000014305115,-0.22095000743866,3.13305020332336,SHAKE
-1.36468744277954,-4.45830011367798,-6.28457498550415,26.9670009613037,17.5159511566162,13.3609504699707,-5.09038734436035,-4.14755010604858,-1.22416245937347,1.31037497520447,2.67148756980896,2.12877488136292,-23.3850002288818,-37.101001739502,-35.2210502624512,11.0890502929688,16.0639514923096,12.9259510040283,7.19152498245239,8.29303741455078,7.27457475662232,-18.9420013427734,10.7020502090454,23.9610004425049,4.04153728485107,1.45983743667603,-2.1319375038147,-1.13836252689362,-1.79712498188019,-1.50864994525909,35.0820007324219,27.5610008239746,15.2029504776001,-8.3860502243042,-20.8830013275146,-11.9470500946045,-6.81766223907471,-8.5065746307373,-9.13233757019043,13.1170501708984,2.51400017738342,-24.1180515289307,-4.65093755722046,-0.32807499170303,3.25077509880066,3.49098753929138,0.07383749634027,-2.42494988441467,-37.9630508422851,-29.6310005187988,-15.6799507141113,14.1019506454468,12.5239505767822,6.49305009841919,7.59701251983643,5.93367481231689,2.28772497177124,15.5880002975464,30.2100009918213,32.4919509887695,-1.94672501087189,-2.88433742523193,-3.80696249008179,-0.37427499890327,-0.59235000610352,-0.01237499993294,25.4250011444092,14.202000617981,0.31305000185966,-5.25300025939941,0.3120000064373,4.01205015182495,-8.63431262969971,-3.17281246185303,4.92373752593994,-2.48805022239685,-50.3430023193359,-32.4739532470703,2.86879992485046,4.55124998092651,5.39838743209839,-1.30432498455048,-2.94112491607666,-2.31962490081787,-17.9380512237549,16.7599506378174,30.0379505157471,2.43105006217957,2.83095002174377,-5.61300039291382,SHAKE
-1.90849995613098,-4.73178768157959,-6.69322490692139,26.4109516143799,18.9820518493652,13.3990507125854,-1.71476244926453,-3.19398736953735,-2.18624997138977,-0.17943750321865,1.55938744544983,1.25606250762939,-3.70005011558533,-35.4439506530762,-35.5800018310547,0.30495002865791,4.63005018234253,10.3680000305176,6.37738752365112,8.71763706207275,6.85423755645752,-25.4659519195557,11.8279504776001,19.9999504089355,3.05607509613037,2.32388758659363,0.49665001034737,-1.51291251182556,-0.26138749718666,-0.08373750001192,35.3710517883301,40.582950592041,32.4640502929688,-1.38495004177094,-10.0189504623413,-13.2450008392334,-7.24872493743896,-8.59168720245361,-7.3657374382019,11.5860004425049,3.16995024681091,-38.5570526123047,0.64776247739792,2.84212493896484,2.42288756370544,1.1336874961853,1.21041250228882,1.12310004234314,-38.6629524230957,-28.9440021514893,-14.7390003204346,14.356050491333,1.65795004367828,-4.83900022506714,9.97232532501221,7.68748760223389,0.12196250259876,16.3360500335693,26.5650005340576,30.5599517822266,1.56200003623962,-2.14142489433289,-4.51261234283447,-1.15321254730225,-0.19552500545979,1.05173754692078,30.2749519348145,13.7389507293701,-3.42705011367798,-19.1040000915527,-10.4239501953125,-2.91600012779236,-9.92090034484863,-9.85283756256104,5.28976249694824,-1.65495002269745,-29.226001739502,-36.3199501037598,3.60415005683899,2.26008749008179,1.55980002880096,-0.67003750801086,-1.56612503528595,-2.71974992752075,-19.78005027771,3.132000207901,26.9820003509521,-8.85300064086914,-8.69505023956299,0.8029500246048,SHAKE
0.12196250259876,-3.89221239089966,-6.57607507705688,30.5599517822266,22.3999519348145,16.2880516052246,-4.51261234283447,-5.4064998626709,-5.13411235809326,1.05173754692078,1.69675004482269,1.56791245937347,-3.42705011367798,-22.8870010375977,-40.9090538024902,-2.91600012779236,0.05805000290275,7.86105060577393,5.28976249694824,10.4395503997803,10.3820753097534,-36.3199501037598,-3.75495028495789,13.9530010223389,1.55980002880096,1.30542504787445,-0.26963749527931,-2.71974992752075,-0.16348749399185,0.63566249608994,26.9820003509521,43.4160003662109,32.2099533081055,0.8029500246048,-5.92605018615723,-6.08400011062622,-6.1397876739502,-8.64173698425293,-8.42462539672852,12.235050201416,-3.21195006370544,-27.0880508422852,-0.91657501459122,2.89863753318787,4.36713743209839,0.24942499399185,-0.24447499215603,-0.22206249833107,-38.1619529724121,-34.1070022583008,-23.9520015716553,13.9710006713867,5.20995044708252,-8.69700050354004,9.55088710784912,5.81652498245239,-2.6417875289917,27.7960510253906,34.3320007324219,22.1700019836426,-0.43876248598099,-1.84882497787476,-3.80586242675781,0.03121249936521,-0.02942499890924,-0.68392497301102,19.8280506134033,6.61695051193237,-22.9200019836426,-9.79395008087158,-6.95100021362305,2.11995005607605,-7.98833751678467,-2.53220009803772,6.05714988708496,-29.1400508880615,-51.9289512634277,-34.0090522766113,2.93479990959167,1.80674993991852,1.30116248130798,-0.56787496805191,-1.52363753318787,-1.25111246109009,0.4420500099659,23.5159511566162,38.1160507202149,-9.95205020904541,-3.99795007705688,-1.34205007553101,SHAKE
-0.82733750343323,-5.66623735427856,-6.64097499847412,22.8330001831055,8.12100028991699,4.66500043869019,-3.59947490692139,-2.75453758239746,-0.84741246700287,0.04289999976754,-0.06036249920726,-0.33054998517036,-18.8269500732422,-26.4019508361816,-28.3810520172119,4.9680004119873,9.69105052947998,11.9710502624512,6.22201251983643,11.2822875976563,7.89181232452393,-26.9080505371094,22.5430507659912,33.7189521789551,4.58218765258789,3.70947504043579,0.9649749994278,-2.23767495155334,-0.58712500333786,0.56443750858307,38.3239517211914,38.1900024414063,30.1410007476807,-2.32200002670288,-14.7400503158569,-18.1459503173828,-7.11988735198975,-8.01913738250732,-6.61017513275146,6.74100017547607,3.43395018577576,-43.4140510559082,-0.45581248402596,3.50941252708435,4.53846263885498,0.59633749723434,-0.30511251091957,0.10147500038147,-32.8309516906738,-28.7880020141602,-14.988000869751,16.3870506286621,5.58105039596558,-3.71595025062561,10.6044120788574,2.43773746490479,-1.08803749084473,34.3339500427246,30.7420520782471,27.9250507354736,-4.26772499084473,-4.65616226196289,-4.5636248588562,-0.20611250400543,-0.512600004673,-0.15399999916553,9.48105049133301,-3.09195017814636,-16.8460502624512,-4.94400024414063,1.71300005912781,6.57900047302246,-8.2512378692627,2.95171236991882,9.70199966430664,-17.4520511627197,-42.1930503845215,-12.8440504074097,2.51762509346008,2.9858124256134,1.72370004653931,-1.34378755092621,-3.26466250419617,-1.54591250419617,-9.01905059814453,36.6220512390137,43.9500007629395,-6.01695013046265,-1.51905012130737,-4.0770001411438,SHAKE
2.95171236991882,9.70199966430664,11.9612627029419,-42.1930503845215,-12.8440504074097,13.3969507217407,2.9858124256134,1.72370004653931,-0.3951750099659,-3.26466250419617,-1.54591250419617,0.79750001430511,36.6220512390137,43.9500007629395,38.9140510559082,-1.51905012130737,-4.0770001411438,-4.4370002746582,-4.65409994125366,-7.27099990844727,-7.56689977645874,17.0329513549805,5.05005025863647,-0.79695004224777,-0.76010000705719,0.06888750195503,0.95644998550415,0.35585001111031,0.85497498512268,0.30786249041557,-22.2949504852295,-27.1590003967285,-21.6600017547607,2.30400013923645,0.6280500292778,-2.85105013847351,11.1311750411987,9.33583736419678,6.31564998626709,12.1159505844116,22.92405128479,27.609001159668,3.6712498664856,2.18762493133545,0.58176249265671,-2.36967492103577,-0.05183750018477,0.78897500038147,42.6810035705566,39.550952911377,25.4940013885498,-1.90005004405975,-7.99305057525635,-9.06405067443848,-7.09224987030029,-7.43173742294312,-7.48178768157959,5.11200046539307,2.3730001449585,-8.53605079650879,-2.48201251029968,-0.47918748855591,0.14341250061989,0.35158750414848,0.84644997119904,0.46117499470711,-29.0659523010254,-24.6880512237549,-12.7960510253906,2.92905020713806,2.58495020866394,0.46005001664162,10.3351879119873,6.26037502288818,-1.34763753414154,30.1330509185791,31.1100006103516,30.1960506439209,-1.52322494983673,-2.98539996147156,-2.19793748855591,1.70417499542236,1.15719997882843,-0.19868749380112,26.320951461792,11.6220006942749,-9.48600006103516,-14.2009506225586,-7.27695035934448,2.78805017471313,SHAKE
1.80661249160767,11.8740873336792,9.89890003204346,-45.0739517211914,14.7720003128052,29.0389518737793,5.33554983139038,3.4094500541687,-0.41112500429153,-2.74106240272522,-0.87119996547699,1.64986252784729,33.1609497070313,43.2630004882813,38.6290512084961,-5.62905025482178,-16.735050201416,-17.3980503082275,-5.05106258392334,-6.77297496795654,-7.49237489700317,15.5719509124756,8.3860502243042,0.42300000786781,-1.90313744544983,-1.8434624671936,-0.36849999427795,-0.24337500333786,0.81441247463226,0.58244997262955,-21.5050506591797,-29.3839511871338,-28.8090019226074,3.05205011367798,5.55405044555664,8.28705024719238,11.1344747543335,9.32635021209717,5.30887508392334,12.5490007400513,27.5160007476807,35.1769523620605,1.30226254463196,-6.05673742294312,-4.84453725814819,-1.44691252708435,2.96092510223389,2.21705007553101,44.5920028686523,14.6659507751465,1.0200001001358,-23.0700016021729,-1.90005004405975,5.65005016326904,-8.24161243438721,-7.39557504653931,-3.71126246452332,-2.31600022315979,-17.5120506286621,-42.2380523681641,0.71802496910095,1.23942494392395,2.39525008201599,1.20078754425049,-0.17847499251366,-2.85697507858276,-26.4670505523682,-20.6089515686035,12.6090002059937,-2.55900001525879,-4.2810001373291,5.37000036239624,6.14006233215332,2.97082495689392,-1.17631244659424,28.2169513702393,32.7390022277832,26.4550514221191,-2.68097496032715,-3.14820003509521,-2.78740000724792,1.14537501335144,0.9453125,0.30043751001358,24.9000015258789,2.53305006027222,-11.3500509262085,-8.04104995727539,-0.49005001783371,2.95305013656616,SHAKE
-9.3079252243042,-8.7982120513916,3.90733742713928,2.44905018806458,-19.8109512329102,-33.492000579834,1.31821250915527,2.85395002365112,3.86814999580383,-1.48211252689362,-2.94318747520447,-4.06491231918335,-20.9320507049561,-8.09505081176758,12.5470504760742,0.97995007038116,-1.13895010948181,2.72595024108887,2.3174250125885,-2.44805002212524,-5.65977478027344,37.9549522399902,28.1839504241943,17.0710506439209,-2.70338749885559,-3.19192504882813,-3.2907874584198,1.32426249980927,1.22306251525879,2.66832494735718,9.2629508972168,-21.070951461792,-31.0060520172119,-5.45895004272461,-1.26600003242493,0.89400005340576,7.6172251701355,11.0429000854492,10.2617626190186,-20.9590511322021,6.73905038833618,18.8380508422852,1.0925749540329,-1.15499997138977,-2.76196241378784,-1.48211252689362,0.99756246805191,2.60452508926392,45.7800025939941,41.1049537658691,25.47705078125,-2.956050157547,-5.05695009231567,-4.71405029296875,-7.07836246490479,-7.92659997940063,-7.05292510986328,9.59805011749268,4.71000003814697,-25.6069507598877,-2.16067504882813,-0.7537750005722,0.73287498950958,2.07130002975464,-0.52648746967316,-2.15888738632202,-27.037052154541,-24.4120502471924,-19.1380500793457,-5.01405000686646,-1.11000001430511,0.19200000166893,10.8641500473022,9.73706245422363,5.59735012054443,10.0800008773804,29.9680519104004,36.1710014343262,4.12458753585815,-1.85102498531342,-2.6331250667572,-0.59455001354218,2.45231246948242,1.51263749599457,41.344051361084,22.7689514160156,8.91795063018799,-10.3879508972168,-13.1230506896973,-6.75495052337646,SHAKE
-7.16883754730225,-7.83832502365112,-1.04334998130798,9.3420000076294,-4.51395034790039,-43.419002532959,0.31900000572205,3.17528748512268,4.4362998008728,-0.59138751029968,-2.83360004425049,-3.09966254234314,-25.1569519042969,4.26495027542114,27.2190017700195,2.82195019721985,3.94695019721985,0.40800002217293,3.56262493133545,-0.69849997758865,-6.78892517089844,36.5950508117676,33.4189529418945,13.9759502410889,-3.2716748714447,-2.79812502861023,-2.80238747596741,1.111412525177,-0.09336250275373,0.87725001573563,0.00405000010505,-16.2480010986328,-30.5149517059326,-2.4060001373291,0.82395005226135,1.22400009632111,5.505774974823,10.3852376937866,8.24408721923828,-30.1240520477295,0.50894999504089,32.5349998474121,2.61016249656677,0.00508749997243,-1.26238751411438,-2.00034999847412,1.06988751888275,2.33846259117126,43.7590522766113,45.1909523010254,32.7439498901367,-4.01505041122437,-3.93105030059815,-3.0090000629425,-6.51859998703003,-8.26388740539551,-8.48636245727539,13.6459503173828,4.95195007324219,-8.00895023345947,-1.93283748626709,-0.58877497911453,0.43174999952316,1.21041250228882,0.16321249306202,-1.38531243801117,-32.8140029907227,-26.6250019073486,-15.8140506744385,-0.04905000329018,-1.56000006198883,-1.95105004310608,10.6524000167847,7.57253742218018,0.20707499980927,23.3599510192871,31.5870018005371,35.8999519348145,0.42006251215935,-0.76230001449585,-2.5810124874115,2.34162497520447,1.52858746051788,-0.18163749575615,32.7060012817383,16.0270500183105,-18.8770503997803,-12.0600004196167,-10.1100006103516,-4.70205020904541,SHAKE
-8.48636245727539,0.28476250171661,7.58958768844604,-8.00895023345947,-42.8250007629395,-18.7620010375977,0.43174999952316,1.58743751049042,3.69256258010864,-1.38531243801117,-3.33588743209839,-4.17670011520386,-15.8140506744385,6.17100048065186,30.2149505615234,-1.95105004310608,6.70905017852783,8.3730001449585,0.20707499980927,-3.89757490158081,-6.5165376663208,35.8999519348145,23.9449520111084,13.88805103302,-2.5810124874115,-3.97402501106262,-3.31099987030029,-0.18163749575615,0.89856249094009,1.90960001945496,-18.8770503997803,-36.025951385498,-36.3540000915527,-4.70205020904541,1.55505001544952,5.67705011367798,10.2181749343872,9.98511219024658,7.56181240081787,3.65895009040833,19.6429500579834,33.4290008544922,1.89818751811981,-2.32127499580383,-2.35427498817444,-1.23309993743896,2.23203754425049,2.18624997138977,48.1420516967773,29.2090511322021,13.1890506744385,-6.71700048446655,-4.35495042800903,-0.91800004243851,-7.97445011138916,-7.57542514801025,4.47562503814697,8.48700046539307,-20.590051651001,-30.9529514312744,0.7042750120163,2.48778748512268,1.16613745689392,-1.06603753566742,-3.06143736839294,-2.80912494659424,-19.6819515228271,16.2850513458252,33.1009521484375,-2.92500019073486,-4.08900022506714,-1.81200003623962,-1.10508751869202,-5.85351228713989,-6.3122124671936,29.4820518493652,8.06295013427734,4.71000003814697,-0.72393751144409,-1.54013752937317,0.0922624990344,-0.85745000839233,0.04399999976158,-0.78182500600815,-15.8569507598877,-25.4490013122559,-21.6960010528564,-5.72295045852661,2.22300004959106,0.04800000041723,SHAKE
-4.98726224899292,-6.98156261444092,-7.97445011138916,21.070951461792,13.687050819397,8.48700046539307,-1.44760000705719,-0.49939998984337,0.7042750120163,0.89209997653961,0.94957500696182,-1.06603753566742,-29.9110507965088,-30.189001083374,-19.6819515228271,0.08700000494719,-3.62700009346008,-2.92500019073486,8.31641292572021,5.76757478713989,-1.10508751869202,22.9120502471924,29.2330513000488,29.4820518493652,0.30195000767708,0.74043750762939,-0.72393751144409,1.85308754444122,0.36533749103546,-0.85745000839233,13.9669504165649,5.06205034255981,-15.8569507598877,-2.95395016670227,-3.59805011749268,-5.72295045852661,0.25822499394417,6.23273754119873,8.63032531738281,-34.2150001525879,-18.928050994873,23.3749504089355,1.18305003643036,-0.79846251010895,-1.3721125125885,-0.7402999997139,2.7992250919342,2.28731250762939,46.6450538635254,38.4900016784668,11.5600509643555,3.25995016098022,-3.93600010871887,-0.5830500125885,-6.96355009078979,-7.27952480316162,-6.37711238861084,6.06300020217896,-2.08605003356934,-16.4970016479492,0.9978374838829,1.11608743667603,0.3827999830246,-0.66371250152588,-1.52789998054504,-2.42385005950928,-25.4920520782471,-17.9580001831055,2.83005023002625,-5.6100001335144,-5.95500040054321,-1.41195011138916,2.8495500087738,-3.40271258354187,-5.72371244430542,24.6270008087158,16.9990501403809,7.8400502204895,1.91840004920959,1.51621246337891,0.18809999525547,-0.56691247224808,-0.80519998073578,1.1006875038147,-3.34995007514954,-16.3960514068604,-26.9440517425537,-0.56595003604889,-1.92195010185242,-0.37500002980232,SHAKE
-2.73968744277954,-5.29484987258911,-6.68153762817383,20.0959510803223,12.151050567627,7.28700017929077,-0.6484500169754,-2.17442488670349,-3.5844874382019,-2.05466246604919,-1.85556244850159,-0.7265499830246,-2.2150502204895,-15.0379505157471,-25.291051864624,-4.55205011367798,-2.75505018234253,5.62095022201538,-3.76131248474121,10.8960494995117,13.0563125610352,-42.2050514221191,-9.23295021057129,21.0919513702393,3.45840001106262,-0.59839999675751,-0.7537750005722,-2.29404997825623,2.07982492446899,1.49448752403259,38.2090530395508,34.0609512329102,21.6019515991211,2.13900017738342,-3.81405019760132,-3.7590000629425,-7.0219874382019,-7.55837488174438,-7.96276235580444,5.87895011901855,4.60200023651123,-5.43705034255981,0.1380500048399,0.43491250276566,0.79364997148514,1.98934996128082,-2.06002497673035,-4.33097505569458,-33.4169998168945,-13.7740507125854,22.816951751709,-3.75405025482178,-5.91000032424927,7.60500049591064,-0.15262499451637,-2.97481250762939,-5.80346250534058,28.617000579834,23.427001953125,14.9299507141113,-0.20460000634193,0.79254996776581,-0.05568749830127,0.7070249915123,-0.14863750338554,0.47712498903275,8.00804996490479,-3.86505007743835,-30.048002243042,2.89395022392273,1.90005004405975,-4.08704996109009,-2.71837496757507,11.5654001235962,9.18582534790039,-46.2259521484375,-4.45500040054321,45.6670532226563,3.97979998588562,0.22206249833107,-1.54659998416901,-3.36888742446899,1.7520250082016,-0.05183750018477,40.699951171875,35.6920509338379,6.31500053405762,6.07200050354004,-11.623950958252,-4.73400020599365,SHAKE
-0.15262499451637,-2.97481250762939,-5.80346250534058,28.617000579834,23.427001953125,14.9299507141113,-0.20460000634193,0.79254996776581,-0.05568749830127,0.7070249915123,-0.14863750338554,0.47712498903275,8.00804996490479,-3.86505007743835,-30.048002243042,2.89395022392273,1.90005004405975,-4.08704996109009,-2.71837496757507,11.5654001235962,9.18582534790039,-46.2259521484375,-4.45500040054321,45.6670532226563,3.97979998588562,0.22206249833107,-1.54659998416901,-3.36888742446899,1.7520250082016,-0.05183750018477,40.699951171875,35.6920509338379,6.31500053405762,6.07200050354004,-11.623950958252,-4.73400020599365,-8.14687538146973,-8.67157459259033,-8.28629970550537,6.22605037689209,3.3640501499176,-24.7810516357422,-1.43591248989105,0.35626250505447,1.72479999065399,0.60582500696182,-0.15070000290871,-1.65233743190765,-35.8939514160156,-31.8150024414063,16.6350002288818,6.40005016326904,2.95800018310547,6.61800050735474,5.14937496185303,1.95346248149872,-5.12448740005493,29.332950592041,27.4480514526367,15.234001159668,-1.17094993591309,-1.39012503623962,-1.56254994869232,-0.22206249833107,-0.56691247224808,0.54312497377396,-1.27605009078979,-15.5719509124756,-29.401050567627,-1.48800003528595,2.68995022773743,4.50104999542236,-3.05360007286072,5.54523754119873,11.8091878890991,-48.0270004272461,-36.7990531921387,-3.5179500579834,2.17813754081726,3.84573745727539,1.71407496929169,-2.75274991989136,-2.87622499465942,-0.60307496786118,27.901050567627,39.9820518493652,43.0140037536621,9.6739501953125,-1.89495003223419,-7.83795022964478,SHAKE
-4.33702516555786,-5.13411235809326,-5.73746252059937,7.80195045471191,5.50995016098022,3.34305024147034,-0.26097500324249,-1.90946245193481,-1.27311253547668,-0.26991251111031,0.43559998273849,0.35791251063347,-5.34105014801025,-26.1679515838623,-25.5000019073486,-2.53500008583069,0.3979500234127,1.80900013446808,9.65937519073486,12.3263244628906,10.0223751068115,-13.0669507980347,14.9680509567261,40.2210006713867,2.55804991722107,3.46692490577698,1.68437504768372,-2.75907492637634,-1.95359992980957,0.49733749032021,42.9780006408691,40.4820022583008,33.9820518493652,11.7810001373291,-1.43595004081726,-7.86600017547607,-6.3834376335144,-9.17496204376221,-9.45587539672852,16.7790012359619,5.08605003356934,-14.32200050354,-3.98048758506775,1.18525004386902,1.41941249370575,2.39373755455017,-1.87164998054504,-2.59531259536743,-39.0100517272949,-27.2359504699707,-10.5349502563477,0.52695000171661,-3.03795003890991,-4.99005031585693,10.1542377471924,4.94821262359619,-2.67368745803833,36.577953338623,36.5279998779297,26.9170513153076,-1.14001250267029,-0.99000000953674,-0.88247501850128,2.02551245689392,1.08267498016357,1.40937495231628,22.2559509277344,-7.07895040512085,-23.9479503631592,-0.69105005264282,2.04105019569397,0.24495001137257,-0.62191247940063,7.76613759994507,11.8027248382568,-50.5609512329102,-23.9550018310547,28.8949508666992,1.85679996013641,1.44484996795654,-0.84631252288818,-3.90747499465942,-0.19758750498295,1.08377504348755,33.355052947998,44.0869522094727,16.0630512237549,11.1469507217407,-2.66400003433228,-5.28900003433228,SHAKE
7.76613759994507,11.8027248382568,7.50117492675781,-23.9550018310547,28.8949508666992,36.3100509643555,1.44484996795654,-0.84631252288818,-1.61039996147156,-0.19758750498295,1.08377504348755,0.50696247816086,44.0869522094727,16.0630512237549,1.5660001039505,-2.66400003433228,-5.28900003433228,-3.69900012016296,-8.863112449646,3.86374998092651,10.4160375595093,-18.2190017700195,-39.6810035705566,-6.85395050048828,1.95249998569489,2.54636240005493,0.70743751525879,-3.40505003929138,-2.5590124130249,0.85277497768402,25.94700050354,41.347053527832,46.0750503540039,8.1340503692627,3.04200005531311,-3.69405007362366,-2.88117504119873,-7.48605012893677,-8.61299991607666,25.113000869751,11.3490009307861,5.03295040130615,-2.15105009078979,1.31821250915527,1.3417249917984,1.22732496261597,0.02584999985993,-0.81372499465942,-38.1019515991211,-23.5120506286621,-5.04795026779175,4.94595003128052,-2.56095004081726,-3.00000023841858,5.17811250686646,2.4536874294281,-1.22636246681213,26.1979503631592,31.0410022735596,28.1380519866943,-1.44980001449585,-1.810462474823,-2.01052498817444,0.62713748216629,0.42171248793602,0.44522500038147,12.3259506225586,-0.76605004072189,-15.631950378418,-1.14600002765656,1.44495010375977,2.10600018501282,-7.46789979934692,-3.35898756980896,4.25425004959106,-21.4189510345459,-44.0730018615723,-35.5990524291992,0.31679999828339,0.76697498559952,2.67726254463196,-0.02626249939203,-1.40552496910095,-2.79111242294312,-19.1050510406494,0.78495001792908,22.3300514221191,-0.51794999837875,5.27895021438599,7.92795038223267,SHAKE
-4.61903762817383,-6.47294998168945,-7.27636241912842,17.2240505218506,10.2520503997803,5.9719500541687,-1.42422497272491,-0.86652499437332,0.20941250026226,-0.30511251091957,-1.18841254711151,-1.19047498703003,-12.9499502182007,-28.3540515899658,-35.9250030517578,3.14505004882813,8.44305038452148,12.1480503082275,4.10533761978149,10.2053871154785,7.90460014343262,-37.0510520935059,-5.08905029296875,26.4330005645752,1.58001244068146,-1.13052499294281,-2.33200001716614,-1.6076500415802,0.6569749712944,0.97404998540878,33.8050498962402,39.1030502319336,24.8040008544922,-2.88705015182495,-5.98605012893677,-2.32905006408691,-7.00493764877319,-8.11387538909912,-7.04439973831177,12.5370006561279,5.3710503578186,-26.3190021514893,-0.05775000154972,1.42037498950958,2.69747495651245,0.50269997119904,-0.14231249690056,-2.35262489318848,-36.0229530334473,-18.2620506286621,22.0240516662598,8.09805011749268,-0.966000020504,3.33405017852783,4.20956230163574,1.85350000858307,-4.89362478256226,25.6330509185791,31.150951385498,17.9710502624512,-1.90946245193481,-2.39373755455017,-1.67433750629425,-0.01567500084639,0.00453749997541,0.19401249289513,11.1220502853394,-0.28995001316071,-25.7490005493164,-0.85095006227493,3.08505010604858,9.69300079345703,-3.5069375038147,3.34441256523132,9.33171272277832,-40.2840003967285,-37.8340530395508,-7.6690502166748,0.7957124710083,2.08986258506775,2.97948741912842,0.07273750007153,-1.51291251182556,-1.95566248893738,-1.56405007839203,18.5920505523682,31.2490520477295,3.44205021858215,4.19400024414063,-2.56800007820129,SHAKE
9.92969989776611,9.51898765563965,4.0020751953125,0.20505000650883,20.3520011901855,29.2690505981445,0.24763749539852,-1.91262495517731,-4.13159990310669,0.83146250247955,0.19621250033379,0.25258749723434,42.577953338623,19.4490013122559,-19.2840003967285,-10.2679500579834,-5.36100006103516,2.75895023345947,-7.06461238861084,7.86940002441406,10.8268871307373,-35.7979507446289,-19.9620018005371,11.8470001220703,4.97598743438721,1.96735000610352,-3.42498755455017,-3.191237449646,-0.14231249690056,0.54422497749329,11.4040508270264,39.2220001220703,26.4739513397217,-0.87000006437302,-17.4799499511719,-6.6589503288269,-6.40694999694824,-8.08307456970215,-7.60099983215332,14.4360008239746,0.79200005531311,-18.9760513305664,0.2743124961853,3.86814999580383,3.52329993247986,0.75913751125336,-0.23058749735355,-0.35722500085831,-37.3170013427734,-16.7220001220703,7.19100046157837,15.0049505233765,0.91500002145767,-0.73905003070831,5.74639987945557,1.80028748512268,-2.11914992332459,17.356050491333,28.7800521850586,22.5649509429932,-2.1041624546051,-3.5824248790741,-3.66217494010925,-0.7510250210762,-0.0772750005126,0.48344999551773,21.1350002288818,9.01395034790039,-22.2180004119873,-6.24495029449463,0.81495004892349,10.1860504150391,-6.30052518844604,-0.08552499860525,6.18804979324341,-34.7899513244629,-40.5379524230957,-18.4750499725342,1.92596244812012,1.23846244812012,1.0341374874115,0.0662750005722,-0.46997499465942,-0.77123749256134,-10.5160503387451,3.67605018615723,19.969051361084,0.09105000644922,0.4870500266552,1.5040500164032,SHAKE
-1.27531254291534,-3.66341257095337,-5.58538770675659,20.9790000915527,16.9030513763428,11.542950630188,-3.88148736953735,-3.86649990081787,-2.74381256103516,1.0060875415802,1.74239993095398,1.28273749351501,-1.33905005455017,-14.2530002593994,-26.4859504699707,6.26595020294189,7.96905040740967,12.9859504699707,-1.87233746051788,4.65451240539551,8.56858730316162,-39.8890533447266,-26.9850006103516,-1.1380500793457,2.38356256484985,3.42429995536804,2.63367509841919,-1.63102495670319,-1.73745000362396,-1.20642495155334,20.6749515533447,33.235050201416,38.5570526123047,3.92805027961731,-3.89805006980896,-13.4490003585815,-2.33419990539551,-6.74643754959106,-7.71168756484985,23.1660003662109,10.4509506225586,2.581050157547,-2.25747489929199,0.8095999956131,2.7230498790741,1.94356250762939,0.5654000043869,-0.77549999952316,-36.8140525817871,-33.376953125,-22.465051651001,12.1720504760742,7.53000020980835,0.09900000691414,10.4788751602173,5.43771266937256,3.12840008735657,13.8379507064819,24.3439502716064,31.5220508575439,-0.15881249308586,-1.7520250082016,-2.91403746604919,0.22921249270439,-0.08373750001192,-0.00068749999627,38.7960014343262,28.0210514068604,14.5249509811401,-10.1800508499146,-4.46100044250488,2.0460000038147,-7.27430009841919,-7.64774990081787,-6.9965500831604,7.19595050811768,-2.74905014038086,-16.6450500488281,1.26926255226135,2.01850008964539,1.47262501716614,0.54092502593994,-0.34869998693466,-1.17342495918274,-31.3219509124756,-21.5239505767822,-6.1429500579834,3.46395015716553,-2.69295001029968,-0.75105005502701,SHAKE
-0.45911249518394,-3.90073752403259,-6.09936237335205,29.8390522003174,20.0310001373291,13.8900003433228,-3.48768758773804,-2.86192488670349,0.67127501964569,2.81737494468689,2.73748755455017,-0.14437499642372,-13.0740003585815,-26.5390510559082,-28.8450012207031,4.63005018234253,4.53404998779297,6.05295038223267,9.39235019683838,10.2554378509521,8.51757526397705,-6.65295028686523,12.5299501419067,23.9110507965088,4.04263734817505,-0.56746250391006,-2.32773756980896,-3.63385009765625,1.09972500801086,0.55797499418259,28.5790519714355,37.4790000915527,28.1100006103516,-5.21295022964478,-13.1809501647949,-6.83595037460327,-8.07234954833984,-9.12807464599609,-8.75874996185303,9.78795051574707,-0.7140000462532,-23.742000579834,-1.41253745555878,2.74009990692139,3.31264996528625,2.36500000953674,-1.05751252174377,-2.20893740653992,-36.4279518127441,-19.090051651001,-3.08205008506775,10.7760009765625,1.03305006027222,2.17005014419556,7.6012749671936,5.80910015106201,2.79317498207092,18.8430004119873,28.1410522460938,35.3590507507324,0.98298752307892,-1.71366250514984,-4.88606262207031,-0.74882501363754,-2.26957488059998,-1.38201248645782,39.5650520324707,25.7220020294189,10.2360000610352,-21.3139514923096,-15.9469509124756,-4.53495025634766,-9.39097499847412,-8.08829975128174,-2.74601244926453,-3.18495011329651,-26.4460506439209,-45.6079521179199,2.99763751029968,3.49029994010925,3.18175005912781,0.2759625017643,-2.79537487030029,-2.1929874420166,-28.1869506835938,4.0009503364563,20.6470508575439,2.26800012588501,-0.10200000554323,-2.60895013809204,SHAKE
