gyro_x_0,gyro_y_0,gyro_z_0,acc_x_0,acc_y_0,acc_z_0,gyro_x_1,gyro_y_1,gyro_z_1,acc_x_1,acc_y_1,acc_z_1,gyro_x_2,gyro_y_2,gyro_z_2,acc_x_2,acc_y_2,acc_z_2,gyro_x_3,gyro_y_3,gyro_z_3,acc_x_3,acc_y_3,acc_z_3,gyro_x_4,gyro_y_4,gyro_z_4,acc_x_4,acc_y_4,acc_z_4,gyro_x_5,gyro_y_5,gyro_z_5,acc_x_5,acc_y_5,acc_z_5,gyro_x_6,gyro_y_6,gyro_z_6,acc_x_6,acc_y_6,acc_z_6,gyro_x_7,gyro_y_7,gyro_z_7,acc_x_7,acc_y_7,acc_z_7,gyro_x_8,gyro_y_8,gyro_z_8,acc_x_8,acc_y_8,acc_z_8,gyro_x_9,gyro_y_9,gyro_z_9,acc_x_9,acc_y_9,acc_z_9,gyro_x_10,gyro_y_10,gyro_z_10,acc_x_10,acc_y_10,acc_z_10,gyro_x_11,gyro_y_11,gyro_z_11,acc_x_11,acc_y_11,acc_z_11,gyro_x_12,gyro_y_12,gyro_z_12,acc_x_12,acc_y_12,acc_z_12,gyro_x_13,gyro_y_13,gyro_z_13,acc_x_13,acc_y_13,acc_z_13,gyro_x_14,gyro_y_14,gyro_z_14,acc_x_14,acc_y_14,acc_z_14,motion_type
-0.10848750174046,-0.3936625123024,-1.21948754787445,-0.14258749783039,0.89072501659393,0.65656250715256,8.26200008392334,2.05200004577637,-1.51800012588501,8.35200023651123,2.32095003128052,0.72105002403259,-6.52602481842041,-6.41629981994629,-6.24923753738403,-3.19005012512207,-2.74500012397766,-3.08895015716553,-4.82501268386841,-4.99853754043579,-4.83890008926392,-1.17067503929138,-1.69207501411438,-1.35905003547668,-15.1630506515503,-18.9750003814697,-25.0590019226074,6.21105051040649,11.1400508880615,17.1750011444092,-0.95700001716614,3.53718757629395,8.8145751953125,-24.3070507049561,-28.4290504455566,-15.4960508346558,2.22530007362366,2.90317487716675,3.04576253890991,0.20006249845028,0.81413751840591,1.02588748931885,-48.1230010986328,-57.7890014648438,-68.1330032348633,14.1090002059937,9.43905067443848,7.29600048065186,19.747200012207,18.8980007171631,15.4637994766235,28.3609504699707,40.0270500183105,45.1669540405273,4.89431238174438,4.26758766174316,2.32966256141663,-3.13623738288879,-1.95607495307922,0.31391251087189,-8.45700073242188,-6.51405048370361,-3.07305026054382,0.60600000619888,-3.90705013275146,-0.67905002832413,4.52264976501465,3.22217488288879,2.52188754081726,27.0480003356934,21.3319511413574,18.6559505462646,0.83338749408722,0.29906249046326,0.09267500042915,0.51603752374649,0.82472497224808,1.0896874666214,-0.17505000531673,0.23205001652241,0.2790000140667,4.06005001068115,6.63000011444092,7.51395034790039,0.94366252422333,1.00759994983673,0.93197500705719,9.43994998931885,9.54795074462891,10.1299505233765,SWING_LEFT
0.52579998970032,0.23842500150204,-0.07548750191927,-0.4811125099659,-0.36932501196861,0.02557500079274,5.25900030136108,4.27905035018921,2.84505009651184,8.24895000457764,7.96395015716553,7.08705043792725,-5.4617748260498,-5.95443725585938,-6.29076242446899,1.70895004272461,0.74400001764297,-0.10500000417233,-3.05854988098145,-4.00248765945435,-5.87647485733032,0.72049999237061,1.47812497615814,2.85848736763,-6.56205034255981,-10.7490005493164,-19.9960517883301,2.54400014877319,1.87605011463165,0.20400001108646,-4.0772876739502,-1.20711255073547,7.67910003662109,-19.0470008850098,-29.8420505523682,-21.4230003356934,3.29271245002747,5.01888751983643,4.76451253890991,-1.32385003566742,-1.47716248035431,-0.55659997463226,-51.6679534912109,-66.9310531616211,-78.4030532836914,13.7530508041382,4.63200044631958,-1.24605000019073,21.929874420166,21.0104122161865,16.5811252593994,27.7500019073486,44.9680519104004,52.6579513549805,5.82972478866577,2.96711254119873,0.36932501196861,-3.17143750190735,-1.20573747158051,0.9481999874115,-10.2700500488281,-5.41995048522949,2.49705004692078,-12.7999505996704,-11.8200006484985,1.27500009536743,2.69114995002747,1.16187500953674,0.951087474823,28.9759521484375,17.9670009613037,11.1240005493164,-0.27871251106262,0.16183750331402,0.48207500576973,0.97047501802444,0.24681249260902,0.2788499891758,-1.62600004673004,-1.69800007343292,-0.77805006504059,9.07005023956299,10.3060503005981,8.73300075531006,0.77233749628067,0.30511251091957,0.1040875017643,9.51705074310303,8.21595001220703,7.93095016479492,SWING_LEFT
0.98766249418259,0.88123750686646,0.39269998669624,-0.33742499351501,-0.05967500060797,-0.04688749834895,6.15405035018921,5.51505041122437,5.76600027084351,9.74805068969727,7.48005056381226,6.83595037460327,-5.00101232528687,-5.34888744354248,-5.68411254882813,0.69105005264282,-0.26805001497269,-0.93600004911423,-2.9499249458313,-3.53306245803833,-3.36820006370544,1.50150001049042,1.07057499885559,0.41923749446869,-6.88305044174194,-10.0590000152588,-13.9750509262085,4.43595027923584,6.52005052566528,9.6739501953125,-5.42987489700317,-4.21231269836426,3.37438750267029,-8.14800071716309,-15.703950881958,-34.066951751709,1.53779995441437,1.43453752994537,1.13451254367828,0.61503750085831,-0.01704999990761,-1.21742498874664,-48.1060523986816,-64.5409545898438,-78.4030532836914,8.95305061340332,3.32895016670227,-1.58895003795624,22.6876373291016,16.12668800354,10.0575752258301,56.344051361084,51.2050514221191,27.0250511169434,2.21897506713867,0.92702502012253,1.92197501659393,2.20825004577637,3.99602508544922,1.23557496070862,-2.87595009803772,0.87795001268387,1.49100005626678,1.02495002746582,4.05000019073486,2.00505018234253,1.95469999313354,0.86075001955032,0.36684998869896,21.3670501708984,15.3250503540039,10.6210508346558,0.05004999786615,0.34264999628067,0.23526249825954,1.90698754787445,0.41717499494553,-0.57144999504089,-0.18405000865459,1.00499999523163,2.75805020332336,5.5900502204895,4.7039999961853,5.25300025939941,0.3605250120163,0.33068749308586,0.52868747711182,7.49805021286011,5.65905046463013,5.44500017166138,SWING_LEFT
-0.30002498626709,-0.38101249933243,-0.43944999575615,0.73315000534058,1.16215002536774,1.54838752746582,5.49600028991699,4.61895036697388,2.75400018692017,10.4640007019043,9.58995056152344,7.81095027923584,-5.68095016479492,-6.1950626373291,-6.47803735733032,1.65405011177063,-0.46005001664162,-2.18700003623962,-1.63776254653931,-2.78286242485046,-3.0329749584198,1.23227500915527,0.96731251478195,1.01846253871918,-7.98195028305054,-14.6839504241943,-18.9229507446289,3.91395020484924,4.76595020294189,6.44505023956299,-2.49906253814697,0.55426251888275,4.85045003890991,-19.7250003814697,-26.719051361084,-24.7120513916016,3.53526258468628,2.9467625617981,2.14114999771118,0.18521249294281,-0.1032624989748,-0.03946249932051,-50.4360008239746,-64.9600524902344,-77.6890563964844,2.90805006027222,0.69300001859665,2.8000500202179,22.0895118713379,14.9391002655029,9.09452533721924,35.389949798584,52.2730522155762,37.326000213623,3.73009991645813,2.29130005836487,0.86624997854233,-2.36898756027222,2.03788757324219,2.78286242485046,-4.50705003738403,-4.56704998016357,4.52805042266846,4.91295003890991,0.53700000047684,4.91505002975464,0.41690000891685,-0.08648750185966,0.24241249263287,15.7150506973267,9.3880500793457,6.92100048065186,0.37468749284744,0.34595000743866,0.15853749215603,0.23416249454021,0.54491251707077,0.36602500081062,1.81200003623962,2.61495018005371,3.00705003738403,8.05995082855225,6.16500043869019,5.09205007553101,0.69781249761581,0.62438750267029,0.7372750043869,6.48705053329468,6.10200023651123,7.08600044250488,SWING_LEFT
-1.22704994678497,-1.52927494049072,-2.23904991149902,0.01278750039637,-0.33206251263618,-0.45443749427795,0.69105005264282,-1.28295004367828,-2.80695009231567,6.60795021057129,5.39595031738281,5.61705017089844,-6.07474994659424,-6.25996255874634,-6.17471265792847,2.20305013656616,1.57500004768372,-1.12604999542236,-3.54062509536743,-3.41288757324219,-3.43420004844666,-0.81097501516342,-0.45333749055862,0.16816249489784,-12.256950378418,-14.1760511398315,-18.4409999847412,10.5529508590698,10.3110008239746,11.2450504302979,-2.12121248245239,1.14276254177094,6.09771251678467,-17.3730010986328,-28.1340007781982,-31.348051071167,4.480299949646,6.85354995727539,7.28983736038208,-0.34375,-0.98656249046326,-0.47781249880791,-51.142951965332,-68.1910552978516,-78.4030532836914,19.5529518127441,5.63595008850098,-2.37405014038086,22.6259002685547,19.6620864868164,11.8347625732422,39.0709533691406,60.9019546508789,52.1149520874023,6.40543746948242,2.9053750038147,-0.26922500133514,-5.05931234359741,-0.18947499990463,3.4820499420166,2.0419499874115,-2.38500022888184,1.13700008392334,-9.45195007324219,-8.5420503616333,4.23495006561279,0.84686249494553,0.38706248998642,-0.71114999055862,14.5489511489868,12.7189502716064,6.52995014190674,-0.25217500329018,-0.18301250040531,-0.17765000462532,1.32068753242493,0.77261251211166,0.14891250431538,2.02800011634827,2.18099999427795,2.84505009651184,7.55205059051514,7.38705015182495,7.92105054855347,-0.09597499668598,0.11687500029802,0.22742499411106,2.77305006980896,2.91105008125305,3.51495027542114,SWING_LEFT
-0.12553749978542,-0.19359999895096,-1.30047500133514,-0.14258749783039,0.01911249943078,0.04042499884963,5.43795013427734,5.74305009841919,1.0200001001358,9.9330005645752,7.71495056152344,4.71600008010864,-5.33403730392456,-5.41488742828369,-5.73320007324219,4.52100038528442,4.9830002784729,4.06305027008057,-4.12169981002808,-4.15992498397827,-3.61611247062683,2.4253625869751,2.56148743629456,2.2092125415802,-8.01300048828125,-10.452000617981,-11.8770008087158,5.15700006484985,6.47205018997192,8.05995082855225,-5.74268770217896,-2.88846254348755,0.78938752412796,-6.87405014038086,-20.0890502929688,-30.35205078125,3.62147498130798,5.58291244506836,6.0405125617981,-1.17809998989105,1.04073750972748,1.76013743877411,-37.6830024719238,-51.2119522094727,-71.2009506225586,26.2159519195557,15.5179510116577,4.22294998168945,21.6339740753174,22.3821125030518,18.0881252288818,15.3319511413574,38.5879516601563,41.3040008544922,6.47790002822876,2.8744375705719,0.36712500452995,-4.54629993438721,-0.10106249898672,1.43233752250671,-9.50295066833496,-8.75400066375732,-2.61795020103455,-12.9700508117676,-10.8529500961304,2.77605009078979,3.84257507324219,0.99907499551773,-0.02901249937713,26.1649513244629,19.5760517120361,14.9059505462646,0.42996248602867,-0.0042624999769,-0.13832500576973,1.93998754024506,1.37170004844666,0.39160001277924,2.1739501953125,1.22295010089874,2.39400005340576,3.64605021476746,5.63100004196167,9.58995056152344,-0.54614996910095,-0.46529999375343,-0.30566251277924,3.78300023078919,2.96700024604797,2.57400012016296,SWING_LEFT
-0.76614999771118,-0.83751249313354,-0.69918751716614,0.95672500133514,1.01516246795654,1.24822497367859,2.38905000686646,2.81295013427734,2.932950258255,10.5790500640869,11.5729503631592,11.8009510040283,-1.98068749904633,-2.27452492713928,-2.56602501869202,1.76895010471344,0.71505004167557,0.86400002241135,-0.81083750724792,-0.512875020504,-0.57997500896454,1.95813751220703,1.65701246261597,1.20780003070831,-1.12095010280609,-4.64595031738281,-9.34005069732666,8.49300003051758,6.11205005645752,4.67505025863647,-5.30749988555908,-3.99849987030029,-2.35963749885559,-11.1630001068115,-14.4559507369995,-18.328950881958,-1.23337495326996,-0.01911249943078,2.7691125869751,-0.14162500202656,-1.19295001029968,-0.88646250963211,-25.3410015106201,-32.8999519348145,-63.7189521789551,11.2879505157471,15.3000011444092,6.82605028152466,21.5137996673584,22.3513126373291,8.72836208343506,14.5870504379272,50.5530014038086,32.1139526367188,2.67437505722046,0.31721249222755,0.31294998526573,-7.4930624961853,0.53308749198914,3.47036242485046,-5.40795040130615,-1.81005012989044,2.9760000705719,3.85605025291443,12.0349502563477,15.2370004653931,2.35056257247925,1.13849997520447,0.86281251907349,19.0849514007568,11.7970504760742,8.27595043182373,-0.2745875120163,0.27238750457764,0.28201249241829,0.4629625082016,0.04248749837279,0.38197499513626,1.98195004463196,2.61900019645691,2.0830500125885,11.7810001373291,10.8910503387451,8.05005073547363,0.20405000448227,0.37014999985695,0.50311249494553,2.49195003509521,2.43495011329651,2.70105004310608,SWING_LEFT
-0.02873750030994,-0.18727499246597,-0.67471247911453,0.27032500505447,0.33522498607635,1.00251245498657,2.53995013237,2.39895009994507,0.82605004310608,9.38205051422119,9.63600063323975,8.89305019378662,-1.87220001220703,-2.10526251792908,-2.67671251296997,-2.47395014762878,-1.24305009841919,-0.94800007343292,-1.45791244506836,-1.53450000286102,-1.35465002059937,-0.27032500505447,-0.78003752231598,-1.00993752479553,-5.7330002784729,-8.3299503326416,-9.52995014190674,8.60295009613037,10.4160003662109,14.2440004348755,-2.16700005531311,-0.99852502346039,6.46593761444092,-7.83600044250488,-16.7170505523682,-17.6580009460449,6.83113765716553,4.77193737030029,1.96350002288818,2.76265001296997,3.8257999420166,4.43767499923706,-34.8259506225586,-40.9759521484375,-50.9110527038574,5.33595037460327,2.07000017166138,7.14000034332275,18.6254749298096,17.3696880340576,14.0494747161865,20.9560508728027,33.775951385498,32.7199516296387,6.4204249382019,3.28102493286133,1.48142504692078,-1.60916244983673,2.57001256942749,4.05143737792969,-12.7480506896973,-4.2940502166748,-1.32705008983612,-7.46205043792725,-2.13300013542175,0.60900002717972,3.78193736076355,2.02386260032654,0.7011125087738,25.1350517272949,22.3830013275146,16.7260513305664,0.18411250412464,0.48743748664856,0.50448751449585,2.05287504196167,1.55801248550415,1.02162504196167,0.04200000315905,-0.82095003128052,-0.61305004358292,6.68505048751831,5.75100040435791,4.46205043792725,-0.21202500164509,0.02103750035167,0.15083749592304,4.19295024871826,4.38195037841797,4.8270001411438,SWING_LEFT
-0.29686251282692,-0.82692497968674,-1.16847503185272,-0.2426874935627,-0.14685000479221,0.09679999947548,4.15500020980835,4.40100002288818,2.73705005645752,7.39905023574829,7.43505048751831,6.26100015640259,-4.17298746109009,-4.01018762588501,-3.86759996414185,-1.81800007820129,-3.01800012588501,-3.8580002784729,-3.49703741073608,-3.33739995956421,-3.25434994697571,1.43879997730255,1.01199996471405,0.45333749055862,-4.82100009918213,-7.30500030517578,-9.8100004196167,7.52595043182373,6.96495056152344,8.50005054473877,-2.22763752937317,-1.58056247234344,3.15191245079041,-7.33095026016235,-10.0710000991821,-28.4959506988525,3.56826257705688,5.33596229553223,6.11283731460571,-3.25324988365173,-3.60662508010864,-2.44131255149841,-38.6340026855469,-47.4570007324219,-55.8559532165527,14.6119508743286,7.91595029830933,3.13305020332336,18.2881870269775,16.890775680542,11.1707754135132,29.263952255249,47.8200035095215,46.9219512939453,6.10967493057251,2.07308745384216,0.5321249961853,-4.74746227264404,0.865149974823,3.47668743133545,5.73795032501221,0.19305001199245,2.58300018310547,-3.73695015907288,-0.61200004816055,5.0779504776001,3.28597497940063,2.16012501716614,0.83091247081757,17.1000003814697,14.1300010681152,8.70300006866455,-0.7375500202179,-1.25468754768372,-1.02478754520416,0.69066250324249,1.54206252098084,0.94503748416901,3.68505024909973,2.85405015945435,2.68905019760132,7.52100038528442,8.7450008392334,10.1839504241943,0.66701251268387,0.48179998993874,0.45622500777245,5.51505041122437,4.94700002670288,4.48695039749146,SWING_LEFT
-0.35021248459816,-1.3388375043869,-2.2178750038147,-1.375,-1.20037496089935,-0.22137500345707,-0.85695004463196,-2.79705023765564,-3.91800022125244,4.45005035400391,6.16800022125244,6.31800031661987,-6.54403734207153,-5.88101243972778,-4.64131259918213,-1.28595006465912,-5.38905048370361,-7.58505058288574,-2.70943737030029,-0.43422499299049,0.8981499671936,-0.41084998846054,0.10642500221729,1.00773751735687,-12.2220001220703,-10.7200508117676,-12.41100025177,14.7030010223389,19.9369506835938,15.6949510574341,0.32216250896454,3.6478750705719,6.96286249160767,-4.09305000305176,-15.6540002822876,-16.3630504608154,2.40088748931885,2.63174986839294,2.67643737792969,1.57822501659393,1.46011245250702,1.34722495079041,-32.509952545166,-47.3880004882813,-67.2829513549805,11.32200050354,9.85305023193359,10.0519504547119,21.9958744049072,19.6205615997314,7.93553733825684,32.9809532165527,53.6689529418945,21.2839508056641,4.136549949646,1.29085004329681,1.5633749961853,0.72998750209808,3.54172492027283,2.08683753013611,-6.80895042419434,-2.43105006217957,-0.98895007371902,-8.01705074310303,1.04205000400543,3.61200022697449,3.20306253433228,1.50452494621277,0.9288125038147,18.5149517059326,14.7910509109497,13.3560009002686,-0.18301250040531,-0.36822500824928,-0.0671000033617,1.0205249786377,1.16104996204376,0.53102499246597,2.11199998855591,1.50795006752014,1.48395001888275,5.96895027160645,8.51895046234131,8.83995056152344,0.39462500810623,0.34567499160767,0.21477499604225,7.06695032119751,6.77205038070679,6.69795036315918,SWING_LEFT
-0.02983750030398,-0.16816249489784,-0.2745875120163,0.83957499265671,0.60334998369217,0.37028750777245,1.29495000839233,0.74400001764297,-0.02400000020862,7.28805017471313,6.84105014801025,7.41795015335083,-5.11376237869263,-5.35851240158081,-4.98286247253418,1.69995009899139,-3.27405023574829,-4.64595031738281,-1.75917494297028,-1.39205002784729,-0.94929999113083,0.4086500108242,-0.26289999485016,-0.85250002145767,-9.07695007324219,-11.3070001602173,-16.0890007019043,8.52195072174072,10.2700500488281,12.3109502792358,-1.8466249704361,0.25093749165535,3.39350008964539,-15.1720504760742,-20.5159511566162,-23.8879508972168,2.89891242980957,2.98402500152588,2.98512506484985,-1.26115000247955,-0.52992498874664,0.06599999964237,-31.6549510955811,-36.2820014953613,-41.4409523010254,11.0820007324219,9.71205043792725,7.91805028915405,14.8879499435425,15.7393503189087,15.2253751754761,8.65500068664551,13.9960508346558,15.4090509414673,5.37748765945435,5.72440004348755,5.5147123336792,-3.10007500648499,-4.36218738555908,-2.12313747406006,-31.4179515838623,-25.8970508575439,-13.1460008621216,-1.50300002098084,-3.43800020217896,-3.09795022010803,8.56446266174316,3.1828498840332,1.79616248607636,32.9230499267578,22.8859519958496,20.1510009765625,-0.36822500824928,-0.50448751449585,-0.25973749160767,1.98467493057251,1.81871247291565,0.88330000638962,-2.06895017623901,-2.53095006942749,-2.50305008888245,2.93700003623962,4.77105045318604,5.39205026626587,0.02309999987483,-0.32161250710487,-0.53130000829697,10.782000541687,9.4980001449585,7.81905031204224,SWING_LEFT
0.49692499637604,0.21285000443459,-1.24093747138977,0.49486249685287,0.60238748788834,1.33031249046326,2.13795018196106,1.13205003738403,-0.96300005912781,7.79595041275024,6.40200042724609,2.94600009918213,-4.67005014419556,-5.12118768692017,-5.08612489700317,-0.99900007247925,-4.21005010604858,-7.81695032119751,-2.85958743095398,-2.6669499874115,-2.17098760604858,0.97693747282028,-0.17132499814034,-1.26747500896454,-11.9290504455566,-13.6540508270264,-15.0190505981445,4.69695043563843,7.22595024108887,11.1540002822876,-0.42803749442101,2.26861238479614,5.46342515945435,-20.7259502410889,-23.2410011291504,-22.9300518035889,3.07229995727539,3.44052505493164,3.88327503204346,-1.8463499546051,-2.33804988861084,-0.57887500524521,-36.1260032653809,-45.4050025939941,-55.9470024108887,8.50695037841797,10.9909505844116,18.3250503540039,18.0923881530762,14.8890495300293,10.1554746627808,17.6980514526367,37.8360023498535,26.1120014190674,5.17728757858276,2.69238758087158,3.4597749710083,-3.71304988861084,1.85171246528625,0.90667498111725,-8.09295082092285,-5.1060004234314,-3.15405011177063,-5.65995025634766,4.68705034255981,-0.89895004034042,3.71483755111694,1.73332500457764,0.93307501077652,18.1369514465332,15.2599506378174,13.3990507125854,0.02983750030398,-0.37042498588562,-0.37248748540878,1.09931254386902,0.58850002288818,0.0,3.03900003433228,1.84095013141632,2.6340000629425,4.213050365448,4.95795011520386,6.81900024414063,0.01361249946058,-0.05664999783039,-0.12801249325275,7.74705028533936,7.47900056838989,6.49695014953613,SWING_LEFT
-1.11856245994568,-0.70771247148514,-0.42996248602867,0.8289874792099,0.76092499494553,0.95782500505447,1.53195011615753,1.55100011825562,1.53000009059906,11.1300001144409,10.9339504241943,11.2350006103516,-3.64622497558594,-5.02012491226196,-5.62251234054565,6.09195041656494,1.46205008029938,-4.3560004234314,0.34691250324249,-0.26922500133514,-1.37926244735718,0.65656250715256,0.27032500505447,0.42143750190735,-4.89000034332275,-6.41595029830933,-8.75100040435791,3.46800017356873,1.65105009078979,0.85500001907349,-4.46888732910156,-1.58056247234344,1.85886251926422,-10.0470008850098,-22.8679504394531,-30.318000793457,-0.57475000619888,1.74528753757477,3.06061244010925,-1.25358748435974,-0.53748750686646,-1.53559994697571,-35.2639503479004,-40.6620025634766,-47.9839515686035,24.3979511260986,14.0020503997803,2.95305013656616,18.6371631622314,18.6584739685059,12.5031499862671,15.1260004043579,27.2880020141602,30.6820507049561,4.18233728408813,2.1900999546051,0.80134999752045,-2.27741241455078,-0.20858749747276,0.29053750634193,-12.1450510025024,-11.9320507049561,-6.20505046844482,-7.50705051422119,-5.44500017166138,2.45295000076294,3.02211236953735,1.56406247615814,0.93197500705719,22.2559509277344,15.8710508346558,11.1190509796143,0.24901250004768,0.50118750333786,0.73108750581741,1.20037496089935,0.19896249473095,-0.37358748912811,-2.54295015335083,-1.7700001001358,-0.92205005884171,7.01295042037964,8.20604991912842,8.3569507598877,0.41909998655319,-0.0417999997735,-0.04069999977946,8.77200031280518,6.70305013656616,5.37600040435791,SWING_LEFT
-0.31927499175072,-0.37564998865128,-0.59812498092651,-0.10216250270605,1.54948747158051,2.20288753509521,5.75700044631958,6.16605043411255,3.85305023193359,12.0739507675171,9.99705028533936,8.01600074768066,-4.49336242675781,-4.82116270065308,-5.16271257400513,1.932000041008,-0.06495000422001,-0.46905001997948,-2.05397510528564,-2.0625,-1.74322497844696,0.69066250324249,0.4086500108242,-0.30222499370575,-7.97295045852661,-10.9399509429932,-12.4060506820679,5.44905042648315,7.26705026626587,10.2730503082275,-3.13004994392395,-1.15486252307892,0.96071249246597,-15.9169511795044,-16.9020004272461,-15.1939506530762,1.5856499671936,3.46073746681213,4.91232490539551,-0.06063750013709,-0.12457499653101,-0.42253750562668,-22.6399517059326,-40.1350517272949,-56.7570037841797,12.6990003585815,15.292950630188,11.0989503860474,21.0209999084473,20.5389251708984,16.1958503723145,27.0130519866943,46.1419525146484,48.4699516296387,8.2762622833252,5.25717496871948,2.40721249580383,-2.91802501678467,-0.47038748860359,1.26527500152588,-17.7490501403809,-11.4600009918213,-2.31105017662048,-13.0609502792358,-9.67005062103272,-1.15305006504059,2.67409992218018,1.48967504501343,0.6903874874115,22.3279514312744,17.7799510955811,13.5139503479004,-0.17984999716282,0.23512500524521,0.37248748540878,1.0674124956131,0.25959998369217,0.37674999237061,-2.51505017280579,-1.06095004081726,1.69005012512207,7.93305015563965,8.38800048828125,7.45095014572144,-0.24818749725819,-0.65051251649857,-0.36533749103546,10.5400505065918,5.4529504776001,5.16000032424927,SWING_LEFT
-0.27252501249313,-0.63854998350143,-1.24409997463226,1.56007504463196,1.44306254386902,1.23763751983643,-3.80295014381409,-4.74405002593994,-6.61200046539307,6.17205047607422,4.20105028152466,4.60395002365112,-7.10916233062744,-6.75372505187988,-6.05989980697632,-3.65700006484985,-5.92500019073486,-7.98195028305054,-0.91519999504089,-1.50590002536774,-1.58042502403259,-0.52676248550415,-0.8397125005722,-0.23842500150204,-13.9990510940552,-14.4850511550903,-18.3550510406494,4.33305025100708,6.21105051040649,13.4220008850098,0.35089999437332,2.37393736839294,5.77087497711182,-12.8659505844116,-20.2189502716064,-25.8280506134033,1.88361251354218,2.31563758850098,2.94140005111694,-0.97913748025894,-1.36001253128052,-1.02162504196167,-42.8989524841309,-58.2540016174316,-77.0329513549805,7.47000026702881,6.99105024337769,4.75005006790161,22.8993873596191,19.2373504638672,14.0248622894287,42.0319519042969,46.7449531555176,21.6720008850098,4.49515008926392,4.45472478866577,2.22736239433289,-6.50443744659424,-4.17601251602173,0.37771248817444,-19.476001739502,-8.05200004577637,-0.88800007104874,1.9450501203537,-0.68805003166199,1.16700005531311,4.6481876373291,2.97426247596741,1.95249998569489,25.1160011291504,19.4299507141113,14.5249509811401,0.37028750777245,0.36932501196861,0.38733750581741,0.79392498731613,0.90461248159409,0.91519999504089,-1.29795002937317,0.98805004358292,1.84095013141632,5.89500045776367,8.22000026702881,6.02100038528442,0.31790000200272,0.04757500067353,-0.13969999551773,9.28500080108643,8.06595039367676,6.83700037002563,SWING_LEFT
0.35640001296997,-0.20116250216961,-1.06534993648529,0.35227498412132,0.39696249365807,0.63318747282028,5.05800008773804,3.42405009269714,1.11105000972748,7.63995027542114,5.37495040893555,5.18595027923584,-6.27591228485107,-6.32266235351563,-6.24923753738403,-0.51195001602173,-1.50600004196167,-2.37600016593933,-2.00186252593994,-1.84965002536774,-1.18126249313354,-0.06173750013113,-0.48427498340607,-0.54381251335144,-9.37095069885254,-10.2190504074097,-11.1169509887695,7.55895042419434,11.203950881958,13.6470003128052,-3.49401259422302,-0.96126252412796,-0.39187499880791,-11.7070503234863,-5.50800037384033,-12.6139507293701,3.81081247329712,3.52563738822937,3.22767496109009,0.04262499883771,0.61187499761581,1.17383754253387,-27.7699508666992,-35.7120018005371,-70.1950531005859,12.0379505157471,10.4569501876831,12.7390508651733,21.6094989776611,21.5095367431641,19.0203742980957,27.1950016021729,38.5249519348145,51.4590034484863,3.88533759117126,4.98465013504028,2.90413737297058,-2.79991245269775,-5.44018745422363,-2.11983752250671,-1.61205005645752,4.06800031661987,-1.57995009422302,0.22095000743866,-4.72605037689209,-3.86400008201599,2.89231252670288,2.01753759384155,1.56516253948212,24.8950519561768,19.2100505828857,14.4580507278442,2.04434990882874,1.45364999771118,0.77783751487732,1.49311244487762,0.59482496976852,0.14794999361038,0.90705001354218,1.70895004272461,1.8840000629425,2.11005020141602,2.4190502166748,5.21205043792725,0.03808749839664,0.06888750195503,0.19978749752045,5.93400049209595,4.69305038452148,3.64005017280579,SWING_LEFT
-0.93967497348785,-1.3026750087738,-1.87302494049072,-0.51507496833801,-0.47354999184608,-0.32670000195503,2.23605012893677,1.70895004272461,0.65505003929138,7.35300016403198,6.48405027389526,4.97505044937134,-4.04208755493164,-3.87722492218018,-3.62917494773865,0.0949500054121,-3.70500016212463,-5.10405015945435,-2.9808623790741,-1.44636249542236,-0.7790749669075,1.54728746414185,1.21536254882813,0.76628750562668,-8.13794994354248,-11.2560005187988,-13.7620506286621,10.9980001449585,10.206000328064,8.46000003814697,-1.82861244678497,-0.98780000209808,0.29342499375343,-9.00300025939941,-10.5190505981445,-13.4020509719849,1.26747500896454,1.99210000038147,2.81696248054504,-1.47290003299713,-0.67471247911453,0.45870000123978,-32.2200012207031,-38.1499519348145,-45.2269515991211,14.2410011291504,14.7300004959106,10.0279502868652,18.8234748840332,19.1672248840332,16.2777996063232,19.6120510101318,34.3579521179199,46.9849510192871,4.8730001449585,3.12234997749329,0.59482496976852,-2.51789999008179,-0.77261251211166,0.74071252346039,1.18995010852814,0.0259500015527,-3.46500015258789,-6.02700042724609,-9.05205059051514,-2.32395005226135,4.26607513427734,2.81778740882874,1.57684993743896,23.7769508361816,21.106050491333,16.8790512084961,0.69382500648499,-0.16293749213219,-0.83008748292923,0.5321249961853,0.73425000905991,0.88109999895096,3.4980001449585,3.66795015335083,2.71305012702942,2.71605014801025,3.83205008506775,6.41205024719238,-0.12691250443459,0.03272499889135,0.01787500083447,6.22905015945435,6.51405048370361,6.01095008850098,SWING_LEFT
-1.45585000514984,-1.06424999237061,-0.88756251335144,1.10783743858337,1.60806250572205,1.38874995708466,-1.0440000295639,-0.39000001549721,0.19800001382828,13.2949504852295,11.0989503860474,9.84195041656494,-1.0176374912262,-1.50191247463226,-2.2595374584198,0.95205003023148,1.30200004577637,-0.99405002593994,-1.14083755016327,-1.38985002040863,-1.59321248531342,1.02698755264282,0.78856247663498,0.4959625005722,-4.78005027770996,-6.26805019378662,-8.16405010223389,7.95705032348633,7.61400032043457,7.7359504699707,-3.01303744316101,-2.69169998168945,-1.56461250782013,-4.78995037078857,-8.28194999694824,-12.4780502319336,0.51603752374649,4.26098728179932,5.408287525177,-0.38527500629425,1.13767504692078,0.6044499874115,-20.484001159668,-43.0930519104004,-57.376953125,17.7210006713867,17.5489501953125,2.34705018997192,19.284236907959,20.2164878845215,14.98268699646,11.9100008010864,27.3670520782471,34.2739524841309,6.08396244049072,5.68919992446899,1.60269999504089,-5.24232482910156,-2.6669499874115,0.74497497081757,-9.46695041656494,-8.48805046081543,-1.5900000333786,0.81705003976822,-6.18000030517578,1.26495003700256,3.2742874622345,1.5555374622345,0.43821248412132,22.7830505371094,18.1990509033203,13.5499505996704,0.23402500152588,0.13612499833107,0.34691250324249,1.16957497596741,1.06424999237061,0.68433749675751,-0.31095001101494,-0.01695000007749,1.29705011844635,6.87195014953613,8.22195053100586,8.54295063018799,0.34127500653267,0.39778751134872,0.5127375125885,5.2350001335144,4.87995004653931,4.65300035476685,SWING_LEFT
-0.49486249685287,-0.1553750038147,-0.44591251015663,0.2404875010252,0.59592497348785,0.64377498626709,2.90205025672913,3.28500008583069,3.4789502620697,12.0430507659912,8.20995044708252,6.73305034637451,-3.67070007324219,-4.27418756484985,-4.81153726577759,1.62495005130768,1.39995002746582,1.932000041008,-1.21329998970032,-1.21536254882813,-1.05792498588562,0.13089999556541,-0.37674999237061,-0.32780000567436,-2.33700013160706,-3.34995007514954,-9.66600036621094,6.46905040740967,8.49495029449463,5.51595020294189,-5.61824989318848,-4.57311248779297,-1.97546243667603,-6.10200023651123,-8.17905044555664,-11.4769506454468,-1.67612504959106,3.45537495613098,5.24865007400513,0.31075000762939,0.46186250448227,1.41006255149841,-21.9019508361816,-34.8640518188477,-57.3370513916016,21.892951965332,22.9759502410889,4.68705034255981,18.2082996368408,18.7765865325928,15.0742626190186,14.60205078125,23.5660514831543,28.9669513702393,5.49230003356934,3.95449995994568,2.22516250610352,-3.82800006866455,-0.53748750686646,1.40043747425079,-20.275951385498,-16.1470508575439,-2.69205021858215,-2.08004999160767,-1.08795011043549,1.86405003070831,4.86310005187988,2.52614998817444,0.6542249917984,29.9149513244629,26.0110511779785,18.4140014648438,-0.80987501144409,-0.07452499866486,0.21064999699593,2.07418751716614,0.51823747158051,0.10848750174046,-0.13095000386238,-0.82605004310608,0.22905001044273,4.36905002593994,7.94895029067993,6.00495052337646,0.40411248803139,0.47863748669624,0.3753750026226,6.1210503578186,6.97305011749268,6.34605026245117,SWING_LEFT
0.48730000853539,0.35117501020432,0.06063750013709,-0.8289874792099,-0.47038748860359,-0.18947499990463,2.74200010299683,2.29605007171631,1.59705007076263,8.30895042419434,7.15905046463013,5.68605041503906,-4.91260004043579,-5.49051237106323,-6.113112449646,0.77295005321503,0.66000002622604,-1.61400008201599,-3.17350006103516,-3.51725006103516,-3.51725006103516,-1.42601251602173,-0.99935001134872,-0.9811999797821,-11.1220502853394,-12.9229507446289,-14.6839504241943,7.32405042648315,8.95305061340332,12.0280504226685,-2.44584989547729,-0.95273751020432,3.41371250152588,-9.39105033874512,-11.9170503616333,-16.7890510559082,2.53481245040894,4.06202507019043,5.28055000305176,-0.80561250448227,-1.23763751983643,-1.40579998493195,-30.3810005187988,-38.3200531005859,-50.0650520324707,17.3689498901367,14.157000541687,7.26000022888184,19.2905616760254,18.5722618103027,14.2931251525879,21.9469509124756,39.1960525512695,46.2040519714355,5.70721244812012,5.42630004882813,3.72569990158081,-2.78712487220764,-1.79849994182587,0.06283749639988,-2.6290500164032,-2.63205003738403,-2.57895016670227,-0.92100006341934,-5.39700031280518,-5.73900032043457,3.72446250915527,2.23987507820129,1.3055624961853,19.2979507446289,16.3090515136719,13.6390504837036,0.87573748826981,0.2606999874115,-0.26716250181198,0.59276247024536,0.44054999947548,0.63428747653961,2.71800017356873,2.14800000190735,1.19895005226135,2.76900005340576,4.51995038986206,8.45700073242188,0.64143747091293,0.68502497673035,0.56168746948242,6.57600021362305,7.30200052261353,6.88500022888184,SWING_LEFT
-2.31577491760254,-2.32223749160767,-2.76484990119934,1.4473249912262,2.12739992141724,2.64343738555908,-3.31695008277893,-4.22895002365112,-5.94900035858154,9.25500011444092,5.97600030899048,5.05395030975342,-5.4287748336792,-4.76148748397827,-3.46747493743896,-5.08695030212402,-6.88995027542114,-3.73395013809204,-2.08697509765625,-2.10182499885559,-2.29130005836487,1.04403746128082,1.35574996471405,1.05572497844696,-9.46695041656494,-13.3399505615234,-16.7310009002686,7.24995040893555,4.92000007629395,4.58700037002563,-2.51611256599426,-1.19322502613068,1.68121254444122,-10.4569501876831,-18.7309513092041,-29.5330505371094,2.73281240463257,4.47919988632202,5.89874982833862,-2.12203741073608,-1.93366253376007,-1.9293999671936,-36.8350524902344,-47.9650535583496,-64.0710067749023,14.8020009994507,9.19695091247559,1.4230500459671,19.4726123809814,20.9763126373291,15.6392498016357,9.83805084228516,27.8290519714355,34.5310516357422,3.75443744659424,3.32763743400574,3.34785008430481,-5.39976263046265,-1.62497496604919,1.29621243476868,-15.2920503616333,-15.5770511627197,-0.33300000429153,0.29505002498627,1.76805007457733,1.0969500541687,2.02922487258911,0.20405000448227,0.06888750195503,22.4449520111084,11.1690006256104,9.19800090789795,-0.63222497701645,-0.10009999573231,-0.1522125005722,0.43422499299049,0.00962499994785,0.73645001649857,-2.38800001144409,-0.87900006771088,0.43800002336502,9.50895023345947,9.70305061340332,8.24400043487549,0.2072124928236,0.24557499587536,0.28173750638962,6.45105028152466,6.11100006103516,5.97495031356812,SWING_LEFT
-0.78649997711182,-0.79076248407364,-1.01530003547668,0.58533751964569,1.11003744602203,1.30253744125366,0.45900002121925,-0.36600002646446,-0.4279500246048,9.13005065917969,6.06900024414063,4.36905002593994,-6.47803735733032,-6.78878736495972,-6.35566234588623,2.65305018424988,-0.94800007343292,-3.77895021438599,-3.18518757820129,-3.43103742599487,-3.99079990386963,1.06315004825592,0.70771247148514,0.66934996843338,-10.5640506744385,-13.7449502944946,-17.826000213623,3.83205008506775,2.85795021057129,3.15900015830994,-3.40683746337891,-1.96157503128052,0.82981246709824,-10.3150501251221,-18.0630016326904,-26.6179504394531,2.86151242256165,3.84174990653992,4.28972482681274,-2.71686244010925,-2.90427494049072,-2.47637510299683,-34.7200508117676,-40.8760528564453,-48.8890533447266,8.95500087738037,5.14500045776367,2.62995004653931,18.4370994567871,19.2916622161865,18.2157249450684,13.8259506225586,22.7329502105713,25.4269504547119,3.1275749206543,4.24297475814819,4.39298725128174,-4.21313762664795,-4.94862508773804,-3.4288375377655,-33.0100517272949,-17.685001373291,-12.4009504318237,-0.19995000958443,0.76005005836487,0.65895003080368,8.11428737640381,6.26573753356934,4.54066228866577,27.8389511108398,26.6700019836426,24.2200508117676,2.04325008392334,0.29039999842644,0.08717499673367,-0.09679999947548,1.3611124753952,1.05888748168945,-1.14705002307892,-1.14495003223419,-0.49305000901222,-0.24105000495911,3.17100024223328,5.43495035171509,0.57337498664856,0.25093749165535,0.1402499973774,10.9300508499146,9.17895030975342,8.04195022583008,SWING_LEFT
-1.61768746376038,-1.38242495059967,-1.70500004291534,0.40974998474121,1.01103746891022,1.52075004577637,0.61500000953674,-0.74700003862381,-2.95305013656616,10.6219501495361,7.69800043106079,4.84305000305176,-5.46287488937378,-5.73210000991821,-6.25460004806519,1.91295003890991,1.57695007324219,1.46700012683868,-2.00722503662109,-2.70641255378723,-2.95212507247925,0.76835000514984,-0.06806249916553,-1.23983752727509,-12.3199510574341,-15.7950010299683,-16.5250511169434,1.32495009899139,3.55200028419495,9.35100078582764,-3.43653750419617,-1.44649994373322,0.72228747606277,-11.0550003051758,-12.8179502487183,-15.28005027771,3.2297375202179,5.31134986877441,6.62667512893677,0.46186250448227,0.32353749871254,-0.05321250110865,-35.2690505981445,-47.9580039978027,-64.7749557495117,18.9430503845215,14.3320503234863,2.90100002288818,20.9028873443604,21.4062747955322,16.3682746887207,23.0850009918213,50.7810020446777,50.9119529724121,0.15427500009537,2.85945010185242,4.3738751411438,0.94393748044968,-2.25720000267029,-2.56574988365173,-1.70505011081696,-0.37095001339912,-3.62805008888245,16.5400505065918,13.9080009460449,4.28505039215088,4.53970003128052,4.67266225814819,4.60666227340698,13.3009510040283,13.3750505447388,16.3740005493164,0.948062479496,1.39081251621246,1.45254993438721,1.65275001525879,0.41717499494553,-1.0205249786377,2.84505009651184,2.32005000114441,2.13600015640259,6.72600030899048,3.92100024223328,3.61005020141602,1.44595003128052,1.11814999580383,1.07456254959106,11.2840509414673,8.88000011444092,7.62195014953613,SWING_LEFT
-0.99082499742508,-2.84047508239746,-3.28638744354248,0.25863748788834,1.76453745365143,2.4817373752594,3.7020001411438,-2.32095003128052,-5.35005044937134,6.16995048522949,4.92705011367798,4.98000001907349,-6.21211242675781,-6.31001234054565,-6.23328733444214,-0.90300005674362,-2.30595016479492,-5.25900030136108,-3.87378740310669,-3.42897486686707,-2.73294997215271,1.17589998245239,0.81413751840591,-0.02337500080466,-15.0570011138916,-17.2510509490967,-19.7920513153076,7.25205039978027,8.0910005569458,10.5499505996704,-2.16383743286133,0.5489000082016,3.82016253471375,-18.1570510864258,-21.7969512939453,-20.9970016479492,3.98860001564026,6.53949975967407,8.17300033569336,-2.04008746147156,-2.2954249382019,-1.33663749694824,-35.4559516906738,-41.8810501098633,-61.1230545043945,18.9829502105713,10.488000869751,0.14595000445843,17.7720127105713,16.2672119140625,13.5950374603271,28.2220516204834,32.1910514831543,26.3040008544922,6.24249982833862,5.60724973678589,4.84838724136353,-1.56227493286133,-0.17132499814034,1.13231253623962,-21.1240501403809,-13.5120010375977,-4.4040002822876,-1.48095011711121,-1.2150000333786,-2.932950258255,2.26655006408691,1.4470499753952,1.02244997024536,21.609001159668,16.3210506439209,14.9749507904053,0.9981124997139,0.84810000658035,0.16802500188351,0.33742499351501,0.47354999184608,0.80245000123978,-0.22005000710487,0.16695000231266,0.7540500164032,5.87100028991699,3.48495006561279,4.15305042266846,-0.14822499454021,-0.31955000758171,-0.26413750648499,8.64300060272217,6.63795042037964,5.67300033569336,SWING_LEFT
-1.02808749675751,-0.68117499351501,-0.68337500095367,1.12804996967316,0.93967497348785,0.72049999237061,0.91200006008148,-1.8270001411438,-4.09500026702881,9.47294998168945,7.85100030899048,5.10900020599365,-5.2181248664856,-4.52209997177124,-3.82717490196228,-6.40200042724609,-7.13895034790039,-7.88400030136108,-2.36472487449646,-2.12423753738403,-1.6134250164032,-0.06489999592304,-0.22990000247955,0.04688749834895,-9.68295001983643,-11.2870502471924,-12.9180002212524,10.371000289917,12.4999504089355,13.8199510574341,-1.13478744029999,-0.28228750824928,2.00997495651245,-8.83995056152344,-15.4000511169434,-27.0439510345459,2.40927505493164,3.30316257476807,3.17652487754822,-1.83576250076294,-1.53670001029968,-0.10106249898672,-34.85205078125,-47.9100036621094,-63.4170036315918,14.19105052948,11.4889507293701,7.99305057525635,20.2068614959717,20.1154251098633,17.4453125,18.9799499511719,31.0360507965088,28.3320007324219,5.64025020599365,6.83526229858398,5.34544992446899,-6.095787525177,-6.48202514648438,-2.73281240463257,-28.7140522003174,-22.5180015563965,-20.1970500946045,-1.51200008392334,-4.42200040817261,-4.09395027160645,8.62936210632324,6.0645751953125,3.63618755340576,33.2639999389648,30.564001083374,24.9889507293701,2.0017249584198,1.41638743877411,1.12695002555847,-0.5352874994278,-0.07232499867678,0.81413751840591,-3.38595008850098,-1.38900005817413,-0.51495003700256,2.24205017089844,5.37000036239624,5.77695035934448,-0.79956251382828,-0.84741246700287,-0.66439998149872,8.89905071258545,6.43695020675659,4.2480001449585,SWING_LEFT
-2.65100002288818,-2.26049995422363,-2.17538738250732,1.90286254882813,1.5888124704361,1.68148744106293,0.29100000858307,-5.32605028152466,-5.83395004272461,7.03005027770996,6.97695016860962,7.60695028305054,-6.4791374206543,-6.10142517089844,-5.4808874130249,-5.44395017623901,-6.6340503692627,-7.05105018615723,-0.40342500805855,-0.26620000600815,-1.02712500095367,0.07768750190735,-1.16104996204376,-1.41968750953674,-11.2369508743286,-12.9690008163452,-16.3740005493164,4.84305000305176,2.56095004081726,4.49295043945313,-2.37765002250671,-1.02189993858337,2.17813754081726,-10.0350008010864,-20.4220504760742,-28.7500514984131,1.90478754043579,2.54333758354187,2.76677489280701,-3.32131242752075,-2.35826253890991,-0.88866251707077,-34.8469505310059,-41.4120025634766,-47.6680526733398,10.6410007476807,8.96505069732666,5.00805044174194,16.155424118042,16.1798992156982,15.5009250640869,13.2960004806519,16.7880001068115,15.8419504165649,3.98007488250732,4.95384979248047,5.15913724899292,-5.0422625541687,-5.40402507781982,-4.70909976959229,-31.7550010681152,-21.3900012969971,-15.8190011978149,1.02495002746582,-0.22395001351833,-0.39405003190041,9.22212505340576,6.0454626083374,4.57366228103638,24.6889514923096,23.5279502868652,23.1349506378174,2.39332509040833,1.43439996242523,0.12333749979734,-1.03331243991852,-0.23086249828339,1.31532502174377,-0.82095003128052,-1.15905010700226,-1.39800012111664,-0.62895005941391,-0.01095000095665,2.07195019721985,0.06036249920726,-0.00453749997541,0.02309999987483,11.0830507278442,9.50700092315674,8.79795074462891,SWING_LEFT
-1.6825875043869,-1.85501253604889,-1.91468751430511,-2.02729988098145,-0.49266248941422,1.18442499637604,1.56795012950897,-1.21395003795624,-1.80795013904572,8.17500019073486,12.562050819397,10.2870006561279,-5.13301229476929,-4.81043767929077,-4.89568758010864,-1.9690500497818,-1.32195007801056,-0.42105001211166,-3.24802494049072,-1.30487501621246,0.49362498521805,1.5303750038147,0.77687501907349,-0.77151250839233,-13.5559511184692,-19.5649509429932,-19.9140014648438,8.52195072174072,14.3850002288818,14.1840009689331,1.73016250133514,4.4928126335144,6.95323753356934,-19.4929504394531,-14.2050008773804,-10.6099500656128,2.33268737792969,1.69193744659424,1.14716243743896,-0.79818749427795,-0.64707499742508,-0.57997500896454,-31.408052444458,-37.4119529724121,-43.8310508728027,3.77700018882751,4.53194999694824,7.71495056152344,16.4683742523193,13.8694877624512,10.8961877822876,16.9099502563477,30.6979522705078,27.4819507598877,5.54221248626709,3.69586253166199,1.25454998016357,-3.32983756065369,-0.88013750314713,1.94438743591309,-4.42799997329712,-4.38495016098022,-1.59495007991791,-2.10600018501282,-3.29205012321472,0.1489500105381,4.08526229858398,2.53041243553162,0.58286249637604,22.267951965332,19.231050491333,10.1470508575439,-0.27252501249313,-0.78127497434616,0.21807499229908,-0.32133749127388,0.23526249825954,0.05637500062585,0.97200006246567,1.40295004844666,1.90995013713837,5.94000005722046,10.0690507888794,8.85195064544678,0.44990000128746,0.64679998159409,0.8318749666214,4.05105018615723,3.59400010108948,4.53299999237061,SWING_LEFT
0.33192500472069,-0.0969374999404,-0.28325000405312,-0.74277502298355,-0.17132499814034,-0.03616249933839,4.78005027770996,5.20095014572144,5.28000020980835,9.4819507598877,9.69795036315918,9.94395065307617,-2.32237505912781,-2.08395004272461,-2.20206260681152,-1.34100008010864,-0.29895001649857,1.19895005226135,-1.8379625082016,-2.0103874206543,-1.91042494773865,2.68716239929199,2.99571251869202,2.50511240959167,-0.73695003986359,-4.42605018615723,-6.51405048370361,8.71305084228516,7.04400014877319,6.5440502166748,-3.97292494773865,-2.89066243171692,0.33605000376701,-11.4220504760742,-22.5660018920898,-30.9169521331787,-0.40452501177788,2.48160004615784,3.45427489280701,-1.44512498378754,-2.77117490768433,-3.69379997253418,-29.9899520874023,-45.1240539550781,-53.7150039672851,12.6199502944946,5.39400005340576,1.9690500497818,17.5346870422363,8.92732524871826,5.73581266403198,38.6719512939453,35.5480499267578,28.5499515533447,-0.03203750029206,0.24777500331402,0.53941249847412,2.55309987068176,2.34767508506775,1.80069994926453,1.44300007820129,-0.12405000627041,0.10695000737906,5.75805044174194,7.26000022888184,6.76905012130737,1.38531243801117,1.24052500724792,0.9979749917984,8.11800003051758,8.27205085754395,8.11305046081543,0.24255000054836,0.13392500579357,0.21477499604225,0.85140001773834,0.51081252098083,0.03409999981523,3.02205014228821,2.81805014610291,3.07005023956299,8.27295017242432,7.5930004119873,7.76505041122437,0.56484997272491,0.44027498364449,0.45732501149178,5.84100008010864,5.20395040512085,5.16795015335083,SWING_LEFT
-0.37894999980927,-0.06613750010729,0.15743750333786,0.22879999876022,0.54065001010895,1.10467493534088,4.86105012893677,4.48995018005371,4.39695024490356,12.3709506988525,11.6160001754761,10.6990509033203,-3.35362505912781,-4.60405015945435,-5.84278726577759,7.53105020523071,6.93705034255981,3.88395023345947,-1.51882493495941,-2.62129998207092,-2.54045009613037,4.16858768463135,3.48108744621277,3.15218758583069,-5.57100009918213,-12.5230503082275,-14.7940511703491,-1.63905012607574,2.46705007553101,1.58100008964539,-5.22981262207031,-1.60930001735687,2.37283754348755,-12.6289510726929,-28.9699516296387,-27.5880012512207,0.24777500331402,1.19075000286102,2.49755001068115,-3.77684998512268,-3.59699988365173,-3.85879993438721,-29.6550006866455,-35.1109504699707,-52.1970024108887,9.47294998168945,8.44799995422363,1.6840500831604,17.8411750793457,17.438850402832,10.6364498138428,17.0179500579834,29.8390522003174,28.5169506072998,5.26872491836548,2.8998749256134,1.31092500686646,-2.2954249382019,-0.06489999592304,1.39205002784729,-9.81495094299316,-9.421950340271,-2.21805000305176,-5.65605020523071,-2.49900007247925,11.2309503555298,4.2777624130249,2.35056257247925,1.05324995517731,23.8750514984131,19.420051574707,15.4129505157471,0.04564999789,-0.23319999873638,-0.01498750038445,2.15393757820129,1.10467493534088,0.16499999165535,2.52405023574829,1.25895011425018,1.17000007629395,3.13305020332336,6.90000009536743,6.44100046157837,0.71802496910095,0.81908750534058,0.81496250629425,4.62900018692017,5.42100048065186,6.06795024871826,SWING_LEFT
-1.28149998188019,-1.63789999485016,-1.91042494773865,0.12127500027418,-0.71197497844696,-0.856625020504,6.59505033493042,4.4800500869751,2.63895010948181,5.22900009155273,5.7679500579834,5.34405040740967,-5.21592473983765,-5.61824989318848,-5.80442476272583,0.84495002031326,0.19605000317097,-0.15795001387596,-4.83271265029907,-4.38253736495972,-3.7311999797821,0.64913749694824,0.62576252222061,0.43848749995232,-8.42505073547363,-10.5859508514404,-11.497950553894,8.35395050048828,9.92100048065186,8.84505081176758,-4.40605020523071,-3.47806239128113,-2.61717510223389,-7.06305027008057,-7.4170503616333,-13.3230009078979,-1.91674995422363,2.10374999046326,3.62353754043579,1.23763751983643,-1.96776247024536,-2.4285249710083,-26.3160018920898,-38.5309524536133,-48.0060005187988,16.2430515289307,11.9010009765625,8.9170503616333,18.6850128173828,18.9712867736816,17.193000793457,19.5090007781982,28.3780517578125,39.3709526062012,6.15848731994629,5.21867513656616,2.62418746948242,-6.40117502212524,-3.64704990386963,0.77371251583099,-4.76100015640259,-3.49200010299683,-2.46405005455017,-2.34795022010803,-4.08704996109009,-0.4420500099659,3.88836240768433,1.07249999046326,0.13598750531673,23.6670017242432,17.7250499725342,12.6180009841919,0.20845000445843,-0.42363750934601,-0.79722499847412,0.98009997606277,1.00993752479553,0.98546248674393,2.18805003166199,2.6340000629425,1.08705008029938,2.1889500617981,5.1259503364563,6.48405027389526,0.07424999773502,0.38926249742508,0.49348750710487,5.43795013427734,5.46000003814697,6.40305042266846,SWING_LEFT
-1.19624996185303,-0.81633746623993,-0.84191250801086,0.69602501392365,1.06108748912811,1.36001253128052,3.50100016593933,2.50905013084412,1.41000008583069,12.6600008010864,10.7280006408691,8.37795066833496,-3.79733753204346,-4.15277481079102,-4.67541265487671,2.06400012969971,2.07600021362305,1.42395007610321,-2.21044993400574,-2.84047508239746,-3.50460004806519,2.25609993934631,2.24235010147095,0.44165000319481,-5.31900024414063,-9.15405082702637,-13.9459505081177,2.68800020217896,1.21695005893707,6.86205053329468,-4.70511245727539,-4.04635000228882,-2.03500008583069,-6.96000051498413,-13.9270505905151,-19.795051574707,1.70472502708435,3.80008745193481,5.5560998916626,-2.20825004577637,-2.68496251106262,-3.01702499389648,-32.3350524902344,-43.0000534057617,-56.4790534973145,16.1809501647949,13.16100025177,5.14500045776367,19.2086124420166,18.2040367126465,14.2334499359131,21.2910003662109,36.492000579834,36.5299530029297,5.23682498931885,4.3471999168396,2.3868625164032,-3.63852500915527,-2.3764123916626,0.21821250021458,-8.43000030517578,-8.30595016479492,-4.20105028152466,-3.60795021057129,-3.89100027084351,4.52205038070679,3.69352507591248,2.78684997558594,1.68327498435974,19.3050003051758,19.2600002288818,16.5869998931885,1.75683748722076,0.99591249227524,0.27335000038147,1.4803249835968,1.20573747158051,1.01530003547668,1.05105006694794,1.47495007514954,2.08095002174377,1.70100009441376,2.52705001831055,4.45500040054321,-0.17379999160767,-0.14396250247955,0.04441250115633,6.81105041503906,5.20800018310547,5.00700044631958,SWING_LEFT
-0.65463751554489,-0.41194999217987,0.2255000025034,-0.57887500524521,-0.04675000160933,-0.28201249241829,4.12305021286011,5.44995021820068,5.59200048446655,12.5860509872437,12.0739507675171,7.69995021820068,-4.97433757781982,-5.06384992599487,-5.26597499847412,2.29095005989075,0.82500004768372,-0.29700002074242,-2.44254994392395,-3.27579998970032,-3.38758754730225,2.07308745384216,1.73249995708466,0.46612501144409,-1.05599999427795,-7.18005037307739,-11.5099506378174,4.39305019378662,2.11800003051758,9.12795066833496,-5.12655019760132,-1.22842502593994,1.87275004386902,-11.6040000915527,-21.5050506591797,-21.9310512542725,2.33048748970032,2.15173745155334,2.10058760643005,-1.22374999523163,-0.04468749836087,0.49376249313354,-29.1589508056641,-37.7760009765625,-50.2450523376465,13.0840501785278,11.1709508895874,11.9830503463745,19.6450366973877,19.0330257415771,13.9610624313354,22.0759506225586,42.6979522705078,40.1179504394531,3.44574999809265,1.75051248073578,2.1070499420166,-2.61579990386963,0.91313749551773,1.4942125082016,-8.88300037384033,-6.43005037307739,-4.5,-2.9520001411438,5.38395023345947,6.64695024490356,2.26215004920959,1.03523755073547,0.19758750498295,19.5739517211914,16.0270500183105,11.7130508422852,-0.28641250729561,-0.14382499456406,0.08071249723434,0.98766249418259,0.42996248602867,0.16609999537468,-0.87195003032684,-0.51900005340576,0.75105005502701,6.49995040893555,8.52405071258545,8.35395050048828,0.08057499676943,-0.00453749997541,0.21683749556541,7.57695055007935,6.40800046920776,5.4190502166748,SWING_LEFT
0.05843750014901,-0.29177498817444,-0.35241249203682,1.09835004806519,0.96098750829697,1.02808749675751,4.81605005264282,4.28595018386841,3.04605007171631,8.50995063781738,9.31005001068115,10.0309505462646,-4.23472499847412,-4.70415019989014,-5.01696252822876,1.47900009155273,0.01800000108778,-2.39505004882813,-2.07006239891052,-2.39992499351501,-1.93916249275208,1.3249499797821,0.42789998650551,-1.02795004844666,-6.27705049514771,-12.1590003967285,-15.8430004119873,5.50695037841797,5.67900037765503,13.2040510177612,-1.62318754196167,2.00887489318848,5.71986246109009,-25.03005027771,-23.0280017852783,-19.9260005950928,4.01940011978149,3.67344999313354,3.51381254196167,0.57681250572205,-0.0489500015974,0.17874999344349,-39.5869522094727,-53.0590515136719,-67.7260513305664,7.86105060577393,8.028000831604,12.117000579834,20.2259750366211,11.7060623168945,8.82199954986572,38.1210021972656,30.8950519561768,19.6770000457764,5.87537479400635,4.16941261291504,3.53306245803833,-2.03472495079041,0.60554999113083,1.73153746128082,-10.7050504684448,1.07205009460449,6.04200029373169,-2.38905000686646,1.6270500421524,1.34205007553101,-0.61435002088547,-0.35571250319481,0.20514999330044,12.5010004043579,8.27595043182373,8.73405075073242,-0.3077250123024,0.13502499461174,0.13282500207424,1.3281124830246,0.38843750953674,0.44054999947548,2.30100011825562,3.13905024528503,1.8600001335144,4.8070502281189,6.03795051574707,4.5600004196167,0.28916248679161,0.82665002346039,0.6180624961853,3.69000005722046,6.1690502166748,6.02505016326904,SWING_LEFT
-1.9210125207901,-1.53573751449585,-1.08776247501373,0.55549997091293,0.38101249933243,0.2606999874115,4.0090503692627,4.0969500541687,3.63000011444092,11.6110506057739,12.1930503845215,14.0520009994507,-2.19257497787476,-3.31209993362427,-4.26249980926514,2.70300006866455,3.91305017471313,3.132000207901,-0.43436250090599,-1.0760749578476,-1.9679000377655,0.87793749570847,0.67787498235703,0.7598249912262,-4.85895013809204,-11.1870002746582,-12.2220001220703,7.02300024032593,3.13800024986267,4.14105033874512,-4.46888732910156,-0.54092502593994,3.15397500991821,-12.0040502548218,-25.2790508270264,-26.2900505065918,3.42237496376038,4.7163872718811,4.5801248550415,-2.8967125415802,-2.28690004348755,-1.81445002555847,-41.8140029907227,-49.3680038452149,-53.6170539855957,12.1459503173828,3.7630500793457,-0.30300000309944,17.7666492462158,13.4576749801636,9.57866287231445,22.359001159668,34.7460021972656,29.5110015869141,3.06693744659424,1.36839997768402,1.39603745937347,0.11811249703169,1.83259999752045,1.00567495822906,-3.89895009994507,-1.69305002689362,2.10195016860962,-3.63900017738342,1.25100004673004,1.93305003643036,1.31505000591278,0.82238751649857,0.55522501468658,13.4779510498047,11.1810007095337,9.16695022583008,-0.26840001344681,-0.11618749797344,-0.05871250107884,0.27032500505447,-0.07975000143051,-0.45539999008179,1.50600004196167,2.37495017051697,2.64795017242432,7.32000017166138,7.19700050354004,7.36695051193237,0.41896250844002,0.40301248431206,0.39558750391006,7.06905031204224,6.83505010604858,6.47295045852661,SWING_LEFT
-0.74827498197556,-0.66852498054504,-0.81001251935959,0.06393750011921,0.11495000123978,0.17874999344349,7.11195039749146,6.9330005645752,5.65200042724609,8.41604995727539,6.81900024414063,4.3759503364563,-4.59126234054565,-5.21386241912842,-5.64272499084473,1.66800010204315,0.76995003223419,0.02505000121891,-3.99519991874695,-4.20268726348877,-3.93882489204407,1.06961250305176,1.48142504692078,1.67722499370575,-7.21605014801025,-10.2259502410889,-11.8500003814697,6.50805044174194,7.99995040893555,10.4590501785278,-5.11596250534058,-4.36466264724731,-2.74064993858337,-7.79595041275024,-11.7070503234863,-20.9059505462646,4.0555624961853,5.33582496643066,4.13957500457764,-2.53178739547729,-0.37138751149178,1.3888875246048,-26.731050491333,-45.5100021362305,-63.964054107666,17.9680500030518,8.40000057220459,5.19300031661987,21.2805995941162,14.3154001235962,9.40197467803955,28.0690517425537,41.3830528259277,19.9450511932373,6.94278764724731,5.06866264343262,3.21694993972778,-5.00169992446899,-1.11210000514984,1.39094996452332,-10.7130002975464,-5.79300022125244,-1.89405012130737,-2.11800003051758,-2.42204999923706,0.29295000433922,2.28346252441406,1.12241244316101,-0.18864999711514,19.3080005645752,16.5630016326904,11.1480007171631,-0.61311250925064,-0.56306248903275,-0.39077499508858,1.30363750457764,1.06424999237061,1.07799994945526,2.7940502166748,3.02895021438599,3.22800016403198,4.93395042419434,7.0900502204895,7.13295030593872,-0.37276250123978,0.15716250240803,0.3935250043869,4.40805006027222,4.28894996643066,4.47495031356812,SWING_LEFT
-0.54505002498627,-0.65573751926422,-0.72600001096725,0.80245000123978,0.26922500133514,-0.256437510252,4.52100038528442,4.30995035171509,2.96700024604797,7.25505018234253,6.94800043106079,8.3730001449585,-4.21781253814697,-4.07618761062622,-4.26030015945435,-1.35495007038116,-1.08000004291534,0.32505002617836,-2.05521249771118,-2.75962495803833,-3.46623754501343,0.31817498803139,0.42789998650551,0.20116250216961,-2.46900010108948,-8.82299995422363,-13.8000001907349,4.93695020675659,2.56305003166199,0.6810000538826,-6.41643762588501,-5.96309995651245,-0.37070000171661,-2.90505003929138,-10.0009508132935,-33.5659523010254,2.2506000995636,3.30742502212524,3.2551748752594,-0.31075000762939,-0.86198747158051,-1.08858752250671,-37.0990524291992,-45.3250503540039,-55.1500511169434,13.5660009384155,5.69595050811768,2.3929500579834,20.0579490661621,19.6140995025635,11.4750623703003,21.3199501037598,37.4260520935059,29.0340023040771,4.65574979782104,3.46169996261597,4.16624975204468,-2.51253747940063,-0.63428747653961,-0.33522498607635,-13.4119510650635,-10.81605052948,-2.3779501914978,-1.75695013999939,2.49105000495911,0.64500004053116,2.90606260299683,1.73538744449615,0.80217498540878,22.4569511413574,18.5920505523682,15.7440004348755,0.65326249599457,0.49582499265671,0.02859999984503,0.66934996843338,-0.01911249943078,0.03093750029802,0.68700003623962,-0.24195000529289,0.5020500421524,3.46395015716553,4.35495042800903,5.00595045089722,0.13062499463558,0.4658499956131,0.45622500777245,5.21805047988892,6.56595039367676,6.43200016021729,SWING_LEFT
0.38087499141693,-0.36093750596046,-1.05902504920959,0.55027496814728,1.18868744373322,2.17098760604858,6.19500017166138,6.95895051956177,3.49605011940002,7.15200042724609,6.9529504776001,4.49595022201538,-6.11201238632202,-6.16632509231567,-5.41818761825562,-0.84105002880096,-7.30500030517578,-6.84705018997192,-3.31938743591309,-2.84583759307861,-2.08491253852844,2.15297508239746,1.2196249961853,0.13736249506474,-7.60605049133301,-13.3020009994507,-15.4450511932373,4.53404998779297,6.55305051803589,8.79705047607422,-1.20284998416901,1.05544996261597,4.19484996795654,-17.0279998779297,-20.7169513702393,-21.1120510101318,2.47513747215271,2.35166239738464,1.86326253414154,-2.18473744392395,-1.84098744392395,-2.14651250839233,-32.0020523071289,-37.3519515991211,-52.3740043640137,6.57195043563843,4.04805040359497,5.31300020217896,17.909236907959,11.8826122283936,7.92164993286133,26.0620517730713,37.4070014953613,28.2289505004883,3.96618747711182,1.34708750247955,0.05307500064373,-1.0674124956131,1.11210000514984,1.52294993400574,-3.6780002117157,-5.02395009994507,-3.27105021476746,-7.06395053863525,-2.7529501914978,5.27895021438599,2.94222497940063,1.89832496643066,1.30762493610382,15.363000869751,12.4339504241943,9.70095062255859,-0.25657498836517,-0.14918750524521,0.04344999790192,0.22673749923706,0.05747500061989,-0.1032624989748,2.05200004577637,1.85805010795593,1.64205002784729,7.84905052185059,8.90505027770996,8.63205051422119,0.82018750905991,1.03193747997284,0.93403750658035,5.27295017242432,6.35100030899048,6.95400047302246,SWING_LEFT
-0.66632497310638,-0.78127497434616,-0.67594999074936,-0.60224997997284,-0.16060000658035,0.1553750038147,4.49895000457764,3.97500014305115,4.3289999961853,9.12105083465576,9.82500076293945,9.29505062103272,-3.19934988021851,-3.67922496795654,-3.99107503890991,1.9410001039505,0.35100001096725,-2.08800005912781,-2.69362497329712,-3.13857507705688,-3.16827487945557,1.09408748149872,0.9481999874115,0.42570000886917,-4.85400009155273,-6.04995012283325,-7.43400049209595,5.03895044326782,6.04095029830933,7.99305057525635,-3.13431239128113,-2.83428740501404,-0.90172499418259,-7.17105054855347,-9.28995037078857,-11.6350507736206,0.00096249999478,4.28326225280762,5.89668750762939,-0.79708749055862,-1.52927494049072,-0.72902500629425,-18.2280006408691,-31.7770519256592,-45.2820014953613,17.601001739502,19.3759517669678,12.6840009689331,15.9490375518799,18.2062377929688,14.4612874984741,-0.56505000591278,35.0839500427246,38.5950012207031,7.19812488555908,5.09533739089966,1.98989999294281,-4.88674974441528,-1.45364999771118,2.09220004081726,-8.45400047302246,-4.95705032348633,-0.94095003604889,-8.60400009155273,-9.59505081176758,-2.91600012779236,1.71943747997284,0.38926249742508,-0.21312500536442,21.094051361084,15.2269506454468,10.7020502090454,-0.01828750036657,-0.23113749921322,-0.3257375061512,0.65986251831055,0.33742499351501,0.24158750474453,3.02400016784668,3.28995013237,2.91900014877319,6.37800025939941,7.65195035934448,8.77605056762695,-0.56430000066757,-0.35791251063347,0.12842500209808,3.82395029067993,3.20805025100708,3.62295007705688,SWING_LEFT
-0.1363999992609,-0.84411251544952,-1.48362493515015,0.66728746891022,1.20573747158051,1.10261249542236,2.51400017738342,0.77805006504059,-0.36900001764297,8.27295017242432,6.47205018997192,7.50600051879883,-3.15246248245239,-3.3547248840332,-3.33973741531372,0.5950500369072,-2.07195019721985,-4.00395011901855,-2.65746259689331,-2.06579995155334,-1.04953753948212,2.97027492523193,2.04325008392334,0.73865002393723,-11.4070501327515,-12.7150506973267,-14.4750003814697,7.71705055236816,9.25200080871582,10.5460500717163,1.76206254959106,4.07137489318848,5.73264980316162,-18.3529510498047,-12.0880508422852,-9.87495040893555,4.51206254959106,6.07007503509521,6.92999982833862,-4.22386264801025,-3.14476251602173,-0.99398750066757,-27.492000579834,-37.4959526062012,-48.669002532959,14.4520511627197,13.6740007400513,8.21505069732666,17.0535755157471,15.9616870880127,13.0086002349854,23.6599502563477,33.8689498901367,24.502950668335,6.70862483978271,7.09596252441406,5.52516269683838,-3.07766246795654,-2.19642496109009,-0.03932499885559,-16.1299514770508,-9.84795093536377,-1.81005012989044,1.53105008602142,-4.84905004501343,-7.4040002822876,5.44733762741089,2.80706238746643,-0.60692501068115,30.6460514068604,27.5470504760742,12.6589508056641,-1.79341244697571,-1.59334993362427,-1.197350025177,1.2418999671936,0.6183375120163,0.05967500060797,0.81600004434586,0.10200000554323,1.46700012683868,5.50200033187866,7.90200042724609,9.19005012512207,0.09652499854565,0.05293750017881,-0.05884999781847,6.31500053405762,6.76500034332275,6.15195035934448,SWING_LEFT
-0.37262499332428,-0.19703750312328,-0.28118750452995,-0.16596250236034,-0.24365000426769,0.0671000033617,1.81005012989044,2.41305017471313,2.7769501209259,8.57505035400391,9.19995021820068,7.47000026702881,-2.05521249771118,-3.38662505149841,-5.16601228713989,3.79305028915405,2.58795022964478,-4.4520001411438,-2.8831000328064,-2.95226240158081,-2.05411243438721,1.47826254367828,0.99618750810623,-0.93431252241135,-9.903000831604,-12.4540510177612,-15.703950881958,5.514000415802,6.55800008773804,12.4420509338379,-1.65192496776581,0.87559998035431,4.25438737869263,-17.9070014953613,-22.7020511627197,-23.8399505615234,3.31058740615845,3.84903740882874,4.65684986114502,-0.94393748044968,-0.59482496976852,-0.79392498731613,-29.2330513000488,-40.4899520874023,-54.2350540161133,11.1559505462646,10.1070003509521,6.00000047683716,18.0933494567871,19.2065505981445,17.4431133270264,7.62495040893555,23.2740001678467,29.9149513244629,6.61924982070923,6.1136622428894,3.04768753051758,-4.62604999542236,-3.7204749584198,-0.07548750191927,-15.9409503936768,-8.06595039367676,-3.3139500617981,-6.77700042724609,-11.9140501022339,-7.31295013427734,5.3579626083374,3.10928750038147,1.56406247615814,27.3330020904541,22.40505027771,16.9270515441895,-0.05128749832511,-0.59509998559952,-0.05128749832511,0.03189999982715,0.91946250200272,0.94929999113083,-0.77595001459122,0.03495000302792,-0.24195000529289,4.56300020217896,10.2970504760742,10.5430507659912,0.31473749876022,0.29658749699593,0.33811250329018,8.02500057220459,6.67905044555664,6.40605020523071,SWING_LEFT
-1.0037499666214,-1.44636249542236,-1.71036243438721,1.28672504425049,1.23667502403259,1.09298753738403,2.52105021476746,1.3330500125885,-0.34500002861023,5.18805027008057,5.52600049972534,6.32100009918213,-4.10066270828247,-4.16982507705688,-4.12403726577759,-4.71795034408569,-6.43800020217896,-7.86300039291382,-1.30707502365112,-1.30171251296997,-1.15376245975494,-0.05101250112057,-0.28311249613762,0.16926249861717,-6.93105030059814,-9.51000022888184,-12.4680004119873,7.57605028152466,9.61395072937012,9.62805080413818,-2.2372624874115,-0.92826247215271,1.01708745956421,-14.1109504699707,-15.8359508514404,-20.4799518585205,0.60114997625351,1.1640750169754,1.31628751754761,-0.31927499175072,0.00536249997094,-0.37248748540878,-33.0100517272949,-39.2760009765625,-46.6950035095215,13.6450510025024,9.11295032501221,7.2810001373291,15.4573373794556,16.540699005127,14.1494369506836,6.41295051574707,28.6819515228271,27.0990009307861,4.67280006408691,3.85123753547669,3.1264750957489,-2.81902503967285,-0.95768749713898,0.15963749587536,-18.6589508056641,-17.6459999084473,-12.7009506225586,3.29595017433167,3.33405017852783,5.53305006027222,6.66586256027222,4.51412487030029,2.32072496414185,28.6320018768311,23.8510513305664,15.1669511795044,0.87999999523163,1.08638751506805,0.90117502212524,0.83434998989105,0.86954998970032,0.81949996948242,-1.57305002212524,-0.66600000858307,-0.21795001626015,6.82395029067993,5.98305034637451,4.22805023193359,0.88618749380112,0.74992501735687,0.63607501983643,8.78400039672852,8.39805030822754,7.98705053329468,SWING_LEFT
-0.5908374786377,-1.16544997692108,-2.26063752174377,0.90997499227524,1.47496247291565,2.08903741836548,6.72000026702881,6.92595052719116,4.30605030059814,6.59895038604736,3.92595028877258,1.44705009460449,-4.50298738479614,-5.59157514572144,-5.8214750289917,0.15000000596046,-3.44400024414063,-6.91395044326782,-3.18642497062683,-2.53508758544922,-1.89131247997284,1.43563747406006,0.78966248035431,0.03299999982119,-15.7900505065918,-17.2650012969971,-19.6939506530762,10.1860504150391,10.5529508590698,12.961950302124,0.59248751401901,3.09443759918213,5.41337490081787,-20.3430004119873,-17.7469501495361,-16.7650508880615,2.74656248092651,4.10547494888306,4.63223743438721,-2.04957509040833,-2.64343738555908,-2.63381242752075,-36.1909523010254,-41.7900009155273,-46.4610023498535,12.0690002441406,6.88800048828125,3.22605013847351,14.375075340271,14.9721002578735,14.89963722229,9.96195030212402,15.1120510101318,22.7160015106201,4.27789974212646,5.50288724899292,4.35242509841919,-2.60411238670349,-2.44227504730225,-0.61503750085831,-29.4130516052246,-17.9599514007568,-13.0480508804321,6.19605016708374,-0.32205000519753,-3.56205010414124,6.29131269454956,4.79077482223511,3.22959995269775,30.1909523010254,27.400951385498,23.0320510864258,2.35276246070862,1.17892503738403,0.20102499425411,0.79928749799728,1.17177498340607,1.03661251068115,-3.11100006103516,-2.62200021743774,-1.90605008602142,-1.44300007820129,-0.87000006437302,1.5619500875473,1.08624994754791,1.12144994735718,1.10440003871918,8.58300018310547,8.58300018310547,8.56605052947998,SWING_LEFT
-5.38504981994629,-5.71285009384155,-5.42973756790161,1.5995374917984,1.80069994926453,1.56447494029999,-3.87195014953613,-8.29095077514648,-11.1990003585815,3.93300008773804,5.68905019760132,9.03194999694824,-5.63639974594116,-5.08832502365112,-4.13792514801025,-5.75505018234253,-7.55895042419434,-9.87195014953613,1.1279125213623,2.20591259002686,2.05163741111755,-1.3281124830246,-1.29511249065399,-1.21852505207062,-14.3530502319336,-16.4149513244629,-19.0660514831543,14.4330005645752,8.98605060577393,4.71900033950806,0.48289999365807,2.65058755874634,5.89435005187988,-10.9260005950928,-15.2970008850098,-16.5570011138916,-1.09628748893738,0.32120001316071,2.36665010452271,0.39696249365807,0.07136250287294,-0.78113746643066,-37.4820022583008,-46.3650016784668,-53.9089508056641,16.8349514007568,16.5520515441895,11.7690010070801,16.6439628601074,15.8446750640869,14.0652875900269,19.8349514007568,22.5409507751465,19.3320007324219,3.05305004119873,3.29037499427795,3.54145002365112,-1.50150001049042,-2.35179996490479,-2.22090005874634,-22.3840503692627,-13.7260503768921,-11.4580507278442,1.82100009918213,2.78295016288757,2.32800006866455,7.12029981613159,5.48776245117188,3.42746257781982,27.9900016784668,28.5570011138916,24.2989521026611,0.60747498273849,0.02007500082254,-0.62809997797012,2.12630009651184,0.67264997959137,0.04468749836087,-1.73595011234283,-2.5860002040863,-0.14805001020432,-0.39600002765656,2.62305021286011,8.3299503326416,0.20088750123978,-0.03327500075102,0.27101248502731,10.6470003128052,8.31195068359375,5.1889500617981,SWING_LEFT
-0.31941249966621,-1.6773624420166,-2.61813759803772,-0.45649999380112,1.71228754520416,2.65526247024536,11.4330005645752,6.5110502243042,3.08895015716553,7.6360502243042,4.53194999694824,2.86200022697449,-5.60972499847412,-6.27907514572144,-6.53564977645874,2.55495023727417,-0.35400000214577,-3.47295022010803,-3.85687494277954,-3.60566258430481,-2.69266247749329,1.84648752212524,1.61658751964569,0.35447499155998,-13.828950881958,-15.6180009841919,-20.9629516601563,6.2590503692627,7.546950340271,4.41405010223389,-3.3547248840332,-1.01667499542236,2.33777499198914,-14.1660003662109,-18.7099514007568,-20.8489513397217,1.39919996261597,3.16689991950989,4.28106260299683,-3.30646252632141,-1.65907502174377,-0.47561249136925,-30.0049514770508,-36.8830528259277,-44.6959533691406,17.9059505462646,13.6860008239746,6.88800048828125,14.9635753631592,15.6839370727539,15.0008373260498,10.992000579834,17.9380512237549,23.0850009918213,3.21158742904663,2.87526249885559,2.37517499923706,-2.98182487487793,-3.29477500915527,-2.99681258201599,-23.8279514312744,-12.2740507125854,-10.1140508651733,-2.5639500617981,-0.64800000190735,3.26205015182495,6.89039993286133,6.67754983901978,5.9666748046875,18.4339504241943,20.110050201416,20.8309516906738,2.24523758888245,2.36665010452271,2.15476250648499,1.94108748435974,1.04719996452332,0.37894999980927,-4.08599996566772,-2.32095003128052,-0.56700003147125,5.59305047988892,4.05000019073486,3.15900015830994,2.14733743667603,1.62373745441437,1.29057502746582,15.1810503005981,12.7530002593994,12.0439510345459,SWING_LEFT
-0.38761249184608,-1.300612449646,-1.78378748893738,0.01278750039637,0.8758749961853,1.53779995441437,7.84095048904419,4.2480001449585,1.31400001049042,9.15900039672852,6.75195026397705,7.08495044708252,-4.57324981689453,-4.51467514038086,-4.46352481842041,-4.45500040054321,-5.58000040054321,-4.86705017089844,-2.23712491989136,-1.79121243953705,-1.17933750152588,1.05792498588562,0.02873750030994,-0.61930000782013,-8.40900039672852,-11.2990503311157,-13.1050510406494,5.92305040359497,8.50500011444092,8.35905075073242,-3.15988755226135,-1.33375000953674,0.59675002098083,-8.50695037841797,-12.2860507965088,-15.6250505447388,1.41418755054474,1.39067494869232,1.283287525177,-1.79849994182587,-1.07057499885559,0.08415000140667,-25.8319511413574,-28.2709522247314,-35.0389518737793,10.85205078125,9.20205020904541,9.54900074005127,12.6414747238159,13.6258373260498,13.3788871765137,8.88195037841797,15.2650508880615,18.2590503692627,2.53797507286072,2.5443000793457,2.45382499694824,-2.32306241989136,-1.74638748168945,-1.0066374540329,-22.2019519805908,-9.30000019073486,-3.89205026626587,4.71105003356934,6.07905006408691,5.94495010375977,5.73787498474121,5.07595014572144,4.45335006713867,19.2769508361816,18.5700016021729,19.6120510101318,1.38434994220734,0.99274998903275,0.78842496871948,0.64501249790192,0.72792500257492,0.59496247768402,0.06900000572205,2.07300019264221,3.03900003433228,4.24905014038086,5.10705041885376,5.64105033874512,1.10440003871918,0.68612498044968,0.63827496767044,11.7280502319336,8.79795074462891,7.14600038528442,SWING_LEFT
-0.73026251792908,-1.25812494754791,-2.05411243438721,-0.51507496833801,-0.12443749606609,0.39160001277924,5.23695039749146,3.74700021743774,1.12995004653931,7.85400056838989,6.04305028915405,5.69100046157837,-5.10633754730225,-4.98822498321533,-4.51673746109009,-0.86895006895065,-3.62400007247925,-6.55995035171509,-3.24279999732971,-2.53508758544922,-0.86116248369217,1.63996243476868,0.65670001506805,-1.3142249584198,-9.93705081939697,-10.0489501953125,-13.0549507141113,9.88500022888184,9.9060001373291,12.4279508590698,-0.43766251206398,3.43818759918213,6.92656230926514,-10.5240001678467,-11.2590007781982,-0.48795002698898,1.74185001850128,1.75999999046326,2.71246242523193,0.27252501249313,0.30868750810623,-0.95246249437332,-22.0890007019043,-23.5399513244629,-27.082950592041,8.99595069885254,8.97495079040527,8.72100067138672,11.3079996109009,10.6970872879028,8.89968776702881,9.83505058288574,18.586950302124,17.215051651001,3.85866236686707,2.62418746948242,1.45241248607636,0.14052499830723,-0.3799124956131,-0.40012499690056,-9.37905025482178,-11.0380506515503,-3.84105014801025,3.97605013847351,0.54195004701614,7.71495056152344,5.18237495422363,3.40298748016357,1.98769998550415,23.3790016174316,18.5389499664307,10.5490503311157,0.4159374833107,0.31803750991821,0.65106248855591,0.34375,-0.95672500133514,-0.84920001029968,0.54795002937317,1.82205009460449,2.31300020217896,3.88305020332336,9.40305042266846,9.10605049133301,0.46474999189377,0.10188750177622,-0.17806249856949,9.88800048828125,8.4460506439209,6.38895034790039,SWING_LEFT
-2.42976260185242,-2.58733749389648,-2.15737509727478,1.77938747406006,1.63033747673035,1.64532494544983,-1.90095007419586,-6.7150502204895,-7.75200033187866,6.46695041656494,8.99595069885254,9.62595081329346,-4.14438724517822,-3.36214995384216,-2.77887487411499,-6.12405014038086,-7.76505041122437,-10.8880500793457,-0.93348747491837,-0.71527498960495,0.74690002202988,-0.69808751344681,-1.41748750209808,-1.3301750421524,-18.6109504699707,-20.2740001678467,-23.5639514923096,7.51395034790039,10.8400506973267,11.4490509033203,6.71481227874756,8.53998756408691,10.2480125427246,-7.88895034790039,-3.97800016403198,-0.92895007133484,3.26906251907349,3.80751252174377,3.66712498664856,-2.06346249580383,-2.35606241226196,-1.71228754520416,-37.1130027770996,-40.8949508666992,-43.066951751709,4.40205001831055,2.91300010681152,1.73205006122589,13.95143699646,14.5771999359131,13.0096998214722,10.0530004501343,21.7000503540039,35.4019508361816,5.96364974975586,5.39426231384277,1.21302497386932,-3.61831259727478,-1.22595000267029,2.32113742828369,-8.98800086975098,-9.85995006561279,-1.36995005607605,2.43600010871887,-4.22595024108887,-0.23595000803471,2.47183752059937,1.85253751277924,1.40978753566742,17.590950012207,14.7019510269165,11.3520002365112,0.94586247205734,0.90543746948242,1.00979995727539,0.7375500202179,0.96415001153946,0.74071252346039,-0.80400002002716,0.68700003623962,0.93600004911423,7.26195049285889,7.33905029296875,5.42505025863647,1.03193747997284,1.21825003623962,1.16709995269775,5.66595029830933,6.41295051574707,8.84595012664795,SWING_LEFT
0.1370874941349,0.16788749396801,-0.43862500786781,2.53288745880127,2.39772510528564,1.9293999671936,1.8840000629425,1.9080001115799,1.67295002937317,8.79705047607422,6.46695041656494,3.78900027275085,-3.75911259651184,-5.02548742294312,-4.9861626625061,0.49005001783371,-4.63905000686646,-9.63705062866211,-0.10339999943972,-0.72393751144409,-1.59334993362427,-1.01626253128052,-1.00141251087189,-1.17700004577637,-9.53895092010498,-10.8370504379272,-12.7240505218506,5.60205030441284,4.35495042800903,6.37800025939941,0.21463750302792,3.14654994010925,5.84223747253418,-19.3279514312744,-16.6189498901367,-12.9640502929688,1.18525004386902,2.75495004653931,3.30838751792908,-2.25499987602234,-2.33268737792969,-1.54412496089935,-27.7320022583008,-34.8930015563965,-41.6800537109375,18.0640506744385,14.4850511550903,10.5100507736206,15.2582378387451,13.5502128601074,11.790075302124,20.7810001373291,22.2439517974854,10.8250503540039,4.46201229095459,4.27157497406006,4.65245008468628,1.46547496318817,1.13024997711182,1.21536254882813,-27.8509521484375,-20.8320007324219,-13.6729507446289,9.16394996643066,9.73095035552978,5.43495035171509,9.01889991760254,7.45236253738403,5.89545011520386,24.6510009765625,23.4700508117676,20.2420501708984,0.96291249990463,0.67979997396469,0.5713124871254,1.34089994430542,0.21711249649525,-0.32243749499321,-1.24305009841919,0.57900005578995,0.77505004405975,3.70500016212463,5.36805009841919,5.92305040359497,0.2381500005722,-0.00673749996349,-0.12691250443459,8.08695030212402,6.45405054092407,6.15195035934448,SWING_LEFT
-0.51108747720718,-0.69410002231598,-1.15486252307892,-0.1127500012517,0.49802500009537,1.28342497348785,1.58505010604858,2.30295014381409,1.82400012016296,11.1079502105713,10.6099500656128,9.27405071258545,-2.17868757247925,-2.63106250762939,-4.14218759536743,-0.04500000178814,-0.62505000829697,1.19205009937286,-4.51357507705688,-4.28999996185303,-3.24499988555908,0.04372499883175,-0.30002498626709,-0.256437510252,-12.8059501647949,-17.9100017547607,-17.7880516052246,7.00305032730103,12.7660503387451,15.6109504699707,-0.49307498335838,2.45698738098145,5.37074995040894,-19.5649509429932,-18.564001083374,-16.1380500793457,2.70503759384155,2.21650004386902,1.72493743896484,0.12993749976158,0.54697501659393,0.18314999341965,-34.2700500488281,-36.8350524902344,-39.6730537414551,5.46795034408569,4.8550500869751,4.58895015716553,14.3686122894287,14.2271251678467,13.2309370040894,11.1169509887695,20.2420501708984,27.1009521484375,4.87286233901978,4.0555624961853,1.70568752288818,-1.59197497367859,-0.30855000019073,1.24946248531342,-12.3030004501343,-2.4190502166748,-2.48295021057129,1.34895002841949,1.94805014133453,-0.68400001525879,2.10787487030029,0.95534998178482,1.37046253681183,15.0349502563477,6.41295051574707,3.1840500831604,-0.05335000157356,0.48289999365807,0.80217498540878,1.15252494812012,0.37894999980927,-0.29796248674393,-2.40705013275146,-0.43605002760887,0.03299999982119,11.6590509414673,9.93495082855225,9.37395000457764,2.05150008201599,1.84181249141693,1.41831254959106,8.21895027160645,8.7940502166748,8.56605052947998,SWING_LEFT
-0.39723750948906,-0.48014998435974,-0.75473749637604,0.68433749675751,0.87051248550415,1.18236243724823,2.27205014228821,2.35095000267029,2.48295021057129,10.0020008087158,9.36195087432861,8.60295009613037,-1.78928744792938,-2.29473757743835,-2.78313755989075,0.15195000171661,-1.1380500793457,-1.06800007820129,-1.52845001220703,-1.724249958992,-2.13826251029968,2.14761257171631,1.7326375246048,0.75349998474121,-3.94905018806458,-8.11905002593994,-11.5050001144409,6.37800025939941,3.46095013618469,3.1279501914978,-3.94845008850098,-1.95098745822906,0.77866250276566,-13.3639507293701,-18.2400016784668,-20.5320014953613,1.89626252651215,2.43361258506775,2.79441237449646,-0.41923749446869,-0.68323749303818,-1.28865003585815,-27.435001373291,-34.1119499206543,-41.4289512634277,12.7800006866455,9.24000072479248,7.45095014572144,15.5148124694824,14.6899499893188,13.0883502960205,19.3339500427246,23.976001739502,29.0320510864258,7.06722497940063,6.37656259536743,3.12743759155273,-2.44131255149841,-1.58675003051758,-0.20638750493526,-10.5930004119873,-6.8779501914978,-1.86300003528595,-0.51405000686646,-5.49795007705688,-3.77100014686584,3.07848739624023,2.10155010223389,1.00856244564056,18.8380508422852,15.8209505081177,9.8830509185791,0.37331250309944,0.20831249654293,0.20308749377728,1.36221253871918,0.47038748860359,-0.55330002307892,-0.43995001912117,-0.47400003671646,0.51405000686646,4.213050365448,4.99395036697388,7.34595012664795,1.3778874874115,1.13409996032715,0.83833748102188,9.16005039215088,9.23400020599365,8.52795028686523,SWING_LEFT
-0.62603747844696,-0.88563752174377,-2.05631256103516,0.76092499494553,1.09408748149872,1.11539995670319,4.68600034713745,3.49095010757446,-1.99200010299683,8.26800060272217,5.79195022583008,3.89895009994507,-6.6750750541687,-6.29502487182617,-5.25964975357056,-1.45800006389618,-4.27995014190674,-5.33400011062622,-3.79940009117126,-3.59301257133484,-3.24706244468689,0.96635001897812,0.86308747529984,0.42460000514984,-8.671950340271,-9.09405040740967,-11.9130001068115,9.0730504989624,9.5779504776001,10.2199506759644,-0.59303748607635,1.28205001354218,4.2523250579834,-13.627950668335,-19.0120506286621,-23.8330516815186,4.40453767776489,4.19484996795654,2.7560498714447,-2.64660000801086,-1.33443748950958,-0.16279999911785,-36.2050514221191,-44.2930526733398,-51.117000579834,10.6099500656128,3.67695021629334,3.24600005149841,17.2717876434326,16.6109619140625,14.3048124313354,18.8290500640869,26.1240005493164,29.2060508728027,6.37546253204346,4.46737480163574,2.68908739089966,-5.04212474822998,0.28311249613762,1.98054993152618,-14.0560503005981,-11.9010009765625,-8.3100004196167,1.85400009155273,-1.50495004653931,0.53400003910065,5.07911252975464,3.88299989700317,2.66763758659363,19.0200004577637,18.105001449585,16.2090015411377,0.87353748083115,0.33715000748634,0.46158748865128,0.49059998989105,1.14619994163513,0.28627499938011,-0.98895007371902,-1.85805010795593,1.11300003528595,4.18695020675659,5.61405038833618,6.07200050354004,0.78608751296997,0.50517499446869,0.52648746967316,9.70605087280273,7.26795053482056,7.91700029373169,SWING_LEFT
-0.14492499828339,-0.12897500395775,-0.24172499775887,0.00329999998212,0.01168750040233,0.12663750350475,3.18495011329651,3.38595008850098,3.65595006942749,9.63600063323975,9.65700054168701,9.23805046081543,-0.33439999818802,-0.75157499313354,-2.41601252555847,0.97200006246567,0.80400002002716,5.24895048141479,-1.89667499065399,-1.20917499065399,-0.35777500271797,1.87302494049072,2.07955002784729,0.94723749160767,-3.03705024719238,-12.4750509262085,-13.078950881958,8.61495018005371,12.8209505081177,11.5009508132935,-0.68035000562668,1.19583749771118,6.84144973754883,-16.9660511016846,-18.4680004119873,-20.6670017242432,0.85222500562668,0.97240000963211,0.69795000553131,0.33096250891685,0.44701248407364,0.35969999432564,-40.2000007629395,-51.7320022583008,-62.1409530639649,12.7390508651733,10.3879508972168,10.4590501785278,19.1064491271973,18.0677757263184,14.5751371383667,22.302001953125,37.126953125,39.3660011291504,6.73942518234253,4.18962478637695,1.95896244049072,-3.168137550354,1.30900001525879,4.60171270370483,-18.2470512390137,-15.2920503616333,-10.2550506591797,-3.6820502281189,0.86295002698898,4.62000036239624,6.11682510375977,3.89042496681213,2.30161237716675,29.9560508728027,24.246000289917,18.2520008087158,-0.84205001592636,-0.27472499012947,0.61379998922348,2.4583625793457,1.44099998474121,0.32037499547005,0.78000003099442,0.30795001983643,0.19800001382828,10.701000213623,12.3510007858276,10.2649507522583,0.62438750267029,0.50517499446869,0.21257500350475,5.34195041656494,6.33195018768311,6.47295045852661,SWING_LEFT
-1.02396249771118,-1.39108753204346,-1.79341244697571,0.82059997320175,0.76202499866486,0.71843749284744,0.89700001478195,0.2790000140667,-1.76205003261566,7.14900016784668,6.48405027389526,8.40705013275146,-3.11093759536743,-2.57248759269714,-2.13619995117188,-7.08705043792725,-8.50695037841797,-7.39095020294189,-0.42803749442101,-1.07511246204376,-1.74020004272461,0.33742499351501,0.36726251244545,0.32890000939369,-6.49695014953613,-9.41700077056885,-12.2500505447388,6.57195043563843,6.33000040054321,7.03500032424927,-0.44838750362396,2.53783750534058,4.7056622505188,-15.4740009307861,-17.506950378418,-17.0670013427734,1.65467500686646,2.1185998916626,2.54113745689392,-1.42917501926422,-1.38242495059967,-0.7012500166893,-26.2780513763428,-30.8260517120361,-34.6800003051758,12.9840002059937,14.6479511260986,15.8839511871338,12.902174949646,13.5364627838135,13.341625213623,7.45995044708252,13.4110507965088,18.1489505767822,4.74718761444092,5.07278728485107,4.93239974975586,-2.08999991416931,-0.65656250715256,0.98229998350143,-24.1680011749268,-16.0799999237061,-12.9859504699707,8.74905014038086,6.6109504699707,-0.58095002174377,7.46088743209839,6.19657516479492,4.80562496185303,23.0130004882813,21.9900016784668,19.0830001831055,1.30666244029999,0.79681247472763,0.81180000305176,0.31831249594688,0.47891250252724,0.76738750934601,-3.40305018424988,-2.17005014419556,-0.36105000972748,0.24195000529289,4.20105028152466,5.59305047988892,1.90244996547699,1.39163744449615,1.03097498416901,11.9670009613037,10.5880508422852,11.943000793457,SWING_LEFT
-0.01512499991804,-0.10449999570847,-0.59509998559952,-0.67567497491837,-0.40328750014305,0.01704999990761,4.27905035018921,2.57400012016296,0.74895006418228,9.62100028991699,7.40805053710938,5.24505043029785,-5.29897499084473,-5.60120010375977,-5.64162492752075,0.86100006103516,-1.12604999542236,-4.13400030136108,-3.4183874130249,-2.04132509231567,-1.5859249830246,2.41793751716614,2.02303743362427,0.87697499990463,-11.6440505981445,-14.5489511489868,-16.5949516296387,10.1839504241943,7.8270001411438,6.73305034637451,-0.96442496776581,0.58932501077652,2.94222497940063,-14.5860004425049,-17.5579509735107,-20.7120018005371,0.28819999098778,1.34282493591309,2.1175000667572,-1.03537499904633,-0.97583746910095,-1.34832501411438,-31.3429508209229,-37.2300033569336,-43.4620513916016,14.5980005264282,10.8810005187988,7.56105041503906,14.235650062561,14.4781999588013,13.6119499206543,10.0440006256104,16.2730503082275,15.961950302124,3.94047498703003,4.30553770065308,3.48081254959106,-3.168137550354,-3.13197493553162,-1.18552494049072,-29.0970020294189,-16.5570011138916,-9.04095077514648,3.07995009422302,2.48400020599365,3.93495011329651,5.98262500762939,4.83230018615723,3.07202506065369,21.6409511566162,20.377950668335,18.5080509185791,1.97284996509552,0.72242498397827,0.19126249849796,0.91946250200272,0.90777498483658,0.35653749108315,1.51500010490417,0.05400000140071,1.3000500202179,4.89300012588501,2.90805006027222,4.95105028152466,0.79254996776581,0.50737500190735,0.59028750658035,9.09794998168945,7.30200052261353,4.36005020141602,SWING_LEFT
-0.4823499917984,-1.31986248493195,-2.28401255607605,-0.13612499833107,0.59922498464584,1.54632496833801,5.17995023727417,4.93995046615601,3.16500020027161,8.80395030975342,6.64200019836426,4.69500017166138,-3.73037505149841,-4.41567516326904,-4.83395004272461,1.84605014324188,-0.50295001268387,-4.97895002365112,-3.76007509231567,-2.56712508201599,-0.05238749831915,2.52752494812012,1.68684995174408,-0.50435000658035,-16.6500015258789,-18.5080509185791,-25.6980018615723,12.0090007781982,13.8049507141113,17.3830509185791,6.27426242828369,8.59636211395264,9.46577453613281,-16.3000507354736,-3.8580002784729,1.01700007915497,0.84906250238419,3.01042509078979,3.84161257743835,-0.2404875010252,-0.9619500041008,-2.03582501411438,-31.3150520324707,-36.3319511413574,-40.3890037536621,11.7430505752563,7.74600028991699,3.67005014419556,14.6218872070313,11.106837272644,7.91532516479492,21.328950881958,37.3369522094727,32.1589508056641,4.05968761444092,2.95501255989075,0.31803750991821,0.25547498464584,1.47606253623962,1.54426252841949,-1.25505006313324,-0.21795001626015,2.2630500793457,0.61095005273819,-3.66795015335083,1.46895003318787,0.66054999828339,0.33605000376701,0.27004998922348,11.742000579834,9.1360502243042,7.13100051879883,-0.01512499991804,-0.10023749619722,-0.22907499969006,-0.34897500276566,0.13736249506474,0.47148749232292,1.67295002937317,2.65800023078919,2.50395011901855,8.824049949646,8.51205062866211,7.99305057525635,0.31790000200272,0.41263750195503,0.3785375058651,4.94205045700073,4.92795038223267,5.70405006408691,SWING_LEFT
-0.21518750488758,0.14231249690056,0.04551250115037,-1.02588748931885,-1.122687458992,-0.32339999079704,2.12595009803772,2.7439501285553,4.97400045394897,12.2320508956909,11.953950881958,10.5430507659912,-1.98934996128082,-3.41646242141724,-4.50408744812012,3.70695018768311,4.7509503364563,5.32095003128052,-2.12121248245239,-3.84738755226135,-4.04524993896484,1.38668751716614,1.78365004062653,1.32288753986359,-3.08700013160706,-14.1090002059937,-18.1639499664307,2.23305010795593,2.03595018386841,4.08105039596558,-5.22238731384277,-2.48627495765686,1.61727499961853,-17.4930000305176,-27.6019515991211,-27.0730514526367,2.16645002365112,2.13455009460449,2.0963249206543,-0.3936625123024,-0.55646252632141,-1.41006255149841,-33.199951171875,-36.9640502929688,-42.8989524841309,8.05500030517578,4.94805002212524,5.74395036697388,14.8241500854492,15.343487739563,13.6343622207642,7.94100046157837,22.8259506225586,28.1070022583008,5.45916223526001,2.44956254959106,2.22818756103516,-2.40611243247986,-1.41638743877411,-0.40534999966621,-12.5110502243042,-7.11495018005371,-3.52305006980896,-5.54595041275024,2.5770001411438,7.03005027770996,4.38748741149902,2.96463751792908,1.90671253204346,20.2009506225586,17.0729999542236,13.3420505523682,0.12319999933243,-0.28008750081062,0.42432498931885,0.47781249880791,0.32780000567436,0.00536249997094,-1.21200001239777,-0.22200001776218,2.63595008850098,2.95800018310547,7.15905046463013,6.35700035095215,0.48922500014305,0.22742499411106,0.21353749930859,8.28299999237061,7.014000415802,5.94600009918213,SWING_LEFT
-0.96222501993179,-0.55577498674393,-0.34402498602867,-0.41181248426437,-0.00316249998286,0.24901250004768,3.01200008392334,2.88300013542175,0.93600004911423,12.4860010147095,12.9570007324219,5.27400016784668,-3.49084997177124,-3.68032503128052,-3.76433753967285,0.76995003223419,-0.50505000352859,-1.5040500164032,-2.91183757781982,-2.94483757019043,-2.65759992599487,1.85074996948242,1.63886249065399,0.7705500125885,-6.24795007705688,-8.55705070495605,-10.8919506072998,8.6850004196167,8.85494995117188,13.3650007247925,-4.2656626701355,-4.12623739242554,-1.91056251525879,-2.77605009078979,-13.2250509262085,-24.8940010070801,1.54921245574951,3.64361238479614,4.48428726196289,-0.75872498750687,-0.12237499654293,-1.00141251087189,-26.7589511871338,-43.419002532959,-52.6180534362793,17.9370002746582,9.22800064086914,3.50895023345947,16.4225883483887,16.4342746734619,12.5413751602173,14.9869508743286,22.2460517883301,27.1560020446777,4.47370004653931,4.59181261062622,4.52471256256104,-3.23510003089905,-2.9690375328064,-1.3503874540329,-14.5159511566162,-13.6080007553101,-11.7859506607056,-0.55200004577637,1.93305003643036,2.43795013427734,4.12664985656738,2.33351254463196,1.24368751049042,27.0220508575439,22.2130508422852,17.1880512237549,0.80327498912811,0.49348750710487,0.47973749041557,1.32178747653961,1.30473744869232,0.50338751077652,-0.36405003070831,1.53000009059906,1.32600009441376,3.55695009231567,6.26805019378662,5.16405010223389,-0.05142499879003,0.30305001139641,0.48496249318123,6.10395050048828,4.91400003433228,5.76600027084351,SWING_LEFT
0.24873749911785,0.03382499888539,0.08071249723434,-0.28833749890327,-0.09143749624491,-0.03616249933839,2.50200009346008,3.26805019378662,4.33695030212402,9.15705013275146,10.1700000762939,10.0690507888794,-1.24643754959106,-2.20852494239807,-3.25146245956421,6.57600021362305,4.97805023193359,0.41100001335144,-1.97546243667603,-2.72676253318787,-2.79908752441406,1.76769995689392,1.88154995441437,1.49847495555878,-0.22995001077652,-5.29500007629395,-8.3700008392334,6.51705026626587,6.45000028610229,5.27700042724609,-5.57246255874634,-5.769362449646,-2.17236256599426,-2.95800018310547,-7.33095026016235,-21.4999504089355,0.92454999685287,2.69651246070862,3.96288752555847,-1.87082493305206,-0.77893751859665,-0.48303750157356,-25.5550518035889,-31.4869518280029,-37.9129524230957,22.1350517272949,18.1740016937256,9.39600086212158,15.0922746658325,15.4710874557495,13.4129877090454,11.4690008163452,18.6540012359619,22.9909515380859,4.69507503509521,5.11857509613037,4.44180011749268,-3.98970007896423,-2.93507504463196,-1.00141251087189,-15.7330503463745,-8.53995037078857,-7.63695049285889,3.55200028419495,2.19900012016296,-0.72000002861023,4.96842479705811,3.66588759422302,2.52725005149841,21.5329513549805,19.8850517272949,16.371000289917,1.66100001335144,1.44072496891022,0.88948750495911,-0.15633749961853,0.57585000991821,0.55563747882843,-1.44600009918213,-1.61595010757446,0.39405003190041,6.1840500831604,5.18295001983643,4.87905025482178,0.8787624835968,0.52332502603531,0.24653749167919,10.6039505004883,9.26100063323975,7.74900054931641,SWING_LEFT
0.02736249938607,-0.69410002231598,-1.91894996166229,-1.208899974823,0.95149999856949,2.65526247024536,2.99805021286011,2.07600021362305,-1.04205000400543,11.9350509643555,8.83095073699951,6.56295013427734,-4.24545001983643,-4.04002475738525,-2.68743753433228,-2.70600008964539,-8.58105087280273,-10.8400506973267,-1.79231250286102,-0.52057498693466,0.8787624835968,0.31075000762939,-1.99856245517731,-2.59228754043579,-14.0749502182007,-20.7690010070801,-24.6640510559082,6.69405031204224,14.7660007476807,15.0430507659912,7.39914989471436,9.86699962615967,11.4973373413086,-11.9389505386353,-2.79195022583008,4.46595001220703,4.58122491836548,5.2676248550415,6.17320013046265,-1.76123750209808,-2.50401258468628,-3.30536246299744,-33.7140007019043,-32.7709503173828,-31.1370010375977,5.47800016403198,4.37100028991699,3.1690502166748,11.8815126419067,6.18268728256226,4.73110008239746,29.0719509124756,24.025951385498,19.5979499816895,1.61094999313354,1.66732501983643,2.12918758392334,2.63931250572205,1.83576250076294,0.97803747653961,-2.53800010681152,-0.30900001525879,2.77500009536743,0.82200002670288,3.92805027961731,3.84000015258789,2.05356240272522,1.00746250152588,0.45732501149178,16.2160511016846,12.5490007400513,9.33495044708252,0.45416250824928,0.00398749997839,-0.1205874979496,1.94012498855591,2.20618748664856,0.73012501001358,3.44295024871826,3.24195003509521,2.6100001335144,4.8139500617981,4.65900039672852,5.96595048904419,0.36574998497963,0.39875000715256,0.32326251268387,5.1889500617981,5.38095045089722,5.03295040130615,SWING_LEFT
-0.45567500591278,-0.5876749753952,-0.83778750896454,1.84538745880127,2.11351251602173,1.82201254367828,0.4609500169754,0.60795003175735,0.52605003118515,9.71205043792725,7.06305027008057,5.98095035552979,-2.44048738479614,-3.07161259651184,-3.29504990577698,-1.7700001001358,-2.72295022010803,-3.48495006561279,-1.43371248245239,-1.41349995136261,-0.86336249113083,-0.24901250004768,-0.77783751487732,-1.89213752746582,-5.1060004234314,-7.86705017089844,-9.20895004272461,6.91005039215088,9.09899997711182,12.3730506896973,-0.76120001077652,0.342375010252,1.91207504272461,-10.5570001602173,-7.91100025177002,-12.0300006866455,1.1310750246048,2.57303738594055,4.14163732528687,-0.65766251087189,-0.36602500081062,1.09835004806519,-23.931001663208,-30.6730518341064,-38.193000793457,21.4360504150391,21.8839511871338,11.496000289917,12.6498622894287,13.2926750183105,13.5746870040894,6.4350004196167,8.58000087738037,15.9600009918213,6.16783761978149,4.79503726959229,2.4059751033783,-1.20353746414185,-0.27871251106262,1.23131251335144,-12.9640502929688,-8.34405040740967,-2.52195000648499,-5.25600004196167,-8.53395080566406,-4.60200023651123,3.61473751068115,2.9837498664856,2.54526257514954,16.7040004730225,13.3920001983643,9.28200054168701,0.70853751897812,0.67869997024536,0.43505001068115,0.58753746747971,0.58327502012253,0.28627499938011,1.35195004940033,3.07005023956299,2.62695002555847,9.37005043029785,7.30995035171509,6.14100027084351,0.77660000324249,0.58822500705719,0.44990000128746,8.56605052947998,7.14300012588501,6.54000043869019,SWING_LEFT
-0.49513748288155,-0.86762499809265,-2.15311241149902,-0.2223374992609,0.31927499175072,0.9120374917984,6.63600015640259,5.62995004653931,1.33800005912781,8.61795043945313,7.9350004196167,4.0290002822876,-4.97873735427856,-5.40856266021729,-4.90201234817505,1.38105010986328,-5.17995023727417,-10.0350008010864,-3.08962488174438,-1.33691251277924,0.15083749592304,0.14162500202656,-0.49582499265671,-0.36396250128746,-13.3860006332397,-14.202000617981,-15.8929510116577,17.2780513763428,18.7249507904053,15.6540002822876,2.66873741149902,4.31818771362305,5.97836256027222,-11.9730005264282,-10.6720504760742,-9.81495094299316,0.0796125009656,0.17008750140667,0.93417501449585,-0.63524997234344,0.15111249685287,0.03726249933243,-29.1259517669678,-34.3470001220703,-37.7400016784668,11.2590007781982,13.1830501556396,13.2829504013062,13.2171878814697,13.1213502883911,12.3711500167847,10.4389505386353,13.6080007553101,16.7380504608154,5.55486249923706,4.19911241531372,2.57083749771118,-3.32983756065369,-1.78034996986389,0.32780000567436,-18.2809505462646,-6.65100049972534,-4.03500032424927,-2.92095017433167,-1.16700005531311,0.63495004177094,5.65908765792847,5.65812492370605,4.52045011520386,12.2689504623413,16.8889503479004,18.7069511413574,1.64078748226166,1.03839993476868,0.93197500705719,-0.03299999982119,0.16390000283718,-0.25850000977516,0.61005002260208,-2.23200011253357,-1.40805006027222,5.78700017929077,5.28900003433228,6.10500049591064,2.46441245079041,0.87023746967316,0.38596248626709,13.0330505371094,10.9969501495361,8.06595039367676,SWING_LEFT
-0.4823499917984,-0.58341246843338,-1.04417502880096,0.34375,0.75886249542236,1.17067503929138,1.58505010604858,1.90305006504059,1.04295003414154,10.5790500640869,8.72100067138672,7.55895042419434,-1.00911247730255,-0.64418751001358,-0.6154500246048,-6.17700052261353,-6.2509503364563,-5.51295042037964,-3.07793736457825,-0.41745001077652,0.53184998035431,2.1146125793457,-1.00141251087189,-1.77292501926422,-7.13505029678345,-12.4350004196167,-14.9970006942749,12.0589504241943,13.3570508956909,11.5009508132935,0.43917500972748,4.01170015335083,6.60522508621216,-12.8659505844116,-13.993950843811,-16.5570011138916,1.13093745708466,2.80706238746643,4.0479998588562,0.55769997835159,-0.45856249332428,-2.42206239700317,-41.5170021057129,-45.6439514160156,-46.9489517211914,17.5410003662109,8.59095001220703,1.31295001506805,15.9766750335693,15.0262746810913,12.1976251602173,20.9149513244629,32.1070518493652,31.9990520477295,4.61408758163452,3.95546245574951,3.18491244316101,-0.84920001029968,0.08304999768734,1.21000003814697,-13.8670511245728,-14.1379508972168,-10.1119508743286,-0.88695001602173,0.34005001187325,1.03500008583069,6.39127492904663,2.26751255989075,1.37884998321533,25.5589504241943,15.8179512023926,10.7890501022339,-0.85593748092651,-0.44398748874664,0.53294998407364,0.64707499742508,0.01498750038445,-0.521399974823,-1.57800006866455,-0.17205001413822,1.71195006370544,6.98700046539307,10.9309501647949,8.7810001373291,1.01392495632172,0.64996248483658,0.42638748884201,8.73405075073242,7.86705017089844,6.90900039672852,SWING_LEFT
-0.22481249272823,-0.06943749636412,0.03904999792576,0.16390000283718,-0.09143749624491,-0.10216250270605,1.63695013523102,2.44500017166138,3.02700018882751,11.3530502319336,11.1540002822876,11.953950881958,-0.59207499027252,-1.02189993858337,-1.99141252040863,3.89100027084351,4.01805019378662,2.36805009841919,-0.69410002231598,-1.23584997653961,-2.06057500839233,1.72411251068115,1.98054993152618,2.30188751220703,3.84795022010803,2.48295021057129,0.36300000548363,7.33605051040649,5.5090503692627,4.67295026779175,-4.21781253814697,-4.76258754730225,-5.04570007324219,-2.18400001525879,-4.43505001068115,-7.92495059967041,-1.30391252040863,-0.74414998292923,0.04331250116229,2.82122492790222,1.41968750953674,-1.64738750457764,-14.8129510879517,-18.9559516906738,-30.9360008239746,6.25605010986328,4.74000024795532,13.5540008544922,6.13800001144409,11.1259498596191,14.3589878082275,-33.8890533447266,-16.5420017242432,1.92705011367798,1.64285004138947,1.76522493362427,2.82314991950989,-0.44371250271797,-1.66223752498627,-3.09787487983704,-46.6570510864258,-38.052001953125,-24.4960517883301,4.31100034713745,5.45895004272461,7.56600046157837,10.9216251373291,7.90253734588623,6.98087501525879,25.4170513153076,23.67405128479,25.5439510345459,1.31725001335144,1.88663744926453,1.95043754577637,1.3388375043869,1.04623746871948,0.44275000691414,-1.39095008373261,-1.17105007171631,0.05400000140071,6.86205053329468,4.8070502281189,2.37405014038086,1.79822504520416,1.00966250896454,0.9649749994278,12.8820009231567,8.74305057525635,8.68095016479492,SWING_LEFT
-0.18975000083447,-0.43766251206398,-0.74951249361038,0.30868750810623,0.7460749745369,-0.0244750007987,4.50705003738403,4.30800008773804,2.97900009155273,11.1730508804321,7.40100049972534,6.18000030517578,-4.17738771438599,-5.06481266021729,-5.97905015945435,2.04900002479553,1.8840000629425,2.36295008659363,-3.2876250743866,-4.04951238632202,-3.62917494773865,-0.87367498874664,-0.23622499406338,0.95782500505447,-10.9830007553101,-14.2639503479004,-14.9710502624512,6.49995040893555,9.24495029449463,17.8530006408691,-1.61576247215271,0.33591249585152,2.29198741912842,-13.8499507904053,-12.5899505615234,-12.9190502166748,1.46410000324249,3.95862507820129,4.13311243057251,1.0419750213623,0.38321250677109,-0.31817498803139,-30.6220512390137,-49.0590019226074,-64.1430053710938,16.0180511474609,8.85494995117188,2.76195001602173,19.9854869842529,15.6488752365112,5.90713739395142,43.9410018920898,50.8500022888184,26.6440505981445,3.12111258506775,1.35231244564056,1.54921245574951,-0.37661248445511,2.10402488708496,1.81458747386932,-5.75505018234253,-2.24595022201538,0.43500003218651,-2.21895003318787,3.61005020141602,2.68005013465881,1.48527503013611,1.29593753814697,1.08198750019073,9.35205078125,7.84305047988892,7.66095018386841,-0.07796250283718,0.16582499444485,0.17641249299049,-0.68213748931885,-0.97157502174377,-0.23196250200272,1.90995013713837,3.11295008659363,3.69000005722046,8.68005084991455,9.51600074768066,9.34305000305176,0.30731248855591,0.04757500067353,-0.26633748412132,8.17800045013428,7.08105039596558,5.27295017242432,SWING_LEFT
-0.34938749670982,-1.24643754959106,-1.85405004024506,0.31831249594688,0.26399999856949,0.56938749551773,2.35095000267029,1.22295010089874,-0.15300001204014,6.34200048446655,7.49895048141479,9.37695026397705,-2.0627748966217,-1.71792495250702,-1.56571245193481,-1.01805007457733,-2.48805022239685,-1.69995009899139,-2.45959997177124,-2.1350998878479,-1.7965749502182,2.39882493019104,1.06218755245209,-0.22659999132156,-8.65305042266846,-10.5139503479004,-12.7530002593994,7.11405038833618,7.85595035552979,10.1770505905151,-1.13052499294281,1.32041251659393,3.24761247634888,-7.60200023651123,-10.7130002975464,-15.6390008926392,3.70851254463196,5.78696250915527,6.22324991226196,-0.78003752231598,-1.05242502689362,-0.19676250219345,-29.4580516815186,-38.8690528869629,-47.344051361084,18.3340511322021,10.771050453186,4.40205001831055,15.6679878234863,15.6446123123169,14.3484001159668,16.4119510650635,21.457950592041,20.826000213623,5.96887493133545,5.70817518234253,4.20227479934692,-4.58768749237061,-2.87649989128113,-0.12237499654293,-12.961950302124,-9.72405052185059,-10.2379503250122,3.07095003128052,1.5619500875473,2.04795002937317,5.73897504806519,2.3452000617981,1.03097498416901,24.4450511932373,21.6360015869141,14.4769506454468,1.58647501468658,-0.08538749814034,-0.5908374786377,1.53890001773834,0.75349998474121,0.16390000283718,0.73905003070831,1.4479501247406,0.43995001912117,-0.74295002222061,1.21200001239777,4.0339503288269,0.34443750977516,-0.40576249361038,-0.71967500448227,12.8530502319336,10.1400003433228,7.9699501991272,SWING_LEFT
-1.12406253814697,-1.09106254577637,-0.70798748731613,0.63648748397827,0.80561250448227,1.10783743858337,-6.97905015945435,-11.1030006408691,-11.1870002746582,11.0269508361816,14.062050819397,13.5679502487183,1.65343749523163,2.48888754844666,3.24128746986389,-7.6279501914978,-5.83695030212402,-5.37000036239624,0.80107498168945,1.00966250896454,1.09477496147156,-0.98009997606277,-0.94283747673035,-0.66398751735687,-15.3109502792358,-16.8199501037598,-18.5729999542236,10.4190006256104,10.2270002365112,9.74805068969727,7.3309497833252,7.89497518539429,8.51235008239746,2.52600002288818,3.84300017356873,3.87705016136169,1.28851246833801,-0.91547501087189,-0.52277499437332,-0.58630001544952,0.59922498464584,0.45127499103546,-25.1329517364502,-24.2899513244629,-21.4710006713867,5.00100040435791,13.1010007858276,15.9940509796143,9.76593780517578,8.1163501739502,5.57507514953613,23.6710510253906,24.3469505310059,13.7680501937866,3.74467492103577,2.50909996032715,1.14056253433228,2.05287504196167,2.62858748435974,0.08841250091791,-4.43505001068115,-0.5100000500679,0.27495002746582,2.88195013999939,0.65895003080368,4.09800004959106,3.55520009994507,3.16043758392334,2.62295007705688,8.61600017547607,9.40395069122314,8.78595066070557,0.12636250257492,0.0114124994725,0.09762500226498,-0.40328750014305,-0.21601249277592,-0.29576250910759,4.82505035400391,5.02395009994507,4.86405038833618,7.11105012893677,7.54200029373169,7.0489501953125,0.17641249299049,-0.12168750166893,-0.23127499222755,6.40305042266846,4.06605005264282,2.29395008087158,SWING_LEFT
-1.32316243648529,-1.39974999427795,-1.13052499294281,0.54807502031326,0.78539997339249,0.56196248531342,-5.23995018005371,-6.66495037078857,-8.54805088043213,10.8790502548218,11.6880006790161,12.3679504394531,0.45622500777245,1.57891249656677,2.99227499961853,-10.1160001754761,-11.4670505523682,-10.6069507598877,1.83438754081726,2.51020002365112,2.58252501487732,-0.70551252365112,-0.54697501659393,-0.4298250079155,-13.8310508728027,-14.4349508285522,-14.9760007858276,15.6330003738403,11.496000289917,9.31695079803467,7.14793729782104,8.56336212158203,9.76277542114258,-4.84995031356812,-2.0500500202179,4.39905023574829,2.68578743934631,3.67441248893738,4.14370012283325,-0.1372250020504,-0.90777498483658,-0.81193751096725,-20.7790508270264,-16.1230506896973,-13.2199506759644,9.45405006408691,8.74005031585693,8.3730001449585,7.63647508621216,5.76551246643066,4.0862250328064,24.1410007476807,24.9670505523682,21.3700504302979,1.64821243286133,2.0132749080658,2.30367493629456,4.08347511291504,3.49167490005493,1.21220004558563,-0.33000001311302,-0.62505000829697,0.63900005817413,8.40195083618164,4.14105033874512,2.48595023155212,2.22818756103516,1.31078743934631,0.83723747730255,13.0140008926392,9.67695045471191,8.58000087738037,0.94792497158051,0.15193749964237,-0.59193748235703,-0.66288751363754,-0.72146248817444,-0.35543748736382,4.02795028686523,3.9100501537323,4.38495016098022,2.3860502243042,3.1039502620697,5.65305042266846,0.33495000004768,0.19442500174046,0.1380500048399,4.08000040054321,4.22399997711182,4.2960000038147,SWING_LEFT
-0.49829998612404,-0.11522500216961,0.11151249706745,-0.12127500027418,-0.12333749979734,-0.21807499229908,-0.29399999976158,0.87300002574921,1.81695008277893,12.0739507675171,11.1780004501343,10.2130508422852,-1.10288751125336,-1.38160002231598,-1.98934996128082,2.77995014190674,2.44695019721985,1.60095012187958,-1.83809995651245,-2.68950009346008,-2.25527501106262,1.71558749675751,2.33172488212585,1.58895003795624,0.08505000174046,-5.61105012893677,-9.26100063323975,7.05405044555664,9.26400089263916,12.2170505523682,-3.25682497024536,0.79145002365112,5.87193727493286,-14.3599510192871,-19.78005027771,-10.6630506515503,1.79712498188019,3.75856256484985,4.46201229095459,0.98972499370575,-0.74703747034073,-1.87192499637604,-28.7740516662598,-42.4630508422851,-48.0289535522461,15.1030511856079,8.63400077819824,5.66205024719238,15.6435127258301,14.7325744628906,11.2557497024536,16.6110000610352,23.3599510192871,30.4420509338379,6.37642478942871,6.10720014572144,5.00362491607666,-2.92008757591248,0.260837495327,3.1799623966217,-15.081000328064,-8.31795024871826,-5.02200031280518,1.21005010604858,-0.42495003342628,-5.49000024795532,2.07803750038147,0.97776252031326,0.48289999365807,23.988000869751,17.0610008239746,11.6800508499146,-0.44082498550415,-0.27802500128746,0.58932501077652,0.67801249027252,-0.42460000514984,-0.24474999308586,-1.82505011558533,-1.21395003795624,-0.24600000679493,4.13205003738403,11.3929510116577,9.93705081939697,0.15289999544621,-0.05664999783039,0.14973749220371,9.45705032348633,7.53600025177002,4.17405033111572,SWING_LEFT
0.08167500048876,-0.03107500076294,-0.41951251029968,0.57158750295639,0.55879998207092,0.70345002412796,1.63005006313324,1.89900004863739,1.48905003070831,9.06300067901611,7.80300045013428,7.37505054473877,-2.31068754196167,-3.1322500705719,-2.84281253814697,-0.32100000977516,-6.82605028152466,-9.30195045471191,-2.13083744049072,-1.90203750133514,-1.58482503890991,1.08982503414154,-0.01484999991953,-1.25894999504089,-8.39205074310303,-10.5430507659912,-12.5040006637573,7.09200048446655,7.57095050811768,8.17905044555664,0.66275000572205,2.19834995269775,4.13517475128174,-11.9490003585815,-12.4300508499146,-13.5679502487183,2.99117493629456,4.96539974212646,6.04449987411499,-2.92861247062683,-1.99746251106262,-0.7735750079155,-29.9299507141113,-35.7619514465332,-40.5690002441406,20.635950088501,16.1260509490967,8.86005020141602,12.3763751983643,12.9138622283936,13.0734996795654,8.24505043029785,11.7510004043579,15.4180507659912,3.94473743438721,4.80782508850098,4.79613733291626,0.09473749995232,-0.99494999647141,-2.24111247062683,-23.6599502563477,-18.6190509796143,-18.3840007781982,4.6230001449585,-0.41100001335144,1.16400003433228,8.65919971466064,7.37577486038208,5.51760005950928,23.485050201416,27.3409519195557,27.8239517211914,3.5425500869751,1.95786249637604,0.68406248092651,0.91107499599457,0.97803747653961,1.13024997711182,-1.9780501127243,-2.39505004882813,-1.93995010852814,2.73300004005432,0.07905000448227,3.07095003128052,0.68928748369217,0.46791249513626,0.30827498435974,10.3740005493164,9.3850507736206,8.36700057983398,SWING_LEFT
-0.71004998683929,-0.47272500395775,-0.81551247835159,-0.77687501907349,-0.0701249986887,0.84823751449585,2.99295020103455,1.80300009250641,-0.90705001354218,12.081000328064,9.55200004577637,6.4980001449585,-3.10667490959167,-2.87691259384155,-2.49699997901917,-2.30400013923645,-3.90105009078979,-3.72405028343201,-2.04572510719299,-1.80193746089935,-1.35932505130768,0.83228749036789,0.71527498960495,0.08621250092983,-7.48905038833618,-11.3740501403809,-12.5689506530762,9.11295032501221,10.7200508117676,12.4230003356934,-0.20143750309944,0.42212501168251,3.36902499198914,-8.12895011901855,-10.1190004348755,-11.0290508270264,3.27745008468628,4.33207511901855,5.31863737106323,-0.7735750079155,-0.02969999983907,0.853600025177,-26.5249519348145,-33.6550521850586,-43.7640037536621,16.7220001220703,18.0469512939453,11.1160507202148,16.7992000579834,15.7115745544434,12.3466749191284,20.3280010223389,30.363000869751,27.0990009307861,6.45095014572144,5.21757507324219,3.84463739395142,-3.44685006141663,0.03836249932647,3.10969996452332,-24.5730018615723,-20.6520004272461,-12.3319501876831,1.29105007648468,2.56995010375977,1.32000005245209,6.60206270217896,4.63649988174438,2.56547498703003,29.6520023345947,24.8740520477295,16.443000793457,0.40521249175072,0.64363747835159,0.86391252279282,0.86844998598099,0.74071252346039,0.36616250872612,-1.55895006656647,0.98100006580353,1.4479501247406,5.19000005722046,6.31605052947998,2.46705007553101,-0.0354750007391,-0.08016250282526,-0.04716249927878,9.8830509185791,8.82495021820068,9.69900035858154,SWING_LEFT
-0.7537750005722,-0.76862502098083,-0.86858749389648,-0.54051250219345,0.25231251120567,0.76422500610352,3.03900003433228,1.5700501203537,1.20195007324219,9.44204998016357,9.33600044250488,7.55895042419434,-2.80128741264343,-2.96944999694824,-3.13761258125305,0.71505004167557,0.03705000132322,-0.2490000128746,-2.83634996414185,-3.79417490959167,-3.18326258659363,0.57365000247955,1.22924995422363,1.26541244983673,-4.29900026321411,-9.43395042419434,-14.6980504989624,6.52905035018921,8.9239501953125,12.7200002670288,-2.15847492218018,1.4192750453949,4.19154977798462,-10.9999504089355,-18.2500514984131,-17.5050010681152,2.24729990959167,3.3041250705719,4.8035626411438,-1.68134999275208,-2.25609993934631,-1.96336245536804,-32.2219505310059,-36.3799514770508,-42.7840538024902,10.9050006866455,8.71605014801025,5.24505043029785,14.4824628829956,14.3239250183105,11.0152626037598,14.8630504608154,18.0739517211914,27.6019515991211,5.77307510375977,4.65781259536743,2.93796253204346,-3.35967493057251,-1.34186244010925,1.51552498340607,-9.28500080108643,-7.24500036239624,-4.7509503364563,-2.37705016136169,-0.43500003218651,0.01995000056922,2.42715001106262,1.71833753585815,1.16600000858307,16.1659507751465,13.5169506072998,10.9320001602173,0.28173750638962,0.10724999755621,0.05183750018477,1.01530003547668,0.66618752479553,0.50448751449585,0.86595004796982,1.73595011234283,2.83995008468628,3.96705007553101,5.44200038909912,5.91105031967163,-0.03643750026822,0.03904999792576,0.12842500209808,7.67805051803589,6.95700025558472,7.42800045013428,SWING_LEFT
-2.93328738212585,-2.88956236839294,-2.64371252059937,-0.48730000853539,-0.13089999556541,0.56622499227524,-0.55500000715256,-1.94895005226135,-3.61905026435852,11.1300001144409,12.5410509109497,13.3549509048462,-3.39625000953674,-2.57468748092651,-1.95745003223419,-2.3689501285553,-1.77495002746582,1.16505002975464,-1.95305001735687,-1.85308754444122,-1.5859249830246,4.17807483673096,4.56554985046387,4.13338756561279,-8.97405052185059,-11.1649503707886,-15.0400505065918,7.61700057983398,5.67900037765503,3.66705012321472,-2.65759992599487,-1.3721125125885,4.47356224060059,-10.5190505981445,-17.5099506378174,-20.2330513000488,1.29277503490448,1.97601246833801,2.40693759918213,-2.49974989891052,-1.83246254920959,-1.3972749710083,-28.3950004577637,-32.6440505981445,-36.8110504150391,9.51300048828125,7.17795038223267,4.89105033874512,13.0501251220703,12.7052745819092,12.4966878890991,10.7050504684448,10.3860006332397,13.6339502334595,4.10657501220703,3.98199987411499,3.89798736572266,-3.26603746414185,-0.44261249899864,1.41968750953674,-9.54900074005127,-2.17200016975403,-4.81905031204224,6.87405014038086,7.53300046920776,2.5530002117157,3.51793742179871,2.75274991989136,1.75876247882843,18.8190002441406,18.4409999847412,17.1430511474609,0.90543746948242,0.18493749201298,-0.21202500164509,0.76422500610352,1.36647498607636,1.32921254634857,2.66700005531311,1.52700006961823,0.97395002841949,3.45600008964539,4.83600044250488,5.16900014877319,0.4796000123024,0.64569997787476,0.03162499889731,5.94405031204224,7.17900037765503,7.2180004119873,SWING_LEFT
-1.17947494983673,-0.81551247835159,-0.37908750772476,1.17603754997253,0.88233751058578,0.71307498216629,1.1869500875473,1.72395002841949,2.19105005264282,10.53600025177,11.2519502639771,10.4689502716064,-1.88498747348785,-2.6831750869751,-3.11203742027283,0.53295004367828,-0.99405002593994,-3.02505016326904,-2.23932504653931,-0.79956251382828,0.5711749792099,0.96525001525879,-0.36396250128746,-1.55897498130798,-8.43000030517578,-14.7600002288818,-17.8189506530762,9.91305065155029,15.6760511398315,19.4460010528564,4.48855018615723,6.17526245117188,7.8630747795105,-14.4780006408691,-10.5120000839233,-9.35700035095215,2.43251252174377,2.69637489318848,2.98484992980957,0.95246249437332,0.66522496938705,0.68117499351501,-38.6389503479004,-44.4559516906738,-49.3039512634277,12.5050506591797,11.8410005569458,14.7970504760742,16.4533882141113,11.5143871307373,9.06138706207275,28.0780506134033,33.2130012512207,33.2779502868652,3.46692490577698,1.55567502975464,0.77027499675751,1.25372505187988,0.74717497825623,0.76738750934601,-2.28900003433228,-1.35495007038116,-3.13500022888184,-2.75805020332336,0.45105001330376,3.78405022621155,0.23485000431538,0.29658749699593,0.19662499427795,10.19700050354,8.43705081939697,6.5110502243042,0.23072500526905,-0.07150000333786,-0.02791249938309,0.53006249666214,0.29699999094009,-0.03506249934435,2.60295009613037,2.70795011520386,3.83805012702942,5.97600030899048,6.6540002822876,8.48099994659424,0.42006251215935,0.34979999065399,0.31790000200272,5.55300045013428,5.46495008468628,5.25405025482178,SWING_LEFT
-2.85450005531311,-3.68032503128052,-4.050612449646,-0.05211250111461,0.83544999361038,1.52404999732971,0.34905001521111,-0.21105000376701,-0.85500001907349,7.05405044555664,9.13304996490478,13.992000579834,-2.68950009346008,-2.31921243667603,-2.21388745307922,-4.60995006561279,-3.82995009422302,-2.9650502204895,-0.97721248865128,-0.91121250391006,-0.90598750114441,1.35905003547668,1.85707497596741,1.62827503681183,-5.06805038452148,-6.26505041122437,-7.8270001411438,10.2010507583618,7.77000045776367,5.78205013275146,-2.03830003738403,-2.18295001983643,-1.14427495002747,-4.14300012588501,-10.3420505523682,-15.9720010757446,-0.43559998273849,3.10612487792969,5.18883752822876,-0.67567497491837,-2.77007508277893,-2.21347498893738,-25.0759506225586,-39.9150009155273,-48.7219505310059,10.488000869751,16.488000869751,12.0090007781982,14.89963722229,15.0646371841431,10.9110374450684,8.61900043487549,23.4990005493164,35.2060508728027,5.27711248397827,5.38889980316162,3.3072874546051,-0.54161250591278,1.01213753223419,2.05933737754822,-10.8199501037598,-9.98700046539307,-1.36305010318756,6.2590503692627,1.81305003166199,-5.2219500541687,2.73253750801086,0.98944997787476,0.25396248698235,18.373950958252,15.1429510116577,8.49195003509521,0.20088750123978,0.33921250700951,0.44343748688698,0.6737499833107,0.14478750526905,-0.26276248693466,1.9780501127243,3.79800009727478,5.5770001411438,5.66205024719238,6.58200025558472,5.02995014190674,-0.0599500015378,-0.21422499418259,-0.26853749155998,7.66095018386841,5.59395027160645,5.04495000839233,SWING_LEFT
-0.779212474823,-1.34227502346039,-2.7395498752594,-0.00316249998286,0.25863748788834,1.60806250572205,2.9760000705719,1.72095012664795,-3.59505009651184,8.22000026702881,7.39395046234131,9.2790002822876,-4.36892509460449,-4.72862482070923,-4.28903770446777,-1.9450501203537,-6.18900012969971,-9.57300090789795,-1.89557504653931,-1.23364996910095,-0.74951249361038,0.8790374994278,-0.40108749270439,-1.13231253623962,-14.9299507141113,-17.0190010070801,-19.4520015716553,9.11295032501221,9.71505069732666,9.83700084686279,0.83723747730255,3.23166251182556,5.91992473602295,-13.5960006713867,-14.0110502243042,-14.7289505004883,2.61126255989075,3.00079989433289,2.7219500541687,-0.41813749074936,-0.95562499761581,-1.15775001049042,-33.0130500793457,-38.4810028076172,-44.4559516906738,7.24095010757446,3.54705023765564,3.23595023155212,15.8904628753662,15.8754749298096,14.2249250411987,15.7320003509521,23.5350017547607,29.5249519348145,5.23888731002808,6.21046257019043,4.89830017089844,-4.62811231613159,-5.51141262054443,-3.04040002822876,-12.2599506378174,-6.21495008468628,-9.43095016479492,3.1279501914978,-1.06200003623962,-2.92305016517639,5.73251247406006,5.91992473602295,5.28879976272583,17.7990016937256,19.4490013122559,20.9719505310059,2.99763751029968,3.02527499198914,2.01959991455078,0.80891251564026,-0.2894375026226,-0.21601249277592,2.5860002040863,1.61295008659363,0.39705002307892,2.26395010948181,-0.52305001020432,-0.01995000056922,1.60558748245239,1.40868747234344,1.16077494621277,8.42700004577637,8.40795040130615,8.20695018768311,SWING_LEFT
-0.40356248617172,-1.21563744544983,-1.59348750114441,-0.65546250343323,0.58753746747971,1.0260249376297,1.78605008125305,0.30600002408028,-0.50295001268387,7.52100038528442,7.02495050430298,5.95695018768311,-3.52495002746582,-3.78358745574951,-4.4210376739502,0.06405000388622,-0.07395000010729,-1.57800006866455,-2.55859994888306,-1.95951247215271,0.06572499871254,1.68464994430542,1.23241245746613,-0.78003752231598,-10.381950378418,-13.47705078125,-19.4280014038086,9.54900074005127,9.54195022583008,15.0510005950928,-3.20251250267029,-0.04606249928474,7.18946266174316,-18.8320503234863,-23.3230514526367,-10.8450002670288,3.89688754081726,4.31406259536743,4.48318767547607,-0.03616249933839,-0.426662504673,-0.19359999895096,-34.8400535583496,-42.2359504699707,-49.8589515686035,10.7419500350952,10.0330505371094,12.3060007095337,16.9013614654541,16.0096740722656,12.7733373641968,21.6670513153076,33.35205078125,34.0849533081055,7.08619976043701,6.82770013809204,5.56448745727539,-1.8463499546051,-1.07057499885559,1.28878748416901,-16.3309516906738,-15.6150007247925,-13.4260501861572,1.77495002746582,-0.24105000495911,-3.4789502620697,6.82343769073486,5.39948749542236,3.88190007209778,24.820951461792,23.6479511260986,20.3020515441895,2.30903744697571,1.16709995269775,0.23388749361038,0.32890000939369,0.78223747014999,1.36647498607636,-2.00894999504089,-0.30900001525879,1.29000008106232,-3.33705019950867,-0.88695001602173,2.01705002784729,1.730024933815,0.3242250084877,-1.36895000934601,19.5070514678955,23.6400012969971,7.09605026245117,SWING_LEFT
