gyro_x_0,gyro_y_0,gyro_z_0,acc_x_0,acc_y_0,acc_z_0,gyro_x_1,gyro_y_1,gyro_z_1,acc_x_1,acc_y_1,acc_z_1,gyro_x_2,gyro_y_2,gyro_z_2,acc_x_2,acc_y_2,acc_z_2,gyro_x_3,gyro_y_3,gyro_z_3,acc_x_3,acc_y_3,acc_z_3,gyro_x_4,gyro_y_4,gyro_z_4,acc_x_4,acc_y_4,acc_z_4,gyro_x_5,gyro_y_5,gyro_z_5,acc_x_5,acc_y_5,acc_z_5,gyro_x_6,gyro_y_6,gyro_z_6,acc_x_6,acc_y_6,acc_z_6,gyro_x_7,gyro_y_7,gyro_z_7,acc_x_7,acc_y_7,acc_z_7,gyro_x_8,gyro_y_8,gyro_z_8,acc_x_8,acc_y_8,acc_z_8,gyro_x_9,gyro_y_9,gyro_z_9,acc_x_9,acc_y_9,acc_z_9,gyro_x_10,gyro_y_10,gyro_z_10,acc_x_10,acc_y_10,acc_z_10,gyro_x_11,gyro_y_11,gyro_z_11,acc_x_11,acc_y_11,acc_z_11,gyro_x_12,gyro_y_12,gyro_z_12,acc_x_12,acc_y_12,acc_z_12,gyro_x_13,gyro_y_13,gyro_z_13,acc_x_13,acc_y_13,acc_z_13,gyro_x_14,gyro_y_14,gyro_z_14,acc_x_14,acc_y_14,acc_z_14,motion_type
-0.84081250429153,-0.66756248474121,-0.39379999041557,0.48771250247955,0.6208124756813,0.88247501850128,11.3970003128052,10.8340501785278,10.0849504470825,4.58100032806396,3.42705011367798,1.48995006084442,2.83511257171631,4.0422248840332,4.39133739471436,-0.51105004549026,2.31105017662048,1.15694999694824,-0.83531248569489,-0.74951249361038,3.70039987564087,8.72781276702881,14.256275177002,16.6014747619629,0.64905005693436,-8.53200054168701,-23.053050994873,-4.09500026702881,-5.83605051040649,-16.17405128479,1.11347496509552,6.90758752822876,10.9511871337891,26.3880004882813,35.0629501342773,32.5849533081055,7.74303722381592,6.01768732070923,4.34280014038086,10.1655120849609,8.53173732757568,6.31290006637573,-22.0429515838623,-5.14200019836426,17.4979515075684,-0.27405002713203,-19.7269515991211,-7.91400051116943,13.7530250549316,14.430212020874,12.0686502456665,-57.2290534973145,-18.1110000610352,-7.12605047225952,11.4178628921509,10.477087020874,9.42273712158203,10.1154623031616,6.93783760070801,3.76158738136292,5.89995050430298,3.80505013465881,2.51400017738342,-1.94205009937286,-8.55495071411133,-6.37200021743774,3.59232497215271,3.22478747367859,-5.03387498855591,9.98295021057129,8.40195083618164,2.20095014572144,3.56633758544922,3.8229124546051,5.56737518310547,-20.7558994293213,-8.6427001953125,-1.815962433815,6.77895021438599,9.82395076751709,10.4299507141113,2.24895000457764,1.22895002365112,-0.13995000720024,1.50108754634857,2.29597496986389,1.73071253299713,-7.50405025482178,-4.21500015258789,-2.57895016670227,SHAKE
-0.06641250103712,-0.0576125010848,-0.04537500068545,-0.14506250619888,-0.16073749959469,-0.12801249325275,9.17505073547363,9.22995090484619,9.35700035095215,2.35395002365112,2.30895018577576,2.35395002365112,0.02461249940097,0.00838750042021,-0.16733749210835,-3.4459502696991,-3.86505007743835,-4.39905023574829,-0.04399999976158,-0.26097500324249,-0.39118748903275,0.66591250896454,1.28177499771118,1.62786245346069,16.7170505523682,19.4830513000488,19.3290004730225,4.0570502281189,4.42500019073486,3.12000012397766,-1.89557504653931,-1.9959499835968,-2.23300004005432,-14.9980506896973,-13.581000328064,-11.3659505844116,-0.48716250061989,-1.15018749237061,-3.20663738250732,1.55058753490448,1.38531243801117,2.35730004310608,-4.64805030822754,-37.4359512329102,-36.5359535217285,2.54295015335083,-9.08205032348633,-9.12795066833496,-2.27149987220764,-3.83171248435974,-3.87667489051819,59.0680541992188,20.7379512786865,-25.7629508972168,-11.3411378860474,-10.347562789917,-6.8825626373291,-8.62262535095215,-7.20596265792847,22.3704242706299,6.24705028533936,31.4590511322021,36.7980003356934,-15.5850009918213,3.59700012207031,31.6720523834229,5.01448726654053,4.98547506332397,4.64034986495972,-13.91100025177,-4.21905040740967,0.2790000140667,7.01951265335083,6.07585000991821,5.71504974365234,1.17906248569489,-0.71871250867844,-2.3918125629425,2.23395013809204,1.7650500535965,1.51095008850098,-13.0020008087158,-6.87900018692017,0.59895002841949,5.27848768234253,-5.08048725128174,-1.33223748207092,7.00395011901855,5.11695003509521,0.03000000119209,SHAKE
5.80153751373291,2.64989995956421,-14.5109252929688,5.11032485961914,4.73206233978271,-14.2107620239258,-32.5390510559082,-32.6089515686035,-26.0290508270264,-16.3750514984131,-10.4449501037598,-3.6739501953125,-5.06990003585815,-4.18316268920898,10.667387008667,-14.3880004882813,-70.8139495849609,-54.0949516296387,4.12458753585815,3.9250750541687,3.8064124584198,5.5324501991272,4.08856248855591,2.4953498840332,30.3910522460938,14.7829504013062,-1.08105003833771,17.8759517669678,8.70900058746338,-1.63605010509491,9.22102451324463,5.98070001602173,2.89684987068176,-4.15200042724609,8.46000003814697,28.5360012054443,-10.2493877410889,-5.84636259078979,-5.02727508544922,-4.05102491378784,-0.57997500896454,0.4613125026226,-29.8120517730713,-3.83205008506775,29.9740505218506,-6.69000053405762,-9.91800022125244,-0.6690000295639,-6.17952489852905,15.6802253723145,13.5466375350952,-75.9619522094727,-16.2750015258789,-9.06494998931885,5.44403743743896,4.73522520065308,4.21437501907349,-0.81014996767044,-1.38586246967316,-1.25221252441406,-1.34205007553101,-23.6640014648438,-27.6100521087646,2.30400013923645,-17.0410499572754,-17.4259510040283,-15.7411375045776,-13.3924999237061,-10.8767995834351,41.8480529785156,1.69800007343292,-12.493950843811,-5.94605016708374,-5.8793625831604,7.42500019073486,-1.85405004024506,-0.06558749824762,6.01136255264282,32.6200523376465,49.6579513549805,44.8090515136719,7.23405027389526,20.568000793457,19.8540000915527,15.1765623092651,11.0416622161865,8.7273998260498,-17.9599514007568,-8.93805027008057,-2.18204998970032,SHAKE
-11.9809246063232,-9.1801872253418,-5.9501748085022,-7.15591239929199,-5.33362483978271,-1.25785005092621,-28.1650505065918,-28.0000514984131,16.7770500183105,-14.6509504318237,-6.12495040893555,3.34095025062561,-7.59178733825684,3.22245001792908,15.4939126968384,-59.5030517578125,-70.3180541992188,-32.392951965332,7.66191244125366,6.28526258468628,5.2390251159668,1.15761244297028,0.57777500152588,0.53693747520447,5.28900003433228,-7.39200019836426,-17.60205078125,2.01705002784729,-4.86795043945313,-11.9670009613037,-0.45237499475479,-17.112699508667,-16.207124710083,40.828052520752,45.2910003662109,14.6560506820679,-6.23672485351563,-5.02479982376099,-4.3223123550415,-1.42394995689392,0.15592500567436,0.62933748960495,-17.6110515594482,12.6490507125854,47.3659515380859,-7.12605047225952,-0.75495004653931,21.6499519348145,-0.37592500448227,13.7755746841431,10.0864496231079,-75.2080535888672,-9.88695049285889,-10.1599502563477,4.5903000831604,2.9886999130249,-12.8144502639771,-1.17548751831055,4.57022476196289,-7.82306241989136,-23.1199512481689,-33.0690002441406,-32.5129508972168,-15.0010509490967,-19.2409515380859,-11.5840501785278,-15.15456199646,-9.46055030822754,2.00970005989075,6.04200029373169,-24.1470012664795,-73.183952331543,7.6746997833252,6.021399974823,4.52430009841919,1.19776248931885,-0.55274999141693,-0.53460001945496,36.7309532165527,3.39495015144348,-29.0460014343262,19.2630004882813,2.39505004882813,-19.5690002441406,3.68884992599487,-16.2871494293213,-13.18088722229,39.2890510559082,16.0330505371094,-10.4760007858276,SHAKE
3.81452488899231,2.6342248916626,-9.9210376739502,-0.7734375,2.91761255264282,-3.63330006599426,-24.199951171875,-32.3310012817383,-31.5409507751465,-16.9519500732422,-16.9549503326416,-10.0570507049561,-10.198787689209,-7.70096254348755,-3.33726239204407,-14.7640504837036,-43.9999504089355,-77.0130004882813,6.00077486038208,5.38477516174316,4.28436231613159,-0.50875002145767,-1.2112375497818,-1.69592499732971,29.0569515228271,14.0910005569458,-11.4460506439209,17.8570499420166,9.46995067596436,-9.62805080413818,7.28227472305298,5.08255004882813,-18.1843757629395,1.07295000553131,23.3760013580322,31.9330520629883,-5.94536256790161,-4.61504983901978,-3.7453625202179,0.2058375030756,1.26651251316071,1.35066246986389,-14.2849502563477,12.4669504165649,46.1500511169434,-5.26095008850098,-0.3979500234127,21.9990005493164,3.21475005149841,13.5724878311157,12.1151247024536,-77.9680557250977,-7.50705051422119,-8.62695026397705,5.01297473907471,4.34816265106201,3.68706250190735,-1.39205002784729,-1.17933750152588,-0.33192500472069,-8.30400085449219,-20.0100002288818,-30.5470523834229,-5.77605009078979,-14.9149503707886,-22.4380512237549,0.77756249904633,-16.2057495117188,-12.7312622070313,43.6849517822266,9.68595027923584,-7.18800020217896,-5.65482473373413,-4.72697496414185,6.30836248397827,0.91767501831055,1.25537502765656,-0.00522499997169,7.74795055389404,47.0500526428223,38.0340003967285,-1.95900011062622,17.6470508575439,26.5939521789551,13.9867753982544,11.6619253158569,10.5741624832153,-0.60600000619888,-9.58305072784424,-10.9860000610352,SHAKE
3.07628750801086,-9.808424949646,-7.14257478713989,4.97310018539429,-6.10829973220825,-1.35286247730255,-30.5809516906738,-30.8010005950928,-17.69700050354,-21.65505027771,-8.83605003356934,-7.68600034713745,-9.87181282043457,-7.93265008926392,14.9868125915527,-17.965051651001,-61.2799530029297,-32.9910011291504,5.75162506103516,4.85209989547729,4.76836252212524,-1.68712496757507,-2.67148756980896,-2.67960000038147,20.3040008544922,5.30400037765503,-10.2679500579834,19.0660514831543,8.50305080413818,-5.01405000686646,3.98447489738464,-10.3679122924805,-16.4360618591309,26.053050994873,46.5150032043457,25.396951675415,-7.64431238174438,-6.13016223907471,-4.98960018157959,0.18658749759197,0.79241251945496,-0.03561250120401,-12.2050504684448,14.296950340271,49.9710006713867,-5.20605039596558,0.47700002789497,19.5019512176514,6.9698748588562,13.4162874221802,11.8344869613647,-76.2490539550781,-3.57795023918152,-9.88905048370361,5.95402479171753,4.16817474365234,-14.6543378829956,-1.47441244125366,-0.75267499685287,-7.87366247177124,-6.16200017929077,-32.1130523681641,-27.5310020446777,-3.77400016784668,-25.5570011138916,-11.9290504455566,-15.2358245849609,-12.2189378738403,-9.60423755645752,11.3110504150391,-6.55095052719116,-13.2070503234863,-4.76162481307983,-4.44358730316162,7.17530012130737,0.65903747081757,3.30494999885559,1.56791245937347,39.7620010375977,48.8820037841797,39.3000030517578,11.9820003509521,29.5390510559082,25.2270011901855,12.758074760437,11.043999671936,8.93516254425049,-2.37105011940002,-5.54100036621094,-2.07600021362305,SHAKE
8.1489372253418,7.14284992218018,5.03236246109009,5.85860013961792,6.32802486419678,6.29901266098022,-20.5129508972168,-24.1450519561768,-24.7890014648438,-11.2060508728027,-6.32205009460449,-0.45600003004074,13.7629251480103,14.5622119903564,25.0315990447998,-29.8999519348145,-57.5070037841797,-61.3129539489746,10.0238876342773,8.97434997558594,7.79996252059937,0.00054999999702,-0.37729999423027,-0.512600004673,21.2880001068115,7.35300016403198,-3.57795023918152,8.20095062255859,2.27295017242432,-4.03995037078857,9.46990013122559,5.2849497795105,-16.2258243560791,3.26895022392273,31.1890506744385,53.9850044250488,-7.97857475280762,-4.4082498550415,-3.40876245498657,-3.48768758773804,0.57433748245239,1.66292500495911,-34.2900009155273,-16.4910011291504,20.3449516296387,-10.2769508361816,-3.49605011940002,16.6750507354736,-4.24063730239868,13.0898628234863,12.2307624816895,-77.9680557250977,-17.8159503936768,-7.94700050354004,5.91607475280762,5.40553760528564,4.68063735961914,-1.48953747749329,-1.51084995269775,-1.17177498340607,0.25905001163483,-15.0559511184692,-34.1749534606934,1.59795010089874,-7.85205030441284,-17.7780017852783,3.21694993972778,-8.95358753204346,-12.8985996246338,28.0380020141602,51.1140022277832,4.67700004577637,-6.972487449646,-6.32513761520386,-5.05945014953613,-0.36973750591278,0.50256252288818,2.93424987792969,-19.3609504699707,5.00205039978027,40.1329536437988,-6.32895040512085,4.69800043106079,23.0389518737793,13.8268623352051,12.9815120697021,11.2825622558594,-28.0660514831543,-9.18000030517578,-9.87195014953613,SHAKE
-5.10427474975586,-9.59722518920898,-6.972487449646,3.69256258010864,-5.26308727264404,-0.36973750591278,-28.1749515533447,-31.123950958252,-19.3609504699707,-21.9870014190674,-13.8349504470825,-6.32895040512085,-8.04594993591309,-3.94638752937317,13.8268623352051,-32.650951385498,-74.4460525512695,-28.0660514831543,6.75881242752075,6.8558874130249,6.32733726501465,-0.68309998512268,-1.46739995479584,-1.70128750801086,21.4150505065918,10.1980504989624,-0.92295002937317,20.6710510253906,9.93900012969971,0.00795000046492,5.86011266708374,3.66960000991821,-10.0486373901367,1.15995001792908,18.9040508270264,43.3879508972168,-14.1487503051758,-8.1712121963501,-6.68112516403198,-7.6154375076294,-2.78410005569458,-0.5321249961853,-26.7210006713867,-19.7590503692627,1.40595006942749,-15.5490007400513,-6.92295026779175,-1.16700005531311,1.28122496604919,12.8112878799438,11.2595996856689,-77.4029998779297,-5.29395008087158,-2.6340000629425,8.17739963531494,6.02470016479492,5.32840013504028,-0.49142500758171,-1.25537502765656,-1.66883754730225,7.05900049209595,-1.57905006408691,-6.1210503578186,2.23695015907288,-4.15694999694824,-6.99705028533936,7.26536226272583,-2.68716239929199,-17.1982250213623,-2.18700003623962,18.9900016784668,56.1370544433594,-13.2226877212524,-9.08187484741211,-5.80703735351563,-10.2430620193481,-6.71054983139038,0.15056249499321,-26.9659519195557,-28.1149520874023,18.5059509277344,-9.15405082702637,-4.48995018005371,18.2880001068115,-4.49941253662109,6.93646240234375,12.5003995895386,-59.6299514770508,-35.7779998779297,-7.03500032424927,SHAKE
-8.75269985198975,-5.95966243743896,-3.37658739089966,-4.98148727416992,-3.0714750289917,-0.06036249920726,-19.1290512084961,-14.9100008010864,38.5459518432617,-0.84600001573563,0.52500003576279,4.2960000038147,16.7949371337891,13.9512996673584,12.9432878494263,-44.9389533996582,-14.1079502105713,-2.50005006790161,2.74546241760254,1.45928752422333,0.86776250600815,-0.6540874838829,-1.29635000228882,-1.89007496833801,0.550950050354,-11.0200500488281,-19.6219501495361,2.44305014610291,-8.36400032043457,-14.9530506134033,-12.478949546814,-18.6191501617432,-18.285436630249,23.4310512542725,39.8590507507324,26.6179504394531,-5.99788761138916,-4.61766242980957,-3.9395124912262,-1.47399997711182,-0.26056250929832,0.65119999647141,-17.6659507751465,-4.4040002822876,24.8650512695313,-5.2630500793457,-3.69495010375977,9.03194999694824,-6.94141244888306,15.1714744567871,12.1851119995117,-59.5870513916016,-10.5019502639771,-4.43505001068115,2.32072496414185,1.98274993896484,3.96261239051819,-3.11354994773865,-4.24421262741089,-6.49604988098145,2.2870500087738,-9.36795043945312,-15.0349502563477,4.88295030593872,-11.5410003662109,-18.0180015563965,-6.8131251335144,-15.738112449646,-10.9327621459961,19.7080516815186,28.8709506988525,-11.4289503097534,-6.07859992980957,10.3478374481201,8.67418766021729,1.54233753681183,-0.14808750152588,-0.74648749828339,18.8700008392334,35.131950378418,19.2070503234863,6.43695020675659,19.8829517364502,21.3889503479004,12.5890874862671,9.77349948883057,5.09025001525879,-2.48595023155212,-4.15904998779297,4.01805019378662,SHAKE
-3.15521240234375,8.19018745422363,7.55631256103516,-0.64707499742508,3.38758754730225,1.31642496585846,-18.5950508117676,-15.9490509033203,-13.7440509796143,-9.0730504989624,-4.95195007324219,-0.51794999837875,14.0421876907349,10.1837997436523,-17.9231243133545,6.22095012664795,-29.9100017547607,-21.8149509429932,-6.25597476959229,-5.49738740921021,-4.73068761825562,-2.72690010070801,-2.77653741836548,-2.88447499275208,26.8309516906738,18.9919509887695,10.8900003433228,11.5600509643555,10.5190505981445,5.13195037841797,-5.53203725814819,-2.59366250038147,-3.57238745689392,-0.47700002789497,2.45295000076294,21.8149509429932,12.8303995132446,8.69013786315918,6.56081247329712,1.89419996738434,2.91513752937317,2.85958743095398,-13.488000869751,-11.1510009765625,-3.25305008888245,-0.4870500266552,-0.19005000591278,0.11805000901222,6.53083753585815,-18.1164493560791,-14.8589372634888,-40.1599502563477,-17.6629505157471,-6.37200021743774,-3.29285001754761,-2.65814995765686,-2.25128746032715,-3.79183745384216,-3.33231258392334,-2.5676748752594,2.43795013427734,-7.76100015640259,-17.6730003356934,-0.29805001616478,-4.87305021286011,-9.19005012512207,14.29518699646,15.8331251144409,14.5274248123169,33.7819519042969,17.2350006103516,1.87095010280609,2.81710004806519,-11.1615619659424,-8.56624984741211,2.34808754920959,-4.77785015106201,-4.23486232757568,30.5830516815186,30.7290019989014,22.1040019989014,12.2160005569458,14.3620510101318,13.0279502868652,-8.60901260375977,-6.68456268310547,-5.22678756713867,-5.36400032043457,-1.78200006484985,5.28300046920776,SHAKE
-2.25128746032715,12.7576627731323,9.527099609375,-2.5676748752594,5.47923755645752,3.33396244049072,-17.6730003356934,-15.9060010910034,-16.9360504150391,-9.19005012512207,-8.30400085449219,-5.48805046081543,14.5274248123169,10.8850498199463,-18.7482624053955,1.87095010280609,-38.3140525817871,-28.4899520874023,-8.56624984741211,-5.61453723907471,-4.33578729629517,-4.23486232757568,-3.44671249389648,-3.33135008811951,22.1040019989014,5.91900014877319,-2.56995010375977,13.0279502868652,4.27905035018921,-2.7610502243042,-5.22678756713867,-3.90087509155273,2.32471251487732,5.28300046920776,18.6190509796143,32.3790016174316,-0.88508749008179,12.1444120407104,6.21307516098022,7.88438749313354,5.91387510299683,3.85811257362366,-13.5889511108398,-11.7139501571655,27.3619518280029,-11.5030508041382,-3.02505016326904,8.88300037384033,0.24227499961853,-14.002724647522,-9.2442626953125,-48.4819526672363,-11.9980506896973,-5.97705030441284,-4.81896257400513,-2.92696237564087,0.81936252117157,-2.73460006713867,-0.57516247034073,3.12771248817444,-0.76005005836487,-15.1740007400513,-19.123950958252,-4.08494997024536,-13.7149505615234,-11.3280000686646,17.1239757537842,15.6318244934082,11.6586246490479,20.2800006866455,4.81800031661987,-32.3689498901367,-9.33886241912842,-8.65218734741211,-5.99733734130859,-2.50896239280701,-1.86779999732971,-1.58619999885559,39.7909507751465,29.8069515228271,10.3440008163452,13.372950553894,12.5590505599976,5.64900016784668,-8.2245626449585,-6.59450006484985,-3.97017502784729,-6.3120002746582,0.46305000782013,27.1810512542725,SHAKE
-1.68946254253387,11.5762624740601,7.47917509078979,-0.15180000662804,4.42131233215332,3.80503749847412,-25.4809513092041,-22.7250003814697,-14.238000869751,-19.8589515686035,-4.83195018768311,-1.68900012969971,12.456262588501,13.9160995483398,-19.2625122070313,-49.4020538330078,-53.2710037231445,-22.1980514526367,-6.90648746490479,-5.67737483978271,-4.70703744888306,-0.90557497739792,-0.85717499256134,-0.8093249797821,11.8210506439209,1.76700007915497,-6.74100017547607,7.96395015716553,1.3819500207901,-5.51205015182495,-4.46806240081787,4.04772520065308,16.4603996276855,5.71095037460327,22.7370014190674,20.9959506988525,4.45953750610352,2.35152506828308,-0.1575749963522,1.34860002994537,1.77209997177124,2.75783753395081,-19.8550510406494,-11.4769506454468,40.3110008239746,-4.47795009613037,-0.76905006170273,21.1110000610352,23.2502880096436,22.3713874816895,18.9264621734619,-57.577953338623,-10.1430006027222,-6.9940505027771,7.1346001625061,6.06086254119873,4.90393733978271,0.6873624920845,0.58918750286102,0.78801250457764,2.97900009155273,-5.12505006790161,-12.3919506072998,-0.70200002193451,-7.21200037002563,-13.8229503631592,2.32154989242554,18.8578491210938,-18.5120372772217,30.2479515075684,34.4670028686523,3.61095023155212,-5.0448751449585,-3.54502487182617,-2.98718738555908,-2.04379987716675,-0.92895001173019,0.91409999132156,-3.54495024681091,24.6420021057129,34.9039535522461,1.69605004787445,5.40900039672852,11.9820003509521,12.4841747283936,14.6573619842529,11.4637870788574,-35.7690010070801,-15.2790002822876,-5.88105010986328,SHAKE
-5.0448751449585,-3.54502487182617,-2.98718738555908,-2.04379987716675,-0.92895001173019,0.91409999132156,-3.54495024681091,24.6420021057129,34.9039535522461,1.69605004787445,5.40900039672852,11.9820003509521,12.4841747283936,14.6573619842529,11.4637870788574,-35.7690010070801,-15.2790002822876,-5.88105010986328,4.19828748703003,4.54107475280762,4.48937511444092,-2.64082503318787,-4.52773761749268,-4.64158725738525,4.18800020217896,-2.4190502166748,-2.56305003166199,5.35200023651123,-7.03005027770996,-8.96295070648193,2.83800005912781,1.25950002670288,3.55189990997314,6.96795034408569,10.7629508972168,20.6160011291504,7.89978742599487,5.16752481460571,2.2563750743866,12.6761245727539,10.8828496932983,8.06451225280762,-12.2740507125854,-8.50095081329346,31.9860019683838,-3.21105003356934,0.53700000047684,14.9460010528564,4.72491264343262,-10.9052619934082,-6.1180624961853,-49.4020538330078,-13.2409505844116,-7.53105020523071,-5.03084993362427,-2.49727487564087,12.8481378555298,-4.14053726196289,-2.09660005569458,9.64260005950928,-5.14905023574829,-22.1050510406494,-22.476001739502,-3.4939501285553,-21.7579517364502,-12.1159505844116,12.970100402832,11.6723747253418,11.5269002914429,3.34305024147034,-35.1340522766113,-44.4670524597168,1.40676248073578,-13.9254503250122,-12.2174253463745,14.4978628158569,-8.753662109375,-5.79246234893799,30.9780006408691,25.3960514068604,17.7229499816895,20.461950302124,18.1159515380859,13.9399509429932,-10.4919376373291,-5.34806251525879,-3.11712503433228,-3.52995014190674,-0.79095005989075,1.09500002861023,SHAKE
-12.2174253463745,-10.3426122665405,-7.23181247711182,-5.79246234893799,-4.07962512969971,-2.72318744659424,17.7229499816895,11.3250007629395,2.97900009155273,13.9399509429932,8.73000049591064,-2.76600003242493,-3.11712503433228,1.42890000343323,1.42120003700256,1.09500002861023,2.35395002365112,1.43700003623962,4.44908761978149,2.63381242752075,0.46323749423027,8.24615001678467,6.63272476196289,5.5948748588562,7.64805030822754,4.80300045013428,1.85595011711121,1.67700004577637,-0.37395000457764,-3.79995012283325,1.56887495517731,3.89674997329712,7.75431251525879,11.1060009002686,20.3359508514404,21.6480007171631,4.70965003967285,3.82896256446838,4.04868745803833,1.81073749065399,1.03289997577667,-0.48358750343323,-3.23595023155212,11.4859504699707,22.9230003356934,-1.0110000371933,9.65205001831055,20.814001083374,-16.0062370300293,-10.9881753921509,-8.28849983215332,-33.1039505004883,-21.3259506225586,-12.9990005493164,-6.58432483673096,-5.43001270294189,-4.43410015106201,-8.57229995727539,-6.97936248779297,-5.76784992218018,16.2360000610352,11.5380001068115,6.64905023574829,7.32495021820068,3.95100021362305,0.28995001316071,-1.54123747348785,-0.66357499361038,-0.49211248755455,-5.13600015640259,-1.66695010662079,1.97100007534027,-0.07438749819994,5.42836236953735,12.8866376876831,3.04576253890991,8.07345008850098,11.4614496231079,-6.4699501991272,-7.97400045394897,-8.74695014953613,-9.13500022888184,-9.33600044250488,-10.6099500656128,9.84197521209717,11.4415121078491,11.5436744689941,22.7059516906738,13.2220506668091,4.45905017852783,SHAKE
-6.58432483673096,-5.43001270294189,-4.43410015106201,-8.57229995727539,-6.97936248779297,-5.76784992218018,16.2360000610352,11.5380001068115,6.64905023574829,7.32495021820068,3.95100021362305,0.28995001316071,-1.54123747348785,-0.66357499361038,-0.49211248755455,-5.13600015640259,-1.66695010662079,1.97100007534027,-0.07438749819994,5.42836236953735,12.8866376876831,3.04576253890991,8.07345008850098,11.4614496231079,-6.4699501991272,-7.97400045394897,-8.74695014953613,-9.13500022888184,-9.33600044250488,-10.6099500656128,9.84197521209717,11.4415121078491,11.5436744689941,22.7059516906738,13.2220506668091,4.45905017852783,2.75728750228882,1.27600002288818,-1.3778874874115,6.76774978637695,6.01590013504028,6.25927495956421,-4.82595014572144,11.4160509109497,23.1169509887695,1.41300010681152,11.6800508499146,21.9990005493164,-17.0508251190186,-9.19723701477051,-7.93732500076294,-44.9029502868652,-20.1750011444092,-9.98700046539307,-6.80968761444092,-4.88028764724731,-3.83171248435974,-5.1727499961853,-3.4435498714447,-2.1869375705719,7.50900030136108,2.49795007705688,-1.89000010490417,1.52805006504059,-1.12800002098084,-4.10895013809204,-2.11199998855591,-7.20706224441528,-7.94557476043701,-1.20705008506775,17.8889999389648,33.669002532959,10.9899625778198,7.06942510604858,4.2861499786377,12.7600002288818,11.0541753768921,9.39427471160889,-11.5560007095337,-15.6049509048462,-12.6529502868652,-9.85095024108887,-5.47200012207031,-0.966000020504,12.8053750991821,11.5273122787476,12.2645874023438,-13.8370504379272,-28.9759521484375,-37.006950378418,SHAKE
-14.5766496658325,-11.2701873779297,-9.15103721618652,-18.5541114807129,-7.62451267242432,-5.83274984359741,27.9490509033203,19.0399513244629,13.1830501556396,21.7620010375977,10.4920501708984,6.56805038452148,-5.24108743667603,-3.67276239395142,-2.31962490081787,-4.60695028305054,-5.33700037002563,-5.03595018386841,-4.49872493743896,-3.5734875202179,-2.18735003471375,-1.5358749628067,0.90213751792908,4.83697509765625,2.12895011901855,0.60795003175735,-2.050950050354,-6.25695037841797,-9.15195083618164,-10.53600025177,-2.5888500213623,-4.12128734588623,-1.74363744258881,5.58195018768311,13.4899501800537,23.0310020446777,9.54071235656738,2.24358749389648,0.88673746585846,10.0341997146606,8.02752494812012,7.40203762054443,-9.57600021362305,-10.0309505462646,1.24095010757446,-7.98600053787232,-1.13595008850098,1.88700008392334,19.341438293457,-20.8115882873535,-12.3132619857788,-54.6769523620605,-36.1609535217285,-16.8420009613037,-8.51633739471436,-7.01593732833862,-5.79067516326904,-7.50750017166138,-6.02909994125366,-4.96154975891113,15.7240505218506,8.92905044555664,2.1979501247406,8.40705013275146,4.60305023193359,-1.41105008125305,-3.54914999008179,-2.6999499797821,-2.66461253166199,-4.29105043411255,1.05000007152557,7.014000415802,1.28589999675751,9.38712501525879,11.8921003341675,4.72848749160767,11.408374786377,10.9113121032715,-13.8780002593994,-12.8059501647949,-11.5270509719849,-11.5099506378174,-13.582950592041,-7.82805013656616,13.1378498077393,12.05943775177,10.797737121582,4.73699998855591,-7.56900024414063,-33.9130516052246,SHAKE
1.77443754673004,0.71555000543594,12.7323627471924,7.13638734817505,7.1813497543335,16.0126991271973,13.1640005111694,28.5400505065918,31.5859508514404,11.6080503463745,19.5790500640869,17.650951385498,22.1271877288818,19.6015872955322,16.8126754760742,-19.7560501098633,-10.0609502792358,-7.51395034790039,7.3683500289917,5.89558744430542,4.53653764724731,3.91957497596741,3.40298748016357,4.18646240234375,-0.29595002532005,-5.13000011444092,-9.22395038604736,-4.62900018692017,-8.2369499206543,-11.4000005722046,7.28736257553101,19.8155364990234,19.3796615600586,18.1210517883301,33.2410507202148,20.6539516448975,5.96584987640381,4.93184995651245,3.43722486495972,7.94461250305176,7.4614372253418,6.9177622795105,-22.1149501800537,-11.803050994873,12.0790510177612,2.22300004959106,8.30205059051514,16.9120502471924,14.6656122207642,21.5982246398926,22.3898124694824,-56.7400512695313,-43.6990509033203,-24.5280017852783,10.8503999710083,9.25319957733154,7.88851261138916,6.65362501144409,5.53052520751953,4.58150005340576,19.9590015411377,12.7279510498047,6.5440502166748,0.85800004005432,1.02300000190735,-0.54195004701614,12.6209878921509,10.1714248657227,8.56212520599365,-3.24000024795532,3.7020001411438,6.00105047225952,6.02250003814697,12.0291872024536,12.1336870193481,12.0969753265381,13.8953371047974,10.0128870010376,-4.47105026245117,-6.72405052185059,-9.75795078277588,-5.56005048751831,-5.94600009918213,-6.86805009841919,18.2390995025635,15.3157119750977,12.6181001663208,26.0550003051758,25.2840003967285,14.6010007858276,SHAKE
12.55113697052,10.8503999710083,9.25319957733154,8.11332511901855,6.65362501144409,5.53052520751953,31.3699512481689,19.9590015411377,12.7279510498047,6.51795053482056,0.85800004005432,1.02300000190735,14.5457124710083,12.6209878921509,10.1714248657227,-5.74695014953613,-3.24000024795532,3.7020001411438,3.23688745498657,6.02250003814697,12.0291872024536,7.74606227874756,12.0969753265381,13.8953371047974,-3.66195011138916,-4.47105026245117,-6.72405052185059,-6.84600019454956,-5.56005048751831,-5.94600009918213,17.1125621795654,18.2390995025635,15.3157119750977,15.7290010452271,26.0550003051758,25.2840003967285,3.01221251487732,2.02565002441406,1.300337433815,7.8692626953125,6.85808753967285,5.96557474136353,-14.4340505599976,-14.7139511108398,-3.04905009269714,-4.39394998550415,-0.6280500292778,10.1310005187988,10.8670377731323,19.7102127075195,23.0632877349854,-67.0410003662109,-57.2500534057617,-15.8029508590698,10.7914123535156,8.86929988861084,7.3460750579834,6.96396255493164,5.69360017776489,4.69452476501465,20.1960010528564,14.4880504608154,8.46195030212402,-7.65495014190674,-7.50705051422119,-6.45600032806396,14.7031497955322,14.4944248199463,12.9087753295898,-0.63705003261566,3.882000207901,13.3680009841919,12.6538496017456,11.3207874298096,5.74241256713867,11.0929498672485,5.81487512588501,5.75904989242554,-17.1660003662109,-15.3960008621216,-18.1759510040283,-11.6989507675171,-6.3550500869751,-1.81605005264282,16.5057754516602,14.1813373565674,13.2791996002197,5.17005014419556,-14.8210506439209,-53.6490020751953,SHAKE
12.035924911499,8.66731262207031,3.85549998283386,6.28856229782104,5.28302478790283,4.06174993515015,-22.6630516052246,-19.8670501708984,19.4629516601563,-9.43695068359375,-4.71000003814697,11.1870002746582,12.0613622665405,23.0990371704102,19.3276882171631,-60.037052154541,-25.8799514770508,-9.54705047607422,9.92241287231445,8.53572463989258,7.91174983978271,1.66292500495911,1.16929996013641,1.01433753967285,9.34995079040527,1.28400003910065,-5.41695022583008,4.42095041275024,-0.3570000231266,-5.40705013275146,8.99043750762939,7.91147518157959,18.3816871643066,5.87400007247925,16.8280506134033,30.2020511627197,11.7502002716064,5.91016244888306,3.97705006599426,12.3576745986938,8.42654991149902,7.71072483062744,-20.3089504241943,0.36405003070831,26.7709522247314,-3.34800004959106,9.7069501876831,19.4610004425049,14.5264625549316,-19.8695755004883,-15.1577253341675,-58.0519523620605,-44.6179504394531,-17.4310512542725,-10.4494495391846,-8.1939001083374,-6.28375005722046,-6.54527473449707,-5.0850248336792,-3.97292494773865,16.9519500732422,7.63095045089722,-0.68595004081726,4.22399997711182,-0.09600000083447,-5.44500017166138,-4.03933763504028,-4.560462474823,-6.69006252288818,8.00699996948242,20.5849514007568,32.1010513305664,14.0039625167847,8.71749973297119,4.95494985580444,10.0007877349854,8.74114990234375,7.86596250534058,-18.8629512786865,-16.8090000152588,-3.93300008773804,-5.86395025253296,-0.11805000901222,3.93000030517578,14.0417747497559,12.4357748031616,-20.4459743499756,-27.1849517822266,-54.1789512634277,-47.6710510253906,SHAKE
11.9447622299194,14.0039625167847,8.71749973297119,10.4457378387451,10.0007877349854,8.74114990234375,-19.0020008087158,-18.8629512786865,-16.8090000152588,-15.7069511413574,-5.86395025253296,-0.11805000901222,15.6015748977661,14.0417747497559,12.4357748031616,-7.26195049285889,-27.1849517822266,-54.1789512634277,-15.5408000946045,-13.3709125518799,-9.63379955291748,-12.793137550354,-5.4038872718811,-2.99323749542236,38.0910034179688,29.0790004730225,17.8540515899658,18.6859512329102,13.5160503387451,9.42495059967041,-6.82302474975586,-4.17367506027222,-2.90922498703003,-7.73205041885376,1.2720000743866,24.3990020751953,20.4956130981445,14.4651374816895,7.45126247406006,9.43277454376221,8.81127452850342,5.72962474822998,-17.8960514068604,-18.5040016174316,-1.35405004024506,-13.7940006256104,-9.86505031585693,-1.88700008392334,8.64476203918457,-18.3261375427246,-12.7571125030518,-53.8860015869141,-44.6110534667969,-18.4290008544922,-9.47883701324463,-7.92110013961792,-6.43898725509644,-4.86584997177124,-4.36603736877441,-4.00688743591309,17.6989517211914,7.17795038223267,-2.09400010108948,10.5240001678467,6.24000024795532,-0.34305000305176,-4.08388757705688,-3.20347499847412,-2.94140005111694,1.1910001039505,9.94005012512207,22.1479511260986,18.6590251922607,8.75723743438721,3.84697508811951,6.54431247711182,5.98537492752075,4.72986268997192,-19.2610511779785,-16.5769500732422,25.2739505767822,-12.8340005874634,-1.1620500087738,5.26095008850098,8.82461261749268,-16.8682250976563,-12.728099822998,-52.1530532836914,-25.0740013122559,-10.03005027771,SHAKE
-2.97343754768372,-14.757737159729,-10.0596370697021,-0.45649999380112,-8.50547504425049,-2.65787506103516,-21.363000869751,-16.5649509429932,18.4770011901855,-19.7299518585205,-9.7669506072998,4.81095027923584,-10.6618871688843,15.4079751968384,12.5564994812012,-45.6979522705078,-26.4619522094727,-7.11900043487549,5.26157474517822,4.77977514266968,4.47342491149902,-0.39118748903275,-0.91341251134872,-1.09821248054504,9.05505084991455,-0.25304999947548,-7.9960503578186,6.01500034332275,0.75705003738403,-5.12895011901855,5.3472375869751,5.38587474822998,20.4566993713379,9.44400024414062,23.1150016784668,29.8770008087158,14.4018878936768,6.39429998397827,4.29206228256226,8.85046291351318,4.06284999847412,3.34647488594055,-18.2140502929688,-4.47405004501343,18.3960018157959,-7.97595024108887,-1.44900012016296,4.02495002746582,-20.6315994262695,-11.8150997161865,-8.7465124130249,-56.5819511413574,-10.4610004425049,-5.69400024414063,-3.52329993247986,-0.40356248617172,17.2173366546631,-1.73483753204346,0.93884998559952,7.2378625869751,-8.10105037689209,-20.7979507446289,-19.1989517211914,-6.25005006790161,-13.0090503692627,-11.7210006713867,17.7542743682861,11.6608247756958,9.62926292419434,7.30305051803589,-14.7229509353638,-41.9560508728027,-10.3243246078491,-7.25931262969971,-4.68297481536865,-3.29986238479614,-0.68035000562668,-0.78196251392365,37.6099510192871,23.0449504852295,1.61595010757446,5.40495014190674,1.53795003890991,-0.30195000767708,-7.44810009002686,-6.50553750991821,17.3578624725342,7.46100044250488,24.8700008392334,21.5659503936768,SHAKE
-5.84567499160767,-3.52329993247986,-0.40356248617172,-1.83342504501343,-1.73483753204346,0.93884998559952,9.96105003356934,-8.10105037689209,-20.7979507446289,1.95000004768372,-6.25005006790161,-13.0090503692627,5.07856225967407,17.7542743682861,11.6608247756958,31.5859508514404,7.30305051803589,-14.7229509353638,1.32123744487762,-10.3243246078491,-7.25931262969971,2.91665005683899,-3.29986238479614,-0.68035000562668,40.2600021362305,37.6099510192871,23.0449504852295,12.106050491333,5.40495014190674,1.53795003890991,-10.8772125244141,-7.44810009002686,-6.50553750991821,-5.69895029067993,7.46100044250488,24.8700008392334,10.1895751953125,3.49621248245239,2.42494988441467,5.31506252288818,3.99410009384155,3.37232494354248,-19.3210506439209,-2.91000008583069,20.9740505218506,-5.69400024414063,-2.3970000743866,4.15500020980835,-22.7412624359131,-17.6797504425049,-13.5544748306274,-58.4500541687012,-26.8000507354736,-7.49700021743774,-5.89627504348755,-4.80053758621216,-2.31412506103516,-2.04586243629456,-2.06263756752014,-1.15293753147125,8.26800060272217,-3.45795011520386,-21.3679504394531,3.05595016479492,-0.96795004606247,-14.6779508590698,-4.10946226119995,18.2382755279541,16.7234382629395,30.8220024108887,12.6019506454468,1.33395004272461,2.38012504577637,1.91056251525879,-9.74215030670166,3.79156255722046,3.16126251220703,-4.89114999771118,3.63705015182495,30.7789516448975,42.4750518798828,-0.12300000339746,5.51505041122437,6.25200033187866,-15.3722248077393,-7.50516223907471,-4.76767492294312,-17.0569515228271,-5.4859504699707,4.5930004119873,SHAKE
-2.37806248664856,11.4599370956421,3.09746241569519,-0.48317500948906,4.50381231307983,3.1545250415802,-20.7450008392334,-19.045051574707,-11.248950958252,-17.7330017089844,-9.56100082397461,-0.1950000077486,14.6723499298096,8.63761234283447,-20.2140121459961,-5.75595045089722,-61.3330535888672,-49.8420028686523,-8.43204975128174,-5.09451246261597,-2.92146253585815,-2.8078875541687,-1.33512496948242,-1.12777495384216,27.9580516815186,5.19300031661987,-11.7430505752563,-1.07595002651215,0.51300001144409,-11.8879508972168,-4.72779989242554,14.3923997879028,19.3804874420166,16.7779502868652,25.0810508728027,13.5019502639771,3.24087500572205,1.75450003147125,1.46973752975464,4.23183727264404,3.98543739318848,3.61776256561279,-11.7330007553101,1.38900005817413,28.9660511016846,-0.29805001616478,-0.21405000984669,11.6389503479004,9.94083786010742,-25.6662998199463,-20.2504501342773,-66.3730545043945,-53.7670516967773,-14.2350006103516,-5.34324979782104,-4.19567489624023,-2.7992250919342,-0.98065000772476,-1.22182500362396,-0.92496252059937,0.59400004148483,-11.1150007247925,-21.2380504608154,-0.77400004863739,-7.05900049209595,-15.3000011444092,-6.87568759918213,12.9408121109009,17.7799873352051,31.8880519866943,26.9530506134033,10.0879507064819,2.75880002975464,1.3194500207901,1.34832501411438,3.26163744926453,3.21254992485046,2.54608750343323,-12.6049509048462,-0.65700000524521,40.9380035400391,-0.5830500125885,0.27600002288818,17.3400001525879,-26.9275875091553,-20.1095123291016,-15.3095245361328,-57.436954498291,-24.9130516052246,-6.18300008773804,SHAKE
9.8294620513916,5.53959989547729,0.36410000920296,8.30156230926514,3.91159987449646,3.78798747062683,-13.7830505371094,-13.8540010452271,-5.32605028152466,-17.203950881958,-5.16000032424927,1.84395003318787,13.3974494934082,29.2249374389648,-17.6159496307373,-10.546950340271,-54.4750518798828,-12.7930507659912,-6.44379997253418,-4.14370012283325,-3.25104999542236,0.98518747091293,-0.40287500619888,-0.49637499451637,13.9039506912231,-3.47805023193359,-10.8400506973267,6.0799503326416,-1.10895001888275,-9.28605079650879,-5.39632511138916,-3.93387508392334,15.1243124008179,16.4089508056641,27.8179512023926,23.0820007324219,8.00896263122559,2.56726241111755,0.23237499594688,2.23767495155334,1.35629999637604,1.29855000972748,-17.5990505218506,-9.79905033111572,7.07805013656616,-5.86200046539307,-3.25005006790161,0.36000001430511,29.4680366516113,-28.491512298584,-18.4779376983643,-63.5569534301758,-42.9349517822266,-14.4499502182007,-4.49253749847412,-2.61731243133545,-1.6768125295639,3.57500004768372,1.7685250043869,1.68684995174408,12.5080509185791,-5.72295045852661,-12.7440004348755,-0.16605000197887,-3.49905014038086,-9.36705017089844,-6.23287487030029,20.0250873565674,17.4591999053955,27.5280017852783,10.9669504165649,-0.32100000977516,0.91121250391006,-2.45685005187988,-7.93058729171753,1.29937493801117,0.6183375120163,1.89103746414185,35.1270027160645,47.0620536804199,41.6490020751953,10.5570001602173,13.4370002746582,3.15405011177063,-12.9886627197266,-7.9080376625061,-6.64592504501343,-4.10205030441284,-2.18400001525879,4.31805038452148,SHAKE
2.4728000164032,1.06631255149841,2.10141253471375,0.60238748788834,0.85112500190735,0.34498751163483,-11.6370000839233,21.6690006256104,41.1799507141113,-1.91595005989075,7.45395040512085,13.7250003814697,-18.2154502868652,-14.1834001541138,-10.895224571228,-22.8880519866943,-6.37200021743774,-4.18095016479492,-3.16978740692139,-2.34148740768433,-0.84589999914169,0.87752497196198,0.512600004673,1.29126250743866,-3.15405011177063,-10.6990509033203,-16.2100505828857,0.41505002975464,-9.86295032501221,-18.4129505157471,-2.4507999420166,14.7261123657227,19.5218372344971,23.5939502716064,16.8109512329102,8.94600009918213,1.77526247501373,1.03606247901917,1.82214999198914,0.74772500991821,0.74153751134872,0.72874999046326,-5.85795021057129,8.48295021057129,29.5120506286621,-0.69300001859665,4.42500019073486,13.0849504470825,7.9609751701355,-15.4822244644165,-9.25319957733154,-49.4899520874023,-12.9870004653931,-6.30495023727417,-2.60823750495911,1.83589994907379,10.2610750198364,-0.16609999537468,2.32663750648499,6.11600017547607,-2.12700009346008,-13.7040004730225,-15.4279508590698,-2.82600021362305,-14.2830009460449,-13.9639511108398,19.0605239868164,19.401388168335,16.4771747589111,19.6150512695313,13.1119508743286,5.7810001373291,0.97088748216629,1.18153750896454,2.21457505226135,2.2836000919342,2.0787250995636,1.71338748931885,0.28305000066757,18.9580516815186,36.2400016784668,-1.86105012893677,6.00300025939941,12.8719501495361,6.95241260528564,-18.1691131591797,-10.944037437439,-38.5290031433105,-22.3200016021729,-3.74295020103455,SHAKE
1.76728749275208,0.97088748216629,1.18153750896454,2.06346249580383,2.2836000919342,2.0787250995636,-9.20205020904541,0.28305000066757,18.9580516815186,-1.63605010509491,-1.86105012893677,6.00300025939941,6.95241260528564,6.95241260528564,-18.1691131591797,-38.5290031433105,-38.5290031433105,-22.3200016021729,-4.27363729476929,-3.54433751106262,-2.75041246414185,-0.11247500032187,-0.58877497911453,-0.78526252508163,12.0649509429932,4.41495037078857,-1.93800008296967,3.88905024528503,2.77305006980896,-3.1470000743866,-5.37721252441406,-2.84803748130798,1.41542494297028,5.97000026702881,13.9480504989624,20.965051651001,12.3430995941162,3.49387502670288,1.91317498683929,3.45881247520447,1.99086248874664,2.08890008926392,-13.7250003814697,-6.95400047302246,4.48695039749146,-6.87705039978027,-1.35600006580353,-1.40595006942749,5.12655019760132,-15.8364248275757,-12.3131246566772,-42.6499519348145,-19.6530017852783,-5.24895048141479,-3.5205500125885,-2.58197498321533,-1.43770003318787,-2.11598753929138,-1.9215624332428,-0.55659997463226,2.93100023269653,-3.62100028991699,-9.20700073242188,0.14205001294613,-5.38095045089722,-12.2860507965088,3.93304991722107,15.7961378097534,13.4521751403809,22.9120502471924,6.83400011062622,-1.47105002403259,3.00726246833801,-8.89941215515137,-6.93811225891113,1.67598748207092,-1.07497501373291,-1.89722502231598,36.1639518737793,29.4640522003174,18.6280517578125,15.7690505981445,4.63395023345947,1.44195008277893,-7.94172477722168,-6.52671241760254,-2.77351260185242,-2.67000007629395,-0.09405000507832,16.9429512023926,SHAKE
-3.5205500125885,-2.58197498321533,-1.43770003318787,-2.11598753929138,-1.9215624332428,-0.55659997463226,2.93100023269653,-3.62100028991699,-9.20700073242188,0.14205001294613,-5.38095045089722,-12.2860507965088,3.93304991722107,15.7961378097534,13.4521751403809,22.9120502471924,6.83400011062622,-1.47105002403259,3.00726246833801,-8.89941215515137,-6.93811225891113,1.67598748207092,-1.07497501373291,-1.89722502231598,36.1639518737793,29.4640522003174,18.6280517578125,15.7690505981445,4.63395023345947,1.44195008277893,-7.94172477722168,-6.52671241760254,-2.77351260185242,-2.67000007629395,-0.09405000507832,16.9429512023926,10.2355003356934,3.88382506370544,-0.22797499597073,2.35839986801147,1.01296246051788,1.01419997215271,-15.7050008773804,-13.8330001831055,7.3410005569458,-7.55505037307739,-3.46005010604858,-0.47205001115799,9.63173770904541,-20.7645626068115,-12.1187000274658,-48.3919525146484,-37.1860504150391,-3.60900020599365,-3.3961124420166,-2.54347491264343,-0.06435000151396,-0.58643752336502,-0.3060750067234,3.10873746871948,3.56100010871887,-0.45405003428459,-2.59395003318787,1.357950091362,-2.40900015830994,-7.6360502243042,3.11038756370544,7.75596237182617,10.2924251556396,7.82295036315918,7.61895036697388,8.59200000762939,4.7991623878479,3.15053749084473,-0.17599999904633,2.92324995994568,3.37218737602234,4.01747512817383,4.41105031967163,8.73705005645752,15.5539503097534,-2.18204998970032,-1.357950091362,0.3570000231266,-6.47941255569458,-8.83148765563965,-8.26375007629395,-13.3890008926392,-1.85400009155273,0.60900002717972,SHAKE
-1.12090003490448,-1.3165625333786,-1.48183751106262,-0.34292501211166,0.50407499074936,0.78154999017715,9.01995086669922,9.35700035095215,9.77400016784668,0.74505001306534,0.70695000886917,-0.22095000743866,1.01598751544952,0.92785000801086,0.71142500638962,1.15995001792908,-0.16305001080036,-0.41505002975464,-0.17765000462532,0.26028749346733,0.82747501134872,0.31968748569489,-0.08043749630451,-0.55879998207092,12.5920505523682,11.97705078125,7.56105041503906,-2.57895016670227,-3.36495018005371,-4.28400039672852,-1.48926246166229,3.24747490882874,14.3048124313354,-0.16605000197887,37.2820510864258,24.9420013427734,0.21463750302792,-1.24685001373291,-1.52776253223419,0.33261248469353,1.87481248378754,2.97701239585876,-21.8970012664795,-5.53200006484985,17.4760513305664,5.32095003128052,10.0260000228882,20.5270519256592,14.5688123703003,18.5810623168945,19.9458866119385,-46.0480537414551,-24.8530502319336,-12.7189502716064,7.73162508010864,5.99128723144531,3.94803738594055,7.98600006103516,5.63474988937378,6.53977489471436,13.9020004272461,4.1850004196167,-2.0029501914978,1.08795011043549,-3.31695008277893,-6.69000053405762,6.86936235427856,1.09298753738403,17.6093502044678,1.28205001354218,22.5100517272949,23.5129508972168,5.70349979400635,2.98993754386902,2.48792505264282,9.96847534179688,7.73286247253418,7.31788730621338,-20.3839511871338,10.10205078125,29.5510520935059,0.85800004005432,6.81195020675659,11.2390508651733,25.4271869659424,19.3289241790771,16.2893505096436,-33.0250511169434,-8.34000015258789,-6.5779504776001,SHAKE
11.4072751998901,8.29069995880127,5.70349979400635,13.5995750427246,10.9751129150391,9.96847534179688,-15.8940010070801,-18.4369506835938,-20.3839511871338,-6.10095024108887,-1.81095004081726,0.85800004005432,12.6990871429443,11.4599370956421,25.4271869659424,-25.9090518951416,-41.6179504394531,-33.0250511169434,9.63379955291748,8.61616230010986,7.39928722381592,6.21843767166138,4.79352474212646,3.69297504425049,17.4000015258789,10.6260004043579,5.01600027084351,5.36100006103516,5.00505018234253,1.557000041008,10.0116500854492,8.78157520294189,1.15719997882843,0.40095001459122,1.90695011615753,8.69700050354004,12.3668870925903,7.89511251449585,3.6258749961853,9.7376127243042,9.93478775024414,7.69780015945435,-16.7710514068604,-18.8010005950928,-15.6619510650635,-6.56100034713745,-5.79195022583008,-3.34095025062561,12.6245622634888,21.8953628540039,20.6492004394531,-66.4420547485352,-62.7570037841797,-14.3500509262085,7.6707124710083,7.12071228027344,4.11331224441528,3.68884992599487,3.25971245765686,3.5014374256134,5.2819504737854,-2.01705002784729,-8.85494995117188,3.07500004768372,1.07805001735687,-5.8090500831604,5.94522476196289,-14.1560373306274,-18.2573871612549,9.52995014190674,17.8570499420166,26.6209506988525,-6.79868745803833,-4.84563732147217,-3.55203747749329,-4.59071254730225,-3.57857489585876,-2.12891244888306,-15.7480506896973,-16.2850513458252,-14.5030508041382,-5.31105041503906,-2.38500022888184,-1.63605010509491,-9.3711748123169,-3.60882496833801,13.6259746551514,-9.4750509262085,-45.6720008850098,-40.1580009460449,SHAKE
-3.55203747749329,-2.79193758964539,-1.01406252384186,-2.12891244888306,-0.83916246891022,1.88581252098084,-14.5030508041382,-5.12505006790161,28.2120018005371,-1.63605010509491,1.84005010128021,15.1450510025024,13.6259746551514,17.2719249725342,15.805212020874,-40.1580009460449,-23.2969512939453,-11.8999509811401,3.53196239471436,3.08275008201599,1.89282500743866,0.604587495327,0.46048748493195,0.41346248984337,9.52005004882812,5.84505033493042,0.81900006532669,5.25405025482178,3.7020001411438,-2.14605021476746,7.61474990844727,8.04773712158203,9.8720874786377,3.41505026817322,6.28605031967163,11.2540502548218,8.20806217193604,5.15075016021729,1.78887498378754,5.1117000579834,4.6941123008728,4.12101268768311,-8.2300500869751,-9.36000061035156,-6.26505041122437,-7.70595026016235,-4.27005004882813,6.12000036239624,9.06276226043701,24.2881374359131,21.2905006408691,-47.6230506896973,-44.9340019226074,-12.235050201416,5.41750001907349,4.66331243515015,3.70067501068115,8.74170017242432,7.659987449646,7.83928728103638,12.0600004196167,5.65095043182373,-0.48495003581047,-7.61700057983398,-1.67205011844635,-2.06505012512207,8.02133750915527,6.00792503356934,21.0396995544434,9.05100059509277,20.7660007476807,20.1030006408691,3.22987508773804,2.38947486877441,14.5154628753662,7.2334623336792,7.16856241226196,13.1361999511719,-4.63905000686646,16.5450000762939,33.2190017700195,13.2580509185791,11.9580001831055,-5.30895042419434,-23.0844631195068,-17.5697498321533,-13.2654495239258,-25.8709506988525,-12.657000541687,-6.17505025863647,SHAKE
2.56134986877441,1.70266246795654,2.00818753242493,6.53633737564087,5.88912487030029,15.2910995483398,5.23200035095215,19.5520515441895,27.8290519714355,3.75000023841858,9.76905059814453,11.1720008850098,-14.5891628265381,-8.15429973602295,-6.15353727340698,-16.8280506134033,-6.53895044326782,-6.4960503578186,-2.63587498664856,-2.19615006446838,-1.90203750133514,-1.08955001831055,-0.05637500062585,1.33718752861023,3.3070502281189,1.675950050354,0.47895002365112,-3.39300012588501,-6.86505031585693,-8.12205028533936,0.23416249454021,3.88135004043579,5.93532514572144,6.39405012130737,10.2480001449585,17.8189506530762,5.04336261749268,1.09986245632172,-0.03258749842644,5.63915014266968,4.99097490310669,3.2658998966217,-8.30400085449219,-10.3920001983643,10.8460502624512,-8.19405078887939,-6.00600051879883,10.7650508880615,11.1253995895386,-26.5234756469727,-15.4092121124268,-57.6139526367188,-54.1380043029785,-5.69205045700073,-6.98444986343384,-4.51426267623901,-3.14036250114441,-4.09928750991821,-2.45533752441406,-1.1944625377655,11.706000328064,0.8479500412941,-4.21695041656494,0.64500004053116,-1.59105002880096,-5.05995035171509,-1.51167500019073,15.1100120544434,13.6280374526978,20.7070503234863,26.9250011444092,10.1410503387451,3.25861239433289,2.26957488059998,-6.27976226806641,4.35957479476929,3.68321251869202,5.58923768997192,8.67495059967041,32.131950378418,37.2820510864258,5.83095026016235,13.3230009078979,6.52995014190674,-15.9631996154785,-8.99277496337891,-6.95983743667603,-13.3920001983643,-3.40005016326904,-0.23505000770092,SHAKE
6.25776243209839,3.96206259727478,1.92912495136261,2.3205873966217,2.37077498435974,3.03325009346008,-9.33405017852783,-4.89000034332275,22.6930503845215,-0.25500002503395,1.93005013465881,7.03695011138916,-19.1098880767822,-15.572699546814,-9.22432518005371,-31.2960014343262,-17.6820011138916,-3.67095017433167,-2.77337503433228,-2.0934374332428,-1.57987499237061,-1.88732504844666,-1.35547494888306,-0.518374979496,9.43095016479492,4.66695022583008,1.44600009918213,1.52595007419586,-0.74805003404617,-3.40095019340515,-0.6599999666214,0.62218749523163,12.1913003921509,5.96700048446655,7.95705032348633,18.8290500640869,2.27851247787476,1.21934998035431,0.2924624979496,3.85109996795654,3.70631241798401,2.86907505989075,-10.2370500564575,-11.2230005264282,5.58900022506714,-3.25200009346008,-3.02895021438599,-0.09900000691414,28.4902744293213,26.6755504608154,19.2813491821289,-46.7470512390137,-19.6939506530762,-9.41700077056885,5.7578125,3.8671875,2.79290008544922,2.49919986724854,0.80533748865128,0.48358750343323,6.82200050354004,-2.97000002861023,-5.15805006027222,4.89900016784668,-4.20300006866455,-7.7509503364563,9.03581237792969,8.94547462463379,20.0373249053955,10.0830001831055,18.1950016021729,24.3910503387451,4.99427509307861,3.4036750793457,1.50562500953674,5.59294986724854,4.97378730773926,4.28958749771118,-11.4310503005981,-3.50400018692017,23.802001953125,-0.85995006561279,0.58200001716614,9.63495063781738,-27.5840129852295,-18.7999629974365,-13.8177871704102,-36.4080009460449,-20.484001159668,-11.6010007858276,SHAKE
-9.86287498474121,-8.57326221466064,-7.04522514343262,-11.0232372283936,-5.41681241989136,-3.60373759269714,29.086051940918,27.7360515594482,19.4280014038086,9.60900020599365,8.05500030517578,8.78505039215088,-7.65146255493164,-5.55238723754883,-3.42443752288818,-5.86200046539307,-4.17405033111572,-1.48305010795593,-3.81287503242493,-3.4896125793457,-2.55791258811951,-1.58688747882843,-1.92197501659393,1.14936244487762,-0.24495001137257,-1.60005009174347,-3.76695013046265,-2.08605003356934,-4.64100027084351,-6.07500028610229,6.03501224517822,11.292875289917,10.8219375610352,8.778000831604,24.4939517974854,20.2660503387451,4.89898729324341,3.36929988861084,2.41436243057251,4.28711271286011,3.42223739624023,2.73267507553101,-8.98905086517334,-4.7920503616333,10.8250503540039,-7.29600048065186,-3.82200026512146,7.74105024337768,7.42321252822876,-26.7173500061035,-18.7826366424561,-56.0130043029785,-31.957052230835,-4.46595001220703,-9.18953704833984,-6.43238735198975,-5.5650372505188,-6.45328760147095,-4.62398767471313,-4.19086265563965,17.8620014190674,6.43095016479492,1.59495007991791,13.0039510726929,6.26700019836426,2.49300003051758,-2.27122497558594,0.17146250605583,0.80258750915527,2.80695009231567,5.43300008773804,16.6909503936768,16.1805877685547,9.17468738555908,4.80782508850098,9.48131275177002,6.16632509231567,4.07660007476807,-6.61695051193237,-9.21405029296875,-4.76100015640259,-10.2120008468628,-5.10495042800903,-1.65495002269745,7.92577505111694,-25.6101989746094,-11.6866750717163,-14.3230504989624,-47.0100021362305,-16.6339511871338,SHAKE
16.1805877685547,9.17468738555908,4.80782508850098,9.48131275177002,6.16632509231567,4.07660007476807,-6.61695051193237,-9.21405029296875,-4.76100015640259,-10.2120008468628,-5.10495042800903,-1.65495002269745,7.92577505111694,-25.6101989746094,-11.6866750717163,-14.3230504989624,-47.0100021362305,-16.6339511871338,-6.20413732528687,-4.00839996337891,-3.16071248054504,-3.88093757629395,-2.12409996986389,-1.20628750324249,16.8919506072998,2.21700000762939,-3.81300020217896,1.54305005073547,-0.01995000056922,-3.550950050354,-1.83974993228912,-8.88648700714111,18.6059494018555,1.1910001039505,43.8430519104004,14.8840503692627,7.03477478027344,2.34684991836548,1.29964995384216,5.44403743743896,4.07494974136353,3.74041247367859,-27.199951171875,-4.35195016860962,19.8730506896973,-5.83305025100708,4.83495044708252,18.8650512695313,15.84494972229,24.1469249725342,20.8184623718262,-46.4550018310547,-37.3180503845215,-10.6069507598877,7.98613739013672,6.73653745651245,4.67637491226196,1.05228745937347,0.36300000548363,0.34540000557899,-1.79205012321472,-7.00200033187866,-13.7869510650635,-0.8770500421524,-9.86505031585693,-19.045051574707,-10.7786245346069,-11.7793502807617,-8.58261203765869,24.1180515289307,26.5300521850586,2.57205009460449,-8.24890041351318,-6.64716243743896,12.4253253936768,0.06723749637604,0.95149999856949,6.12438726425171,3.25395011901855,20.3569507598877,36.6300010681152,-0.29805001616478,7.86405038833618,13.7850008010864,14.3974876403809,12.1635246276855,7.27911233901978,-8.46000003814697,-5.55300045013428,-3.32895016670227,SHAKE
15.3077373504639,7.92453765869141,5.16573762893677,4.47699975967407,3.52426242828369,3.40779995918274,-12.4900503158569,-13.1070003509521,-9.57600021362305,-15.8770503997803,-1.97595012187958,2.48805022239685,8.44016265869141,6.15298748016357,-20.4701747894287,-15.738000869751,-43.9860038757324,-48.9589538574219,-9.17193698883057,-6.54582500457764,-3.75388741493225,-3.59053754806519,-2.60782504081726,-1.78158748149872,32.449951171875,19.3080005645752,1.73400008678436,-3.00600004196167,-1.53495001792908,1.81605005264282,-6.97578763961792,-3.78235006332397,17.4832630157471,0.71205002069473,19.8570003509521,23.1439514160156,5.59707498550415,1.79753744602203,1.51964998245239,4.1357250213623,3.36751246452332,2.9438750743866,-16.2850513458252,5.6050500869751,28.2619514465332,-1.08300006389618,2.42805004119873,4.4040002822876,6.42427492141724,-18.1431255340576,-12.163800239563,-51.4270515441895,-42.612003326416,-4.51605033874512,-3.30577492713928,-2.48586249351501,9.14484977722168,-1.46794998645782,-1.24409997463226,5.64464998245239,-1.75095009803772,-7.42305040359497,-14.6350507736206,-0.8890500664711,-7.81095027923584,-13.94700050354,13.3403873443604,16.1192626953125,14.1909627914429,24.6139507293701,17.4070510864258,6.46500015258789,1.74886250495911,1.1921249628067,1.48596251010895,3.32433748245239,3.42072486877441,3.67826247215271,-2.09595012664795,16.0279502868652,30.7960510253906,3.56595015525818,3.85995006561279,5.7180004119873,-18.2428131103516,-10.7300872802734,-8.17258739471436,-26.3809509277344,-3.54705023765564,-3.331050157547,SHAKE
11.951774597168,8.58673763275146,5.52158737182617,4.40412521362305,3.42237496376038,3.47091245651245,-10.7779502868652,-11.0959501266479,-9.71505069732666,-5.30205011367798,-0.9300000667572,0.75495004653931,11.1942873001099,6.56713724136353,-9.73610019683838,1.47795009613037,-36.1590003967285,-49.0090522766113,-7.57597494125366,-4.53131246566772,-3.25311255455017,-5.55637502670288,-4.36906242370605,-3.46224999427795,32.6059532165527,12.7000503540039,-2.27805018424988,1.96200013160706,5.79495048522949,-1.34595000743866,-5.34476232528687,8.36660003662109,15.0687627792358,6.88695049285889,24.3889503479004,22.9960517883301,7.14834976196289,5.94673728942871,3.62724995613098,3.21254992485046,2.92201256752014,1.82105004787445,-13.6410007476807,-6.59505033493042,28.7290515899658,-3.51300024986267,-1.52805006504059,7.44000053405762,-4.69163751602173,-16.6556491851807,-12.9404001235962,-52.3230018615723,-35.5699501037598,-10.5619506835938,-5.77981233596802,-4.61999988555908,-3.45963740348816,-4.05886268615723,-3.66024994850159,-1.59458744525909,8.36100006103516,1.14000010490417,-7.47105026245117,5.31795024871826,0.37395000457764,-10.2409505844116,4.47163724899292,14.4409370422363,13.1485748291016,19.1190013885498,25.453950881958,6.26205015182495,1.65151250362396,1.77388751506805,-8.61671257019043,3.93318748474121,4.01788759231567,-3.75938749313354,20.6170501708984,33.5040016174316,31.2430515289307,6.63795042037964,12.256950378418,-1.93800008296967,-10.2291746139526,-7.87283754348755,-4.25053739547729,-3.64005017280579,-2.84700012207031,1.76805007457733,SHAKE
0.08249999582767,1.20284998416901,1.33993744850159,1.53106248378754,1.06548750400543,0.63524997234344,8.1670503616333,8.94105052947998,9.28305053710938,-2.46000003814697,-2.2630500793457,-2.27505016326904,0.50599998235703,-0.25808748602867,-0.47382500767708,2.91000008583069,2.26605010032654,1.89195013046265,-0.79048746824265,-0.86900001764297,-0.72311252355576,0.27032500505447,0.39544999599457,0.40988749265671,10.5379505157471,11.2410001754761,11.6220006942749,-0.66405004262924,-1.27695000171661,-0.82905006408691,-0.65491247177124,-0.81908750534058,-0.30250000953674,-0.08895000070333,-0.8359500169754,22.57200050354,6.21280002593994,-0.57859998941422,-2.58541250228882,-1.78186249732971,-1.88828754425049,-0.35406249761581,-17.131950378418,-22.5820503234863,-4.44495010375977,-20.7180004119873,2.67000007629395,18.4650001525879,17.2275123596191,20.529712677002,18.6454124450684,-44.0389518737793,-15.3979511260986,-9.11595058441162,5.50110006332397,4.20296239852905,4.35489988327026,3.99355006217957,2.66763758659363,0.61641252040863,-2.47200012207031,-17.965051651001,-22.6530017852783,3.63000011444092,-8.06205081939697,-19.2000007629395,-12.1526622772217,-10.3666753768921,-8.50354957580566,23.7430515289307,10.0740003585815,-1.34400010108948,-6.47900009155273,8.88167476654053,7.53307485580444,-1.85033750534058,4.89128732681274,2.9027624130249,29.7210006713867,35.3260498046875,24.3210010528564,18.211950302124,10.0110006332397,3.62595009803772,12.34255027771,8.87232494354248,9.14155006408691,-3.70005011558533,0.3790500164032,4.23405027389526,SHAKE
-11.768762588501,-9.78958702087402,-8.59732532501221,-8.32218742370605,-6.89012479782104,-4.45142507553101,-17.355001449585,-16.2610511779785,-9.21405029296875,-10.0420503616333,-9.40095043182373,-6.13200044631958,-5.89242506027222,18.5734996795654,16.6881008148193,-37.3110008239746,-30.3670520782471,-9.92700004577637,5.65262508392334,4.09048748016357,2.93493747711182,1.04678750038147,0.84383749961853,1.35616254806519,8.94495010375977,-1.07100009918213,-3.41295027732849,2.9719500541687,-2.52405023574829,-5.38800048828125,11.1538619995117,12.8853998184204,16.4209365844727,9.16394996643066,11.1220502853394,16.0780506134033,7.33631229400635,2.62996244430542,1.5329874753952,4.85581254959106,4.87987518310547,4.70965003967285,-6.65700054168701,-5.9320502281189,-1.1580001115799,-3.40500020980835,-0.37395000457764,1.26195001602173,3.68554997444153,-16.8979244232178,-13.1638374328613,-45.4969520568848,-10.6699504852295,-0.91500002145767,-3.68898749351501,-3.32777500152588,-3.87502503395081,-3.1933000087738,-1.12860000133514,1.97491252422333,9.28995037078857,1.11600005626678,-0.82500004768372,6.23505020141602,-0.1950000077486,-3.64695024490356,4.96430015563965,10.9121370315552,11.8555250167847,7.26000022888184,15.5490007400513,18.1230010986328,1.58290004730225,0.16926249861717,1.06397497653961,0.62658751010895,1.11182498931885,1.47207498550415,-5.5489501953125,-0.18495000898838,26.7400512695313,-1.71705007553101,-0.85095006227493,6.31005048751831,-17.3834381103516,-12.5679121017456,-8.61547470092773,-19.6720504760742,-6.94200038909912,-2.08095002174377,SHAKE
0.56045001745224,2.37586259841919,-5.81473731994629,1.3223375082016,0.57585000991821,-1.81169998645782,0.78795003890991,27.5590515136719,30.3960018157959,-0.98205006122589,6.36495018005371,2.50800013542175,-17.8386993408203,-12.1874504089355,-7.08193731307983,-15.0649509429932,-4.03305006027222,-0.90105003118515,-3.33932495117188,-3.29257488250732,-3.36297488212585,-2.63766241073608,-1.16957497596741,-0.07988750189543,7.40295028686523,4.40595006942749,1.83195006847382,3.88695025444031,1.21200001239777,-1.57095003128052,1.69757497310638,3.11616253852844,9.62279987335205,5.43795013427734,6.51795053482056,16.5480003356934,3.43722486495972,1.29937493801117,0.34993749856949,1.23364996910095,1.44512498378754,1.18470001220703,-6.01995038986206,-4.12200021743774,20.8759517669678,-1.67205011844635,-2.27505016326904,1.14495003223419,0.43546250462532,-15.9373502731323,-11.5055875778198,-36.3270034790039,-29.3950519561768,-4.04505014419556,-3.07312488555908,-2.67657494544983,-2.40954995155334,-3.84326243400574,-3.28611254692078,-0.71747499704361,10.6980009078979,6.62295007705688,1.3819500207901,3.35295009613037,1.04895007610321,-4.15995025634766,1.32013750076294,3.18587493896484,11.8629503250122,5.9170503616333,6.66195011138916,11.2540502548218,4.20310020446777,1.98481249809265,0.37922498583794,2.67300009727478,3.36984992027283,2.96738743782043,-4.51005029678345,-3.45600008964539,8.39205074310303,-0.09600000083447,0.05100000277162,-2.26995015144348,-3.65323758125305,-13.6586999893188,-10.9982128143311,-29.287052154541,-23.0380516052246,-4.09500026702881,SHAKE
2.46496248245239,0.09198749810457,0.02626249939203,1.6938624382019,2.52188754081726,2.37586259841919,-1.46400010585785,3.57300019264221,11.0950508117676,0.00795000046492,-1.87095010280609,-2.61300015449524,1.39658749103546,-10.0911245346069,-9.51321220397949,-6.93195009231567,-18.5539512634277,-5.52195024490356,-1.6854749917984,-1.51731252670288,-1.94149994850159,-3.20416259765625,-2.82796239852905,-0.56113749742508,14.0089502334595,8.07900047302246,3.80700016021729,1.45200002193451,1.43700003623962,-1.80600011348724,0.58451247215271,4.07219982147217,9.05836200714111,4.02795028686523,10.4970006942749,18.6670513153076,4.5324125289917,2.33021259307861,0.64418751001358,0.81757497787476,0.76642501354218,0.43023750185966,-8.06505012512207,-6.58095026016235,16.8799514770508,-2.16300010681152,-2.56500005722046,2.59395003318787,5.77706241607666,-15.5255374908447,-9.74751281738281,-32.7709503173828,-16.5570011138916,-3.26895022392273,-3.19632506370544,-2.5453999042511,-2.41848754882813,-3.39404988288879,-1.70073747634888,-0.36561250686646,11.0400009155273,3.82905006408691,1.7940000295639,4.14495038986206,0.16605000197887,-1.92300009727478,0.7236624956131,3.15988755226135,9.83358764648438,5.84295034408569,7.11405038833618,11.8879508972168,5.95292520523071,4.56431245803833,3.01014995574951,2.70847487449646,2.15490007400513,1.97793745994568,-3.48495006561279,-3.95205020904541,-2.52495002746582,-1.1620500087738,-0.32400000095367,-0.42900002002716,6.69831228256226,3.40628743171692,-15.7643747329712,-7.77495050430298,-22.0950012207031,-11.8399505615234,SHAKE
4.54368734359741,18.1334991455078,10.3929376602173,6.99930000305176,13.8099498748779,9.43236255645752,-14.4790506362915,-14.7930011749268,-14.3980503082275,-9.5440502166748,-10.7410507202148,-1.83195006847382,17.5916118621826,10.7544250488281,17.4505367279053,-2.42400002479553,-31.2270011901855,-49.7659530639649,-11.3658876419067,-9.15928745269775,-6.14982509613037,-3.76351237297058,-1.98288750648499,-0.98463749885559,33.316951751709,24.562952041626,9.14205074310303,9.25005054473877,6.76005029678345,5.10795021057129,-5.90136241912842,-2.5144624710083,5.39893770217896,-4.16205024719238,5.87205028533936,22.0759506225586,11.4123620986938,6.97413730621338,2.64921259880066,3.31154990196228,2.996262550354,3.40216255187988,-14.9869508743286,-10.4760007858276,28.3560009002686,-8.40195083618164,1.62600004673004,10.0900506973267,6.50182485580444,-15.4075622558594,-8.49502468109131,-52.7080535888672,-7.18305015563965,-5.0310001373291,-4.09942483901978,-2.05548739433289,0.17710000276566,-0.13172499835491,1.1255749464035,4.01307487487793,2.23200011253357,-7.31100034713745,-12.6289510726929,1.60500001907349,-11.8000507354736,-15.7360506057739,13.9247627258301,12.9354496002197,11.4670877456665,19.1190013885498,1.60500001907349,-8.83500003814697,5.9501748085022,-12.0815753936768,-8.38640022277832,19.4848499298096,-6.64454984664917,-2.57551240921021,35.836051940918,32.4480018615723,22.5349502563477,10.6860008239746,-2.09805011749268,-1.64100003242493,-11.4981622695923,-7.43861246109009,-5.73828744888306,-4.17105007171631,-0.65895003080368,6.20400047302246,SHAKE
-7.30138731002808,-3.99959993362427,-1.92788743972778,-2.31852507591248,-1.24437499046326,-0.4463250041008,25.1640014648438,6.37395048141479,-8.81895065307617,0.15900000929832,4.69305038452148,-13.7179508209229,-3.14971256256104,10.8377494812012,16.4911994934082,16.3080005645752,18.7650012969971,1.61205005645752,1.74886250495911,-5.89283752441406,-6.93082475662231,1.89846253395081,15.5408000946045,-1.95634996891022,24.7050018310547,38.4000015258789,17.0359516143799,11.7949504852295,13.1359510421753,1.84005010128021,-9.90316200256348,-7.07354974746704,-5.40759992599487,-2.9890501499176,2.14394998550415,11.2399501800537,16.0555992126465,-4.19416236877441,-2.90647506713867,6.46827507019043,-1.19253754615784,-0.46392500400543,-17.6760005950928,-5.74995040893555,13.5229501724243,-15.5560503005981,1.07805001735687,6.68295049667358,-14.507212638855,-13.812837600708,-10.6975002288818,-50.9220008850098,-7.07595014572144,0.70695000886917,-3.25998759269714,0.52043747901917,12.0768995285034,0.14932499825954,5.04707479476929,8.22043704986572,-3.0990002155304,-11.3809509277344,-13.2130508422852,-3.16800022125244,-17.6730003356934,-19.5090007781982,-10.4447746276855,-14.711537361145,26.3462371826172,9.93000030517578,6.9660005569458,-19.8780002593994,-7.50502490997314,-16.8211994171143,-10.7852249145508,8.73977470397949,-3.01826238632202,-8.70746231079102,34.1070022583008,31.6579513549805,22.1310005187988,22.045051574707,13.1670007705688,0.19905000925064,-3.73518753051758,-2.28552508354187,-2.0538375377655,-4.27200031280518,-1.55205011367798,-1.46805012226105,SHAKE
-3.80984997749329,-2.37462496757507,8.42434978485107,-8.08156204223633,-6.06938743591309,21.9503631591797,0.32400000095367,-8.10599994659424,-9.41100025177002,1.17405009269714,-11.6989507675171,-10.7410507202148,-5.07993745803833,-4.4719123840332,-5.97905015945435,8.86005020141602,-0.86295002698898,-31.8690013885498,-8.27873706817627,-5.04652500152588,-4.96732521057129,-15.9743375778198,-13.538387298584,-10.816162109375,29.8710021972656,16.6960506439209,10.3050003051758,9.75,9.90795040130615,8.8279504776001,3.02073740959167,5.04075002670288,8.89267539978027,2.22495007514954,10.4610004425049,13.1050510406494,-9.04241275787354,-4.81016254425049,-3.60030007362366,-18.653112411499,-11.3415498733521,-8.57037448883057,-6.60195016860962,-2.88405013084412,6.35700035095215,-6.35295009613037,0.22800001502037,1.36995005607605,-1.92046248912811,-10.221887588501,-8.91673755645752,-33.3790512084961,-20.041051864624,-7.63395023345947,3.76873755455017,3.91159987449646,4.52553749084473,5.64079999923706,2.42412495613098,2.33818745613098,7.50900030136108,-0.44400003552437,-3.95400023460388,1.09005010128021,-5.65395021438599,-8.7450008392334,4.90311241149902,19.7400493621826,13.9495124816895,14.4049510955811,19.8709506988525,7.44495058059692,3.38841247558594,1.15527498722076,-7.07162475585938,0.38692501187325,1.24588751792908,-2.24757504463196,20.2459506988525,31.7100009918213,30.9150009155273,3.70905017852783,9.22095012664795,-0.1489500105381,-11.1123371124268,-8.64751243591309,-5.41461229324341,-4.7989501953125,-3.95805025100708,2.90505003929138,SHAKE
3.91159987449646,4.52553749084473,12.2806749343872,2.42412495613098,2.33818745613098,0.4268000125885,-0.44400003552437,-3.95400023460388,-11.4120006561279,-5.65395021438599,-8.7450008392334,-9.16605091094971,19.7400493621826,13.9495124816895,9.06578731536865,19.8709506988525,7.44495058059692,-13.6500005722046,1.15527498722076,-7.07162475585938,-4.10052490234375,1.24588751792908,-2.24757504463196,5.1976375579834,31.7100009918213,30.9150009155273,14.15505027771,9.22095012664795,-0.1489500105381,1.77705013751984,-8.64751243591309,-5.41461229324341,-0.07988750189543,-3.95805025100708,2.90505003929138,21.4680004119873,-0.67347496747971,1.55636250972748,1.8654625415802,-7.01813745498657,-1.96061253547668,-1.51923751831055,-12.8460006713867,-6.39105033874512,7.99995040893555,-5.24895048141479,-4.6360502243042,-4.91595029830933,4.79531240463257,-16.5065994262695,-13.4106502532959,-38.191951751709,-18.5040016174316,-6.26595020294189,-3.11946249008179,-1.00856244564056,4.31997489929199,5.96007490158081,3.62546253204346,3.33025002479553,-0.98505002260208,-18.1500015258789,-20.3119506835938,0.42900002002716,-10.8130502700806,-16.92405128479,18.6880378723145,12.4432001113892,10.0516624450684,12.0109510421753,-13.3750505447388,-33.8149528503418,-7.85812473297119,-7.38567495346069,-5.7858624458313,-8.19678783416748,-5.14662504196167,1.04912495613098,38.5510520935059,27.3070507049561,9.05295085906982,5.17995023727417,-0.39105001091957,2.44500017166138,-5.46535015106201,-3.68211245536804,2.25898742675781,-0.58200001716614,3.29100012779236,18.271951675415,SHAKE
-3.11946249008179,-1.00856244564056,4.31997489929199,5.96007490158081,3.62546253204346,3.33025002479553,-0.98505002260208,-18.1500015258789,-20.3119506835938,0.42900002002716,-10.8130502700806,-16.92405128479,18.6880378723145,12.4432001113892,10.0516624450684,12.0109510421753,-13.3750505447388,-33.8149528503418,-7.85812473297119,-7.38567495346069,-5.7858624458313,-8.19678783416748,-5.14662504196167,1.04912495613098,38.5510520935059,27.3070507049561,9.05295085906982,5.17995023727417,-0.39105001091957,2.44500017166138,-5.46535015106201,-3.68211245536804,2.25898742675781,-0.58200001716614,3.29100012779236,18.271951675415,4.10616254806519,4.13476228713989,4.24049997329712,0.19043749570847,0.59111249446869,0.55825001001358,-14.2590007781982,-12.9900007247925,23.8879508972168,-2.99400019645691,-1.2720000743866,7.02795028686523,-22.1049118041992,-19.9733867645264,-11.365062713623,-56.4360008239746,-14.9650506973267,-3.98205018043518,-3.51972508430481,2.9970874786377,12.4163875579834,2.62982487678528,3.34523749351501,6.56837511062622,-7.99995040893555,-16.6219501495361,-17.8120517730713,-5.83095026016235,-8.55495071411133,-3.05805015563965,13.840612411499,10.0949745178223,7.34112501144409,11.9479503631592,-4.46595001220703,-50.7360038757324,-11.5924873352051,-10.0359878540039,-8.80453777313232,-8.11868762969971,-1.15719997882843,3.3576123714447,27.6660003662109,16.7869510650635,7.16595029830933,-6.02205038070679,-3.00600004196167,-1.12395000457764,-7.0112624168396,-3.5590500831604,20.3906993865967,-1.53495001792908,21.0300006866455,15.1660509109497,SHAKE
-10.0359878540039,-8.80453777313232,-7.47601222991943,-1.15719997882843,3.3576123714447,4.13008737564087,16.7869510650635,7.16595029830933,-1.60800004005432,-3.00600004196167,-1.12395000457764,-2.33805012702942,-3.5590500831604,20.3906993865967,18.3405742645264,21.0300006866455,15.1660509109497,2.47395014762878,4.19498729705811,-9.91746234893799,-7.87489986419678,1.70816254615784,-15.6352624893188,-16.1975002288818,23.3490009307861,40.9399528503418,31.7170524597168,3.41700005531311,-8.31599998474121,-21.9709510803223,-10.0902996063232,-9.68563747406006,-5.66830015182495,-6.46500015258789,-0.27600002288818,19.5840015411377,11.9158878326416,9.25759983062744,4.58741235733032,8.06630039215088,9.36223697662354,7.27622509002686,-18.2100009918213,-13.4500503540039,19.6860008239746,-3.24495005607605,-0.88395005464554,4.33395004272461,-1.51786243915558,-1.44746243953705,-5.16326236724854,-45.7549514770508,-16.0180511474609,-6.69000053405762,-8.04457473754883,-4.78431224822998,11.1728372573853,2.17428755760193,2.02991247177124,8.73977470397949,-7.74705028533936,-16.0669498443604,-19.5499515533447,-3.52005004882813,-6.05295038223267,-4.37295007705688,14.4252624511719,13.041187286377,10.8937120437622,11.5290002822876,1.2960000038147,-5.13600015640259,1.87880003452301,-15.1277494430542,-8.94368743896484,5.05092477798462,-16.6179752349854,-4.2612624168396,39.9439506530762,35.0050506591797,16.6360511779785,10.4779500961304,-1.74600005149841,-7.02105045318604,-7.32407474517822,-6.12823724746704,-3.27690005302429,0.29805001616478,2.74200010299683,3.27405023574829,SHAKE
4.9398250579834,4.4166374206543,3.61171245574951,1.44869995117188,1.21618747711182,1.27421247959137,-3.51405024528503,13.1520004272461,30.4360523223877,-1.95405006408691,4.65300035476685,14.2129507064819,4.23596239089966,-14.8717250823975,-12.4223003387451,-42.9490509033203,-28.9830017089844,-8.50305080413818,-6.71481227874756,-5.74585008621216,0.23993749916553,2.88323760032654,3.98942494392395,4.13985013961792,7.92795038223267,0.66105002164841,-14.9530506134033,1.01295006275177,-1.30605006217957,-11.8909502029419,-1.15568745136261,14.6128120422363,16.6603240966797,24.1260013580322,18.6400508880615,6.97305011749268,4.72944974899292,4.08732509613037,3.28776240348816,2.30106258392334,1.85996246337891,1.66787493228912,-5.61105012893677,12.0289506912231,34.4130020141602,-3.25005006790161,2.85705018043518,17.131950378418,6.6024751663208,-15.2334871292114,-12.6829996109009,-53.251953125,-30.9750022888184,-7.78200054168701,-8.08582496643066,-7.42059993743896,-6.34617519378662,-0.16761249303818,3.62174987792969,4.04992485046387,13.4440507888794,3.80505013465881,-4.31295013427734,-1.89900004863739,1.33695006370544,-2.80695009231567,-6.44572496414185,-4.44812488555908,0.35942500829697,8.51700019836426,16.7560501098633,22.1359519958496,9.18321228027344,5.32138729095459,3.82167506217957,3.37232494354248,3.92260003089905,3.46994996070862,-16.9909515380859,-13.1389503479004,13.3440008163452,-4.7989501953125,0.55395001173019,5.96700048446655,9.45903778076172,12.2768249511719,-16.4603996276855,-34.6120529174805,-48.2790031433105,-29.0149517059326,SHAKE
0.9618124961853,-10.377537727356,-7.19977474212646,2.4921875,-5.34187507629395,-1.77993750572205,20.1310501098633,33.548999786377,29.7490520477295,4.82805013656616,5.83305025100708,-7.25505018234253,-11.9308748245239,-9.50138759613037,-6.39402484893799,-10.03005027771,-6.93705034255981,-2.04495000839233,-1.1061874628067,1.48156249523163,7.13075017929077,3.99437499046326,3.70507502555847,3.62614989280701,-6.07500028610229,-12.2220001220703,-16.8229503631592,-7.46595048904419,-11.6230506896973,-14.5270509719849,2.93204998970032,22.1985492706299,16.4355125427246,25.453950881958,14.3740510940552,0.49905002117157,2.07198739051819,1.62717497348785,0.86831247806549,2.31591248512268,1.89956247806549,1.72837495803833,-0.3790500164032,20.6370010375977,33.5080528259277,-2.35199999809265,6.82395029067993,20.3400001525879,-21.813549041748,-13.7820377349854,-10.9536628723145,-48.2670021057129,-7.32000017166138,-4.50705003738403,-7.1029748916626,-4.04635000228882,-1.98687493801117,4.82845020294189,3.69091248512268,3.55836248397827,5.61705017089844,-3.22905015945435,-6.06300020217896,5.40705013275146,-3.16605019569397,-8.47200012207031,0.73301249742508,14.0421876907349,21.026086807251,10.7440509796143,15.738000869751,16.4929504394531,2.17965006828308,2.5367374420166,2.80596256256104,-3.20691251754761,-2.21086239814758,-1.91083753108978,-12.1999502182007,-9.67905044555664,1.77195012569427,-5.52000045776367,-3.38100004196167,-1.03005003929138,9.73348712921143,-18.8166007995605,-15.0880126953125,-21.8050518035889,-43.2270011901855,-21.3310508728027,SHAKE
2.5367374420166,2.80596256256104,2.70462489128113,-2.21086239814758,-1.91083753108978,-2.16961240768433,-9.67905044555664,1.77195012569427,22.8439502716064,-3.38100004196167,-1.03005003929138,6.44595050811768,-18.8166007995605,-15.0880126953125,-13.1592998504639,-43.2270011901855,-21.3310508728027,-9.05295085906982,-7.65063762664795,-6.93137502670288,-5.76743745803833,7.09926223754883,8.10067462921143,7.1194748878479,10.7749509811401,4.21200037002563,-0.81000006198883,3.65205025672913,4.34400033950806,0.09600000083447,-4.66386270523071,-2.37971258163452,5.40127515792847,5.52195024490356,9.98700046539307,18.6330013275146,-2.48489999771118,-0.15908749401569,1.00031244754791,-4.52443742752075,-2.81311249732971,-2.27040004730225,-12.5040006637573,-8.73795032501221,1.86495006084442,-8.4859504699707,-4.5949501991272,0.69300001859665,8.14742469787598,-14.6437501907349,-10.3745126724243,-47.6520004272461,-55.4260520935059,-0.23295001685619,-5.76413726806641,-3.41412496566772,6.14693737030029,5.31863737106323,3.75402498245239,5.918137550354,0.06000000238419,-4.98600006103516,-13.5120010375977,1.53795003890991,-4.11195039749146,-14.0070009231567,21.1773376464844,18.1054496765137,12.3899869918823,14.8020009994507,3.03000020980835,-21.0420017242432,1.12213754653931,-12.8085374832153,-9.72413730621338,1.52184998989105,-8.92787456512451,-5.64162492752075,40.4730033874512,36.6589508056641,25.9300518035889,25.3540515899658,6.06795024871826,-5.01900005340576,-9.65318775177002,-5.7329249382019,-5.05518770217896,-2.6290500164032,-1.13505005836487,5.65905046463013,SHAKE
7.83199977874756,7.14367485046387,5.55568742752075,1.58331251144409,2.99667501449585,7.37632513046265,-6.60900020599365,1.90905010700226,26.578950881958,1.25805008411407,4.71705007553101,17.3380508422852,-13.1815748214722,-10.9806127548218,-5.78517484664917,-23.3470516204834,-11.1120004653931,-5.1870002746582,-2.89643740653992,-1.17892503738403,1.2977249622345,3.75952506065369,2.40184998512268,-1.45007503032684,6.75195026397705,0.88395005464554,-1.8229501247406,4.38000011444092,-5.14800024032593,-6.1230001449585,3.58847498893738,13.2280502319336,9.49079990386963,6.91095018386841,12.1519508361816,7.10895013809204,6.80941247940063,5.98152494430542,4.55564975738525,1.29126250743866,0.54917502403259,-0.87463748455048,-6.34800052642822,17.5030517578125,27.3120021820068,-0.56100004911423,10.7220001220703,17.1460514068604,-17.3996620178223,-14.1255121231079,-8.52953720092773,-36.7219505310059,-24.810001373291,-5.0310001373291,-6.75069999694824,-4.13696241378784,-1.53697502613068,4.99069976806641,4.30347490310669,2.34987497329712,12.9460506439209,6.10305023193359,1.7650500535965,5.90295028686523,0.42195001244545,-6.40305042266846,-1.08033752441406,-0.25162500143051,16.0917625427246,0.42900002002716,8.72100067138672,17.1460514068604,6.82054996490479,5.42024993896484,3.44245004653931,1.86738753318787,2.90097498893738,1.80427503585815,-8.08200073242188,-2.81700015068054,18.6540012359619,-4.26495027542114,-3.67095017433167,2.12400007247925,-3.49387502670288,-13.5447120666504,-10.7626752853394,-32.0670013427734,-24.1639518737793,-9.14400005340576,SHAKE
4.4197998046875,2.47128748893738,-1.0396374464035,1.32852494716644,0.74414998292923,-0.95480000972748,-3.11595010757446,13.4869508743286,24.3550510406494,-2.52705001831055,2.5770001411438,14.9530506134033,-14.1917877197266,-9.22611236572266,-6.85382509231567,-28.6549510955811,-5.69895029067993,-5.27505016326904,-3.7542998790741,-3.03710007667542,-1.72755002975464,4.31557512283325,3.94858741760254,3.06253743171692,3.02400016784668,-0.7579500079155,-3.42000007629395,0.28995001316071,-5.81595039367676,-10.3630504608154,-1.56859993934631,1.02932500839233,15.6187620162964,6.01800012588501,10.4809503555298,20.9359512329102,8.36412525177002,7.65105009078979,6.41025018692017,-0.00948750041425,1.33196246623993,1.02520000934601,-16.4740505218506,-0.6810000538826,34.2550506591797,-4.44495010375977,1.5619500875473,21.0130500793457,-22.0873126983643,-13.8429498672485,-10.9410123825073,-47.5650024414063,-8.72294998168945,-3.87495017051697,-7.01937484741211,-3.35458755493164,-1.7853000164032,6.44833755493164,4.88743734359741,2.63010001182556,3.85305023193359,-1.07595002651215,-1.78695011138916,3.37695026397705,-5.83095026016235,-7.61895036697388,9.24921226501465,15.7555751800537,14.5843496322632,5.14905023574829,6.16395044326782,12.5299501419067,5.29292488098145,5.16972494125366,5.05229997634888,-2.89162492752075,0.19236250221729,0.5986750125885,-9.3720006942749,-8.72595024108887,2.09805011749268,-10.7890501022339,0.90300005674362,3.5440502166748,5.94343757629395,-7.85826253890991,-14.0729875564575,-18.0270004272461,-40.324951171875,-22.5760517120361,SHAKE
1.81114995479584,11.030387878418,9.5653247833252,1.93008744716644,1.2804000377655,1.63872504234314,-7.05495023727417,-9.97605037689209,-10.8570003509521,-11.9269504547119,-12.3409509658813,-7.04700040817261,8.38969993591309,6.57112503051758,-11.2590503692627,-0.20205001533031,-6.8430004119873,-48.4729537963867,-14.7270746231079,-9.89491271972656,-8.61203765869141,-5.45366239547729,-3.72088742256165,-2.84487509727478,37.8900032043457,26.6650505065918,15.151050567627,6.22605037689209,-8.05305004119873,-5.06505012512207,-6.08368730545044,-5.50495004653931,-4.65904998779297,-0.20400001108646,8.34000015258789,26.0940017700195,13.5073127746582,9.41063785552978,8.08403778076172,3.64251255989075,4.79696226119995,3.66024994850159,-22.2580509185791,-11.8309507369995,13.9780502319336,-22.0330505371094,-7.39200019836426,5.32800006866455,7.73684978485107,-10.14488697052,-7.29478740692139,-51.4660530090332,-6.26205015182495,-3.49605011940002,-6.91391229629517,-4.77633762359619,-0.30140000581741,-2.4785749912262,-0.98243749141693,2.72896242141724,-5.27100038528442,-10.9240503311157,-14.7280502319336,-8.06505012512207,-17.1250514984131,-21.928050994873,5.82065010070801,11.0544500350952,9.45326232910156,16.4449501037598,3.43200016021729,-2.52900004386902,5.91153764724731,-13.7438125610352,-10.5080251693726,2.40886259078979,-5.98166227340698,-3.75801253318787,36.3720016479492,32.2969512939453,20.3490009307861,21.552001953125,-7.41300058364868,-8.35395050048828,-5.18581247329712,-2.31756258010864,0.00673749996349,0.93195003271103,5.79000043869019,11.3710508346558,SHAKE
-3.86801242828369,15.8133249282837,11.5464248657227,-0.33274999260902,4.15084981918335,4.55276250839233,-14.3140506744385,-21.3100509643555,-21.6960010528564,-13.8300008773804,-18.2449512481689,-9.19695091247559,12.3663377761841,9.7403621673584,8.32163715362549,-4.23795032501221,-24.4750518798828,-57.4180526733398,5.50742483139038,-12.9542875289917,-8.99593734741211,2.11983752250671,-5.56998729705811,-1.56640005111694,41.2369537353516,32.2750511169434,7.99200057983398,27.0780010223389,3.31005024909973,4.58595037460327,-6.21802473068237,-5.3543872833252,-4.34761238098145,-5.61495018005371,5.42100048065186,25.5070514678955,12.9643249511719,10.7672128677368,6.82013750076294,3.38552498817444,3.69572496414185,2.85917496681213,-26.1370506286621,-18.3870010375977,29.6800518035889,-10.710000038147,-4.73205041885376,21.1350002288818,8.67941284179688,-25.8391380310059,-8.97668743133545,-71.3839569091797,-49.5910530090332,-10.03005027771,-7.46652507781982,-6.20358753204346,-4.27927494049072,-1.23488748073578,-0.81207501888275,0.0716374963522,1.99200010299683,-8.07000064849854,-17.0340003967285,1.94205009937286,-4.52595043182373,-15.8719511032104,-4.03136253356934,1.91468751430511,16.801399230957,22.8349514007568,23.4310512542725,13.3230009078979,9.77363777160644,8.15828704833984,6.71412515640259,5.71518754959106,5.00500011444092,4.05638742446899,-19.2130508422852,-6.29805040359497,22.1209506988525,-4.93095016479492,-2.27805018424988,15.7860012054443,8.97283744812012,-22.9329376220703,-13.9394750595093,-66.0109558105469,-59.7859535217285,-18.8650512695313,SHAKE
6.43417501449585,5.11403751373291,3.91050004959106,2.76883745193481,1.91042494773865,-3.32585000991821,9.19695091247559,32.2919998168945,40.6270523071289,3.28305006027222,22.6960506439209,26.1679515838623,-15.4033002853394,-11.5372123718262,-6.92367506027222,-42.7170028686523,-16.2460498809814,-5.77995014190674,-6.78163766860962,-4.70511245727539,-1.23475003242493,-0.80533748865128,-0.07438749819994,2.27672505378723,-5.78295040130615,-11.3070001602173,-16.1599502563477,-2.29200005531311,-7.73205041885376,-16.2460498809814,0.22797499597073,13.5810127258301,13.2442750930786,18.9919509887695,14.742000579834,5.13705015182495,8.28079986572266,6.94787502288818,5.79837512969971,4.96099996566772,4.04360008239746,3.27043747901917,-12.0850505828857,-0.09195000678301,22.4400005340576,-2.44305014610291,6.01005029678345,22.0780506134033,10.0562000274658,-15.7315120697021,-11.0459251403809,-63.8179512023926,-53.5990524291992,-15.5659503936768,-10.3318872451782,-8.62152481079102,-7.17131233215332,-3.45963740348816,-1.42449998855591,-0.50902497768402,18.5440502166748,8.39700031280518,1.62105011940002,-6.55395030975342,2.85495018959045,3.04395008087158,-2.82823753356934,3.4733874797821,16.0371742248535,7.1650505065918,16.0189514160156,14.0670003890991,8.21452522277832,5.49615001678467,5.38683748245239,5.13961267471313,3.98818755149841,3.99506258964539,-10.9620008468628,9.22800064086914,29.8710021972656,-3.76500010490417,10.8880500793457,27.4219512939453,-11.1997871398926,-10.5192995071411,-8.07180023193359,-47.1730537414551,-29.2830009460449,-6.22095012664795,SHAKE
10.3496246337891,8.83258724212646,7.27553749084473,8.30665016174316,7.85523748397827,7.72804975509644,-8.98905086517334,3.97995018959045,29.9839515686035,3.05295014381409,5.73705005645752,12.8029508590698,-4.94175004959106,-4.40288734436035,-3.22451257705688,-38.9749526977539,-10.9780502319336,-3.08205008506775,-7.22851228713989,-6.12576246261597,-4.74086236953735,-4.56169986724854,-2.81544995307922,-1.34969997406006,8.16195011138916,1.46595001220703,-5.20605039596558,0.33300000429153,-0.19200000166893,-5.39505004882813,-1.57423746585846,2.54567503929138,7.03312492370605,8.35395050048828,19.5360012054443,10.8420009613037,9.95513725280762,8.35958766937256,6.16550016403198,8.20709991455078,6.99434995651245,6.0677375793457,-9.64305019378662,1.85595011711121,22.7839508056641,-0.67395001649857,4.17600011825562,15.1830005645752,4.97200012207031,-7.33548736572266,-5.19791269302368,-39.2839508056641,-40.0879516601563,-17.6440505981445,-10.1904001235962,-8.82419967651367,-6.26284980773926,-7.37068748474121,-4.42983770370483,-0.77866250276566,19.7839508056641,12.4030504226685,1.05405008792877,-1.80105006694794,2.61300015449524,-4.26495027542114,-1.53601253032684,-0.31308749318123,5.72921228408813,3.53700017929077,10.2270002365112,14.94105052948,10.7806873321533,9.25938701629639,6.51956224441528,7.10077476501465,6.88517475128174,5.89311265945435,-11.1030006408691,-7.40700054168701,26.4139518737793,-0.00495000043884,0.4240500330925,8.57700061798096,4.51068735122681,-9.40775012969971,-7.9138126373291,-41.427001953125,-36.2790031433105,-14.6899509429932,SHAKE
5.99293756484985,4.87918758392334,-13.9642248153687,8.83341217041016,10.1645498275757,-17.619800567627,17.5500011444092,26.767951965332,27.7519512176514,4.06095027923584,9.79305076599121,-3.92700028419495,-10.554087638855,-6.86716222763062,-5.54069995880127,-10.2510004043579,-3.89805006980896,-3.58005023002625,-4.2127251625061,-3.25806260108948,-2.46221256256104,-2.02523756027222,-0.39998748898506,0.59950000047684,4.91100025177002,3.15105009078979,-0.36705002188683,-1.5040500164032,-4.30800008773804,-7.08795022964478,2.14747500419617,8.47907447814941,10.4344625473022,18.2740516662598,17.8360500335693,8.73000049591064,7.04206228256226,4.86227512359619,3.60566258430481,5.62746238708496,4.21781253814697,4.59854984283447,-7.0090503692627,19.1899509429932,29.7709522247314,0.55395001173019,4.73205041885376,12.8869504928589,-12.6400995254517,-8.65012454986572,-6.63698768615723,-34.1359519958496,-8.09295082092285,-3.53700017929077,-6.16550016403198,-5.32276248931885,-4.24517488479614,-0.83214998245239,-0.24461250007153,0.34141248464584,10.4869508743286,7.65705013275146,5.77305030822754,5.02605009078979,3.49905014038086,-0.64500004053116,-0.22769999504089,0.31363749504089,3.52866244316101,1.78005003929138,3.94905018806458,7.99500036239624,7.2792501449585,5.86684989929199,4.76574993133545,4.57600021362305,5.17013740539551,5.31011247634888,-0.93495005369186,-1.46895003318787,-0.76005005836487,-1.45395004749298,-1.66200006008148,-1.7650500535965,6.66063737869263,1.92403745651245,-4.75694990158081,1.53600001335144,-8.58195018768311,-18.211950302124,SHAKE
7.62712478637695,14.4940128326416,9.0644121170044,4.20763731002808,3.88726258277893,4.47356224060059,-13.0500001907349,-14.5609502792358,-10.9290008544922,-14.6539506912231,-11.3640003204346,1.78005003929138,10.1659250259399,8.81704998016357,-11.1615619659424,-4.04505014419556,-17.0839500427246,-51.0799522399902,-9.65566253662109,6.08437490463257,6.15587472915649,-12.6308870315552,-20.0660629272461,-16.9841365814209,30.6280517578125,9.55605030059814,1.7940000295639,-5.06505012512207,1.37295007705688,0.15195000171661,4.4032998085022,9.02233791351318,20.6630878448486,9.71205043792725,16.7779502868652,17.4479999542236,1.49393749237061,0.19277499616146,0.34443750977516,-0.70922499895096,0.33893749117851,0.69877499341965,-12.4249505996704,10.3770008087158,32.2060508728027,-2.18204998970032,5.07705020904541,22.6459503173828,10.6000127792358,-20.3873996734619,-16.0099506378174,-52.711051940918,-32.3040008544922,-8.36400032043457,-3.38662505149841,-1.10027503967285,1.6105375289917,-1.34997498989105,-0.78925001621246,-0.06008749827743,5.99595022201538,-3.58995008468628,-7.76595020294189,2.13600015640259,-7.25505018234253,-13.4970006942749,12.4649248123169,16.3939876556396,14.9319496154785,14.7330007553101,11.8500003814697,6.15195035934448,3.34977507591248,-14.6442995071411,-9.79041290283203,1.5885374546051,7.64499998092651,3.18271255493164,16.3870506286621,39.0270004272461,32.9479522705078,9.22095012664795,14.9550008773804,-5.30205011367798,-11.0636625289917,-8.90711212158203,-7.42472505569458,-5.7679500579834,-4.00605010986328,0.06495000422001,SHAKE
5.23696231842041,3.6848623752594,2.01382493972778,0.27362498641014,0.3753750026226,0.2578125,-13.0620002746582,-9.43905067443848,18.6490516662598,-7.29600048065186,-3.24495005607605,5.34195041656494,-23.5155258178711,-18.3100490570068,-14.6242246627808,-42.8650512695313,-27.8170509338379,-8.82600021362305,-4.39876270294189,-3.48933744430542,-2.77117490768433,1.66388750076294,0.80767500400543,0.39737498760223,13.3240509033203,6.06495046615601,0.3829500079155,1.87305009365082,3.54195022583008,-0.10605000704527,-5.65386247634888,-0.3436124920845,13.4099626541138,3.20400023460388,11.9749507904053,15.4540510177612,4.8877124786377,2.74037504196167,2.35936260223389,-0.6377249956131,0.58932501077652,0.66385000944138,-11.1630001068115,6.93195009231567,29.5630512237549,-1.95405006408691,1.09200000762939,11.742000579834,-19.0869255065918,-16.3664875030518,-12.8936500549316,-47.8309516906738,-16.9110012054443,-8.34000015258789,-2.41766238212585,-0.00302499998361,4.28628730773926,0.28751251101494,0.92812502384186,1.93366253376007,-2.37600016593933,-12.9180002212524,-16.651050567627,-0.27795001864433,-10.1790008544922,-11.2780504226685,18.3677997589111,12.3612499237061,10.1395254135132,12.9319505691528,2.73300004005432,-6.03900051116943,0.54573750495911,-8.40688705444336,-5.95044994354248,0.20638750493526,3.62711238861084,2.43196249008179,39.5490036010742,39.1369514465332,28.1479511260986,16.6770000457764,3.46500015258789,-3.59205007553101,-10.7586870193481,-8.68120002746582,-6.9577751159668,-5.425950050354,-3.99900007247925,0.07695000618696,SHAKE
4.59442520141602,3.5129873752594,2.9354875087738,1.08336246013641,1.73951244354248,1.99870002269745,-9.48000049591064,-0.14505000412464,19.5229511260986,-0.20205001533031,-2.19105005264282,3.98505020141602,7.03986263275146,-22.4050750732422,-18.786075592041,-43.9330520629883,-52.9960517883301,-23.6419506072998,-4.97749996185303,-3.59535002708435,-2.62074995040894,1.3171124458313,0.45759999752045,-0.33508750796318,21.5820007324219,10.9800004959106,2.22495007514954,-2.85900020599365,2.83605003356934,2.07705020904541,-7.51382493972778,-3.27758741378784,5.14249992370605,0.72405004501343,16.2580509185791,21.3529510498047,4.93556261062622,2.93122506141663,2.78299999237061,1.08721244335175,1.61810004711151,1.896399974823,-16.2919502258301,9.54600048065186,36.6300010681152,0.33300000429153,4.58295011520386,14.6680507659912,12.3216495513916,-18.1128749847412,-13.817099571228,-58.0999526977539,-9.50295066833496,-3.5350501537323,-3.33327507972717,-1.59802496433258,0.12540000677109,-0.04193750023842,-0.0599500015378,0.39696249365807,5.99100017547607,-6.44895029067993,-11.1300001144409,3.43605017662048,-6.85305023193359,-13.7179508209229,-0.51507496833801,17.4626369476318,12.9349002838135,16.1909999847412,12.8629503250122,-3.45600008964539,3.06776237487793,-11.6689376831055,-8.49818706512451,1.1310750246048,5.35892486572266,3.75306248664856,24.8460006713867,39.8509521484375,30.798002243042,10.8709506988525,6.34305047988892,-3.49905014038086,-14.7551250457764,-8.92526245117188,-3.96412491798401,-5.49105024337769,-2.60805010795593,4.11705017089844,SHAKE
3.22767496109009,3.06900000572205,-8.53682518005371,1.65261244773865,2.45781254768372,2.6536123752594,12.2730007171631,27.6850509643555,31.935001373291,7.12605047225952,10.7530508041382,1.87800014019012,-14.2756624221802,-8.66662502288818,-6.8380126953125,-11.4690008163452,-4.85400009155273,-1.93500006198883,-1.6246999502182,-0.72105002403259,0.66439998149872,-0.30181249976158,-0.05252499878407,0.52016252279282,2.27700018882751,-0.94005006551743,-4.85895013809204,-6.15195035934448,-9.54705047607422,-10.0450506210327,1.99787497520447,9.60025024414062,13.7383127212524,11.1169509887695,14.7280502319336,11.9670009613037,4.91576242446899,3.90431237220764,3.0465874671936,2.45519995689392,2.7644374370575,3.01111245155334,1.00095009803772,14.2920007705688,28.4350509643555,-1.0639500617981,1.58805012702942,8.2900505065918,-17.3838500976563,-13.0257873535156,-9.9655876159668,-38.1850509643555,-10.8610506057739,-5.70600032806396,-2.19958758354187,-1.47056245803833,-0.95342499017715,-2.0732250213623,-1.70939993858337,-1.27764999866486,7.69995021820068,5.5290002822876,3.18495011329651,1.56705009937286,-0.48405003547668,-2.44995021820068,0.19965000450611,12.9223871231079,14.2631502151489,5.8840503692627,15.5680503845215,10.1290502548218,3.7948625087738,3.12798738479614,2.46317505836487,3.63027501106262,3.14861249923706,2.84721255302429,0.03600000217557,8.51205062866211,19.4160003662109,-2.96205019950867,-2.90505003929138,4.87305021286011,-4.42791271209717,-15.1882495880127,-11.8166122436523,-32.4220504760742,-16.9900512695313,-7.4040002822876,SHAKE
4.25026226043701,3.26741242408752,1.03523755073547,3.41797494888306,4.21561241149902,8.34391212463379,5.23395013809204,14.7679510116577,21.7330513000488,3.87000012397766,9.91995048522949,12.3580503463745,-14.4216871261597,-15.0242128372192,-12.4767503738403,-25.7940006256104,-19.6240501403809,-12.2070007324219,-1.64683747291565,-0.65188747644424,0.01333750039339,-0.05719999969006,0.01003750041127,-0.20542499423027,17.248950958252,7.36800050735474,3.98895025253296,1.69605004787445,4.31295013427734,-0.07500000298023,-1.65055000782013,-0.49101248383522,18.0146999359131,2.62500023841858,7.31100034713745,16.1190013885498,2.56533741950989,1.12364995479584,0.77082496881485,-3.42622494697571,0.01787500083447,0.56704998016357,-8.53905010223389,0.85005003213882,22.0969505310059,1.78905010223389,-1.08105003833771,4.2960000038147,-18.7486743927002,-14.9399251937866,-9.0684003829956,-31.441951751709,-12.9630002975464,-4.34895038604736,0.27912500500679,0.91891247034073,0.98601251840591,-0.65230000019073,-1.4190000295639,-1.49751245975494,9.51300048828125,5.94795036315918,5.04000043869019,2.72100019454956,-2.00505018234253,-3.32205009460449,0.27087500691414,1.36001253128052,1.76219999790192,0.13005000352859,0.32400000095367,1.47105002403259,1.75931251049042,0.03382499888539,-2.73308753967285,1.37898755073547,1.29098749160767,1.47675001621246,5.85705041885376,6.16095018386841,7.05405044555664,2.30895018577576,2.56305003166199,-0.1489500105381,1.19927501678467,0.59125000238419,-1.46245002746582,0.56295001506805,-2.36595010757446,-8.13600063323975,SHAKE
0.03382499888539,-2.73308753967285,-1.23873746395111,1.29098749160767,1.47675001621246,0.96442496776581,6.16095018386841,7.05405044555664,9.9460506439209,2.56305003166199,-0.1489500105381,-1.19505000114441,0.59125000238419,-1.46245002746582,-2.12877488136292,-2.36595010757446,-8.13600063323975,-9.62100028991699,-0.46997499465942,0.31790000200272,1.02767503261566,0.47506248950958,0.48826250433922,0.63139998912811,14.4120006561279,8.39895057678223,5.78700017929077,-2.93100023269653,-3.84405016899109,-4.0489501953125,-0.06888750195503,7.20004987716675,13.3167371749878,5.51700019836426,13.8469505310059,12.3649501800537,-0.60527497529984,-0.73645001649857,-0.62589997053146,-0.45636248588562,0.61105000972748,1.16806244850159,-0.34305000305176,6.3400502204895,15.0820503234863,0.48405003547668,-0.25500002503395,1.86795008182526,-12.793137550354,-10.2037372589111,-8.3996000289917,-18.1710014343262,-10.4590501785278,-5.77800035476685,-0.74731248617172,0.22893749177456,0.93692499399185,0.60637497901917,-0.30593749880791,-0.48427498340607,11.8540506362915,8.26800060272217,7.20705032348633,-0.13500000536442,-2.35905003547669,-3.09195017814636,0.60898751020432,1.70953750610352,1.63240003585815,0.6280500292778,0.12495000660419,-0.3649500310421,-0.42171248793602,-2.33131241798401,-2.37696242332459,0.64652502536774,0.66632497310638,0.6434999704361,7.50900030136108,10.0180501937866,13.4470510482788,1.81605005264282,1.65795004367828,2.06505012512207,-1.67131245136261,-2.09027504920959,-2.29198741912842,-9.13005065917969,-9.98205089569092,-9.18000030517578,SHAKE
-0.17998750507832,-0.1522125005722,-4.1383376121521,0.05087500065565,0.41635000705719,6.07213735580444,6.95805025100708,31.2240009307861,34.3540534973145,-2.10300016403198,16.2100505828857,4.78695011138916,-12.0822620391846,-7.43902492523193,-5.65262508392334,-7.00395011901855,-3.14400005340576,-0.30495002865791,2.24413752555847,2.04902505874634,3.90293741226196,-0.81262499094009,-0.01443750038743,-0.19937500357628,0.16500000655651,-1.51905012130737,-3.19305014610291,-4.88505029678345,-5.56005048751831,-4.98600006103516,15.2281246185303,14.1943998336792,12.4592876434326,13.1839504241943,11.7930002212524,6.22605037689209,1.46973752975464,1.30680000782013,0.92908751964569,1.25496244430542,2.01423740386963,2.48778748512268,-1.09995007514954,11.8740005493164,32.9740524291992,1.70505011081696,0.79605001211166,4.83000040054321,-14.0534620285034,-14.2129621505737,-8.63101291656494,-43.2820510864258,-6.40500020980835,-4.65300035476685,-0.15056249499321,0.20322500169277,0.56746250391006,0.3797749876976,-0.04399999976158,-0.87779998779297,0.21300001442432,-7.37805032730103,-10.3200006484985,2.0500500202179,-6.76005029678345,-8.48099994659424,16.1809997558594,14.976224899292,10.3472871780396,15.4129505157471,8.66595077514648,-1.69605004787445,0.43532499670982,0.28036248683929,0.11577499657869,0.01443750038743,0.70345002412796,5.41419982910156,25.2769508361816,33.8509521484375,28.0300521850586,1.59495007991791,7.93305015563965,-4.7839503288269,-13.9646377563477,-8.74940013885498,-7.08812475204468,-4.74600028991699,-1.5900000333786,0.84600001573563,SHAKE
1.98109996318817,0.97198748588562,-0.88632500171661,-0.26207500696182,-1.54591250419617,-2.03816246986389,2.52105021476746,-1.80600011348724,-1.02105009555817,0.85500001907349,2.43795013427734,-0.88395005464554,10.9004497528076,3.82112503051758,-7.52771234512329,-1.37505006790161,-16.8589515686035,-17.191951751709,0.26716250181198,0.57213747501373,0.48592498898506,1.46038746833801,0.65202498435974,0.2261874973774,19.8730506896973,13.1860504150391,6.18495035171509,-4.27500009536743,-0.7140000462532,1.50195002555847,-4.51838731765747,-3.22877502441406,8.04347515106201,0.74100005626678,10.746000289917,18.8250007629395,0.4811125099659,0.32752498984337,0.32326251268387,-1.26073753833771,-0.10876250267029,0.16527499258518,-12.8490009307861,-1.09500002861023,32.0410499572754,-0.99705004692078,-1.34400010108948,12.0079507827759,-19.2508239746094,-14.3097620010376,-8.75380039215088,-41.3359527587891,-9.28995037078857,-3.89595007896423,1.12021243572235,3.57967495918274,5.71422481536865,-0.38486251235008,-0.98339998722076,-2.68207502365112,0.19200000166893,-7.0620002746582,-9.62400054931641,-1.46400010585785,-6.98205041885376,-4.38000011444092,16.8888492584229,15.5698127746582,12.9186744689941,14.7139511108398,4.74195003509521,-2.70600008964539,0.66261249780655,-4.12747478485107,-0.47134998440742,1.81403744220734,6.47900009155273,3.76447486877441,19.7629508972168,30.6160507202148,26.4520511627197,4.11899995803833,2.62695002555847,-4.87995004653931,-10.6000127792358,-7.58766269683838,-3.98461246490479,-4.46595001220703,-2.74905014038086,2.00205016136169,SHAKE
1.48912501335144,0.84081250429153,0.72998750209808,-1.0480250120163,0.94407498836517,1.53862500190735,-8.44095039367676,-3.34605026245117,7.69305038452148,3.5350501537323,0.17805001139641,-4.78005027770996,9.33528709411621,1.94521248340607,-16.0247993469238,-16.123950958252,-36.4489517211914,-38.4790534973145,-2.69156241416931,-1.22897493839264,-0.7233874797821,4.33344984054565,2.7497251033783,0.76450002193451,27.7090511322021,18.1870517730713,0.70200002193451,0.36705002188683,-0.58995002508163,1.52595007419586,-6.90607500076294,-5.49917507171631,21.8409118652344,1.86105012893677,11.2060508728027,26.4150009155273,2.13069987297058,1.33980000019073,1.01502501964569,-1.75271248817444,-1.18745005130768,-0.87628751993179,-9.70800018310547,10.2570009231567,35.0170516967773,0.84300005435944,5.06895017623901,16.0039501190186,13.729100227356,-22.0702629089355,-17.1462497711182,-50.1679534912109,-35.2780532836914,-14.8570508956909,-0.64253747463226,0.23526249825954,1.4690500497818,1.19473743438721,0.49774998426437,0.75996249914169,4.29795026779175,-12.6480007171631,-18.6910514831543,3.36495018005371,-9.6709508895874,-13.3939504623413,3.63357496261597,19.19362449646,16.0704498291016,27.3870010375977,7.90200042724609,-0.6690000295639,1.54618752002716,13.4029502868652,-2.87017488479614,0.35117501020432,-2.54704999923706,4.26621246337891,35.2249526977539,40.1929512023926,22.1310005187988,17.8450508117676,8.43795013427734,-1.52595007419586,-11.8453502655029,-9.50551223754883,-7.18932485580444,-5.40705013275146,-3.01695013046265,1.61700010299683,SHAKE
1.25785005092621,1.85074996948242,2.55461239814758,1.80633747577667,1.48788750171661,1.07071244716644,-0.17295001447201,0.23295001685619,-4.6840500831604,2.72100019454956,3.27600026130676,3.01695013046265,-5.46658754348755,-9.35316276550293,-7.15000009536743,18.1039505004883,7.85595035552979,-3.28305006027222,-2.27658748626709,-1.90657496452332,-1.88072502613068,0.99921250343323,0.95521247386932,1.02684998512268,-15.6670503616333,-14.8980007171631,-16.0860004425049,7.43295049667358,0.83400005102158,3.64500021934509,-1.3278374671936,0.12663750350475,1.16998744010925,-1.14705002307892,-3.70005011558533,-6.60900020599365,0.38637501001358,18.2754001617432,16.1844367980957,2.46015000343323,3.56028747558594,1.37444996833801,19.9020004272461,12.7549505233765,-16.2340507507324,0.10605000704527,-2.81895017623901,4.24305009841919,20.6533241271973,-16.7635879516602,-6.08767509460449,14.0670003890991,7.26300048828125,0.95895004272461,-7.94474983215332,-5.07388734817505,-4.5992374420166,-2.53288745880127,-0.87339997291565,-0.64611250162125,-12.2449502944946,-1.52400004863739,5.99595022201538,-0.12495000660419,2.7610502243042,2.49600005149841,0.32518750429153,1.1837375164032,10.5690746307373,-0.94200003147125,-0.78105002641678,-2.33700013160706,17.6156749725342,13.928337097168,11.618200302124,2.6148374080658,-0.30305001139641,-5.60559988021851,2.65305018424988,-29.7550506591797,-38.6950531005859,-4.73895025253296,5.20800018310547,5.02395009994507,-15.7728996276855,-6.365149974823,-3.19440007209778,8.7450008392334,2.79495024681091,-0.93195003271103,SHAKE
-3.48534989356995,-2.30010008811951,18.0434379577637,-0.08524999767542,-0.01457499992102,2.15847492218018,13.2340507507324,15.7950010299683,11.5530004501343,3.19905018806458,0.13199999928474,-5.29200029373169,8.40468788146973,6.55544996261597,17.8162879943848,1.78200006484985,13.5190505981445,11.8210506439209,-18.0448131561279,-11.0591249465942,-7.12676239013672,-0.82142502069473,-2.22612500190735,-1.77306246757507,-34.8090019226074,-18.9469509124756,-7.02105045318604,7.18605041503906,1.8229501247406,-1.12395000457764,-2.02963757514954,-1.22622501850128,-0.91148751974106,-0.3790500164032,1.24605000019073,-2.62005019187927,-1.31876254081726,21.7280254364014,19.0125370025635,-1.32068753242493,4.89953756332397,3.72446250915527,17.9530506134033,12.0960006713867,-0.27195000648499,-1.84005010128021,-6.64005041122437,-3.77895021438599,9.29431247711182,23.7495498657227,-8.51372528076172,13.2049503326416,10.2340507507324,2.49795007705688,-9.94565010070801,-8.13092517852783,-6.13497495651245,-1.50136244297028,-1.07112503051758,-0.27169999480247,-11.0599508285522,-4.58595037460327,11.5290002822876,-1.7370001077652,-0.25500002503395,-0.18705001473427,0.20968750119209,8.70663738250732,7.26371240615845,-3.73800015449524,-1.18305003643036,6.72600030899048,12.7943744659424,18.9795379638672,-16.7590503692627,-2.44090008735657,1.63377499580383,-3.29821252822876,-39.6000022888184,-38.25,-22.3609504699707,8.03805065155029,9.62295055389404,1.99005007743835,-5.26459980010986,-3.66478753089905,-1.4276624917984,0.29805001616478,-0.12000000476837,-1.25505006313324,SHAKE
18.5978374481201,19.1046619415283,23.5665378570557,2.91816258430481,-0.26331248879433,-7.3523998260498,-5.79300022125244,-17.0989513397217,-28.4479522705078,-3.35700011253357,1.22400009632111,9.12105083465576,-9.57866287231445,-4.10657501220703,-2.65650010108948,10.5240001678467,2.19405007362366,1.73895013332367,-4.29783725738525,-3.58902502059937,-2.75343751907349,-2.69018745422363,-1.98302495479584,-1.49545001983643,-9.01095008850098,-6.53505039215088,-4.00200033187866,3.53895020484924,3.51600027084351,3.1800000667572,0.00756249995902,0.42432498931885,2.88529992103577,-1.16895008087158,-2.44995021820068,-1.86795008182526,19.4612007141113,18.3495121002197,23.1391868591309,5.69841241836548,1.98247504234314,-4.48291254043579,1.97100007534027,-15.2070007324219,-27.9690017700195,-5.25405025482178,2.88600015640259,8.76600074768066,-8.92031288146973,-6.2302622795105,-4.21767520904541,15.5730009078979,7.78200054168701,2.56005001068115,-6.70958757400513,-5.06605005264282,-4.57146263122559,-4.00221252441406,-2.45671248435974,-1.70843744277954,-13.8379507064819,-7.58895015716553,-5.25900030136108,-0.43200001120567,-1.51200008392334,-0.42705002427101,1.3857250213623,1.81678748130798,2.42976260185242,-1.0639500617981,-1.09005010128021,-1.40805006027222,-1.10453748703003,5.01957511901855,10.88587474823,0.62534999847412,1.96996247768402,2.95941257476807,1.7940000295639,3.05100011825562,1.52505004405975,-0.2569500207901,-0.84105002880096,-0.89100003242493,12.1804370880127,24.7755756378174,-16.8440246582031,2.33505010604858,5.28705024719238,10.6699504852295,SHAKE
12.7498245239258,-1.84098744392395,-7.71705007553101,2.03692507743835,-13.8264503479004,-1.43398749828339,-2.17305016517639,-18.4729499816895,-25.2490520477295,1.35600006580353,5.81400012969971,9.32205009460449,-16.8440246582031,-9.88047504425049,-4.76602506637573,10.6699504852295,7.60995054244995,0.09705000370741,-3.22203755378723,-2.94456243515015,-2.79014992713928,-2.02702498435974,-1.63556253910065,-0.40094998478889,-15.2580003738403,-11.5540504455566,-4.44000005722046,-0.45300000905991,-0.69705003499985,1.43700003623962,0.24653749167919,0.76408749818802,3.71277499198914,-0.86700004339218,-1.59495007991791,-1.22400009632111,18.7706756591797,16.8554382324219,15.5232000350952,2.02056241035461,1.47702503204346,0.47451248764992,5.87100028991699,-4.94805002212524,-21.0949516296387,-5.3710503578186,-3.18300008773804,3.98205018043518,8.69577503204346,-26.2197380065918,-14.8475246429443,15.8580007553101,11.1490507125854,0.91095006465912,-11.6117372512817,-7.61612510681152,-5.4777250289917,-4.31447505950928,-3.76859998703003,-2.14431238174438,-20.4529514312744,-12.0640506744385,-7.89000034332275,4.6840500831604,-0.37695002555847,1.74900007247925,-0.1907124966383,0.37578749656677,0.65903747081757,-0.69705003499985,0.15600000321865,0.20205001533031,-0.09844999760389,2.06029987335205,7.1252498626709,-1.24588751792908,-2.82892489433289,1.23268747329712,1.43400001525879,2.84505009651184,4.30005025863647,1.50195002555847,-0.07005000114441,-2.14800000190735,11.7624378204346,7.86843729019165,-19.2863006591797,-0.17505000531673,8.65095043182373,7.95195055007935,SHAKE
12.4767503738403,11.1548252105713,12.5173120498657,5.50742483139038,4.95935010910034,-1.44526255130768,4.30995035171509,0.40005001425743,-19.840051651001,-2.48805022239685,-0.08895000070333,2.97405004501343,28.3740882873535,-22.2216491699219,-11.3042879104614,4.9350004196167,8.79705047607422,4.19099998474121,-8.08087539672852,-5.61852502822876,-4.17229986190796,-4.48181247711182,-3.33189988136292,-1.9406750202179,-20.5579509735107,-13.6080007553101,-6.47295045852661,3.77205014228821,1.08495008945465,2.17905020713806,-1.27091252803802,-0.58079999685287,0.1922249943018,0.12105000764132,-1.23405003547668,-2.47905015945435,17.348237991333,15.75475025177,12.8250370025635,5.44816255569458,4.55248737335205,0.90818750858307,11.2699508666992,5.61705017089844,-20.7430515289307,-7.15500020980835,-3.96600008010864,5.43600034713745,12.6366624832153,20.5561122894287,15.9050378799438,10.618950843811,10.5960006713867,3.37200021743774,15.8434371948242,13.4371871948242,8.80893707275391,1.71214997768402,0.55989998579025,-0.31157499551773,-16.5379505157471,-12.7360506057739,-7.18605041503906,1.9690500497818,-0.47205001115799,1.32195007801056,7.01634979248047,6.7445125579834,5.52612495422363,-0.79095005989075,-0.28305000066757,-2.16705012321472,7.21613740921021,12.4690504074097,15.3262996673584,-1.72920000553131,2.44915008544922,3.83583736419678,7.25505018234253,6.76200008392334,-3.22095012664795,-2.46000003814697,-3.99195027351379,0.40500003099442,13.2313499450684,-21.4209880828857,-9.55679988861084,11.9700002670288,15.3750009536743,7.20300054550171,SHAKE
-7.13487482070923,-4.69713735580444,-3.87681245803833,-1.57231247425079,-5.77939987182617,-5.73099994659424,-29.628002166748,-25.6009521484375,-19.9290008544922,13.4779510498047,8.93100070953369,4.35105037689209,-4.42805004119873,-3.21901249885559,-2.10622501373291,0.11805000901222,-1.19505000114441,-0.83400005102158,-2.86371254920959,-3.0222499370575,-2.65457487106323,-2.33983755111694,-1.61507499217987,-0.34306249022484,-6.41805028915405,-3.87000012397766,-1.52100002765656,1.64805006980896,2.24700021743774,1.54995012283325,0.63827496767044,0.55687499046326,16.4925746917725,-0.19695000350475,-0.76695001125336,-2.14605021476746,16.579475402832,13.9035873413086,13.0150623321533,5.91786241531372,4.64309978485107,2.09481239318848,2.47605013847351,-6.07800006866455,-23.53005027771,-1.4230500459671,2.28495001792908,8.54594993591309,-18.9898490905762,-11.9769372940063,-8.1983003616333,15.8530511856079,8.07705020904541,2.56995010375977,-8.0678129196167,-6.92065000534058,-5.3708872795105,-6.01603746414185,-4.75887489318848,-2.5029125213623,-12.7150506973267,-8.92500019073486,-1.00005006790161,-1.76805007457733,-0.52305001020432,1.65300011634827,-1.00979995727539,5.40347480773926,15.1133127212524,-2.90700006484985,0.05595000088215,0.30000001192093,13.0994873046875,12.0711250305176,14.4545497894287,3.25283741950989,-2.67698740959167,4.31117486953735,-5.71905040740967,-34.2130508422852,-28.5510005950928,-0.11595000326633,11.6299505233765,12.3190507888794,19.0213375091553,12.4574995040894,8.94038772583008,2.63895010948181,-0.4650000333786,-1.15200006961823,SHAKE
1.45612502098084,4.45046234130859,15.0699996948242,-1.0060875415802,4.36837482452393,5.26776266098022,9.98205089569092,10.5139503479004,8.35395050048828,-2.66805005073547,-5.02395009994507,-4.87800025939941,15.4504623413086,13.2591247558594,27.0181999206543,4.88505029678345,15.9660005569458,18.6000003814697,-6.16550016403198,-4.33221244812012,-3.91778755187988,-6.71041250228882,-6.40749979019165,-5.38614988327026,-27.1789512634277,-14.8789510726929,-10.407000541687,11.332950592041,-1.59105002880096,-2.38500022888184,-3.66561245918274,-1.12461245059967,-0.08277499675751,0.19995000958443,-2.23695015907288,-4.55505037307739,12.9610252380371,13.3487749099731,10.96755027771,15.2150621414185,4.81937503814697,3.72391247749329,12.7309503555298,-2.51505017280579,-16.9669513702393,-6.52800035476685,-0.61395001411438,4.96395015716553,29.6124114990234,-21.7258243560791,-14.2077369689941,20.1559505462646,11.5390501022339,4.9549503326416,-9.32717514038086,-6.7138500213623,-6.02153730392456,-7.06145000457764,-4.76630020141602,-3.64113736152649,-17.355001449585,-6.75795030593872,-1.7370001077652,-0.03195000067353,-2.58405017852783,-2.12205004692078,-2.21306252479553,-0.1409374922514,8.77772521972656,-2.88105010986328,-2.56695008277893,-2.64405012130737,-20.8528366088867,-13.6916999816895,-0.32642498612404,-6.43307495117188,-3.24128746986389,10.6235246658325,7.43895053863525,-12.5850009918213,-31.9480514526367,-5.97900009155273,4.82295036315918,11.0740509033203,6.60522508621216,4.40659999847412,3.86347508430481,13.7899503707886,3.21900010108948,0.85995006561279,SHAKE
-3.21145009994507,-4.02820014953613,-6.85396242141724,-2.5443000793457,-1.10013747215271,0.59826248884201,5.63400030136108,12.703950881958,16.2169513702393,-0.54704999923706,-1.0110000371933,-2.20800018310547,15.6507997512817,14.2458248138428,13.4967250823975,-0.00495000043884,2.70600008964539,18.0130500793457,16.2178497314453,16.9081001281738,12.9430122375488,3.82318758964539,2.92269992828369,0.7510250210762,-32.6640014648438,-22.9360504150391,-10.4640007019043,13.9230003356934,5.36400032043457,-2.82600021362305,10.433500289917,9.15543746948242,8.3315372467041,-2.49300003051758,-1.95195007324219,-0.94905006885529,-4.9964747428894,-13.4305877685547,-10.9082870483398,-2.98924994468689,-3.5043249130249,-2.33282494544983,16.1310005187988,4.15395021438599,-10.5889501571655,-4.13100004196167,-5.80695009231567,-0.22305001318455,7.00713729858398,10.2716627120972,6.45851230621338,16.1929512023926,12.5730009078979,0.91500002145767,9.45656204223633,7.86843729019165,6.28911256790161,0.75569999217987,-0.14327499270439,-0.6151750087738,-12.4630508422852,-7.5930004119873,-2.53695011138916,-3.19005012512207,-3.83595013618469,-2.63205003738403,4.46971225738525,6.21568727493286,8.79642486572266,-1.87305009365082,0.84600001573563,-1.0440000295639,-14.7123622894287,-7.12717485427856,1.12997496128082,-1.66911244392395,-2.37118744850159,3.62945008277893,2.17695021629334,-33.9709510803223,-44.7670516967773,-5.52705049514771,2.53905010223389,9.7170000076294,6.70766258239746,4.00001239776611,3.56386256217957,5.79495048522949,-1.66695010662079,-2.64900016784668,SHAKE
-2.65100002288818,-14.4802627563477,-15.5379123687744,-0.70578747987747,-4.71858739852905,-0.5878124833107,13.2550506591797,11.5549507141113,-3.45600008964539,-1.79595005512238,-2.87100005149841,-2.38800001144409,-7.95203733444214,7.87421226501465,5.88761234283447,8.52405071258545,9.50100040435791,2.58705019950867,11.7162370681763,10.0880994796753,6.76884984970093,1.17397499084473,0.04523750022054,-0.9179499745369,-22.5550518035889,-15.0010509490967,-1.9450501203537,5.48805046081543,-0.39105001091957,-3.08895015716553,3.24843740463257,3.87502503395081,0.30428749322891,-2.79495024681091,-0.47895002365112,2.32305002212524,-19.2398242950439,-15.6611127853394,-12.5432996749878,-1.4997124671936,-0.07369999587536,0.57447499036789,7.16895055770874,-5.92200040817261,-27.0850505828857,-5.12400007247925,-2.92200016975403,-0.18495000898838,6.5566873550415,8.43851280212402,7.17296266555786,10.3780508041382,5.22300004959106,2.02395009994507,10.9455499649048,9.51032447814941,6.48958730697632,0.2756874859333,-0.84686249494553,-1.69523751735687,-20.8390502929688,-13.0810508728027,-0.54900002479553,3.63000011444092,-1.66695010662079,-4.61700010299683,4.3846001625061,7.57666254043579,-12.2430000305176,-0.34995001554489,0.56295001506805,0.30000001192093,-15.0970878601074,-11.9194622039795,9.4014253616333,0.25808748602867,1.0978000164032,7.82457494735718,-9.78705024719238,-30.2550010681152,-36.4470024108887,-2.15595006942749,1.72500002384186,14.2680006027222,4.28271245956421,3.54502487182617,3.24059987068176,-0.34305000305176,-2.12700009346008,-2.80395007133484,SHAKE
-13.0303249359131,-20.3299255371094,-13.4784374237061,-2.37861251831055,-1.78103744983673,1.26183748245239,11.4019508361816,6.4549503326416,-17.9080505371094,-2.94105005264282,-3.76905012130737,-0.27600002288818,-1.10660004615784,8.55772495269775,6.59133768081665,8.54400062561035,8.20394992828369,5.30895042419434,10.159049987793,6.39622497558594,5.70047473907471,-0.11137499660254,-1.45598745346069,-1.42848753929138,-17.3260517120361,-6.60195016860962,-2.39505004882813,1.45905005931854,-2.46195006370544,-2.49600005149841,2.78891253471375,4.23059988021851,-18.7349243164063,-1.54995012283325,-1.24995005130768,-1.18305003643036,-18.4131755828857,-11.5970249176025,-4.77234983444214,-0.28215000033379,0.08208750188351,-4.14562511444092,4.0420503616333,-14.8069505691528,-32.0890502929688,-2.99100017547607,-2.15295004844666,2.23200011253357,9.94716262817383,4.71776247024536,3.64718747138977,12.6330003738403,4.74900007247925,1.18605005741119,6.98156261444092,3.63646245002747,0.92400002479553,0.06324999779463,-0.10903749614954,0.342375010252,-6.94905042648315,1.97295010089874,6.96495056152344,-4.12395000457764,-2.82105016708374,-1.18605005741119,10.6310873031616,-13.5915994644165,-10.5874996185303,0.37005001306534,0.44100001454353,6.88005018234253,-10.4431247711182,8.72959995269775,10.6082620620728,0.31171250343323,8.36934947967529,1.61796247959137,-31.3330516815186,-34.183952331543,-17.9130001068115,2.74005007743835,12.8959503173828,3.21405005455017,3.53801250457764,3.16291236877441,3.46335005760193,-0.77205002307892,-2.99295020103455,-2.12700009346008,SHAKE
