gyro_x_0,gyro_y_0,gyro_z_0,acc_x_0,acc_y_0,acc_z_0,gyro_x_1,gyro_y_1,gyro_z_1,acc_x_1,acc_y_1,acc_z_1,gyro_x_2,gyro_y_2,gyro_z_2,acc_x_2,acc_y_2,acc_z_2,gyro_x_3,gyro_y_3,gyro_z_3,acc_x_3,acc_y_3,acc_z_3,gyro_x_4,gyro_y_4,gyro_z_4,acc_x_4,acc_y_4,acc_z_4,gyro_x_5,gyro_y_5,gyro_z_5,acc_x_5,acc_y_5,acc_z_5,gyro_x_6,gyro_y_6,gyro_z_6,acc_x_6,acc_y_6,acc_z_6,gyro_x_7,gyro_y_7,gyro_z_7,acc_x_7,acc_y_7,acc_z_7,gyro_x_8,gyro_y_8,gyro_z_8,acc_x_8,acc_y_8,acc_z_8,gyro_x_9,gyro_y_9,gyro_z_9,acc_x_9,acc_y_9,acc_z_9,gyro_x_10,gyro_y_10,gyro_z_10,acc_x_10,acc_y_10,acc_z_10,gyro_x_11,gyro_y_11,gyro_z_11,acc_x_11,acc_y_11,acc_z_11,gyro_x_12,gyro_y_12,gyro_z_12,acc_x_12,acc_y_12,acc_z_12,gyro_x_13,gyro_y_13,gyro_z_13,acc_x_13,acc_y_13,acc_z_13,gyro_x_14,gyro_y_14,gyro_z_14,acc_x_14,acc_y_14,acc_z_14,motion_type
-0.8347709774971,-0.5723580121994,-0.61115097999573,-0.77954697608948,-1.43148505687714,-3.16942095756531,9.01299953460693,10.66100025177,10.8959999084473,15.6389999389648,17.2080001831055,15.6389999389648,-8.87984943389893,-9.77701377868652,-8.64472961425781,8.9040002822876,7.80600023269653,5.53000020980835,-0.7964980006218,-0.37105199694633,0.12065000087023,-6.31317520141602,-5.78690099716187,-5.00379991531372,4.54099988937378,-3.53800010681152,-12.4820003509521,1.75300002098084,-1.46300005912781,-3.42400002479553,-0.60450899600983,4.64111995697021,0.48310598731041,-23.8110008239746,-26.7919998168945,-5.4520001411438,-7.91224193572998,-5.85697507858276,-4.20301198959351,8.65740203857422,7.11836719512939,5.28682422637939,-9.26599979400635,4.46299982070923,28.1569995880127,3.87100005149841,7.48000001907349,12.4230003356934,0.66848301887512,-0.49781200289726,-1.07407200336456,29.3810005187988,23.6539993286133,16.6709995269775,9.75659847259522,7.75103092193604,5.77871990203857,-7.47802209854126,-5.71503114700317,-3.77678203582764,3.91400003433228,-10.5209999084473,-22.8390007019043,14.5410003662109,17.9930000305176,14.0699996948242,1.04866003990173,3.94503498077393,1.13803195953369,-26.007999420166,-31.0289993286133,-23.3400001525879,-10.6735439300537,-9.19272327423096,-7.84610414505005,10.8450727462769,10.0116147994995,8.880934715271,-18.8369998931885,-8.32400035858154,2.81500005722046,-0.36500000953674,4.10599994659424,7.32299995422363,-1.45305001735687,0.51179397106171,-1.25726699829102,20.3589992523193,29.3810005187988,22.7910003662109,SHAKE
-6.29980993270874,-0.00551200006157,11.4677762985229,7.02997922897339,-8.76755046844482,-11.8885345458984,10.5830001831055,37.4150009155273,38.5130004882813,11.6379995346069,12.0299997329712,9.52000045776367,-0.95119601488113,-1.34187400341034,-1.34739005565643,22.4769992828369,15.1809997558594,7.80600023269653,7.04614400863647,5.28401279449463,2.8477509021759,-4.89416122436523,-3.17490100860596,-0.53353101015091,-9.10900020599365,-20.798999786377,-30.9979991912842,14.8549995422363,11.9519996643066,1.8309999704361,4.8752818107605,1.69898200035095,-0.91929697990417,-33.226001739502,-25.6940002441406,4.35400009155273,-8.02322959899902,-6.73981285095215,-5.45581102371216,8.83969783782959,7.3491587638855,4.29106616973877,-2.28299999237061,-2.28299999237061,32.314998626709,7.95100021362305,7.95100021362305,15.4820003509521,-0.49412301182747,-1.41271901130676,-2.21084094047546,32.1269989013672,27.5769996643066,21.378999710083,10.3199348449707,8.61916637420654,6.9549560546875,-7.22641897201538,-5.67234420776367,-4.23950004577637,12.2299995422363,-0.40000000596046,-12.0120000839233,10.3830003738403,13.9130001068115,13.9919996261597,-0.28965499997139,2.13185596466064,5.67747116088867,-14.0830001831055,-29.8519992828369,-32.9900016784668,-11.8459243774414,-10.5559492111206,-9.01773166656494,10.4337472915649,10.8380403518677,9.74452114105225,-28.173999786377,-18.5240001678467,-8.71700000762939,-5.30700016021729,0.26199999451637,5.59700012207031,-0.44448599219322,-2.47661304473877,-1.10173404216766,12.8269996643066,32.4410018920898,30.5580005645752,SHAKE
8.73053359985352,11.909065246582,11.0185308456421,-12.8254928588867,-10.3502330780029,-8.19755840301514,38.7480010986328,34.5120010375977,23.6849994659424,8.81400012969971,6.22499990463257,6.69500017166138,-3.11462998390198,-2.62846088409424,-1.90342795848846,13.6110000610352,7.72700023651123,-0.195999994874,4.88377285003662,2.188805103302,-7.50823211669922,-2.44659996032715,0.47119799256325,5.85042905807495,-23.3880004882813,-32.2529983520508,-33.5870018005371,10.6180000305176,1.98800003528595,-4.75799989700317,3.20968198776245,1.35405302047729,0.49198600649834,-22.0849990844727,-5.2960000038147,1.05799996852875,-7.20672082901001,-5.90931510925293,-4.65204620361328,8.96993446350098,7.37212896347046,3.13389897346497,-0.55699998140335,14.9759998321533,32.2360000610352,8.3430004119873,12.9720001220703,15.7959995269775,-0.27068901062012,-2.20116400718689,-2.96610903739929,32.7550010681152,28.2830009460449,15.9650001525879,8.06114292144775,6.42749500274658,4.8112587928772,-5.45811176300049,-4.22372913360596,-2.70609593391419,1.87399995326996,-10.128999710083,-20.9559993743896,13.4429998397827,15.2469997406006,12.8929996490479,1.52440702915192,5.88016176223755,4.92839288711548,-20.2810001373291,-29.5380001068115,-27.2630004882813,-10.7854776382446,-9.28729343414307,-7.69995021820068,10.335976600647,10.2599229812622,9.36594676971436,-23.0739994049072,-13.0319995880127,-4.16599988937378,-1.93400001525879,3.32200002670288,7.08799982070923,-0.2821170091629,-0.86277198791504,-1.7435200214386,11.6499996185303,23.2609996795654,29.9300003051758,SHAKE
-6.52542591094971,-5.25212907791138,-2.23093891143799,7.07637786865234,4.73081588745117,-3.76527810096741,4.30600023269653,21.0170001983643,34.4329986572266,10.3830003738403,12.9720001220703,12.1870002746582,-2.89719009399414,-2.81690311431885,-2.51290488243103,27.6550006866455,21.2220001220703,13.7679996490479,6.89720916748047,3.67522811889648,0.40733900666237,-4.00499820709229,-0.9879310131073,1.60216498374939,-2.51900005340576,-27.6240005493164,-35.548999786377,15.0900001525879,6.77400016784668,-1.85500001907349,6.17263078689575,3.04636311531067,1.74131798744202,-28.9109992980957,-18.4759998321533,-3.33400011062622,-9.06459045410156,-7.41618680953979,-5.61772680282593,9.01940822601318,7.89497184753418,5.36986207962036,-4.24499988555908,14.2700004577637,14.2700004577637,6.85200023651123,14.2270002365112,14.2270002365112,-0.65138000249863,-3.55507802963257,-4.62350177764893,31.8920001983643,27.4200000762939,20.9080009460449,9.38225555419922,7.82385683059692,6.23335695266724,-6.75297689437866,-5.24283313751221,-3.87279891967773,12.3090000152588,-0.16500000655651,-11.6979999542236,13.835000038147,15.7180004119873,14.8549995422363,1.52911305427551,5.31598091125488,3.84497809410095,-25.8509998321533,-29.8519992828369,-22.7910003662109,-10.1407518386841,-8.75143909454346,-7.20243787765503,9.384108543396,8.94930171966553,8.28336334228516,-23.2310009002686,-10.2069997787476,-0.55699998140335,0.02700000070035,3.08599996566772,5.0479998588562,0.29640299081802,-0.39338698983192,-3.19856905937195,13.6899995803833,27.8120002746582,26.1639995574951,SHAKE
-5.69742584228516,-3.90578699111938,11.922550201416,7.16383600234985,4.46490001678467,-10.0992946624756,13.0150003433228,30.5890007019043,36.3950004577637,11.4809999465942,17.5219993591309,12.1870002746582,-3.363529920578,-2.9885458946228,-2.50986790657043,20.3589992523193,13.9250001907349,7.41300010681152,6.66291904449463,5.03611421585083,2.72227001190186,-4.09513998031616,-2.61922907829285,-0.20892100036144,-2.20499992370605,-20.4069995880127,-31.3120002746582,12.8929996490479,10.6180000305176,1.28199994564056,5.01741123199463,1.55934000015259,0.87270802259445,-30.0879993438721,-11.4940004348755,1.2150000333786,-8.41128253936768,-6.83822393417358,-4.92454481124878,7.99426412582397,6.53725385665894,3.37042903900146,-2.75399994850159,13.4849996566772,22.8999996185303,10.6969995498657,17.2080001831055,19.3269996643066,-1.54563105106354,-3.0976300239563,-3.67850708961487,33.4609985351563,28.9890003204346,26.0069999694824,10.1444826126099,8.66770362854004,7.20212697982788,-7.03442478179932,-5.87771987915039,-4.81252908706665,16.0750007629395,3.67799997329712,-8.95199966430664,5.51900005340576,9.52000045776367,12.5010004043579,-1.42804002761841,0.56873297691345,6.03505611419678,-9.76799964904785,-23.7329998016357,-31.1079998016357,-11.2537517547607,-10.5730314254761,-8.99967670440674,8.86885643005371,10.0214824676514,9.53929615020752,-30.9979991912842,-22.9169998168945,-12.6389999389648,0.26199999451637,0.10499999672174,2.6159999370575,0.77674597501755,-1.14187502861023,-0.35242700576782,6.78599977493286,28.4400005340576,30.4009990692139,SHAKE
-9.00185012817383,-7.43793201446533,-4.47740507125854,10.4105367660522,8.91238689422607,1.25690698623657,-10.3640003204346,-4.32299995422363,34.3549995422363,4.34200000762939,7.16599988937378,13.5989999771118,-0.47834798693657,-2.46460390090942,-2.87954902648926,30.9500007629395,24.5170001983643,18.3190002441406,7.24413681030273,5.79083108901978,4.22667598724365,-4.57294416427612,-3.29459691047669,-1.68951404094696,0.14800000190735,-12.4820003509521,-23.7800006866455,11.7950000762939,9.75500011444092,5.44000005722046,5.89680194854736,2.35829591751099,0.6908860206604,-30.636999130249,-20.4379997253418,-20.4379997253418,-8.87804126739502,-7.27451801300049,-5.94581079483032,9.89824390411377,8.64857196807861,6.39917707443237,-6.83400011062622,8.85700035095215,26.5879993438721,2.14499998092651,7.40100002288818,9.44099998474121,-2.8865110874176,-1.05877900123596,-2.82861804962158,33.6180000305176,31.3419990539551,25.6149997711182,10.8763828277588,9.25097274780273,7.71860122680664,-8.3902759552002,-6.53274202346802,-5.10048198699951,19.2129993438721,6.65999984741211,-5.34299993515015,3.32200002670288,7.63700008392334,10.7749996185303,-1.0966659784317,0.44568198919296,3.03006291389465,-7.80600023269653,-24.8309993743896,-29.6949996948242,-11.1632041931152,-9.26762962341309,-6.43456888198853,12.6452970504761,11.8227987289429,8.8262996673584,-24.1720008850098,-14.6789999008179,7.36600017547607,-2.24799990653992,-0.83499997854233,6.93100023269653,-2.23120498657227,-4.58098983764648,0.56679898500443,19.5739994049072,33.3819999694824,30.7929992675781,SHAKE
6.21910095214844,4.51110410690308,-12.3705272674561,-3.7247040271759,-1.87249100208282,10.890851020813,-19.1509990692139,-29.8999996185303,-31.6259994506836,10.4610004425049,7.16599988937378,-0.20800000429153,0.06753099709749,-0.8320699930191,-1.56999397277832,-14.4750003814697,1.37199997901917,15.4160003662109,-5.51468706130981,-4.57756280899048,12.3095636367798,6.52032423019409,-3.06848001480103,-14.3816661834717,15.289999961853,35.923999786377,38.6699981689453,7.95100021362305,9.44099998474121,8.26399993896484,-1.13348698616028,-1.61862194538116,-1.632208943367,24.673999786377,18.632999420166,12.6700000762939,7.66293478012085,6.0512638092041,0.09873799979687,-4.36302423477173,-2.98293709754944,1.42163002490997,-2.36199998855591,-16.8759994506836,-35.7840003967285,12.1090002059937,9.91199970245361,-2.79699993133545,4.21787405014038,-0.46141400933266,-1.34214997291565,-35.5009994506836,-13.4549999237061,2.15700006484985,-7.13299179077148,-5.84350299835205,-2.16709494590759,8.78970909118652,6.12216186523438,-9.27379703521728,11.8380002975464,30.9029998779297,37.7280006408691,11.08899974823,11.4809999465942,8.73499965667725,-2.34224009513855,-2.36927509307861,-2.10273504257202,22.7119998931885,16.4360008239746,10.4729995727539,7.60291004180908,5.98884010314941,4.05932188034058,-4.56180191040039,-3.24478697776794,-1.2750289440155,-6.99100017547607,-19.5440006256104,-30.2919998168945,10.539999961853,9.04899978637695,6.46000003814697,6.06347179412842,2.87248396873474,-0.10074699670076,-32.4410018920898,-24.5960006713867,-9.5319995880127,SHAKE
-3.56687903404236,-11.3128795623779,-10.8989028930664,4.94814109802246,9.68387985229492,10.7502174377441,-29.8999996185303,-25.8199996948242,-18.9160003662109,4.81199979782104,1.8309999704361,0.49700000882149,-1.91012096405029,-2.18915390968323,-2.36380195617676,1.2940000295639,11.2580003738403,15.5729999542236,-5.88811016082764,2.33283400535584,12.6461982727051,5.6379919052124,-18.1650829315186,-13.3441848754883,28.3920001983643,36.9440002441406,36.7080001831055,6.06799983978271,6.53800010681152,5.98899984359741,-1.75135397911072,-1.8122650384903,-1.60759603977203,22.5550003051758,16.5930004119873,10.8649997711182,6.76214981079102,5.27107715606689,3.52065992355347,-3.94767999649048,-2.44185590744019,-0.61576998233795,-3.6949999332428,-16.0130004882813,-28.7229995727539,11.7170000076294,8.73499965667725,5.91099977493286,4.89277982711792,-0.06746499985456,-1.72907495498657,-35.4230003356934,-27.9689998626709,5.53000020980835,-7.48968982696533,-6.27993488311768,-5.47924280166626,9.16566753387451,7.29873991012573,4.06497287750244,1.87399995326996,17.0160007476807,17.0160007476807,2.38000011444092,5.20499992370605,5.20499992370605,2.43839907646179,-1.09831595420837,-2.00230288505554,30.3229999542236,25.5370006561279,19.496000289917,10.0329818725586,8.32390403747559,6.78818893432617,-6.94487285614014,-5.14279794692993,-3.59084606170654,14.8979997634888,4.38500022888184,-6.44099998474121,7.87200021743774,9.83399963378906,10.3830003738403,-0.26817399263382,1.55883300304413,5.67617511749268,-9.8459997177124,-25.8509998321533,-33.382999420166,SHAKE
8.94582462310791,7.45555400848389,4.82226514816284,-6.22194814682007,-4.76051712036133,-1.41452395915985,13.25,0.46200001239777,-32.9589996337891,6.61700010299683,11.3240003585815,17.2080001831055,3.79142093658447,6.14216279983521,2.71874094009399,-33.6180000305176,-23.8110008239746,-3.01999998092651,-10.0627059936523,-8.60677146911621,-6.90267086029053,9.30899429321289,8.16217136383057,5.98364400863647,-4.00899982452393,15.289999961853,25.8819999694824,1.51699995994568,5.44000005722046,6.85200023651123,3.04914402961731,-1.57380902767181,-3.76919889450073,31.8920001983643,26.0069999694824,18.7110004425049,8.97528839111328,7.61729001998901,6.28733396530151,-6.71434688568115,-5.00223112106323,-3.74861407279968,15.83899974823,2.97199988365173,-5.10799980163574,5.51900005340576,5.59700012207031,5.75400018692017,1.96936595439911,5.96001720428467,2.91613507270813,-35.0299987792969,-22.4769992828369,2.94099998474121,-10.6857414245605,-9.31645584106445,-7.22067785263062,8.4215259552002,5.5039119720459,0.80058300495148,-2.12599992752075,19.1340007781982,34.826000213623,1.36000001430511,4.10599994659424,5.28299999237061,3.75546407699585,-3.94088888168335,-5.56251907348633,32.7550010681152,26.6350002288818,14.3170003890991,6.69232606887817,5.59807682037354,4.02101802825928,-4.74722909927368,-3.34561109542847,-1.19579899311066,0.22599999606609,-14.2080001831055,-28.173999786377,7.63700008392334,7.63700008392334,9.44099998474121,4.39596891403198,11.7314758300781,11.1851043701172,-31.0289993286133,-30.1660003662109,-7.41400003433228,SHAKE
5.52288913726807,6.2419548034668,5.58333778381348,-2.82224297523499,0.31343999505043,1.27014696598053,10.0329999923706,-14.5220003128052,-21.7399997711182,7.55800008773804,5.0479998588562,5.67500019073486,2.41108989715576,11.782958984375,10.7353200912476,-30.4799995422363,-7.33500003814697,15.6510000228882,-6.88564920425415,-5.25263500213623,-2.16858291625977,2.76165294647217,2.88645911216736,1.54207003116608,2.10899996757507,29.4120006561279,34.7470016479492,0.88999998569489,7.16599988937378,7.24499988555908,-10.3261747360229,-12.579384803772,-11.3428077697754,28.2830009460449,23.6539993286133,21.2220001220703,3.83993005752564,4.65018177032471,4.19797277450562,-2.29703903198242,-0.49708399176598,1.21666705608368,-7.77500009536743,-25.5849990844727,-35.4700012207031,9.75500011444092,11.4809999465942,13.9130001068115,5.66953992843628,11.74720287323,11.9441385269165,-33.6180000305176,-16.5149993896484,5.8439998626709,-6.89855718612671,-6.05209684371948,-4.84300994873047,3.57364296913147,2.1723210811615,2.27940702438354,1.16799998283386,18.2709999084473,33.5699996948242,-1.14900004863739,3.40000009536743,5.44000005722046,-3.65528988838196,-14.3555850982666,-13.7671785354614,29.9300003051758,25.6940002441406,20.0450000762939,1.52423501014709,2.41973805427551,7.31024503707886,-3.43762493133545,-1.99548101425171,3.22265911102295,13.7209997177124,-0.16500000655651,-30.8409996032715,7.55800008773804,10.8540000915527,13.5989999771118,2.47618103027344,10.2057304382324,11.9509286880493,-27.2630004882813,-22.0849990844727,-1.60800004005432,SHAKE
1.52423501014709,2.41973805427551,7.31024503707886,-3.43762493133545,-1.99548101425171,3.22265911102295,13.7209997177124,-0.16500000655651,-30.8409996032715,7.55800008773804,10.8540000915527,13.5989999771118,2.47618103027344,10.2057304382324,11.9509286880493,-27.2630004882813,-22.0849990844727,-1.60800004005432,-6.25801610946655,-5.22527122497559,-2.71080589294434,3.79111504554749,3.36292004585266,0.78247702121735,13.0150003433228,29.4909992218018,37.4150009155273,2.30200004577637,4.89099979400635,5.12599992752075,-15.614275932312,-13.9193115234375,-12.0894107818604,19.9659996032715,16.0440006256104,13.0620002746582,-3.46387004852295,-4.05908584594727,7.16071701049805,-3.782231092453,-2.95723009109497,5.31764221191406,-7.38299989700317,-27.0750007629395,-36.7249984741211,10.3830003738403,13.835000038147,13.28600025177,10.2361917495728,15.8854722976685,14.3768863677979,-32.4410018920898,-12.5129995346069,9.60999965667725,-4.01940011978149,-3.4918360710144,-2.65122008323669,2.59765195846558,1.71290194988251,1.54238605499268,6.58099985122681,22.3509998321533,34.826000213623,1.9099999666214,2.8510000705719,4.89099979400635,-7.4029688835144,-14.7282485961914,-11.9879560470581,26.3999996185303,17.0629997253418,12.8269996643066,-4.75143718719482,-6.71244716644287,21.6607608795166,-2.65034008026123,-2.73322200775146,13.6922912597656,-1.81200003623962,-16.4839992523193,-27.1539993286133,13.835000038147,15.4820003509521,12.7360000610352,8.45802021026611,14.6814804077148,15.0167789459229,-27.8120002746582,-27.8120002746582,-21.4570007324219,SHAKE
-6.37013816833496,-5.47323179244995,-3.94473791122436,-4.37527990341187,-3.7685980796814,-1.94661295413971,5.2480001449585,-5.7350001335144,-20.1709995269775,5.67500019073486,11.4029998779297,14.4619998931885,-3.73014497756958,12.8569736480713,17.8888187408447,-22.5559997558594,-27.8910007476807,-14.6319999694824,0.70438599586487,0.00392499985173,0.23250000178814,3.20010709762573,2.36373710632324,2.40252709388733,-7.85400009155273,7.83699989318848,23.9990005493164,4.5770001411438,7.63700008392334,6.06799983978271,6.95300817489624,-2.16888093948364,-16.2918682098389,25.5370006561279,25.2229995727539,21.92799949646,-0.59915602207184,-0.51056402921677,1.41474902629852,-5.59000301361084,-4.49274682998657,-1.88000094890594,5.9539999961853,-9.26599979400635,-27.5459995269775,8.9709997177124,15.168999671936,19.5620002746582,-0.4965940117836,10.0179891586304,13.7302198410034,-27.4990005493164,-27.9689998626709,-12.1999998092651,-4.44231081008911,-4.37378978729248,-3.83945202827454,5.31639385223389,4.12848281860352,3.42824506759644,-6.67700004577637,9.64099979400635,25.0189990997314,1.28199994564056,2.45900011062622,0.49700000882149,6.53122520446777,-11.1726942062378,-16.726526260376,24.5949993133545,24.1240005493164,21.6919994354248,-3.05527091026306,-1.97403001785278,0.26200699806213,-5.76546001434326,-3.92710590362549,-1.69722294807434,14.6619997024536,3.75699996948242,-8.40299987792969,5.44000005722046,11.7170000076294,17.0520000457764,-3.96325707435608,2.42906308174133,9.79745864868164,-5.9229998588562,-5.9229998588562,-26.4790000915527,SHAKE
-1.97403001785278,0.26200699806213,5.72407293319702,-3.92710590362549,-1.69722294807434,2.88257598876953,3.75699996948242,-8.40299987792969,-22.6030006408691,11.7170000076294,17.0520000457764,18.2280006408691,2.42906308174133,9.79745864868164,12.3672676086426,-5.9229998588562,-26.4790000915527,-26.4790000915527,-4.33353710174561,-4.59725713729858,-3.77667498588562,7.50192499160767,7.16866397857666,8.98271942138672,-5.81400012969971,6.11100006103516,19.9190006256104,1.8309999704361,5.59700012207031,5.20499992370605,0.78774702548981,-12.4372930526733,-10.7385787963867,23.2609996795654,20.7509994506836,16.3570003509521,4.80842113494873,4.0040922164917,3.80324292182922,-7.51934480667114,-6.09877109527588,-1.17693603038788,9.48400020599365,-1.34200000762939,-30.056999206543,4.73400020599365,8.73499965667725,12.8929996490479,5.3067798614502,9.41806411743164,4.68907690048218,-30.5580005645752,-18.632999420166,8.98200035095215,-6.88973903656006,-4.8433837890625,-0.32151699066162,8.60884380340576,7.045973777771,-0.66198402643204,7.36600017547607,30.431999206543,35.6889991760254,6.30299997329712,4.26300001144409,-0.20800000429153,-6.17666292190552,-7.52815580368042,-7.01410913467407,22.0060005187988,17.298999786377,11.96399974823,5.70568704605103,4.69742679595947,4.24369192123413,-6.54440593719482,-4.98039293289185,-2.31708908081055,2.89400005340576,-10.4429998397827,-23.7800006866455,9.04899978637695,13.9130001068115,14.8549995422363,1.82640898227692,8.13036346435547,6.35488176345825,-27.5769996643066,-27.2630004882813,-9.2180004119873,SHAKE
5.70568704605103,4.69742679595947,4.24369192123413,-6.54440593719482,-4.98039293289185,-2.31708908081055,2.89400005340576,-10.4429998397827,-23.7800006866455,9.04899978637695,13.9130001068115,14.8549995422363,1.82640898227692,8.13036346435547,6.35488176345825,-27.5769996643066,-27.2630004882813,-9.2180004119873,-9.30723762512207,-8.08329391479492,-6.29331302642822,9.28357601165772,7.70317792892456,6.95119190216064,-7.38299989700317,5.48299980163574,19.4479999542236,4.89099979400635,6.14599990844727,4.49900007247925,0.82748001813889,-1.98129594326019,-7.24982690811157,24.988000869751,25.6149997711182,18.1620006561279,6.22066116333008,5.07014894485474,4.16337203979492,-7.96428823471069,-6.62939977645874,-5.07014513015747,12.3870000839233,3.20799994468689,-9.6579999923706,3.16499996185303,8.10799980163574,12.5799999237061,2.25754404067993,10.4202995300293,8.19034481048584,-31.9710006713867,-27.0279998779297,-9.8459997177124,-9.26666259765625,-7.88119506835938,-5.9712381362915,9.94951152801514,8.53305053710938,8.40689945220947,-9.02999973297119,-2.44000005722046,20.076000213623,6.46000003814697,7.00899982452393,5.67500019073486,-0.8682450056076,-6.89888000488281,-7.43506002426147,24.9090003967285,20.9080009460449,18.8680000305176,6.71704912185669,5.52265882492065,4.58091020584106,-7.85270595550537,-6.55929088592529,-5.06762599945068,10.8959999084473,0.46200001239777,-5.89200019836426,3.00799989700317,8.26399993896484,10.9320001602173,2.81404805183411,9.45490169525146,6.67394876480103,-29.1459999084473,-20.7509994506836,-5.76599979400635,SHAKE
4.28263807296753,3.64114189147949,-3.83128595352173,-4.62400388717651,-2.73386406898499,7.32711315155029,-7.22599983215332,-22.996000289917,-31.3899993896484,10.539999961853,14.3059997558594,8.57800006866455,9.13794994354248,6.50381183624268,4.69005393981934,-13.7690000534058,0.58799999952316,11.7279996871948,-6.46949291229248,-4.76656007766724,0.3060399889946,8.04007244110107,5.90913391113281,-4.01676797866821,15.0550003051758,28.0779991149902,34.0410003662109,6.61700010299683,3.40000009536743,-1.22800004482269,-7.64116716384888,-7.95940399169922,-7.28660011291504,22.8689994812012,18.632999420166,18.632999420166,4.90485715866089,3.87822508811951,3.33192801475525,-6.21245288848877,-5.07415103912354,-3.2476110458374,4.85500001907349,-6.36299991607666,-6.36299991607666,5.44000005722046,9.67700004577637,9.67700004577637,9.82511901855469,9.71086978912354,6.77552509307861,-29.2250003814697,-14.7889995574951,1.2940000295639,-8.11023616790771,-6.53244686126709,-5.01653814315796,8.88658618927002,8.60586452484131,6.29655408859253,-0.55699998140335,13.25,27.136999130249,4.10599994659424,5.12599992752075,3.32200002670288,0.86131101846695,-6.34901714324951,-7.88656520843506,27.8120002746582,24.9090003967285,24.9090003967285,5.46436595916748,4.44130516052246,3.87853288650513,-6.40212678909302,-5.0062780380249,-3.01122903823853,4.38500022888184,-7.53999996185303,-21.8969993591309,7.63700008392334,13.6780004501343,15.7180004119873,0.3605700135231,8.9194917678833,9.59248733520508,-27.3419990539551,-28.9890003204346,-15.1029996871948,SHAKE
3.87853288650513,3.86958694458008,-1.74263596534729,-3.01122903823853,0.68421798944473,6.4767689704895,-21.8969993591309,-31.0769996643066,-31.5470008850098,15.7180004119873,13.0500001907349,10.1470003128052,9.59248733520508,6.84212779998779,4.94502210617065,-15.1029996871948,0.19499999284744,7.64900016784668,-4.91612577438354,-2.35383796691895,9.01676654815674,7.79301977157593,-1.0125470161438,-10.3015813827515,25.6459999084473,35.2960014343262,35.6889991760254,2.92899990081787,-0.12899999320507,-1.93400001525879,-7.88203811645508,-7.40608215332031,-6.29044198989868,21.8490009307861,17.9260005950928,13.2189998626709,4.87707996368408,4.09785079956055,3.55733108520508,-4.98288679122925,-3.18775296211243,-0.24967899918556,-5.18599987030029,-18.2880001068115,-30.1350002288818,12.4230003356934,15.7959995269775,15.0120000839233,6.58707284927368,9.80126762390137,7.13606405258179,-31.0289993286133,-23.261999130249,-6.47200012207031,-8.10632228851318,-6.8562707901001,-5.48387813568115,9.48542594909668,9.46230030059814,8.85880279541016,-8.32400035858154,2.65899991989136,10.2690000534058,3.00799989700317,3.24300003051758,4.34200000762939,-0.0292329993099,-3.13204789161682,-7.8661208152771,28.2830009460449,27.8899993896484,23.9680004119873,8.23041439056396,6.91980504989624,5.67273187637329,-8.62371921539307,-7.25841093063354,-5.92916011810303,23.2919998168945,12.6219997406006,1.08899998664856,-3.42400002479553,1.28199994564056,7.55800008773804,-4.52579689025879,-2.62778091430664,9.91935539245606,1.76499998569489,-16.5930004119873,-25.9290008544922,SHAKE
-6.8562707901001,-5.48387813568115,-4.32812976837158,9.46230030059814,8.85880279541016,5.09752893447876,2.65899991989136,10.2690000534058,31.9230003356934,3.24300003051758,4.34200000762939,3.00799989700317,-3.13204789161682,-7.8661208152771,-8.01151943206787,27.8899993896484,23.9680004119873,18.632999420166,6.91980504989624,5.67273187637329,4.75475406646729,-7.25841093063354,-5.92916011810303,-4.52836084365845,12.6219997406006,1.08899998664856,-12.9530000686646,1.28199994564056,7.55800008773804,13.9919996261597,-2.62778091430664,9.91935539245606,7.45241785049438,-16.5930004119873,-25.9290008544922,-11.1009998321533,-9.01104259490967,-7.7477822303772,-6.24630689620972,10.3148393630981,9.17178058624268,8.60025501251221,-12.5609998703003,0.07000000029802,16.2310009002686,4.26300001144409,4.10599994659424,5.20499992370605,0.31265199184418,-5.69107723236084,-6.79688310623169,29.6159992218018,24.8309993743896,20.5939998626709,7.27449321746826,5.89844512939453,4.74499177932739,-7.5166540145874,-6.05636215209961,-4.60116291046143,11.5240001678467,-0.55699998140335,-15.621000289917,4.18499994277954,10.2259998321533,14.9329996109009,-2.20297908782959,2.37221503257751,9.24688339233398,-9.61100006103516,-31.2639999389648,-21.92799949646,-9.62890815734863,-8.8694019317627,-7.63888597488403,10.480658531189,10.11305809021,9.19072818756104,-17.5820007324219,-12.4820003509521,-3.38199996948242,3.63599991798401,3.32200002670288,2.30200004577637,0.20217800140381,0.10173700004816,-5.76330709457397,22.0060005187988,26.3209991455078,23.5750007629395,SHAKE
4.42839479446411,3.38137102127075,-5.13871908187866,-2.29250693321228,0.63699698448181,6.67148780822754,-18.6019992828369,-26.7609996795654,-28.4090003967285,15.5609998703003,11.3240003585815,4.81199979782104,7.2781081199646,4.30071115493774,2.52518200874329,-26.7919998168945,-8.04100036621094,-8.04100036621094,-5.44818592071533,-4.36664819717407,2.63672804832459,7.74867677688599,4.55064582824707,-7.82448196411133,11.2889995574951,24.5480003356934,32.943000793457,7.16599988937378,6.53800010681152,2.06599998474121,-5.94420909881592,-6.5101900100708,-5.60814523696899,23.6539993286133,17.4559993743896,13.5329999923706,5.79113101959229,4.66464185714722,3.86389303207397,-5.38576078414917,-4.12900876998901,-1.69872105121613,-3.38199996948242,-16.8759994506836,-26.8400001525879,9.44099998474121,13.5209999084473,12.7360000610352,5.59777116775513,10.0825061798096,6.47734308242798,-30.4009990692139,-30.4009990692139,-7.64900016784668,-8.93826484680176,-7.36018800735474,-5.91224002838135,10.2315864562988,9.79154968261719,8.8923454284668,-10.128999710083,-0.32199999690056,11.8380002975464,3.71399998664856,3.55699992179871,6.14599990844727,-0.08715800195932,-0.3286620080471,-5.23836803436279,23.4969997406006,26.3999996185303,24.0459995269775,8.20522880554199,6.79811382293701,5.57087278366089,-7.30251312255859,-6.01070976257324,-4.79619216918945,16.7019996643066,5.56099987030029,-5.81400012969971,1.8309999704361,5.98899984359741,10.6969995498657,-2.60555601119995,0.04733199998736,6.6390118598938,-4.27600002288818,-20.0450000762939,-27.6550006866455,SHAKE
-4.79961681365967,2.17707300186157,10.2053375244141,5.64601182937622,-7.29285287857056,-9.83382511138916,26.0380001068115,31.3729991912842,34.0410003662109,6.85200023651123,5.44000005722046,-0.75700002908707,-6.16322708129883,-5.26564884185791,-4.07026386260986,17.3770008087158,12.6700000762939,6.62900018692017,4.50573492050171,3.67059397697449,0.04134099930525,-3.4057788848877,-0.87707197666168,3.54510998725891,-18.2880001068115,-26.7609996795654,-30.3700008392334,13.28600025177,9.99100017547607,5.91099977493286,9.90443515777588,6.43181085586548,4.01648283004761,-21.3010005950928,-15.0240001678467,2.07800006866455,-7.37791299819946,-5.95334005355835,-4.69385004043579,9.73740100860596,8.73539066314697,5.30847787857056,-1.73399996757507,11.210000038147,26.3519992828369,4.34200000762939,7.95100021362305,9.1269998550415,-0.81750500202179,-5.76947021484375,-6.98104000091553,26.9489994049072,23.4969997406006,20.2019996643066,8.24014759063721,6.86159992218018,5.65316104888916,-7.29147577285767,-6.05666494369507,-4.87862920761108,17.4869995117188,6.42399978637695,-5.4210000038147,1.8309999704361,6.85200023651123,12.8149995803833,-3.09608101844788,-0.41906601190567,6.46056890487671,-6.39400005340576,-21.7709999084473,-27.5769996643066,-8.85356616973877,-9.75777053833008,-8.66652965545654,8.90916442871094,9.82403564453125,9.36668682098389,-24.9570007324219,-16.9540004730225,-7.77500009536743,5.20499992370605,4.65500020980835,3.55699992179871,2.24809598922729,0.69425702095032,0.02673099935055,8.66899967193604,15.6510000228882,20.6720008850098,SHAKE
-7.05553722381592,-5.4832878112793,-3.50157690048218,8.35100936889648,7.41884613037109,1.98693299293518,5.71799993515015,19.2910003662109,25.7250003814697,4.5770001411438,5.59700012207031,4.9689998626709,-6.54604721069336,-6.68106698989868,-6.01034879684448,20.5939998626709,17.7700004577637,14.16100025177,5.65600776672363,4.55350303649902,3.67426896095276,-6.03003311157227,-4.72778081893921,-2.65371704101563,1.40299999713898,-10.6000003814697,-16.7980003356934,7.71500015258789,13.9919996261597,15.168999671936,1.85739994049072,9.12495613098144,7.13034200668335,-26.3999996185303,-25.7730007171631,-14.710000038147,-8.19562244415283,-6.19281911849976,-5.35475206375122,9.50740623474121,8.21260166168213,5.48727607727051,-7.14699983596802,2.97199988365173,15.6040000915527,3.94899988174438,5.0479998588562,7.55800008773804,-3.49619197845459,-6.09025621414185,-6.45012903213501,27.1840000152588,23.7320003509521,20.2800006866455,7.36815309524536,6.13524580001831,5.01918077468872,-6.45350790023804,-5.2105188369751,-4.04030084609985,14.5839996337891,4.14900016784668,-6.59800004959106,4.18499994277954,8.3430004119873,12.8929996490479,-2.19216108322144,0.92861598730087,7.17408514022827,-5.37400007247925,-18.7900009155273,-24.3600006103516,-8.02633094787598,-9.42663860321045,-8.48789215087891,8.19706535339355,9.70388031005859,9.75844764709473,-24.3290004730225,-19.3080005645752,-12.4820003509521,4.9689998626709,4.65500020980835,4.34200000762939,1.71373498439789,0.39972698688507,-0.41804999113083,7.02099990844727,12.7480001449585,19.3390007019043,SHAKE
9.54541397094727,8.60774326324463,7.36815309524536,-8.99074363708496,-7.71476078033447,-6.45350790023804,32.3930015563965,24.7830009460449,14.5839996337891,-0.67900002002716,0.65399998426437,4.18499994277954,-4.97448110580444,-3.77516794204712,-2.19216108322144,11.414999961853,5.29500007629395,-5.37400007247925,3.43832206726074,-0.65799498558044,-8.02633094787598,0.75851899385452,5.03775787353516,8.19706535339355,-24.2509994506836,-26.7609996795654,-24.3290004730225,10.6969995498657,6.53800010681152,4.9689998626709,6.43796396255493,4.09276580810547,1.71373498439789,-11.1009998321533,-1.05900001525879,7.02099990844727,-5.71871614456177,-4.57449388504028,-1.02112996578217,8.8691234588623,5.90856218338013,-2.51593708992004,6.34600019454956,19.1340007781982,29.9610004425049,7.71500015258789,8.0290002822876,5.20499992370605,-4.56240320205688,-6.42704296112061,-6.40855312347412,24.988000869751,21.0650005340576,18.0830001831055,7.38152503967285,6.20455408096313,5.05710887908936,-6.55197715759277,-5.49454784393311,-4.40266704559326,13.25,3.12899994850159,-8.01000022888184,2.77300000190735,7.00899982452393,11.08899974823,-1.93663001060486,8.84342861175537,9.30207443237305,1.2150000333786,-28.2049999237061,-19.181999206543,-9.67798519134522,-8.48500061035156,-5.75784397125244,10.0959453582764,9.68142795562744,7.99441480636597,-19.3080005645752,-10.9130001068115,10.9750003814697,4.18499994277954,3.24300003051758,6.06799983978271,-0.34079900383949,-1.32047498226166,-5.78388690948486,22.0849990844727,26.3209991455078,24.8309993743896,SHAKE
2.16086411476135,10.1282615661621,9.89047241210938,-8.14600276947021,-9.27095794677734,-7.78401613235474,33.2560005187988,34.9819984436035,29.882999420166,8.10799980163574,4.89099979400635,2.14499998092651,-4.94376611709595,-3.95659399032593,-2.69446110725403,12.6700000762939,8.04100036621094,2.07800006866455,4.65875577926636,2.75170803070068,-4.85904598236084,-0.59758198261261,2.51832699775696,6.05148792266846,-20.3279991149902,-26.2910003662109,-27.1539993286133,12.3439998626709,7.48000001907349,2.69400000572205,7.56081819534302,4.14453601837158,1.29998099803925,-16.9850006103516,-4.27600002288818,8.35499954223633,-7.06374406814575,-5.99292802810669,-4.55816411972046,10.1685695648193,7.57509422302246,-2.09220194816589,3.05100011825562,18.9769992828369,31.9230003356934,9.1269998550415,9.28400039672852,5.91099977493286,-2.81955194473267,-5.52527093887329,-5.88694477081299,31.1070003509521,24.988000869751,19.6529998779297,7.4918270111084,6.46129512786865,5.44188976287842,-6.67733001708984,-5.53238010406494,-4.36370992660522,13.7209997177124,8.77799987792969,-6.67700004577637,2.45900011062622,4.81199979782104,12.3439998626709,1.41285705566406,8.06029319763184,10.8683948516846,-10.3170003890991,-27.0279998779297,-21.92799949646,-9.33609867095947,-6.76009607315063,-5.73603487014771,9.50936031341553,12.4832458496094,11.0621433258057,-19.7000007629395,1.71700000762939,13.8780002593994,-0.20800000429153,4.5770001411438,5.51900005340576,-2.1275041103363,-0.85031998157501,-6.0451021194458,23.5750007629395,27.4979991912842,24.9090003967285,SHAKE
-5.81832599639893,4.5422477722168,10.1282720565796,6.11307001113892,-12.1910104751587,-9.88675022125244,27.136999130249,35.4529991149902,35.5320014953613,5.98899984359741,5.59700012207031,3.16499996185303,-6.56729602813721,-6.193678855896,-5.37776184082031,20.8290004730225,16.9850006103516,13.1409997940063,5.46778011322021,4.62993097305298,1.85337698459625,-1.91042804718018,-0.09470900148153,2.35600304603577,-13.8159999847412,-26.5259990692139,-33.4300003051758,11.5600004196167,11.0100002288818,6.85200023651123,10.7175235748291,8.29183769226074,4.29632520675659,-27.1849994659424,-11.6499996185303,5.76599979400635,-8.2946252822876,-6.6756157875061,-6.13273620605469,12.1439380645752,11.4543285369873,7.80142021179199,-7.53999996185303,10.1120004653931,23.4489994049072,1.75300002098084,6.46000003814697,8.57800006866455,-5.14308404922485,-6.56109523773193,-6.43048620223999,28.4400005340576,24.5170001983643,19.5739994049072,6.96292209625244,6.05237197875977,5.1673059463501,-5.1885871887207,-3.97621202468872,-2.79520392417908,10.66100025177,0.93300002813339,-8.5600004196167,5.36199998855591,9.59799957275391,13.28600025177,-1.07220602035522,2.77053499221802,10.9512624740601,-3.56900000572205,-18.632999420166,-22.242000579834,-9.07230854034424,-8.2510347366333,-6.29273796081543,9.02820014953613,9.68897914886475,12.34814453125,-18.1310005187988,-6.91200017929077,5.01200008392334,0.96799999475479,4.18499994277954,7.32299995422363,-1.06762504577637,-3.37737202644348,-6.86903715133667,25.8509998321533,27.4200000762939,22.4769992828369,SHAKE
-2.94145488739014,8.80630302429199,8.96560192108154,-0.64369297027588,-9.28499889373779,-7.06999206542969,32.8639984130859,36.1590003967285,23.2140007019043,7.48000001907349,6.14599990844727,0.65399998426437,-5.71307802200317,-4.89815998077393,-3.57606506347656,13.3760004043579,9.5319995880127,5.76599979400635,4.55822515487671,3.25958704948425,-2.20928502082825,-1.84117805957794,0.95706897974014,4.50396203994751,-18.2099990844727,-26.2910003662109,-29.3509998321533,14.1490001678467,11.0100002288818,4.89099979400635,8.4784984588623,4.54738521575928,1.71692097187042,-22.8700008392334,-15.8870000839233,5.68699979782104,-7.56216716766357,-6.22780179977417,-5.31726503372192,10.8304862976074,9.13002777099609,4.64147186279297,0.77600002288818,7.28700017929077,28.4710006713867,7.08799982070923,8.42099952697754,9.91199970245361,-0.04839500039816,-3.99667811393738,-4.81523084640503,28.6749992370605,24.9090003967285,20.1229991912842,8.59900283813477,7.31952381134033,6.20269680023193,-6.57586812973022,-5.45481491088867,-4.41115093231201,16.4669990539551,6.73799991607666,-3.06800007820129,0.96799999475479,4.34200000762939,9.44099998474121,-2.15836000442505,0.13228400051594,5.38564205169678,-0.35299998521805,-13.3760004043579,-27.9689998626709,-8.89313888549805,-11.0920915603638,-9.60067176818848,7.17101001739502,10.905740737915,11.5127487182617,-28.0949993133545,-21.4260005950928,-11.3839998245239,1.98800003528595,1.75300002098084,5.0479998588562,0.12342099845409,-0.690505027771,-0.50808298587799,14.2390003204346,19.3390007019043,27.4979991912842,SHAKE
4.6846227645874,10.5447816848755,9.85101318359375,-10.5786838531494,-9.7325382232666,-7.95897579193115,36.3950004577637,34.3549995422363,26.4309997558594,7.87200021743774,3.16499996185303,0.02700000070035,-4.82634592056274,-4.40086317062378,-3.45720911026001,15.6510000228882,11.7279996871948,7.02099990844727,5.16549015045166,4.19475889205933,1.12669098377228,-3.1639358997345,-1.19074201583862,1.98767900466919,-14.5220003128052,-24.0939998626709,-29.5860004425049,12.1090002059937,9.67700004577637,5.44000005722046,10.3619594573975,5.60702180862427,2.21743297576904,-26.1650009155273,-11.2580003738403,5.13800001144409,-7.71077013015747,-6.15840911865234,-4.73917484283447,10.7783899307251,8.98061466217041,4.56943321228027,1.08899998664856,16.2310009002686,30.9810009002686,8.6569995880127,10.2259998321533,8.9709997177124,0.24261699616909,-4.13950109481812,-5.19454908370972,28.8320007324219,24.8309993743896,20.0450000762939,8.1711254119873,6.12225008010864,4.43540811538696,-6.96786403656006,-5.48576211929321,-3.52088809013367,14.5050001144409,3.12899994850159,-23.5450000762939,2.8510000705719,7.40100002288818,12.2659997940063,0.63862001895905,8.59220409393311,7.80558919906616,-26.7919998168945,-28.1259994506836,-15.2589998245239,-10.5496501922607,-9.01877021789551,-7.27433919906616,10.6496133804321,10.1702241897583,9.72642230987549,-21.1909999847412,-4.55800008773804,8.38599967956543,2.06599998474121,2.8510000705719,6.06799983978271,-0.60144001245499,-3.49917602539063,-5.71187305450439,25.2229995727539,27.7329998016357,23.3400001525879,SHAKE
3.82255792617798,-1.12749898433685,-8.38466835021973,0.95260500907898,5.77292203903198,8.54529094696045,-29.9780006408691,-31.0769996643066,-25.2709999084473,12.2659997940063,8.3430004119873,5.28299999237061,6.93384313583374,4.78844499588013,2.73369789123535,-9.8459997177124,6.55000019073486,12.9840002059937,-5.55491876602173,-3.8895308971405,6.05399799346924,7.19354820251465,1.73415195941925,-8.61142158508301,16.3099994659424,27.451000213623,32.943000793457,7.48000001907349,7.16599988937378,2.6159999370575,-7.46892023086548,-7.87584018707275,-7.2852258682251,24.2029991149902,20.2019996643066,16.9850006103516,3.85168600082397,3.0501229763031,2.83987092971802,-5.00175380706787,-3.83190393447876,-1.26040697097778,-5.89200019836426,-21.1909999847412,-31.4689998626709,8.5,12.5010004043579,11.1669998168945,8.47825622558594,12.3044538497925,9.34294605255127,-33.0690002441406,-20.9869995117188,-5.76599979400635,-7.66054010391235,-6.29492998123169,-4.94733095169067,9.07730102539062,9.34186935424805,8.62967586517334,-8.71700000762939,3.05100011825562,16.4669990539551,3.32200002670288,5.12599992752075,7.63700008392334,1.04047799110413,-3.09475803375244,-7.9786491394043,25.4580001831055,27.2630004882813,24.9090003967285,7.96799612045288,6.54207611083984,5.29962205886841,-7.14656686782837,-5.89198684692383,-4.74106502532959,27.8430004119873,14.1129999160767,4.85500001907349,3.40000009536743,6.30299997329712,8.73499965667725,-5.25168323516846,-3.32097506523132,0.21934199333191,7.49200010299683,0.1169999986887,-6.70800018310547,SHAKE
3.78913593292236,1.12206196784973,-6.19683790206909,0.48859000205994,4.58365106582642,7.58031177520752,-25.0349998474121,-30.056999206543,-28.4090003967285,12.2659997940063,9.36299991607666,6.14599990844727,9.35429954528809,7.01115322113037,4.4429612159729,-18.0049991607666,-5.68800020217896,10.7869997024536,-5.49222898483276,-4.43863916397095,2.796147108078,8.1905632019043,5.78467512130737,-6.34787607192993,6.50299978256226,18.1140003204346,28.4710006713867,6.85200023651123,8.0290002822876,6.85200023651123,-8.82408046722412,-8.2994556427002,-7.30712509155273,23.1830005645752,19.181999206543,15.4160003662109,4.68402194976807,3.35489106178284,3.32329702377319,-4.38049793243408,-1.68035101890564,1.61798095703125,3.83500003814697,-21.3479995727539,-30.8409996032715,8.6569995880127,14.6979999542236,11.0100002288818,9.19862461090088,11.3602542877197,8.99377536773682,-30.4009990692139,-20.3589992523193,-6.55100011825562,-7.858726978302,-6.70036792755127,-5.37615823745728,8.04056167602539,8.81695461273193,8.09472179412842,-20.4850006103516,1.32500004768372,1.32500004768372,2.45900011062622,7.48000001907349,7.48000001907349,0.52172297239304,-3.12432289123535,-8.15530967712402,25.2229995727539,27.1840000152588,25.3010005950928,7.54925298690796,6.28030920028687,5.02047681808472,-7.50013399124146,-6.5694899559021,-5.77267408370972,25.568000793457,16.3099994659424,6.26800012588501,-3.26799988746643,-0.28600001335144,4.73400020599365,-6.24277591705322,-4.59196186065674,-1.53148996829987,7.25600004196167,-2.62800002098084,-20.5160007476807,SHAKE
3.05539989471436,1.86550498008728,-6.29637098312378,-1.09447503089905,4.37956285476685,8.11700820922852,-28.8799991607666,-32.8030014038086,-29.1149997711182,13.5989999771118,9.52000045776367,6.77400016784668,8.12881088256836,5.40818309783936,2.78135108947754,2.62800002098084,12.8269996643066,18.3969993591309,-3.72130107879639,1.6144779920578,7.63882493972778,4.60176515579224,-4.780348777771,-7.84040212631226,23.6849994659424,33.0989990234375,34.1980018615723,9.28400039672852,6.30299997329712,3.40000009536743,-8.93398666381836,-8.54306030273438,-7.54262495040894,24.8309993743896,20.2019996643066,15.8079996109009,3.6101450920105,2.90218901634216,2.98907995223999,-4.43818283081055,-3.07705807685852,-0.34895199537277,-5.18599987030029,-21.2700004577637,-32.1749992370605,13.5209999084473,16.5020008087158,13.128999710083,6.27998018264771,10.7016105651855,8.60038566589355,-31.0289993286133,-7.96299982070923,4.82399988174438,-6.38179206848145,-5.01567077636719,-3.88618803024292,6.64081478118896,8.02548313140869,4.4812068939209,2.03099989891052,15.4469995498657,28.7840003967285,6.22499990463257,8.42099952697754,7.08799982070923,-4.23282814025879,-9.95984745025635,-9.90472221374512,30.0090007781982,28.7530002593994,21.6140003204346,4.78121709823608,3.93072891235352,3.4363648891449,-4.67170906066895,-3.60952591896057,-1.86925005912781,2.57999992370605,-10.6780004501343,-19.3080005645752,9.28400039672852,14.3839998245239,16.1100006103516,1.20029997825623,9.44866752624512,10.6111536026001,-28.1259994506836,-29.1459999084473,-15.8090000152588,SHAKE
0.0718249976635,8.36516952514648,8.7120885848999,-1.49402904510498,-8.53498935699463,-8.68164539337158,24.8619995117188,28.863000869751,28.863000869751,8.6569995880127,4.65500020980835,4.65500020980835,-7.10287523269653,-6.45767211914063,-5.65707492828369,17.1420001983643,12.9049997329712,9.06099987030029,4.19189977645874,3.61011695861816,4.22576522827148,-4.87005710601807,-3.05714797973633,1.44331300258636,-1.57700002193451,-12.5609998703003,-22.4459991455078,11.4029998779297,16.0319995880127,16.1100006103516,6.99067115783691,9.51802921295166,5.94569492340088,-24.2029991149902,-20.7509994506836,-0.35299998521805,-6.72359609603882,-5.27415323257446,-3.52185702323914,7.62076282501221,7.15146112442017,4.86347389221191,0.30500000715256,10.8179998397827,23.7630004882813,6.06799983978271,7.95100021362305,7.71500015258789,-1.39936196804047,-7.57963991165161,-8.48649311065674,27.1840000152588,24.988000869751,22.1630001068115,5.55262994766235,4.43336582183838,3.27908802032471,-8.43774795532227,-7.2921028137207,-6.10668802261353,17.2509994506836,6.81699991226196,-5.57800006866455,1.36000001430511,7.00899982452393,13.5989999771118,-3.82170391082764,-0.51601999998093,7.6386251449585,-9.14000034332275,-23.0270004272461,-25.8509998321533,-6.94570112228394,-8.25722026824951,-7.55839681625366,8.27804279327393,8.83942031860352,8.69043445587158,-22.3680000305176,-14.0520000457764,-5.97100019454956,3.87100005149841,3.63599991798401,6.06799983978271,3.64268803596497,1.71688199043274,0.89333897829056,7.25600004196167,9.68900012969971,19.4169998168945,SHAKE
-7.28340578079224,-5.81391477584839,-3.60484194755554,7.08633184432983,6.59883213043213,3.6470959186554,3.99200010299683,21.4099998474121,34.2760009765625,8.10799980163574,8.89200019836426,4.89099979400635,-3.09685707092285,-8.52122402191162,-8.32375526428223,29.7730007171631,25.5370006561279,18.9459991455078,5.55422210693359,4.50096797943115,3.52191805839539,-7.18173789978027,-5.80496978759766,-4.08337497711182,5.71799993515015,-1.02799999713898,-17.8959999084473,8.81400012969971,11.8730001449585,15.875,-1.1219630241394,8.76100254058838,6.89897680282593,-22.9479999542236,-15.0240001678467,0.74500000476837,-7.24529123306274,-5.89523410797119,-4.56469392776489,7.83167505264282,7.31798601150513,4.02449893951416,0.30500000715256,16.3099994659424,32.5499992370605,4.81199979782104,6.93100023269653,6.85200023651123,-2.96486592292786,-8.1775426864624,-8.00079154968262,34.7949981689453,28.8320007324219,21.5349998474121,6.06435489654541,4.83880710601807,3.91075110435486,-6.52534484863281,-4.87888813018799,-3.00371789932251,2.57999992370605,-14.914999961853,-29.2719993591309,13.9130001068115,16.8159999847412,13.5989999771118,0.28781300783157,8.11792182922363,8.84688091278076,-32.9119987487793,-27.6550006866455,-11.1009998321533,-7.57535123825073,-6.12535381317139,-4.69593191146851,7.85342979431152,7.99205780029297,6.37884616851807,1.71700000762939,1.71700000762939,12.701000213623,5.67500019073486,5.67500019073486,7.00899982452393,-1.61340498924255,-9.49126529693604,-9.55817413330078,27.8120002746582,24.4379997253418,20.3589992523193,SHAKE
6.33112096786499,5.16061210632324,3.74401688575745,-6.28051614761353,-5.01715612411499,-1.17142903804779,10.503999710083,4.38500022888184,-30.4489994049072,8.5,10.3039999008179,11.9519996643066,4.30320119857788,10.1842708587646,8.85415267944336,-30.7940006256104,-27.7339992523193,-4.43200016021729,-7.18829584121704,-5.57118797302246,-3.49192690849304,6.48006105422974,6.5964241027832,1.36932194232941,7.75799989700317,23.4489994049072,33.0989990234375,6.38199996948242,7.87200021743774,5.44000005722046,-7.28379201889038,-9.82068157196045,-9.14225482940674,26.3999996185303,22.4769992828369,17.7700004577637,5.29019784927368,4.19932508468628,3.32894706726074,-5.63131189346313,-4.47694110870361,0.26165500283241,4.85500001907349,-9.50100040435791,-33.0379981994629,8.5,12.1870002746582,13.7559995651245,9.17091369628906,11.0784664154053,9.1295166015625,-34.9519996643066,-14.003999710083,5.53000020980835,-7.25187015533447,-5.86908292770386,-4.22409391403198,6.20513391494751,5.72128295898438,4.76803207397461,1.0110000371933,13.798999786377,28.0,8.42099952697754,8.9709997177124,6.69500017166138,-0.84172600507736,-9.1943416595459,-10.0186748504639,28.3610000610352,26.556999206543,24.988000869751,5.47176694869995,4.37998390197754,3.38533592224121,-5.93785619735718,-5.03081178665161,-3.97121691703796,10.4259996414185,-2.98900008201599,-20.4850006103516,5.12599992752075,9.75500011444092,15.7180004119873,-3.31421709060669,11.5394296646118,10.5276584625244,-22.1639995574951,-23.3400001525879,-4.35400009155273,SHAKE
-7.25187015533447,-5.86908292770386,-4.22409391403198,6.20513391494751,5.72128295898438,4.76803207397461,1.0110000371933,13.798999786377,28.0,8.42099952697754,8.9709997177124,6.69500017166138,-0.84172600507736,-9.1943416595459,-10.0186748504639,28.3610000610352,26.556999206543,24.988000869751,5.47176694869995,4.37998390197754,3.38533592224121,-5.93785619735718,-5.03081178665161,-3.97121691703796,10.4259996414185,-2.98900008201599,-20.4850006103516,5.12599992752075,9.75500011444092,15.7180004119873,-3.31421709060669,11.5394296646118,10.5276584625244,-22.1639995574951,-23.3400001525879,-4.35400009155273,-7.16907596588135,-6.15929985046387,-4.78860378265381,7.13273286819458,6.195387840271,6.31458187103271,-3.6949999332428,13.4069995880127,29.1770000457764,3.08599996566772,6.22499990463257,4.89099979400635,1.7721049785614,-9.74345779418945,-10.9165000915527,30.3229999542236,26.0860004425049,20.2019996643066,4.64028978347778,3.7904589176178,3.29182600975037,-4.92284679412842,-3.56479692459106,-1.45444297790527,3.44300007820129,-15.6990003585815,-27.6240005493164,8.6569995880127,12.7360000610352,10.9320001602173,2.13126993179321,10.0506772994995,8.93342113494873,-28.9109992980957,-20.2019996643066,-13.2200002670288,-7.10948514938354,-6.03866577148438,-4.6230788230896,8.18462371826172,7.10024785995483,5.99400806427002,-8.16699981689453,2.65899991989136,11.5240001678467,7.87200021743774,7.48000001907349,7.79400014877319,2.07471394538879,-4.24939393997192,-8.19986057281494,30.7929992675781,24.9090003967285,19.8880004882813,SHAKE
7.3211030960083,6.26314210891724,5.13056182861328,-7.49691820144653,-7.1085901260376,-6.23937320709229,23.1359996795654,14.8190002441406,10.0329999923706,3.94899988174438,4.26300001144409,4.9689998626709,-4.54330778121948,-0.6125699877739,8.4837589263916,-14.6319999694824,-27.1849994659424,-23.7329998016357,-7.68852519989014,-6.35143423080444,-2.5310800075531,8.1078929901123,6.6594409942627,3.57509303092957,-4.24499988555908,13.1719999313354,13.1719999313354,9.36299991607666,13.5989999771118,13.5989999771118,0.59122002124786,-7.41297817230225,-9.30729866027832,26.1639995574951,22.5550003051758,22.5550003051758,3.91114497184753,2.99759006500244,2.31020307540894,-8.00839138031006,-7.35733509063721,-6.3281078338623,6.65999984741211,-11.0699996948242,-28.0170001983643,-1.30599999427795,5.28299999237061,13.6780004501343,-2.71303796768188,9.71733856201172,8.96808815002441,-34.7949981689453,-29.3819999694824,-13.3760004043579,-8.30886173248291,-6.75699377059937,-2.64852809906006,9.24261569976807,7.50645399093628,2.99032807350159,-10.4429998397827,-10.4429998397827,33.3349990844727,4.89099979400635,4.89099979400635,-0.60000002384186,-4.92519903182983,-9.23678302764893,-8.61446475982666,27.1840000152588,21.6140003204346,13.8470001220703,5.37503385543823,4.35228204727173,3.63153791427612,-7.04570007324219,-5.46689701080322,-2.89023995399475,3.99200010299683,-23.6229991912842,-34.0579986572266,6.30299997329712,14.6979999542236,15.326000213623,4.24985218048096,9.81840896606445,8.20505428314209,-32.5200004577637,-28.2830009460449,-12.7489995956421,SHAKE
6.25625276565552,5.31215190887451,4.38640594482422,-7.29824876785278,-6.15991878509521,-4.83873701095581,6.73799991607666,-4.79400014877319,-22.681999206543,1.8309999704361,5.75400018692017,9.75500011444092,10.5167074203491,9.42920589447022,7.17076587677002,-34.9519996643066,-29.9309997558594,-3.96199989318848,-6.94814300537109,-5.13756990432739,-2.58188605308533,6.13814115524292,4.89173412322998,-0.65464001893997,13.0150003433228,25.253999710083,32.0009994506836,5.44000005722046,2.92899990081787,-2.79699993133545,-6.70533609390259,-8.29023456573486,-7.37029790878296,23.3400001525879,15.9650001525879,11.7279996871948,5.27055501937866,4.31547594070435,3.66815805435181,-5.67515182495117,-4.17661809921265,-1.24137496948242,-6.75500011444092,-15.3850002288818,-35.548999786377,9.36299991607666,12.0299997329712,13.2069997787476,9.82978057861328,11.1155891418457,8.54603099822998,-35.3440017700195,-24.8309993743896,-7.80600023269653,-7.36306285858154,-6.23206901550293,-4.79614305496216,8.86928367614746,7.55570697784424,6.58965110778809,-8.95199966430664,-0.87099999189377,24.6259994506836,3.55699992179871,4.89099979400635,5.0479998588562,1.49084496498108,-5.81564521789551,-9.35055446624756,27.9689998626709,24.988000869751,20.5160007476807,7.37716007232666,6.14968299865723,5.04458522796631,-7.91564702987671,-6.52939081192017,-5.47942209243774,18.193000793457,8.46399974822998,-1.65600001811981,-0.67900002002716,1.98800003528595,4.89099979400635,-5.419114112854,-3.15673899650574,4.07860088348389,-1.76499998569489,-18.5550003051758,-30.7150001525879,SHAKE
-4.79857397079468,-3.48461103439331,-0.81809800863266,6.31171894073486,5.36319017410278,0.62762701511383,5.56099987030029,17.6439990997314,26.7450008392334,6.14599990844727,5.67500019073486,3.24300003051758,-9.73983097076416,-9.65445327758789,-8.56876659393311,21.378999710083,17.8479995727539,13.6899995803833,3.05869007110596,2.39327001571655,2.58767890930176,-5.61755180358887,-4.26277303695679,-1.87399101257324,5.79699993133545,-4.79400014877319,-17.6609992980957,7.24499988555908,10.4610004425049,11.1669998168945,2.54821705818176,11.6096792221069,11.775598526001,-21.6140003204346,-16.8290004730225,-12.121000289917,-5.57875490188599,-4.33816194534302,-1.26184296607971,5.02376985549927,3.20821905136108,0.06263799965382,3.83500003814697,18.9769992828369,30.2749996185303,5.28299999237061,7.24499988555908,4.5770001411438,-3.36504006385803,-9.7956428527832,-10.9172677993774,28.7530002593994,24.0459995269775,20.5939998626709,0.82809501886368,0.12319699674845,2.1381471157074,-7.08426523208618,-6.06946992874146,-1.37402403354645,8.77799987792969,-7.22599983215332,-29.2719993591309,2.92899990081787,9.91199970245361,17.6009998321533,6.13212919235229,12.5788679122925,11.6073389053345,-22.7129993438721,-11.1009998321533,-0.50999999046326,-4.56690216064453,-3.91833901405334,-2.52295398712158,6.32215881347656,6.27259397506714,5.50615787506104,-1.02799999713898,12.543999671936,24.2339992523193,3.94899988174438,5.44000005722046,3.16499996185303,0.34794500470161,-9.08946418762207,-10.6028289794922,24.5949993133545,24.1240005493164,21.6140003204346,SHAKE
2.228590965271,-4.78483009338379,-6.87391805648804,4.52712392807007,8.35613346099854,9.09382343292236,-27.6240005493164,-23.7019996643066,-16.5620002746582,12.1870002746582,8.26399993896484,4.42000007629395,5.17895889282227,2.36957192420959,0.45480999350548,9.2180004119873,13.2980003356934,17.3770008087158,0.29319798946381,7.1868200302124,6.70285987854004,-2.26631188392639,-7.79837322235107,-7.61782693862915,26.9799995422363,31.9230003356934,30.0400009155273,4.65500020980835,3.47900009155273,1.36000001430511,-9.22048187255859,-8.01079368591309,-6.56441497802734,19.3390007019043,15.7299995422363,13.9250001907349,3.69484090805054,3.20835709571838,-2.48453998565674,-0.07718099653721,3.16711401939392,6.17404794692993,-21.5049991607666,-29.5069999694824,-29.5069999694824,14.3839998245239,12.1090002059937,12.1090002059937,11.0539770126343,7.18823194503784,3.61304402351379,-26.3999996185303,9.2180004119873,15.8870000839233,-4.61939001083374,-2.33020091056824,5.9740309715271,6.93352794647217,1.04952597618103,-7.68882083892822,6.65999984741211,29.8040008544922,29.8040008544922,7.40100002288818,2.38000011444092,2.38000011444092,-9.48146152496338,-9.24813365936279,-8.26302528381348,23.3400001525879,18.7110004425049,18.7110004425049,3.83176398277283,3.18332290649414,3.88451194763184,-4.80126714706421,-3.49569201469421,-0.78745102882385,5.09100008010864,-2.44000005722046,-11.6190004348755,9.91199970245361,11.4809999465942,13.0500001907349,1.14365196228027,6.50794219970703,10.0217723846436,-12.9060001373291,-21.693000793457,-21.0650005340576,SHAKE
3.64175796508789,-1.23407602310181,-6.60140419006348,1.76239705085754,4.89802694320679,6.77345895767212,-30.6060009002686,-33.1160011291504,-28.3309993743896,11.9519996643066,8.9709997177124,4.65500020980835,10.0243015289307,8.26667976379395,4.71967792510986,-3.7260000705719,10.7869997024536,19.4169998168945,-4.84278202056885,-1.98772299289703,5.70233917236328,5.94199705123901,0.0210410002619,-7.40183401107788,24.2339992523193,33.4129981994629,34.826000213623,8.6569995880127,3.24300003051758,-2.56100010871887,-10.6108617782593,-10.0455894470215,-8.83900165557861,23.7320003509521,21.5349998474121,14.5530004501343,3.10788798332214,2.42966508865356,3.04949808120728,-4.85478019714355,-3.72197699546814,-1.00216901302338,-3.46000003814697,-11.1490001678467,-32.8810005187988,10.539999961853,12.5010004043579,13.9130001068115,5.68896198272705,12.477502822876,11.3315887451172,-32.7550010681152,-20.3589992523193,-2.0,-6.58839416503906,-5.73090219497681,-4.43585205078125,6.45072078704834,5.41485023498535,6.51924991607666,-11.9329996109009,9.4060001373291,21.488000869751,2.22300004959106,6.61700010299683,5.20499992370605,1.6643830537796,-8.24781322479248,-10.9887189865112,28.1259994506836,26.9489994049072,23.4969997406006,4.40027523040771,3.36930108070374,2.50767993927002,-6.10209608078003,-5.15651321411133,-4.2593879699707,19.2910003662109,10.0329999923706,0.54000002145767,1.98800003528595,6.46000003814697,11.9519996643066,-6.05651617050171,-3.01963090896606,3.0603449344635,1.9210000038147,-11.0229997634888,-26.4790000915527,SHAKE
3.52828407287598,4.33039522171021,-2.00224304199219,0.26568099856377,4.47025299072266,7.62521076202393,-23.5450000762939,-30.9200000762939,-29.8999996185303,15.5609998703003,11.6379995346069,7.08799982070923,11.2760896682739,9.63980293273926,8.01064586639404,-13.1409997940063,2.86299991607666,11.6499996185303,-5.09338617324829,-3.88013291358948,0.34586599469185,7.20714378356934,5.6379189491272,-3.19843411445618,11.4460000991821,17.6439990997314,31.9230003356934,5.59700012207031,4.42000007629395,0.88999998569489,-10.3443088531494,-10.9996585845947,-8.59439373016357,27.6550006866455,25.6149997711182,14.7880001068115,2.31262898445129,2.24984502792358,3.4314649105072,-4.44862413406372,-2.68549990653992,0.58503597974777,-3.22499990463257,-19.7000007629395,-31.8610000610352,11.5600004196167,15.2469997406006,14.4619998931885,6.12910318374634,11.6981468200684,10.0637121200562,-32.5200004577637,-20.9869995117188,-3.09899997711182,-6.39799976348877,-5.22771883010864,-3.7486720085144,7.10875797271729,8.16143131256104,8.92632102966309,-3.30299997329712,6.65999984741211,19.2910003662109,2.69400000572205,3.71399998664856,3.08599996566772,0.84367400407791,-8.67683029174805,-11.4273357391357,28.9890003204346,28.9890003204346,23.0259990692139,6.24811315536499,5.06423807144165,4.14296102523804,-7.50025415420532,-6.22153806686401,-4.9505729675293,21.173999786377,21.173999786377,-0.94900000095367,1.28199994564056,1.28199994564056,11.08899974823,-5.13639879226685,-1.95017695426941,3.92114591598511,4.19700002670288,-15.1809997558594,-29.7740001678467,SHAKE
3.52245092391968,-3.36596298217773,-7.92818403244019,-0.8410040140152,6.7303409576416,8.49227046966553,-18.9160003662109,-28.7229995727539,-21.2700004577637,12.8929996490479,5.98899984359741,2.38000011444092,8.61118793487549,6.88445997238159,3.64973902702332,-4.66800022125244,13.6110000610352,18.0049991607666,-4.26181077957153,0.91597300767899,7.33247184753418,5.95233106613159,-4.65063714981079,-8.88526725769043,18.5069999694824,32.2360000610352,33.5699996948242,5.51900005340576,0.81099998950958,0.88999998569489,-9.76467704772949,-8.93976879119873,-7.72400283813477,22.1630001068115,17.1420001983643,12.3559999465942,3.54131698608398,3.64664506912231,4.33819723129272,-3.97282910346985,-1.77041304111481,1.6311320066452,-4.16599988937378,-20.3279991149902,-26.6049995422363,13.9919996261597,13.5989999771118,11.9519996643066,7.07022380828857,11.1862010955811,10.0289945602417,-31.3430004119873,-19.5750007629395,-1.60800004005432,-7.45009517669678,-6.43865823745728,-1.9291410446167,6.48942422866821,5.76104879379272,0.10733299702406,-10.835000038147,9.17000007629394,29.9610004425049,4.81199979782104,8.18599987030029,1.67400002479553,-7.90239906311035,-10.4891757965088,-8.81052684783936,28.0470008850098,24.5170001983643,14.5530004501343,2.94662594795227,2.64053988456726,3.70502400398254,-4.55310010910034,-2.91547203063965,0.24271400272846,-0.71399998664856,-7.06899976730347,-27.8600006103516,13.2069997787476,14.9329996109009,13.6780004501343,4.40956497192383,10.7223415374756,10.8299922943115,-29.3819999694824,-21.6140003204346,-6.39400005340576,SHAKE
-7.04366779327393,-6.65401792526245,-4.44719696044922,7.46460914611816,6.11085176467896,6.39699506759644,-14.6789999008179,-2.51900005340576,23.5279998779297,2.53699994087219,4.65500020980835,4.49900007247925,0.25587999820709,-9.72841262817383,-10.7303609848022,30.4009990692139,29.2240009307861,24.8309993743896,3.3546769618988,2.75633692741394,2.80915689468384,-4.87173318862915,-3.67875504493713,-1.83074903488159,8.30700016021729,-5.02899980545044,-23.3090000152588,8.81400012969971,13.5209999084473,15.7959995269775,-0.68782997131348,6.81483507156372,11.7411651611328,-27.2630004882813,-27.2630004882813,-18.2409992218018,-7.57280921936035,-7.2537989616394,-5.01343679428101,7.91291379928589,6.4686541557312,7.58160018920898,-16.1700000762939,-2.59699988365173,24.9400005340576,-0.67900002002716,3.00799989700317,6.46000003814697,1.73606705665588,-9.67176628112793,-11.109016418457,33.068000793457,28.4400005340576,23.4179992675781,4.83062314987183,3.81204295158386,2.91150903701782,-6.37889909744263,-5.38185691833496,-4.59006977081299,17.0939998626709,6.73799991607666,-4.95100021362305,-0.67900002002716,3.40000009536743,8.6569995880127,-5.34698820114136,-2.32334995269775,13.1373329162598,-6.15899991989136,-17.1420001983643,-15.4949998855591,-6.33014011383057,-5.70830678939819,-4.75785493850708,8.44143104553223,7.38010883331299,8.15694236755371,-10.835000038147,0.30500000715256,9.32699966430664,3.40000009536743,3.16499996185303,3.24300003051758,2.76624989509583,1.24757695198059,-9.59222888946533,20.2800006866455,23.8110008239746,23.1049995422363,SHAKE
2.91150903701782,2.39174008369446,3.18623900413513,-4.59006977081299,-3.56423902511597,-0.90803897380829,-4.95100021362305,-21.0340003967285,-27.2320003509521,8.6569995880127,12.8929996490479,13.7559995651245,13.1373329162598,11.4951391220093,9.30290126800537,-15.4949998855591,0.74500000476837,9.76700019836426,-4.75785493850708,-3.43577194213867,-0.87664502859116,8.15694236755371,8.57643127441406,0.80816102027893,9.32699966430664,21.8799991607666,30.5890007019043,3.24300003051758,3.55699992179871,-0.12899999320507,-9.59222888946533,-11.0654821395874,-10.1536598205566,23.1049995422363,21.2220001220703,18.0830001831055,3.22551488876343,3.29054999351501,4.42029094696045,-4.6460862159729,-2.5564079284668,1.09452605247498,-0.32199999690056,-16.8759994506836,-30.4489994049072,12.4230003356934,15.4820003509521,15.4040002822876,4.99836206436157,10.644419670105,9.7793779373169,-30.2450008392334,-26.1650009155273,-0.82400000095367,-7.82340621948242,-7.15783405303955,-4.70289707183838,7.49458599090576,5.88838577270508,-0.73628300428391,-1.73399996757507,8.85700035095215,31.9230003356934,-0.36500000953674,1.36000001430511,1.98800003528595,-10.0003881454468,-11.1556959152222,-9.95706939697266,28.6749992370605,24.9090003967285,19.181999206543,4.06185913085938,3.67554497718811,4.04147100448608,-4.79506015777588,-3.09117197990417,-0.7939710021019,8.38599967956543,-2.12599992752075,-16.6410007476807,12.5010004043579,16.423999786377,16.8159999847412,-0.55529302358627,4.87120914459229,9.51817989349365,-18.4759998321533,-30.0090007781982,-23.8110008239746,SHAKE
-6.65730285644531,-2.48619604110718,6.05528402328491,4.98579978942871,-2.50088596343994,-8.50010776519775,10.66100025177,34.2760009765625,36.0019989013672,5.28299999237061,3.16499996185303,2.8510000705719,-10.9447174072266,-9.951416015625,-8.5821590423584,25.1439990997314,19.8880004882813,14.8669996261597,3.67657494544983,3.81043291091919,4.04717111587524,-3.62844491004944,-1.85962700843811,0.53098201751709,-1.34200000762939,-14.4440002441406,-29.1940002441406,11.9519996643066,14.1490001678467,12.8149995803833,10.5526666641235,9.94707298278809,8.18286228179932,-29.068000793457,-10.5520000457764,8.35499954223633,-6.65669918060303,-4.52324676513672,-5.52853202819824,7.55952978134155,11.4232711791992,3.50018095970154,-11.9329996109009,1.87399995326996,29.2549991607666,0.96799999475479,3.79200005531311,3.24300003051758,-4.1983790397644,-10.998140335083,-10.6989011764526,32.9119987487793,28.8320007324219,22.242000579834,4.95344495773315,4.77355194091797,4.91453313827515,-4.19080018997192,-2.55075693130493,-0.42310300469398,5.2480001449585,-6.36299991607666,-21.3479995727539,10.6969995498657,14.0699996948242,13.835000038147,0.37925899028778,10.144495010376,9.06665706634522,-24.988000869751,-18.4759998321533,-0.27399998903275,-7.87064695358276,-6.86019992828369,-4.27905893325806,6.63559007644653,7.06331300735474,-6.51583099365234,-3.30299997329712,7.83699989318848,32.7070007324219,1.8309999704361,2.6159999370575,3.79200005531311,-9.5338716506958,-10.7356700897217,-9.79525089263916,32.5979995727539,28.0470008850098,22.3980007171631,SHAKE
4.95344495773315,4.77355194091797,4.91453313827515,-4.19080018997192,-2.55075693130493,-0.42310300469398,5.2480001449585,-6.36299991607666,-21.3479995727539,10.6969995498657,14.0699996948242,13.835000038147,0.37925899028778,10.144495010376,9.06665706634522,-24.988000869751,-18.4759998321533,-0.27399998903275,-7.87064695358276,-6.86019992828369,-4.27905893325806,6.63559007644653,7.06331300735474,-6.51583099365234,-3.30299997329712,7.83699989318848,32.7070007324219,1.8309999704361,2.6159999370575,3.79200005531311,-9.5338716506958,-10.7356700897217,-9.79525089263916,32.5979995727539,28.0470008850098,22.3980007171631,4.88909816741943,4.37340211868286,4.55431222915649,-4.78797197341919,-1.91394305229187,0.14125299453735,16.4669990539551,-15.46399974823,-30.2919998168945,5.12599992752075,14.2270002365112,13.9130001068115,2.99312591552734,10.9048624038696,13.1116199493408,-33.0690002441406,-28.9109992980957,-8.35499954223633,-6.44184684753418,-5.75375509262085,-5.0040807723999,3.65079593658447,1.16706299781799,0.14065000414848,-8.71700000762939,7.67999982833862,21.173999786377,-0.44299998879433,2.77300000190735,4.18499994277954,5.26609706878662,-10.4730100631714,-13.6341257095337,30.0869998931885,30.0090007781982,24.9090003967285,3.20694494247437,3.15482401847839,3.76121497154236,-2.63158702850342,-1.56369197368622,0.00502600008622,11.3669996261597,1.32500004768372,-11.6190004348755,9.28400039672852,12.1870002746582,13.2069997787476,-3.44840288162231,0.93219697475433,7.632887840271,-14.003999710083,-28.4400005340576,-9.61100006103516,SHAKE
-7.72151613235474,-7.05259323120117,4.33863306045532,5.86280584335327,-12.1061716079712,-11.5023880004883,0.22599999606609,34.2760009765625,36.3160018920898,-0.60000002384186,2.53699994087219,3.00799989700317,-10.8463096618652,-9.85138607025146,-7.77830600738525,24.988000869751,19.8090000152588,14.3959999084473,4.85816287994385,5.19952011108398,4.93483686447144,-2.25165510177612,-0.1149670034647,2.01955509185791,1.87399995326996,-9.89299964904785,-22.132999420166,12.2659997940063,13.9919996261597,12.1870002746582,7.11371517181396,8.22904014587402,6.42396306991577,-29.617000579834,-15.4949998855591,3.25500011444092,-7.98832321166992,-5.2054009437561,-3.86695790290833,11.8714780807495,14.9909772872925,15.0343780517578,-13.7379999160767,3.20799994468689,27.2940006256104,-0.99199998378754,-1.77699995040894,0.02700000070035,5.13502502441406,-5.94106101989746,-6.54955911636353,33.6180000305176,28.7530002593994,28.7530002593994,6.73952102661133,6.38515377044678,6.00557708740234,-5.59344005584717,-3.38738608360291,-1.24615395069122,8.22900009155273,-2.51900005340576,-8.8730001449585,7.63700008392334,10.7749996185303,12.1870002746582,0.75331199169159,5.11986923217773,10.3456001281738,-16.9069995880127,-30.8719997406006,-23.7329998016357,-9.51509761810303,-8.98644542694092,-7.28177213668823,9.059814453125,8.44565200805664,11.8222484588623,-18.367000579834,-5.81400012969971,6.11100006103516,0.96799999475479,-0.36500000953674,0.10499999672174,-4.16705083847046,-1.14944696426392,-4.44178581237793,21.0650005340576,28.1259994506836,28.9890003204346,SHAKE
-5.18165493011475,-4.40140104293823,8.56692409515381,10.3700437545776,-6.10653209686279,-11.5703916549683,22.2730007171631,33.492000579834,34.7470016479492,6.30299997329712,4.49900007247925,0.18400000035763,-6.81942987442017,-6.66625022888184,-6.01724004745483,27.4979991912842,18.7110004425049,13.2980003356934,5.33026218414307,4.79816007614136,4.68634176254272,-5.10729885101318,-3.77997708320618,-1.83924996852875,1.16799998283386,-7.22599983215332,-17.8959999084473,5.98899984359741,8.9709997177124,10.1470003128052,10.3774299621582,10.4630470275879,6.93655300140381,-29.5380001068115,-17.9270000457764,0.74500000476837,-7.66006278991699,-5.58841609954834,-4.91201591491699,9.13146877288818,10.6591148376465,6.4309549331665,-0.71399998664856,12.3090000152588,25.80299949646,4.9689998626709,4.49900007247925,2.8510000705719,1.03510403633118,-7.12154293060303,-8.30176734924316,31.5779991149902,28.6749992370605,24.0459995269775,4.94433403015137,4.21655511856079,4.10974407196045,-6.57451581954956,-5.17552089691162,-3.29374194145203,5.9539999961853,-3.06800007820129,-7.85400009155273,5.12599992752075,9.99100017547607,11.246000289917,-1.21629095077515,4.3277702331543,12.0580596923828,-14.3959999084473,-28.0480003356934,-26.6359996795654,-8.09570980072021,-7.79075193405151,-4.09045314788818,9.48212146759033,9.24885940551758,14.5134887695313,-19.386999130249,-8.95199966430664,14.5839996337891,0.02700000070035,1.36000001430511,4.10599994659424,0.55940902233124,-2.87302088737488,-8.14320278167725,27.4979991912842,30.0869998931885,26.556999206543,SHAKE
-5.27883195877075,-4.12202405929565,-6.2510027885437,11.7353229522705,10.4740562438965,-5.38388109207153,-2.12599992752075,18.3500003814697,31.6870002746582,1.43900001049042,3.32200002670288,4.9689998626709,-6.07964897155762,-7.36919212341309,-6.72276306152344,29.9300003051758,25.7719993591309,20.3589992523193,6.87137794494629,6.07088708877563,5.61705303192139,-6.21367788314819,-4.50424289703369,-0.16149400174618,11.6029996871948,11.6029996871948,-19.9360008239746,6.61700010299683,6.61700010299683,10.6180000305176,2.57002711296082,8.31179523468018,9.62855911254883,-24.125,-29.5380001068115,-16.5930004119873,-8.64844608306885,-4.57287693023682,-3.7358980178833,7.13083696365356,14.7348108291626,12.4163227081299,-0.08600000292063,11.9160003662109,26.2740001678467,1.75300002098084,3.32200002670288,4.34200000762939,2.38468289375305,-7.26629686355591,-6.59130811691284,31.3419990539551,22.7119998931885,16.9850006103516,6.39374589920044,5.60990476608276,5.26403379440308,-5.5438928604126,-4.0487961769104,-2.29005599021912,6.89499998092651,-3.46000003814697,-17.1110000610352,5.28299999237061,7.08799982070923,8.18599987030029,-0.12839099764824,5.29406976699829,10.4135465621948,-13.9259996414185,-29.617000579834,-17.1420001983643,-10.2824602127075,-9.26565742492676,-7.57188987731934,9.26212024688721,6.44648885726929,6.99963903427124,-14.6789999008179,-2.28299999237061,11.3669996261597,-0.67900002002716,1.36000001430511,3.63599991798401,1.08664798736572,1.43706905841827,-9.16422271728516,25.6149997711182,28.9099998474121,28.2830009460449,SHAKE
-3.83079504966736,3.47603893280029,4.92139482498169,3.45670008659363,-5.91260290145874,-6.1995677947998,30.9029998779297,34.9039993286133,30.431999206543,5.59700012207031,6.53800010681152,7.48000001907349,-11.5164480209351,-9.81554698944092,-8.08235263824463,19.3390007019043,13.6899995803833,8.43299961090088,4.02829885482788,4.48633813858032,3.06889605522156,-1.09589695930481,0.83403301239014,2.83026194572449,-7.46099996566772,-20.4850006103516,-28.4090003967285,9.59799957275391,8.10799980163574,4.89099979400635,6.75360918045044,10.1449527740479,11.0543184280396,-28.6749992370605,-13.5329999923706,5.29500007629395,-8.10322666168213,-6.85544204711914,-5.22333812713623,0.814562022686,-0.11351899802685,0.25259199738503,3.75699996948242,18.5069999694824,30.1180000305176,2.92899990081787,5.0479998588562,5.28299999237061,-8.65930366516113,-12.5515747070313,-10.8399219512939,31.7350006103516,20.3589992523193,14.9449996948242,2.69211792945862,3.430006980896,4.17589902877808,-2.69844007492065,-1.40295803546906,0.21881599724293,2.50200009346008,-12.0900001525879,-27.6240005493164,7.00899982452393,8.89200019836426,10.3830003738403,0.20725500583649,9.97525501251221,12.9544486999512,-32.3629989624023,-23.9680004119873,-13.8470001220703,-5.56645202636719,-4.77476596832275,-3.10289311408997,-1.36763799190521,-3.55651497840881,0.03149000182748,9.17000007629394,21.2530002593994,31.6089992523193,1.20299994945526,6.30299997329712,10.3039999008179,-14.2609157562256,-14.282790184021,-12.441460609436,26.8700008392334,22.3199996948242,17.8479995727539,SHAKE
-9.23570728302002,-2.45321011543274,-6.23618316650391,8.76544857025146,19.1572647094727,6.31610918045044,-6.99100017547607,16.0750007629395,16.0750007629395,-0.52200001478195,5.20499992370605,5.20499992370605,-4.6401572227478,-8.44367694854736,-6.77165794372559,28.5179996490479,24.988000869751,15.9650001525879,5.82205104827881,5.82922315597534,5.39188289642334,-4.31778478622437,-2.50907611846924,-0.94836401939392,7.05200004577637,-4.16599988937378,-18.2880001068115,7.63700008392334,9.59799957275391,9.28400039672852,5.23593521118164,9.82937431335449,10.0770025253296,-31.1860008239746,-18.3980007171631,0.66600000858307,-8.99825954437256,-7.35139417648315,-5.26571989059448,2.12832188606262,-4.89962100982666,-6.56374311447144,-1.02799999713898,15.83899974823,29.4120006561279,0.88999998569489,3.00799989700317,3.94899988174438,-2.95850992202759,-13.4979381561279,-12.7762651443481,31.4209995269775,29.6949996948242,21.1429996490479,2.73341703414917,2.80691599845886,3.40978288650513,-3.83432388305664,-2.75313305854797,-1.4137259721756,15.6820001602173,6.42399978637695,-3.22499990463257,4.89099979400635,7.24499988555908,8.9709997177124,-5.03095579147339,-2.13323903083801,9.44682598114014,-4.11899995803833,-20.0450000762939,-18.3980007171631,-8.23364162445068,-7.22172212600708,-6.08714914321899,8.52604007720947,2.20204091072083,-1.78774905204773,-18.2880001068115,-7.53999996185303,13.0150003433228,-0.91399997472763,-0.05099999904633,3.08599996566772,8.34053611755371,-1.57743000984192,-13.6305475234985,26.0069999694824,29.1459999084473,28.7530002593994,SHAKE
-6.78095722198486,-5.29648017883301,-3.50021290779114,1.03735303878784,-4.76079607009888,-10.6748971939087,-9.02999973297119,4.77699995040894,17.7220001220703,-0.60000002384186,3.71399998664856,7.32299995422363,3.83053302764893,-10.9237213134766,-13.8840808868408,30.4009990692139,30.6359996795654,27.0270004272461,1.91406095027924,1.81267094612122,2.30282592773438,-2.61851000785828,-2.32617807388306,-1.76931500434875,16.0750007629395,7.36600017547607,-3.46000003814697,-1.46300005912781,0.88999998569489,4.18499994277954,-2.75675511360169,3.76880097389221,12.5849123001099,-23.1830005645752,-30.7940006256104,-17.298999786377,-5.86091995239258,-3.64320588111877,-2.2456419467926,6.92991495132446,-0.16944600641727,3.62482690811157,-11.7760000228882,17.2509994506836,30.1180000305176,-1.22800004482269,2.22300004959106,3.87100005149841,-5.98137378692627,-13.7294178009033,-12.4210681915283,30.3229999542236,26.3999996185303,21.6919994354248,2.79977297782898,2.42304396629334,1.93573200702667,-3.72888708114624,-2.56871509552002,-1.57724702358246,14.0349998474121,3.28600001335144,-2.67499995231628,9.28400039672852,9.20600032806396,8.6569995880127,-4.58474683761597,4.84102296829224,9.94602203369141,-8.7480001449585,-27.2630004882813,-21.4570007324219,-6.73439502716064,-3.20208406448364,-2.57198405265808,-0.86641901731491,-13.1996936798096,-13.0489063262939,-10.835000038147,0.69700002670288,15.9180002212524,-6.17000007629395,-2.79699993133545,4.49900007247925,6.03183507919312,-11.9797525405884,-14.7806625366211,28.0470008850098,26.6350002288818,23.4179992675781,SHAKE
-3.20208406448364,-2.57198405265808,-2.08679890632629,-13.1996936798096,-13.0489063262939,-5.67110919952393,0.69700002670288,15.9180002212524,28.4710006713867,-2.79699993133545,4.49900007247925,10.0690002441406,-11.9797525405884,-14.7806625366211,-11.4812517166138,26.6350002288818,23.4179992675781,13.4540004730225,0.15334099531174,1.14048302173615,2.09336304664612,2.23281502723694,2.44538593292236,2.81926894187927,8.85700035095215,-0.24300000071526,-12.5609998703003,3.00799989700317,1.8309999704361,4.89099979400635,-3.53758788108826,0.31817701458931,7.68942022323608,-16.0440006256104,-16.0440006256104,-21.8500003814697,-10.4384269714355,-1.12621903419495,1.43348705768585,19.8040790557861,18.7854671478271,12.7818145751953,-15.1499996185303,-4.24499988555908,26.117000579834,-2.48300004005432,-0.12899999320507,7.87200021743774,20.3782749176025,10.0401592254639,7.20754289627075,30.1660003662109,26.6350002288818,20.5160007476807,7.10280513763428,6.06619596481323,5.06100797653198,-5.13208723068237,-3.50307989120483,-2.32715010643005,18.0359992980957,8.77799987792969,-1.26300001144409,5.98899984359741,5.36199998855591,5.12599992752075,3.25253105163574,5.27307176589966,9.40263652801514,3.17700004577637,-27.4200000762939,-22.6340007781982,-14.1844644546509,-0.6150050163269,-2.03941798210144,10.338529586792,17.7627563476563,14.4997406005859,-16.9540004730225,-6.59800004959106,8.69999980926514,-1.93400001525879,-1.14900004863739,3.08599996566772,-11.0734596252441,13.0517330169678,2.9392569065094,26.3209991455078,29.7730007171631,28.2830009460449,SHAKE
-7.68865823745728,3.90601801872253,7.75948095321655,11.7477655410767,-11.581506729126,-9.60477161407471,32.0800018310547,37.5709991455078,33.8059997558594,4.42000007629395,3.55699992179871,1.8309999704361,-5.6416711807251,-5.40596914291382,-4.72508096694946,19.8880004882813,14.5530004501343,9.375,5.16611480712891,3.7413969039917,-3.24085092544556,-2.60164904594421,2.12484002113342,6.47274494171143,-7.85400009155273,-27.3110008239746,-27.6240005493164,12.2659997940063,9.04899978637695,4.42000007629395,9.46723079681396,7.06802988052368,4.44028806686401,-18.5550003051758,-3.17700004577637,11.4930000305176,-5.76471996307373,-5.44187211990356,-3.1783709526062,13.560094833374,9.73131942749023,-7.48648405075073,1.95200002193451,23.2919998168945,33.8839988708496,4.81199979782104,8.5,8.18599987030029,-6.09411382675171,-6.67781686782837,-5.94279289245605,33.1469993591309,19.3390007019043,16.5139999389648,5.09264898300171,4.55869007110596,1.10509598255157,-4.3050708770752,-1.98012697696686,2.04277205467224,-0.32199999690056,-11.0699996948242,-29.5069999694824,9.59799957275391,10.6180000305176,6.61700010299683,10.3511257171631,10.6475563049316,8.88685512542725,-30.0090007781982,-15.5729999542236,2.23499989509583,-7.3698468208313,-4.20209884643555,-4.32710313796997,9.32265853881836,15.0859575271606,11.0065898895264,-0.79299998283386,13.6420001983643,26.5090007781982,2.8510000705719,4.10599994659424,4.18499994277954,-0.04169499874115,-8.43020820617676,-7.80326700210571,30.8719997406006,28.4400005340576,16.8279991149902,SHAKE
-2.70195293426514,-5.12886810302734,9.5007266998291,13.9242753982544,5.14568710327148,-11.0217132568359,13.956000328064,25.4890003204346,33.1780014038086,8.3430004119873,8.57800006866455,8.18599987030029,-4.46955394744873,-4.17220878601074,-3.52737903594971,22.3980007171631,16.6709995269775,11.6499996185303,6.11534976959229,5.7320671081543,4.95449781417847,-3.71704506874084,-1.92215502262115,-0.27682799100876,0.54000002145767,-8.48099994659424,-18.4449996948242,7.71500015258789,7.24499988555908,5.83199977874756,3.49047207832336,9.91918087005615,6.55373907089233,-14.710000038147,-17.613000869751,-5.5310001373291,-7.20304489135742,-3.698322057724,-5.54618310928345,14.0995044708252,15.5981531143188,-5.15802621841431,-6.51999998092651,6.18900012969971,28.3920001983643,0.73299998044968,6.53800010681152,11.9519996643066,-3.47275710105896,-5.34609317779541,-5.21159076690674,28.5179996490479,24.673999786377,19.8090000152588,7.51785802841187,6.71382093429565,6.18066692352295,-6.08515405654907,-4.58086776733398,-3.27321004867554,15.1330003738403,6.50299978256226,-5.02899980545044,5.67500019073486,4.73400020599365,3.71399998664856,-0.91186898946762,1.03331196308136,17.0357437133789,-3.33400011062622,-23.4190006256104,-19.496000289917,-7.10814094543457,-4.31500005722046,0.52090001106262,-2.5082950592041,-9.30791091918945,-24.2053108215332,-15.3850002288818,-3.7739999294281,21.0960006713867,-0.83499997854233,0.65399998426437,10.3039999008179,1.77342402935028,-13.0868787765503,-13.7189979553223,28.2830009460449,27.8120002746582,23.2609996795654,SHAKE
-4.31500005722046,0.52090001106262,-1.14673495292664,-9.30791091918945,-24.2053108215332,10.7845611572266,-3.7739999294281,21.0960006713867,29.3339996337891,0.65399998426437,10.3039999008179,10.539999961853,-13.0868787765503,-13.7189979553223,-10.663516998291,27.8120002746582,23.2609996795654,12.9840002059937,-0.17952600121498,0.74003398418427,1.78547596931458,0.23530100286007,0.79168099164963,1.88699197769165,6.65999984741211,-7.77500009536743,-19.8570003509521,7.08799982070923,6.69500017166138,4.9689998626709,-0.65856701135635,8.14790439605713,10.481538772583,-24.4389991760254,-27.2630004882813,-22.9479999542236,-8.91261005401611,-7.85096120834351,-4.05503416061401,11.2145395278931,9.70847129821777,8.26517391204834,-12.7180004119873,0.85399997234344,28.6270008087158,0.10499999672174,3.47900009155273,11.08899974823,-1.68546903133392,-9.06619739532471,-9.34099769592285,28.5179996490479,25.7719993591309,19.7310009002686,6.17219209671021,5.07975912094116,4.22382211685181,-6.31095123291016,-5.16725015640259,-4.18934202194214,14.5839996337891,5.6399998664856,-4.32299995422363,3.63599991798401,5.0479998588562,6.46000003814697,-3.91999292373657,-0.96762001514435,6.19291019439697,-5.84499979019165,-13.2980003356934,-28.3619995117188,-10.1496877670288,-9.15988254547119,-6.66253089904785,10.2034339904785,11.7862796783447,13.3544244766235,-23.4659996032715,-23.4659996032715,-16.5620002746582,1.59599995613098,1.59599995613098,-0.05099999904633,-3.63784289360046,-3.72923302650452,3.45660591125488,18.9459991455078,24.2029991149902,27.7329998016357,SHAKE
5.16972589492798,0.72175097465515,-7.95229816436768,-0.03191500157118,2.50944304466248,7.23285388946533,-13.0319995880127,-23.3880004882813,-26.0550003051758,8.18599987030029,8.73499965667725,4.81199979782104,10.9631824493408,9.92104530334473,1.75958800315857,-8.11999988555908,8.9040002822876,16.0440006256104,-4.08199882507324,-3.75335788726807,7.39292812347412,12.279149055481,4.99791812896729,-9.4607458114624,18.9769992828369,30.6669998168945,37.0219993591309,4.34200000762939,2.92899990081787,1.9099999666214,-8.38058376312256,-8.07997226715088,-7.21109676361084,26.8700008392334,21.5349998474121,16.4360008239746,4.67238283157349,4.30872678756714,4.04919004440308,-5.39421796798706,-3.43487596511841,-1.06333601474762,0.07000000029802,-14.2080001831055,-28.4869995117188,12.3439998626709,13.9130001068115,11.9519996643066,2.86651110649109,9.87542057037354,9.99285507202148,-32.9900016784668,-29.9309997558594,-10.6309995651245,-8.79824066162109,-7.91533279418945,-5.09272623062134,7.74473094940186,5.44903898239136,12.6939477920532,-9.50100040435791,4.61999988555908,18.2709999084473,2.30200004577637,1.51699995994568,-0.44299998879433,0.73741799592972,-4.31354999542236,-9.82748508453369,28.9099998474121,27.4200000762939,23.8889999389648,6.24295282363892,5.43118095397949,5.47600984573364,-5.16321516036987,-3.62263607978821,-1.58887004852295,16.7810001373291,10.3470001220703,4.22800016403198,8.6569995880127,8.89200019836426,9.04899978637695,-2.79365801811218,-0.36296299099922,2.02508091926575,3.25500011444092,-4.19700002670288,-17.7700004577637,SHAKE
2.99282908439636,7.3396520614624,6.24295282363892,-11.8454875946045,-9.33234405517578,-5.16321516036987,32.314998626709,30.19700050354,16.7810001373291,6.22499990463257,9.67700004577637,8.6569995880127,-6.83829498291016,-4.96402788162231,-2.79365801811218,10.3159999847412,7.02099990844727,3.25500011444092,5.54606103897095,3.5725679397583,-2.17700600624084,2.53215789794922,3.81077694892883,6.82876920700073,-12.168999671936,-20.0930004119873,-22.7600002288818,8.6569995880127,9.1269998550415,7.24499988555908,6.88607215881348,5.12442779541016,3.57746601104736,-20.1240005493164,-6.62900018692017,7.72700023651123,-6.63093614578247,-4.44271802902222,-3.03511500358582,9.22059535980225,8.56729888916016,-0.14541600644588,7.75799989700317,19.9190006256104,26.2740001678467,4.18499994277954,6.46000003814697,7.08799982070923,-4.21627521514893,-6.19588613510132,-5.98668003082275,30.8719997406006,25.7719993591309,20.1229991912842,6.29794788360596,5.00606393814087,3.836256980896,-7.07531118392944,-5.78472089767456,-2.29924988746643,12.543999671936,2.26600003242493,-23.7019996643066,4.81199979782104,8.57800006866455,12.9720001220703,2.13018488883972,8.63394641876221,9.81840705871582,-27.0279998779297,-28.2830009460449,-15.0240001678467,-8.95582675933838,-8.08495426177979,-6.56160593032837,7.79920816421509,5.72175788879395,6.80208587646484,-14.5220003128052,-2.20499992370605,11.9949998855591,1.67400002479553,2.69400000572205,4.18499994277954,1.45965397357941,-9.19828987121582,-9.69800472259522,28.7530002593994,29.2240009307861,24.2810001373291,SHAKE
-3.87249398231506,-1.20408701896667,7.26671123504639,10.0297107696533,0.07399500161409,-7.8625431060791,12.3090000152588,12.3090000152588,25.4109992980957,7.55800008773804,7.55800008773804,7.16599988937378,-8.87730884552002,-8.5409460067749,-6.40711402893066,31.1860008239746,26.0860004425049,14.8669996261597,3.86711406707764,3.46849703788757,3.13488602638245,-4.52191019058228,-3.07765793800354,-0.9036939740181,-4.24499988555908,-19.8570003509521,-32.7239990234375,10.2259998321533,12.8149995803833,15.5609998703003,5.29503011703491,11.1958932876587,10.7260103225708,-34.0890007019043,-22.5559997558594,-22.5559997558594,-7.53662204742432,-6.56938314437866,-5.26821422576904,5.44072103500366,3.68924498558044,7.26943778991699,-1.96899998188019,14.9759998321533,31.5300006866455,0.10499999672174,0.49700000882149,0.18400000035763,2.34669494628906,-11.4016456604004,-11.3893232345581,35.1870002746582,29.8519992828369,22.4769992828369,4.47655916213989,3.99130296707153,3.71464705467224,-5.67740106582642,-4.13822078704834,-2.59578800201416,13.956000328064,3.05100011825562,-9.02999973297119,6.61700010299683,10.1470003128052,12.5010004043579,-4.14500379562378,-0.55351901054382,6.08027982711792,-9.61100006103516,-25.3799991607666,-29.068000793457,-7.3534197807312,-7.93567991256714,-7.39361381530762,10.3973140716553,9.90236663818359,8.45832538604736,-20.0139999389648,-8.95199966430664,3.28600001335144,2.69400000572205,0.02700000070035,-0.05099999904633,0.53291100263596,-2.04377889633179,-1.58593595027924,18.4759998321533,26.3209991455078,29.8519992828369,SHAKE
-7.75142288208008,-5.51183891296387,1.9524689912796,8.91786956787109,10.6848783493042,-7.49259519577026,3.28600001335144,13.4069995880127,29.6469993591309,1.67400002479553,2.45900011062622,3.40000009536743,-9.2901611328125,-8.96940326690674,-7.90972805023193,25.0659999847412,23.0259990692139,15.0240001678467,5.02167415618896,4.35776519775391,4.53349494934082,-5.55956983566284,-4.08450222015381,-1.98160302639008,8.85700035095215,-2.75399994850159,-15.5419998168945,5.36199998855591,6.38199996948242,8.0290002822876,-0.77021598815918,4.53067302703857,8.58808326721191,-18.8680000305176,-25.9290008544922,-2.78500008583069,-9.51944732666016,-7.85661602020264,-5.28036308288574,6.50391387939453,3.93111491203308,3.17884111404419,1.63900005817413,17.4869995117188,31.1380004882813,4.65500020980835,6.61700010299683,5.98899984359741,1.38508200645447,-6.56316089630127,-8.50484561920166,23.3400001525879,19.5739994049072,17.613000869751,6.30688381195068,4.42651796340942,3.10568594932556,-7.15113496780396,-6.42244815826416,-5.50132322311401,13.956000328064,2.81500005722046,-10.9919996261597,2.6159999370575,5.20499992370605,8.3430004119873,-4.45651578903198,-0.93991297483444,6.79457712173462,-14.3959999084473,-27.1849994659424,-24.3600006103516,-9.25261402130127,-7.30304002761841,-5.72403478622437,12.1252489089966,10.8830614089966,9.00401878356934,-8.32400035858154,6.58099985122681,19.1340007781982,1.8309999704361,4.49900007247925,3.87100005149841,-0.80064797401428,-5.26549196243286,-5.70876312255859,23.1830005645752,22.0849990844727,16.6709995269775,SHAKE
-7.51442384719849,-5.09842586517334,-2.94243788719177,10.126953125,10.1618528366089,7.24565505981445,7.44399976730347,19.2910003662109,30.5100002288818,5.51900005340576,4.18499994277954,2.53699994087219,-1.24702894687653,-5.8803071975708,-5.95060014724731,22.4769992828369,18.5540008544922,14.9449996948242,7.09568500518799,5.73750400543213,4.84576892852783,-7.67265892028809,-6.51231813430786,-4.95229816436768,13.3290004730225,3.44300007820129,-8.63799953460693,1.67400002479553,4.81199979782104,8.26399993896484,-1.51169395446777,1.79646503925323,9.27560997009277,-2.0789999961853,-25.9290008544922,-26.3999996185303,-10.9678201675415,-9.10933494567871,-6.61649703979492,10.9787940979004,9.30551528930664,8.92000198364258,-4.16599988937378,9.48400020599365,22.9790000915527,3.71399998664856,2.8510000705719,-1.14900004863739,-0.66416102647781,-2.92644500732422,-5.82574319839478,23.8110008239746,21.378999710083,16.2000007629395,8.91313362121582,7.21659517288208,5.88166522979736,-9.44605541229248,-7.88249921798706,-6.28494691848755,19.761999130249,9.24899959564209,3.83500003814697,-0.28600001335144,4.34200000762939,7.16599988937378,-0.60881197452545,5.14251184463501,7.72056579589844,-8.9040002822876,-23.6539993286133,-21.4570007324219,-11.8848438262939,-10.2365217208862,-8.41215705871582,11.2721967697144,11.109733581543,9.95682525634766,-15.1499996185303,-1.65600001811981,10.7399997711182,0.34000000357628,1.98800003528595,1.28199994564056,-2.25729298591614,-2.87271904945374,-3.86899089813232,16.5930004119873,21.6919994354248,20.7509994506836,SHAKE
-7.03440809249878,-5.26174783706665,9.98249912261963,8.08845329284668,5.56542587280273,-9.75362586975098,19.1340007781982,27.8430004119873,32.2360000610352,1.98800003528595,-1.69799995422363,-2.40499997138977,-4.36902284622192,-4.5074782371521,-4.28497219085693,14.9449996948242,12.1990003585815,9.45300006866455,6.89832592010498,5.08166217803955,3.2292149066925,-6.02445602416992,0.27206900715828,4.104905128479,6.58099985122681,-17.0330009460449,-24.3290004730225,6.61700010299683,10.4610004425049,11.4809999465942,7.53744888305664,3.93331503868103,-0.2025810033083,-25.9290008544922,-15.6520004272461,-0.27399998903275,-9.72544765472412,-7.99880695343018,-6.78002977371216,9.61221790313721,8.14709377288818,6.21993207931519,0.77600002288818,14.1129999160767,24.3120002746582,1.43900001049042,-2.875,-4.52299976348877,6.53494596481323,-3.88673710823059,-3.89210796356201,28.2830009460449,26.8700008392334,15.1809997558594,6.88624000549316,6.34889221191406,5.90654611587524,-5.87540578842163,-3.18389701843262,-0.64850598573685,17.2509994506836,1.71700000762939,-8.32400035858154,9.1269998550415,9.99100017547607,8.73499965667725,1.75376498699188,4.69403886795044,8.66531085968018,-6.07999992370605,-19.7310009002686,-24.8309993743896,-9.15316867828369,-9.8472728729248,-7.79354810714722,9.07245826721191,10.8318490982056,12.7925891876221,-18.9939994812012,-14.2869997024536,-2.20499992370605,4.02799987792969,1.59599995613098,0.73299998044968,-4.65291881561279,-3.60939908027649,3.19769406318665,22.242000579834,22.0849990844727,21.6140003204346,SHAKE
-5.03413009643555,6.41045904159546,9.36235809326172,0.6834380030632,-11.9203987121582,-11.7719135284424,23.6849994659424,31.3729991912842,31.6089992523193,6.85200023651123,5.20499992370605,2.6159999370575,-1.87686705589294,-1.80719804763794,-1.154904961586,15.3369998931885,11.5719995498657,7.64900016784668,5.41595792770386,4.48664379119873,0.82205802202225,-3.27128100395203,-1.41388595104218,2.13328790664673,-13.2670001983643,-19.4650001525879,-28.0170001983643,9.04899978637695,10.9320001602173,8.10799980163574,10.2914228439331,8.02096843719482,7.37852907180786,-23.4969997406006,-4.11899995803833,16.6709995269775,-8.78977298736572,-6.07972383499146,-4.0735330581665,4.24809598922729,7.85604810714722,-4.84550809860229,14.7410001754761,25.4109992980957,33.5699996948242,1.36000001430511,-0.52200001478195,-1.93400001525879,-9.18954467773438,-9.76455879211426,-8.96348667144775,27.9689998626709,20.2019996643066,15.2589998245239,4.114342212677,3.7128279209137,4.39950513839722,-6.29460620880127,-4.71357107162476,-2.30749797821045,7.05200004577637,-2.51900005340576,-14.2080001831055,4.81199979782104,8.73499965667725,11.3240003585815,-1.70901703834534,4.08505392074585,9.59462833404541,-20.2810001373291,-28.2830009460449,-20.5939998626709,-9.18307971954346,-8.27488613128662,-5.92978715896606,11.6396827697754,11.273889541626,12.2336292266846,-14.0520000457764,-3.46000003814697,9.4060001373291,1.59599995613098,5.12599992752075,4.65500020980835,1.74440503120422,-4.73780488967896,-6.74267578125,24.2029991149902,27.4979991912842,24.2029991149902,SHAKE
-8.76020812988281,-7.25896406173706,-3.7699179649353,10.9288473129272,10.0036315917969,12.3907880783081,-10.128999710083,3.05100011825562,14.4270000457764,2.53699994087219,1.75300002098084,-1.22800004482269,-3.53898596763611,1.49784696102142,-7.09591388702393,25.4580001831055,28.5960006713867,25.1439990997314,7.32556915283203,6.25078916549683,5.83494710922241,-8.2316198348999,-6.19322490692139,-3.6328980922699,13.4849996566772,3.12899994850159,-8.95199966430664,6.61700010299683,11.246000289917,13.0500001907349,-1.29052102565765,7.18420219421387,6.22451210021973,-16.8290004730225,-23.8110008239746,-23.8110008239746,-9.65494632720947,-8.79838275909424,-7.24942016601563,9.20442390441894,6.17521810531616,6.02332592010498,-2.12599992752075,10.7399997711182,16.9379997253418,2.77300000190735,0.26199999451637,-2.32599997520447,-9.57734298706055,-10.2808885574341,-9.25375175476074,28.4400005340576,22.4769992828369,16.5930004119873,3.33202195167542,3.21669888496399,4.3082389831543,-6.59570693969727,-4.66196584701538,-1.87547194957733,6.42399978637695,-3.14599990844727,-16.4050006866455,9.04899978637695,9.99100017547607,9.83399963378906,-1.22796297073364,5.90253210067749,10.64537525177,-23.1049995422363,-26.7140007019043,-16.1219997406006,-7.75271892547607,-7.30535697937012,-5.5778341293335,9.94672012329102,8.37814998626709,10.208722114563,-9.73700046539307,0.14800000190735,11.1319999694824,2.6159999370575,3.94899988174438,3.24300003051758,1.07845199108124,-9.54258728027344,-10.2139072418213,25.7719993591309,25.2229995727539,21.7709999084473,SHAKE
4.3082389831543,5.55122804641724,1.43140196800232,-1.87547194957733,1.82571804523468,7.28042078018188,-16.4050006866455,-25.42799949646,-26.1340007781982,9.83399963378906,10.0690002441406,8.6569995880127,10.64537525177,9.82187938690186,8.30689430236816,-16.1219997406006,-3.17700004577637,5.53000020980835,-5.5778341293335,-1.14124405384064,8.49919891357422,10.208722114563,0.97630202770233,-10.9848918914795,11.1319999694824,30.9810009002686,32.2360000610352,3.24300003051758,-3.66000008583069,-3.26799988746643,-10.2139072418213,-9.13755321502686,-7.73091793060303,21.7709999084473,18.3969993591309,14.710000038147,2.93951106071472,3.05340194702148,3.8277759552002,-5.88477897644043,-3.6263689994812,-0.2104199975729,-3.22499990463257,-18.9160003662109,-28.4090003967285,8.81400012969971,12.1090002059937,14.2270002365112,5.18171119689941,7.823814868927,5.1457052230835,-31.4209995269775,0.66600000858307,11.96399974823,-6.77452421188354,-4.60407876968384,8.71884536743164,10.5699167251587,11.4766941070557,-12.7226810455322,10.0329999923706,21.173999786377,32.7859992980957,0.73299998044968,-1.77699995040894,-3.50300002098084,-7.42473411560059,-6.96002388000488,-6.10768604278564,24.673999786377,19.1030006408691,13.8470001220703,5.10232782363892,3.60415291786194,-4.64953899383545,-0.90741699934006,3.882159948349,9.21552753448486,0.61900001764297,-25.0349998474121,-22.681999206543,9.83399963378906,10.8540000915527,3.79200005531311,9.14726066589356,7.34184122085571,5.53692197799683,-16.9069995880127,5.9229998588562,12.1990003585815,SHAKE
-8.37177562713623,-6.77452421188354,-4.60407876968384,10.0979976654053,10.5699167251587,11.4766941070557,-0.47900000214577,10.0329999923706,21.173999786377,0.34000000357628,0.73299998044968,-1.77699995040894,-6.30356884002686,-7.42473411560059,-6.96002388000488,27.8899993896484,24.673999786377,19.1030006408691,5.77152109146118,5.10232782363892,3.60415291786194,-6.10383319854736,-0.90741699934006,3.882159948349,10.7399997711182,0.61900001764297,-25.0349998474121,6.61700010299683,9.83399963378906,10.8540000915527,8.82017040252686,9.14726066589356,7.34184122085571,-24.2029991149902,-16.9069995880127,5.9229998588562,-8.00628280639648,-3.15768790245056,-3.73793792724609,8.79641723632813,15.6092319488525,10.8261642456055,5.79699993133545,16.7810001373291,28.7840003967285,1.20299994945526,0.88999998569489,-1.14900004863739,-4.54991102218628,-7.23715591430664,-6.80574512481689,28.2040004730225,23.8110008239746,20.9860000610352,6.17305994033813,4.73128223419189,4.84022092819214,-7.69510793685913,-4.22400188446045,-1.83372902870178,18.5069999694824,-6.20599985122681,-17.1110000610352,1.28199994564056,8.18599987030029,11.246000289917,0.78367102146149,7.20217895507813,7.71124601364136,-23.1049995422363,-26.007999420166,-15.8870000839233,-10.2892189025879,-6.2577338218689,-4.31531715393066,13.9522905349731,15.5956144332886,13.8845167160034,-14.6009998321533,-0.24300000071526,10.66100025177,0.49700000882149,0.02700000070035,2.22300004959106,-6.99731206893921,9.61970138549805,0.20173500478268,23.2609996795654,26.0860004425049,24.988000869751,SHAKE
-4.78169822692871,-2.65285110473633,10.94105052948,10.205717086792,-14.7074661254883,-12.7524299621582,22.1940002441406,30.431999206543,32.314998626709,3.08599996566772,1.20299994945526,-0.83499997854233,-1.49373304843903,-2.09320592880249,-1.82044196128845,23.4969997406006,16.5139999389648,8.51200008392334,5.66884803771973,5.17294406890869,3.15655088424683,-1.74083697795868,0.12830899655819,1.90769898891449,-4.32299995422363,-13.9729995727539,-20.8770008087158,6.61700010299683,8.10799980163574,8.3430004119873,8.86626434326172,9.89585494995117,-4.94131183624268,-26.6359996795654,-21.3010005950928,-7.64900016784668,-3.43934988975525,-3.14499592781067,-6.34969806671143,16.8198108673096,14.1810493469238,4.61323308944702,-4.55800008773804,7.67999982833862,31.9230003356934,-2.09100008010864,1.98800003528595,-0.12899999320507,4.23289680480957,1.20817804336548,0.07718499749899,31.2639999389648,25.6940002441406,18.5540008544922,7.53414297103882,6.326584815979,5.99068689346313,-8.12812614440918,-6.45771884918213,-4.47654294967651,11.0530004501343,3.44300007820129,-4.16599988937378,0.34000000357628,3.63599991798401,5.98899984359741,0.91221100091934,2.82247090339661,9.43604183197022,-4.35400009155273,-17.6919994354248,-27.5769996643066,-10.9040098190308,-8.75792217254639,-5.41030406951904,11.1234874725342,15.9071531295776,14.1317501068115,-22.2889995574951,-17.0330009460449,-12.0900001525879,4.18499994277954,0.02700000070035,-1.30599999427795,-9.71188068389893,20.3815536499023,7.00121307373047,30.7929992675781,32.5979995727539,28.1259994506836,SHAKE
-5.54802799224854,-8.7087869644165,9.76076221466064,10.3103551864624,2.29333806037903,-13.549786567688,22.1159992218018,29.9610004425049,31.7660007476807,3.08599996566772,-0.91399997472763,-3.34599995613098,2.73470497131348,1.31847500801086,0.58151602745056,23.7320003509521,18.9459991455078,13.4540004730225,6.1780948638916,5.32621622085571,4.72638511657715,-5.71148777008057,-4.14895820617676,-2.06131100654602,0.93300002813339,-9.26599979400635,-19.6219997406006,4.89099979400635,6.53800010681152,7.32299995422363,3.89398789405823,-6.04708385467529,-12.7420120239258,-28.5970001220703,-13.8470001220703,2.07800006866455,-5.10770893096924,-5.99586820602417,-5.62652015686035,13.6185512542725,10.4948806762695,8.06930541992188,0.77600002288818,14.0349998474121,26.9009990692139,-0.99199998378754,1.28199994564056,-4.20900011062622,14.608943939209,5.34793519973755,2.97175693511963,31.2639999389648,24.5949993133545,19.0249996185303,8.91301918029785,7.00707292556763,6.52606821060181,-8.47572231292725,-4.07796287536621,-1.84035098552704,14.8979997634888,0.93300002813339,-2.98900008201599,0.26199999451637,4.49900007247925,5.51900005340576,2.42532396316528,5.05054378509521,12.5232133865356,-7.25699996948242,-20.2019996643066,-27.9689998626709,-12.8538341522217,-7.52363109588623,-6.61241722106934,15.4334297180176,14.3600702285767,12.2897148132324,-19.9360008239746,-16.0130004882813,-5.34299993515015,3.24300003051758,0.49700000882149,-0.20800000429153,-9.14750385284424,-7.75871276855469,13.276252746582,26.556999206543,26.3999996185303,24.673999786377,SHAKE
9.64384460449219,9.67129516601562,8.40862846374512,-12.6807851791382,-10.0158004760742,-7.90951490402222,32.0009994506836,27.451000213623,19.3700008392334,2.8510000705719,1.43900001049042,1.67400002479553,0.41856300830841,0.23094700276852,0.54699397087097,10.0019998550415,6.55000019073486,3.96099996566772,5.68673706054688,4.35181713104248,-1.72983598709106,-0.49204298853874,0.98775398731232,5.04672002792358,-11.3059997558594,-16.0909996032715,-23.0739994049072,6.61700010299683,9.20600032806396,8.6569995880127,6.48401403427124,-4.42807006835938,-10.2690153121948,-23.7329998016357,-10.0030002593994,6.78599977493286,-5.18176507949829,-4.44290590286255,-4.38086605072021,12.0392456054688,9.19283485412598,-22.54270362854,3.91400003433228,18.0359992980957,28.0779991149902,0.18400000035763,4.73400020599365,5.59700012207031,5.04486799240112,1.45227205753326,-0.14246200025082,28.1259994506836,28.1259994506836,18.8680000305176,7.22487878799438,6.55667209625244,6.3332052230835,-6.83644104003906,-4.81620502471924,-2.88285994529724,14.7410001754761,7.05200004577637,7.05200004577637,0.88999998569489,2.92899990081787,2.92899990081787,0.46206599473953,1.71976101398468,4.89821195602417,-1.60800004005432,-13.3760004043579,-26.007999420166,-10.5795211791992,-11.8168096542358,-4.64093589782715,10.2727279663086,15.0682687759399,15.6154861450195,-22.4459991455078,-17.8169994354248,-8.48099994659424,4.10599994659424,1.43900001049042,0.49700000882149,-12.8372526168823,-9.02506828308106,-0.9884529709816,19.181999206543,23.8110008239746,27.4979991912842,SHAKE
8.7119312286377,9.47288703918457,8.40732669830322,-15.44020652771,-11.4088373184204,-8.82939052581787,33.3349990844727,33.3349990844727,23.371000289917,2.77300000190735,2.77300000190735,-0.05099999904633,-0.84691399335861,-0.867163002491,-0.34000399708748,13.5329999923706,9.2180004119873,9.2180004119873,6.12201118469238,5.38587713241577,1.89041996002197,-1.11259794235229,0.55523699522018,3.19923210144043,-9.8149995803833,-18.1310005187988,-22.8390007019043,6.85200023651123,8.5,7.55800008773804,10.6592445373535,-2.92894101142883,-15.2951936721802,-24.988000869751,-11.414999961853,6.07999992370605,-4.07843780517578,-5.48743391036987,-9.02019119262695,13.0714359283447,9.25411796569824,-1.31922197341919,7.20900011062622,20.7819995880127,30.1180000305176,2.92899990081787,6.30299997329712,6.06799983978271,7.05782604217529,1.11326599121094,0.17533899843693,28.6749992370605,16.3570003509521,11.3360004425049,6.38601589202881,5.7290210723877,5.16081619262695,-5.43942403793335,-3.68271398544312,-1.74572396278381,2.73699998855591,-7.38299989700317,-18.1310005187988,4.81199979782104,7.40100002288818,9.59799957275391,3.48389291763306,9.0790491104126,4.4120979309082,-25.6159992218018,-27.2630004882813,-14.8669996261597,-10.2303438186646,-6.86784601211548,-5.64506816864014,13.0374135971069,13.0380010604858,10.8204412460327,-11.5410003662109,1.87399995326996,15.3680000305176,0.02700000070035,1.9099999666214,4.9689998626709,-3.77742290496826,4.68884992599487,-1.42152905464172,26.556999206543,28.5179996490479,25.0659999847412,SHAKE
-6.38079118728638,2.38719010353088,10.0693235397339,5.37385320663452,-13.7091636657715,-12.6237821578979,26.6660003662109,33.1780014038086,31.7660007476807,4.42000007629395,1.43900001049042,-1.30599999427795,-2.68627500534058,-3.01365303993225,-2.92321991920471,18.8680000305176,13.2980003356934,11.1009998321533,6.16237688064575,5.63447380065918,2.60180902481079,-4.68381309509277,-0.16361600160599,3.68819308280945,-0.47900000214577,-18.7590007781982,-23.3090000152588,5.98899984359741,8.73499965667725,7.79400014877319,8.82802772521973,-0.15758900344372,-8.76434135437012,-24.5960006713867,-10.7089996337891,6.07999992370605,-4.87879180908203,-5.33243322372437,-7.60601997375488,13.2303743362427,9.73789978027344,1.28300094604492,5.9539999961853,18.193000793457,28.863000869751,2.06599998474121,4.5770001411438,4.42000007629395,4.74954700469971,0.50304198265076,-0.80855399370193,28.8320007324219,23.6539993286133,16.9850006103516,7.83659315109253,6.68292808532715,6.34353923797607,-7.76688623428345,-6.04625988006592,-3.98592090606689,12.8579998016357,4.93400001525879,-3.06800007820129,0.65399998426437,3.47900009155273,6.06799983978271,0.11974900215864,1.6536420583725,6.30036306381226,-7.96299982070923,-19.7310009002686,-23.8899993896484,-12.5632266998291,-10.3384170532227,-6.64410495758057,12.761043548584,13.3467502593994,12.7089872360229,-15.8559999465942,-8.63799953460693,1.16799998283386,3.16499996185303,1.125,1.43900001049042,-7.7110481262207,-4.25917196273804,6.22078990936279,13.8470001220703,18.8680000305176,23.8889999389648,SHAKE
-6.31108617782593,-9.48562812805176,-6.7352237701416,9.8056697845459,12.6997880935669,11.1176471710205,-22.6030006408691,-2.91100001335144,11.7589998245239,5.20499992370605,2.6159999370575,3.24300003051758,-5.09925508499146,6.32492303848267,-0.49596700072289,26.8700008392334,32.6759986877441,20.6720008850098,7.76442813873291,6.54820585250854,5.47002506256104,-9.24224472045898,-7.41322994232178,-5.75947713851929,14.8979997634888,9.79800033569336,-7.53999996185303,1.04700005054474,2.45900011062622,7.95100021362305,2.97899007797241,7.62909317016602,1.17801201343536,-27.6550006866455,-27.6550006866455,-6.15899991989136,-9.03246593475342,-7.11656188964844,-9.41863346099854,13.1024074554443,11.2163715362549,1.56169700622559,-0.94900000095367,16.3880004882813,30.746000289917,1.8309999704361,2.69400000572205,1.8309999704361,5.68743085861206,-2.83095407485962,-4.11315584182739,32.3619995117188,25.7719993591309,17.3770008087158,6.39777183532715,5.43839979171753,5.34715223312378,-6.34511518478394,-4.72025012969971,-2.18499088287354,-1.41999995708466,-12.5609998703003,-21.2700004577637,5.44000005722046,8.10799980163574,8.3430004119873,1.33263301849365,-12.7811822891235,-14.5558633804321,-28.3619995117188,3.25500011444092,17.8479995727539,-3.17063903808594,7.54657697677612,9.42539501190186,10.8594398498535,-10.7228860855103,-9.87316036224365,24.1550006866455,34.1980018615723,25.4109992980957,5.83199977874756,3.55699992179871,1.51699995994568,1.58308899402618,0.83234399557114,0.54009699821472,14.5530004501343,9.2180004119873,2.39199995994568,SHAKE
-4.58228492736816,-3.17063903808594,7.54657697677612,13.4520301818848,10.8594398498535,-10.7228860855103,8.07199954986572,24.1550006866455,34.1980018615723,4.26300001144409,5.83199977874756,3.55699992179871,3.05732607841492,1.58308899402618,0.83234399557114,20.9860000610352,14.5530004501343,9.2180004119873,5.79609107971191,5.24417495727539,4.64746809005737,-5.31672286987305,-3.69897603988647,-1.87654805183411,-3.6949999332428,-12.7180004119873,-20.1709995269775,2.45900011062622,4.5770001411438,4.89099979400635,5.04200077056885,12.495265007019,-20.1753845214844,-22.242000579834,-19.1040000915527,-1.76499998569489,-3.07625198364258,-1.1054949760437,1.10501003265381,12.935112953186,10.6956748962402,8.54989147186279,2.65899991989136,18.5069999694824,29.4120006561279,2.53699994087219,7.00899982452393,8.6569995880127,15.8851337432861,6.51743078231812,4.76709985733032,31.4990005493164,18.7889995574951,15.4940004348755,5.65223121643066,4.84781408309937,4.35010004043579,-4.28299283981323,-3.11282396316528,-1.76254403591156,2.97199988365173,-6.59800004959106,-15.3070001602173,2.92899990081787,3.40000009536743,4.49900007247925,3.81721901893616,9.20665264129639,-16.134895324707,-20.8299999237061,-23.7329998016357,-14.710000038147,-5.08387994766235,-3.05715394020081,-2.3755509853363,12.9299354553223,11.20982837677,9.14802837371826,-10.3640003204346,3.28600001335144,18.3500003814697,-0.91399997472763,1.20299994945526,6.61700010299683,-14.2696113586426,15.321681022644,9.56109046936035,25.0659999847412,25.3799991607666,23.0259990692139,SHAKE
-4.14565420150757,7.57663583755493,7.23773097991943,4.99450778961182,-10.5525541305542,-8.7205286026001,20.076000213623,31.4519996643066,27.6079998016357,8.57800006866455,11.1669998168945,10.4610004425049,5.97669982910156,4.55615901947021,3.59879302978516,13.9250001907349,10.1590003967285,6.15799999237061,3.69308805465698,3.26763606071472,1.9561710357666,-2.13715505599976,-0.57458198070526,0.752376973629,-2.59699988365173,-11.2270002365112,-17.9740009307861,2.92899990081787,2.77300000190735,4.42000007629395,5.51313877105713,0.56476497650146,-11.591570854187,-20.5939998626709,-22.3199996948242,-2.94199991226196,-3.5631160736084,-1.99657297134399,-3.12273001670837,12.3200540542603,10.7286376953125,6.85835599899292,1.48199999332428,18.5069999694824,29.0200004577637,-0.91399997472763,3.47900009155273,5.28299999237061,9.624924659729,4.34817123413086,2.68354511260986,28.1259994506836,24.3600006103516,17.6909999847412,7.23230695724487,6.06478404998779,5.38921499252319,-6.94764804840088,-5.29287481307983,-3.55211591720581,12.701000213623,3.99200010299683,3.99200010299683,1.98800003528595,3.08599996566772,3.08599996566772,1.77936005592346,2.84187793731689,7.60492181777954,-10.6309995651245,-23.3400001525879,-23.3400001525879,-6.21844482421875,-3.4196720123291,-3.91121792793274,13.4688682556152,11.8562078475952,9.20852947235107,-9.57999992370606,3.59999990463257,15.9180002212524,-1.62000000476837,0.88999998569489,5.44000005722046,-8.90583419799805,12.05126953125,6.30003786087036,25.2229995727539,26.7140007019043,23.6539993286133,SHAKE
-3.4196720123291,-3.91121792793274,-5.62652492523193,11.8562078475952,9.20852947235107,4.52773094177246,3.59999990463257,15.9180002212524,25.0970001220703,0.88999998569489,5.44000005722046,7.63700008392334,12.05126953125,6.30003786087036,4.06261587142944,26.7140007019043,23.6539993286133,17.7700004577637,7.38962316513062,6.00914287567139,5.9431619644165,-6.73984479904175,-3.09388089179993,-1.32371997833252,16.8589992523193,3.5220000743866,-5.34299993515015,1.59599995613098,0.18400000035763,1.51699995994568,2.42978191375732,3.36122107505798,7.00222778320313,-10.8660001754761,-24.4389991760254,-26.9489994049072,-4.79993486404419,-3.2481529712677,-8.01009654998779,12.2010946273804,9.88711643218994,4.41558504104614,0.07000000029802,14.2700004577637,29.5690002441406,1.20299994945526,2.69400000572205,3.00799989700317,7.36925506591797,7.08182716369629,4.45134592056274,29.2240009307861,22.0849990844727,15.9650001525879,7.97351312637329,6.51347208023071,5.15233898162842,-7.41965579986572,-5.65546321868896,-4.28663778305054,17.9570007324219,7.60099983215332,-7.77500009536743,5.20499992370605,5.59700012207031,6.53800010681152,1.96394395828247,3.16210699081421,4.72046279907227,-12.2779998779297,-22.1639995574951,-23.576000213623,-13.1492938995361,-9.60259246826172,-6.99695777893066,10.8237991333008,11.2086229324341,10.2117929458618,-21.0340003967285,-5.97100019454956,1.16799998283386,3.55699992179871,-0.44299998879433,0.10499999672174,-7.18509101867676,2.40337204933167,2.56555509567261,22.0060005187988,23.8889999389648,25.4580001831055,SHAKE
-6.99935388565063,-10.1048860549927,9.44568824768066,7.19221115112305,-4.94391298294067,-14.1063528060913,21.8020000457764,27.6860008239746,36.2379989624023,1.51699995994568,1.67400002479553,2.8510000705719,-1.20608603954315,-1.37036001682281,-1.23306202888489,15.1020002365112,10.9440002441406,6.86399984359741,5.83015584945679,5.2387318611145,3.16141390800476,-2.96724104881287,-0.72243499755859,1.93020594120026,-8.40299987792969,-20.0139999389648,-23.6229991912842,6.53800010681152,8.9709997177124,10.3039999008179,8.12103271484375,1.16823101043701,-8.87136363983154,-26.556999206543,-21.378999710083,4.82399988174438,-4.91517496109009,-4.48911809921265,-7.19440698623657,13.5103559494019,10.834415435791,3.91660404205322,3.28600001335144,18.1140003204346,23.9990005493164,1.20299994945526,3.08599996566772,3.24300003051758,8.28641319274902,0.67005598545074,-0.10219199955463,29.3810005187988,18.7110004425049,13.1409997940063,7.00971508026123,6.14986515045166,5.63997220993042,-5.09840297698975,-3.32449197769165,-1.34646701812744,6.34600019454956,-2.67499995231628,-8.01000022888184,4.81199979782104,5.59700012207031,5.83199977874756,2.3984580039978,6.42880010604858,10.25927734375,-16.9850006103516,-23.8110008239746,-26.7919998168945,-2.00385499000549,0.71357601881027,-5.88371992111206,16.9177188873291,14.7419090270996,8.25277328491211,-5.34299993515015,8.77799987792969,19.3700008392334,0.81099998950958,3.47900009155273,5.28299999237061,12.4022016525269,4.71700000762939,1.18511605262756,24.5170001983643,28.2040004730225,23.0259990692139,SHAKE
5.09159994125366,3.57874202728271,-2.8077220916748,-1.4807460308075,0.91443699598312,4.91495895385742,-15.9350004196167,-25.5849990844727,-28.0170001983643,9.44099998474121,11.7950000762939,9.91199970245361,4.62764883041382,0.15393500030041,-1.9846750497818,-20.1240005493164,-12.5920000076294,13.1409997940063,-8.20092868804932,-6.9694390296936,-3.86718606948853,8.42797374725342,5.34125995635986,-8.71202659606934,14.0349998474121,27.0580005645752,34.5900001525879,3.63599991798401,1.125,-1.69799995422363,-2.06820106506348,-4.01818323135376,-4.27145910263062,23.8110008239746,19.7310009002686,14.8669996261597,7.16103315353394,5.39209794998169,4.37034893035889,-6.59375905990601,-3.13427901268005,-0.75462800264359,13.0150003433228,-19.2299995422363,-27.3110008239746,3.79200005531311,12.6579999923706,16.423999786377,6.58719921112061,10.0887222290039,2.19157695770264,-32.5979995727539,-21.7709999084473,16.75,-7.76460409164429,-6.46417617797852,-3.18776202201843,11.4098167419434,9.82810211181641,-15.0020627975464,17.9570007324219,24.1550006866455,32.8639984130859,-1.46300005912781,-2.71799993515015,-4.20900011062622,-6.8811731338501,-7.36386394500732,-6.78112077713013,21.1429996490479,16.9850006103516,12.6700000762939,6.13284301757813,5.54298114776611,5.27082300186157,-5.56444406509399,-3.66186809539795,-1.22400295734406,3.99200010299683,-7.85400009155273,-14.2080001831055,6.06799983978271,9.91199970245361,12.5010004043579,0.50004601478577,7.40021514892578,5.86249113082886,-16.9069995880127,-26.4790000915527,-13.7690000534058,SHAKE
5.54298114776611,5.27082300186157,4.32672691345215,-3.66186809539795,-1.22400295734406,2.27506899833679,-7.85400009155273,-14.2080001831055,-23.0739994049072,9.91199970245361,12.5010004043579,16.8159999847412,7.40021514892578,5.86249113082886,0.04668999835849,-26.4790000915527,-13.7690000534058,18.9459991455078,-7.17486715316772,-6.12400102615356,2.54968190193176,8.58508205413818,4.21415185928345,-9.74231338500977,16.6240005493164,24.2339992523193,29.4120006561279,1.36000001430511,-0.20800000429153,-1.69799995422363,-5.24443006515503,-6.12680387496948,-5.91381120681763,20.7509994506836,17.3770008087158,13.5329999923706,5.67998886108398,5.31328678131104,4.03868818283081,-6.11029005050659,-4.24655723571777,1.5917489528656,7.36600017547607,2.81500005722046,-24.7999992370605,3.63599991798401,5.83199977874756,15.4820003509521,8.41114139556885,9.69025230407715,5.18073987960815,-30.4009990692139,-22.4769992828369,-6.15899991989136,-8.67369365692139,-7.20453119277954,-5.95474481582642,11.3218383789063,10.1666069030762,6.91933298110962,-6.28399991989136,11.3669996261597,20.625,4.5770001411438,5.83199977874756,1.67400002479553,1.50926196575165,-3.76192188262939,-6.92051792144775,22.0060005187988,23.2609996795654,15.6510000228882,5.83241987228394,5.03854894638062,4.65837097167969,-7.0370078086853,-5.8842511177063,-4.27637100219727,12.543999671936,4.22800016403198,-6.67700004577637,0.26199999451637,4.10599994659424,8.26399993896484,-2.53065609931946,1.1056649684906,10.1060304641724,-6.07999992370605,-15.6520004272461,-29.7740001678467,SHAKE
2.33602690696716,2.30300903320313,2.20617890357971,-5.60488986968994,-3.29592609405518,1.09209895133972,-5.18599987030029,-21.3479995727539,-25.1919994354248,4.89099979400635,10.6969995498657,12.6579999923706,10.113657951355,5.58121109008789,2.86420106887817,-27.0279998779297,-14.5530004501343,24.0459995269775,-5.65898990631104,-3.43957805633545,5.8015079498291,7.55411100387573,2.8019061088562,-6.97656011581421,22.3509998321533,28.2350006103516,31.3729991912842,6.30299997329712,5.67500019073486,2.69400000572205,-5.7853832244873,-6.40419816970825,-6.09247779846191,23.5750007629395,16.8279991149902,14.16100025177,5.41950082778931,4.61263084411621,3.73032689094543,-6.46300983428955,-5.52825212478638,-4.66138792037964,1.48199999332428,-12.0120000839233,-24.7220001220703,-0.67900002002716,3.79200005531311,11.7950000762939,1.61268198490143,14.0159244537354,9.13390445709228,-30.1660003662109,-32.5200004577637,-15.3380002975464,-9.27920436859131,-7.69948196411133,-6.56688499450684,13.4954614639282,13.069278717041,10.3881053924561,-17.8959999084473,1.63900005817413,21.2530002593994,-1.30599999427795,0.34000000357628,3.32200002670288,4.2421178817749,-2.67421007156372,-5.62992715835571,26.6350002288818,26.1639995574951,25.2229995727539,7.6005392074585,6.41173887252808,5.63915205001831,-6.8585090637207,-5.2820348739624,-3.95604705810547,21.8799991607666,13.0150003433228,5.875,0.49700000882149,0.73299998044968,1.43900001049042,-4.08121681213379,-2.69574689865112,-0.45781201124191,5.37400007247925,-0.27399998903275,-14.3959999084473,SHAKE
