gyro_x_0,gyro_y_0,gyro_z_0,acc_x_0,acc_y_0,acc_z_0,gyro_x_1,gyro_y_1,gyro_z_1,acc_x_1,acc_y_1,acc_z_1,gyro_x_2,gyro_y_2,gyro_z_2,acc_x_2,acc_y_2,acc_z_2,gyro_x_3,gyro_y_3,gyro_z_3,acc_x_3,acc_y_3,acc_z_3,gyro_x_4,gyro_y_4,gyro_z_4,acc_x_4,acc_y_4,acc_z_4,gyro_x_5,gyro_y_5,gyro_z_5,acc_x_5,acc_y_5,acc_z_5,gyro_x_6,gyro_y_6,gyro_z_6,acc_x_6,acc_y_6,acc_z_6,gyro_x_7,gyro_y_7,gyro_z_7,acc_x_7,acc_y_7,acc_z_7,gyro_x_8,gyro_y_8,gyro_z_8,acc_x_8,acc_y_8,acc_z_8,gyro_x_9,gyro_y_9,gyro_z_9,acc_x_9,acc_y_9,acc_z_9,gyro_x_10,gyro_y_10,gyro_z_10,acc_x_10,acc_y_10,acc_z_10,gyro_x_11,gyro_y_11,gyro_z_11,acc_x_11,acc_y_11,acc_z_11,gyro_x_12,gyro_y_12,gyro_z_12,acc_x_12,acc_y_12,acc_z_12,gyro_x_13,gyro_y_13,gyro_z_13,acc_x_13,acc_y_13,acc_z_13,gyro_x_14,gyro_y_14,gyro_z_14,acc_x_14,acc_y_14,acc_z_14,motion_type
0.35246923565865,0.40072759985924,0.43493604660034,-0.68539083003998,-0.50762903690338,-0.22968533635139,2.80839848518372,3.15555787086487,3.31836366653442,10.4626617431641,9.82819843292236,9.23682975769043,-1.84786736965179,-2.2534818649292,-3.06837606430054,2.27927994728088,5.45159721374512,7.25443124771118,-1.1856894493103,-1.48623514175415,-0.59131753444672,1.3567316532135,1.88696277141571,0.89797192811966,-3.44765043258667,-8.391676902771,-12.3253507614136,3.74213719367981,14.2502889633179,11.0300874710083,-5.50756120681763,-3.02622652053833,1.08917272090912,-21.8255424499512,-32.4342498779297,-39.7174110412598,2.01707696914673,3.74338221549988,4.40250587463379,0.53756141662598,-0.59803706407547,0.18814650177956,-40.4380683898926,-61.2676200866699,-78.4244689941406,20.4967613220215,9.53371143341064,5.10204362869263,20.008279800415,7.56251192092896,3.94008088111877,41.2137870788574,40.2968101501465,20.4033870697021,0.90041536092758,0.13927727937698,-0.74830991029739,2.46300864219666,2.12336754798889,1.60291039943695,0.12449848651886,2.36547136306763,0.99359369277954,0.04309562966228,1.16837048530579,4.13957452774048,-1.75318324565887,-1.58580613136292,-1.25960409641266,6.83065748214722,3.51708221435547,2.8658595085144,-0.48319441080093,-0.31398472189903,-0.22418753802776,0.99876469373703,0.99693208932877,0.92912602424622,0.15562310814857,0.45010992884636,0.22984336316586,11.3700637817383,10.9055891036987,11.4131593704224,-0.96761053800583,-0.49968776106834,-0.09285151958466,-1.62566292285919,-1.28808057308197,0.35913026332855,SWING_LEFT
-0.03054326213896,-0.13194689154625,-0.16982053220272,0.23701570928097,0.40622538328171,0.69455379247665,3.03584766387939,3.67509961128235,3.39737224578857,9.83059215545654,10.3142213821411,9.7013053894043,-1.89918005466461,-2.67742228507996,-3.65297412872315,2.03507137298584,2.0973207950592,3.22020125389099,-1.5778648853302,-2.35305285453796,-2.91077280044556,0.61086523532867,1.4178181886673,1.87413454055786,-5.99747514724731,-12.3301391601563,-16.1010055541992,3.5506010055542,3.21062445640564,5.24330186843872,-6.88811635971069,-5.39882707595825,-1.58397352695465,-14.4873142242432,-34.1604690551758,-52.5718803405762,4.38234710693359,6.5118236541748,6.39026117324829,-5.30597543716431,-2.14169359207153,0.45875978469849,-25.3282604217529,-37.8235969543457,-56.4840049743652,15.9789018630981,5.77481460571289,1.62087452411652,19.2092685699463,19.7291145324707,14.7462873458862,15.1457195281982,45.832202911377,48.7459449768066,2.0512855052948,3.51186418533325,3.46238422393799,-1.86497163772583,-2.73301100730896,0.16310101747513,-6.20098257064819,-1.83874690532684,-1.57059633731842,10.5584297180176,1.72621941566467,-4.74770212173462,3.09036731719971,2.13680672645569,0.96028017997742,23.1519298553467,19.7713184356689,14.1353664398193,-0.56871557235718,-0.09468411654234,-0.5155702829361,2.34450078010559,1.09344875812531,1.33168625831604,1.41976165771484,0.11492168158293,0.14125789701939,9.79707336425781,7.14429807662964,8.59278964996338,0.35979962348938,0.05070181563497,-0.17287486791611,5.32470464706421,3.2585084438324,1.44609785079956,SWING_LEFT
0.17715092003345,0.18509216606617,-0.2119702398777,-0.00183259579353,0.25961771607399,0.25045475363731,1.1947066783905,1.30483996868134,1.35032975673676,9.07402420043945,8.53772354125977,10.6781396865845,-1.53143918514252,-1.61940371990204,-2.33411622047424,-0.03830722719431,1.49158763885498,-0.39983168244362,-0.69882982969284,-1.20096111297607,-1.59130394458771,0.67744958400726,0.35369098186493,-0.04520402848721,-5.41089582443237,-8.78911399841309,-10.7020816802979,7.51300477981567,7.97747993469238,12.1649389266968,-1.9278906583786,1.29869949817657,6.59123611450195,-32.8101387023926,-43.3230781555176,-36.3439826965332,4.90402603149414,4.66701030731201,1.29686689376831,-2.03601384162903,1.91689515113831,5.31880378723145,-49.0883178710938,-66.5947189331055,-60.1423454284668,3.18428826332092,-5.36780023574829,7.76439619064331,17.9985332489014,11.7683191299438,6.00114011764526,44.4555358886719,28.5580387115479,11.6142721176147,4.71526861190796,1.93827545642853,1.78983521461487,-1.07634460926056,1.78250479698181,0.57299160957336,-15.4449949264526,-8.45392608642578,-2.24336695671082,-11.2024698257446,2.01591777801514,4.93444967269897,1.67499256134033,0.12217304855585,-0.59864795207977,26.2931232452393,16.8025074005127,8.31506252288818,-0.72143185138702,-1.20096111297607,-1.1911872625351,1.13071155548096,0.72998398542404,0.25167647004128,-0.56981998682022,0.16998831927776,0.61052143573761,5.22654247283936,8.85615253448486,10.8744640350342,-0.58826321363449,-0.56749379634857,-0.48319441080093,3.16034626960754,2.73417830467224,2.33674097061157,SWING_LEFT
-1.56014978885651,-1.72630512714386,-1.61757111549377,0.28405234217644,0.87414819002151,1.74279856681824,-1.01035308837891,-1.48201084136963,-3.12922167778015,8.37970638275146,9.74679470062256,8.7292594909668,-4.04270601272583,-4.45381832122803,-5.36522960662842,-2.29603934288025,1.54186594486237,-2.16914677619934,0.29504790902138,0.94317591190338,1.3322970867157,2.80875849723816,0.85276788473129,-0.64018678665161,-10.7116584777832,-10.4818153381348,-11.6118783950806,10.2687311172485,9.86889934539795,5.05415964126587,0.10629054903984,3.33960032463074,7.07443046569824,-25.5844402313232,-27.6410579681396,-33.3320770263672,0.61575216054916,1.05924034118652,1.30847334861755,-1.5778648853302,-3.444669008255,-3.06226754188538,-32.1086387634277,-53.3930931091309,-74.1077270507813,6.38294172286987,1.4867992401123,-2.03985977172852,20.008279800415,17.1414890289307,8.35480403900146,32.2068023681641,68.1294021606445,47.6805267333984,3.06287837028503,3.55767917633057,2.35488557815552,-1.63467538356781,-1.72997033596039,0.45081853866577,-2.95923328399658,0.24420857429504,-1.49637603759766,9.99100399017334,0.91937345266342,-0.71107792854309,1.9278906583786,1.35978603363037,0.85215699672699,11.9973449707031,10.2304239273071,8.47786808013916,0.73181658983231,0.3500257730484,-0.01710422709584,-0.5412266254425,-0.11850785464048,0.06414084881544,1.39821374416351,2.16435837745667,2.22421336174011,7.19936466217041,7.41484260559082,8.40364837646484,0.26083946228027,0.23396138846874,0.24678955972195,4.01268196105957,3.36624765396118,2.61207413673401,SWING_LEFT
-0.51984632015228,-0.51068335771561,-0.66462141275406,0.10873401165009,0.78496181964874,1.49478721618652,1.95606279373169,1.96803379058838,1.52750062942505,9.7396125793457,8.80347919464111,8.73883628845215,-1.63834059238434,-2.37015724182129,-3.06776523590088,2.87543630599976,2.11168599128723,1.90578460693359,-1.79838728904724,-2.12458920478821,-2.23576688766479,3.42267799377441,3.05860233306885,1.59619092941284,-9.3637228012085,-13.2447242736816,-16.0818519592285,4.88417148590088,6.1100025177002,10.1466264724731,-5.34629249572754,-2.80448222160339,1.78922426700592,-21.0139083862305,-36.9928092956543,-40.3207511901855,7.04266548156738,8.52645683288574,7.87344217300415,-3.64686560630798,0.78251838684082,3.12640833854675,-32.8412628173828,-48.784252166748,-68.7662582397461,16.4170417785645,6.20098257064819,-0.03112462162971,19.9930076599121,19.86350440979,15.4561128616333,18.1839618682861,44.9415588378906,55.9189758300781,3.56928563117981,5.91256475448608,4.77574443817139,-1.56198239326477,-2.23026895523071,-0.28283059597015,-8.2312650680542,-7.41723680496216,-2.39180755615234,11.2335939407349,-5.10204362869263,-8.61673164367676,3.6603045463562,3.20826435089111,2.26997518539429,19.6013298034668,17.7506122589111,14.3747873306274,0.15699236094952,0.97249746322632,0.657290995121,0.95356065034866,0.52473324537277,0.48319441080093,-1.36230075359344,-1.45567464828491,-0.73501992225647,10.1777515411377,6.05014753341675,7.01740503311157,0.59864795207977,0.18264870345592,-0.70799279212952,10.3621053695679,10.1418380737305,5.52342319488525,SWING_LEFT
-0.57848936319351,-0.52656584978104,-0.71287971735001,-0.6010913848877,-0.31887164711952,-0.02321287989616,3.02866506576538,2.77487969398499,3.40216064453125,8.68855762481689,7.71890640258789,7.59201335906982,-3.74277138710022,-4.77513360977173,-4.88875436782837,-0.2537853717804,-2.82994651794434,-1.52271223068237,-2.84907555580139,-3.84234237670898,-4.69938611984253,-0.31520646810532,-0.46792277693748,0.95417153835297,-8.66461563110352,-13.5009031295776,-14.7722244262695,2.60967993736267,4.11323833465576,17.8966579437256,-2.45323491096497,1.18324601650238,6.15080213546753,-31.4023494720459,-38.3886299133301,-32.3791847229004,5.58819532394409,6.10620880126953,5.6095757484436,-2.50821280479431,-1.07267940044403,-0.18264870345592,-45.1953468322754,-68.1868667602539,-78.4412307739258,8.62870311737061,3.51229381561279,-2.62883353233337,20.008279800415,17.0211486816406,8.16604614257813,53.1895866394043,59.8191299438477,31.7926044464111,4.36585378646851,3.25224661827087,1.43614423274994,-6.12270212173462,-2.47644782066345,1.69026410579681,-5.04697704315186,-5.52102899551392,-6.16267538070679,-7.41244840621948,-3.80917501449585,5.58567237854004,3.55401396751404,2.44590449333191,1.13376593589783,20.1950912475586,18.6005535125732,14.6525144577026,1.1423180103302,-0.04337143152952,-0.56077426671982,0.69272118806839,0.28099802136421,0.28344148397446,-0.7182605266571,-0.58657944202423,0.08379705995321,2.60728573799133,4.71657752990723,7.33104562759399,-0.56871557235718,-0.43615779280663,-0.31215214729309,4.93684387207031,4.3646297454834,4.0270471572876,SWING_LEFT
-1.29136908054352,-1.50700461864471,-1.75318324565887,-0.79717916250229,-1.20706975460052,-1.83076310157776,4.93444967269897,4.39575433731079,3.44286203384399,7.29034423828125,8.37491798400879,9.33020401000977,-3.11480188369751,-3.51430773735046,-3.92297649383545,2.13083958625793,1.30962836742401,-0.66319388151169,-3.03966546058655,-3.5081992149353,-3.32982635498047,1.70431399345398,2.05556154251099,1.95721220970154,-6.94079065322876,-9.70848751068115,-9.82580375671387,6.70137071609497,9.68933391571045,15.5359745025635,-3.21559476852417,-0.29932397603989,3.88876819610596,-29.8173885345459,-39.2505416870117,-41.5298233032227,6.05489635467529,6.48616695404053,4.46786832809448,-2.09526777267456,0.01954768784344,2.47766947746277,-40.4045486450195,-52.6652565002441,-59.3163452148438,10.3070383071899,1.24259066581726,4.1156325340271,18.0205249786377,17.7645721435547,12.4616508483887,9.45709705352783,27.8876609802246,36.7031135559082,5.14470720291138,4.25528717041016,3.55218148231506,-3.46238422393799,-1.07878804206848,0.58643060922623,-15.5192155838013,-12.6796922683716,-10.3908357620239,-2.88022470474243,-1.70946002006531,-0.77572137117386,3.31577658653259,1.51311326026917,-0.08674286305904,27.3633308410645,24.5022602081299,19.8575096130371,0.44715335965157,-0.36407569050789,-0.8784242272377,1.03724920749664,1.10810959339142,0.92362827062607,-2.06380176544189,-1.66157603263855,-0.56742578744888,1.36708915233612,3.89057779312134,6.95994424819946,-1.55159771442413,-1.31641459465027,-1.08428585529327,5.52102899551392,4.065354347229,3.26329684257507,SWING_LEFT
-1.24616515636444,-1.9034560918808,-2.58762526512146,-0.39767327904701,0.48380526900291,1.37689030170441,5.31991624832153,4.66629934310913,2.78685069084167,5.655104637146,5.00627565383911,5.49708700180054,-2.89550137519836,-3.41046071052551,-4.07080602645874,1.1947066783905,0.55545479059219,-3.08612608909607,-4.15693807601929,-3.50270128250122,-2.63649439811707,2.5057692527771,0.89797192811966,-0.52473324537277,-8.35097599029541,-8.63349151611328,-10.4243545532227,11.3365449905396,13.6565265655518,16.266206741333,-1.47462868690491,0.38179078698158,3.25041389465332,-17.0706577301025,-22.7185802459717,-34.9074592590332,6.16729545593262,7.22409248352051,6.37193536758423,-0.31764993071556,-0.5894849896431,-0.23212879896164,-28.0073719024658,-45.5856018066406,-61.7009735107422,17.0658702850342,5.05176544189453,-2.61925673484802,19.4866008758545,17.7761783599854,13.7597398757935,14.4825258255005,32.1708869934082,46.4499053955078,2.20949959754944,4.93334770202637,4.94434309005737,-1.92850160598755,-2.90405344963074,-1.54732167720795,-8.32463932037354,-8.78911399841309,-7.56088876724243,19.7138576507568,3.47638082504272,-4.65432786941528,3.8502836227417,3.24430537223816,2.08121800422669,18.5837936401367,20.592529296875,19.0219326019287,1.23883473873138,1.04152524471283,0.4331034719944,0.80023348331451,-0.0500909499824,0.05925392732024,0.72544312477112,0.53869539499283,0.66558808088303,5.93043756484985,3.9384617805481,4.30716896057129,-0.45387288928032,-0.4758640229702,-0.44409903883934,7.92001914978027,6.84262847900391,6.37575912475586,SWING_LEFT
-1.79472208023071,-1.99814021587372,-2.21621918678284,-0.15699236094952,0.96028017997742,1.68171203136444,1.28329205513,0.92895025014877,-0.28969839215279,7.52497577667236,6.77319669723511,5.26006126403809,-5.14531803131104,-5.15631341934204,-4.98954725265503,-2.89937829971313,-4.82910490036011,-8.32463932037354,-2.59862065315247,-2.16796064376831,-1.95293617248535,1.35184478759766,1.3335188627243,0.601702272892,-7.38371801376343,-10.6470146179199,-13.6828622817993,8.93994903564453,7.66144561767578,7.80030918121338,-1.95476877689362,1.55709552764893,6.68653106689453,-25.4790935516357,-37.3543357849121,-39.0278816223145,2.27058601379395,3.62731790542603,3.21864891052246,-1.81488060951233,-1.06351637840271,0.22846360504627,-39.9137382507324,-58.9117279052734,-73.4469223022461,13.4913263320923,4.04141235351563,2.03507137298584,19.8366279602051,16.1457786560059,10.3095731735229,31.1701126098633,43.3661766052246,37.2418060302734,3.13618206977844,2.17406940460205,0.7006624341011,-4.59737205505371,-2.14902400970459,1.0622946023941,-2.58094954490662,-2.25054955482483,-1.35751235485077,-1.82917010784149,-4.25449657440186,-1.50116443634033,0.86681777238846,0.38423424959183,0.10751228034496,15.3109197616577,12.0548057556152,10.144232749939,0.38117989897728,0.18936823308468,0.04703662544489,0.14049901068211,-0.02382374368608,0.03909537568688,-0.03112462162971,0.17956513166428,0.06464344263077,7.43639039993286,8.40125370025635,9.41160678863525,0.4978551864624,0.63102382421494,0.46242499351501,4.78361511230469,6.04296493530273,6.05493593215942,SWING_LEFT
-1.85092175006866,-2.01157927513123,-2.44529366493225,2.14108276367188,2.52714943885803,2.28402519226074,2.6240451335907,1.41497325897217,0.06464344263077,6.5361704826355,5.20499467849731,6.29914474487305,-3.85761404037476,-3.9058723449707,-4.16915512084961,-4.01986455917358,-4.06056594848633,-2.19548296928406,-1.86802589893341,-1.93094503879547,-2.0457878112793,0.6145304441452,0.35735616087914,-0.41050145030022,-11.3006324768066,-16.3236675262451,-16.979679107666,6.61278486251831,6.22492456436157,10.1322612762451,-4.91318893432617,-2.07816362380981,2.32861828804016,-22.4312763214111,-34.9146423339844,-36.7773323059082,5.52955198287964,6.43607616424561,5.46174621582031,-2.3658812046051,-1.36039686203003,0.39828413724899,-26.7647800445557,-39.3319473266602,-57.3243713378906,10.5727949142456,1.38624274730682,-4.66151094436646,19.8891620635986,19.6106071472168,15.1641187667847,11.049241065979,39.0254859924316,50.9581871032715,3.3402111530304,5.10622262954712,4.64257574081421,-3.4391713142395,-5.10561180114746,-3.7946949005127,-7.24724864959717,-6.33984613418579,-3.04303026199341,14.322114944458,1.16118776798248,-3.13640427589417,3.32616114616394,2.71040916442871,0.80267691612244,18.9477119445801,19.4385242462158,13.0388221740723,-0.37384954094887,-0.84910267591476,-1.02442097663879,0.40500366687775,-0.11056660860777,-0.13072516024113,1.93930339813232,1.65439331531525,1.00077629089355,4.36941814422607,6.42364311218262,7.8266453742981,-0.27000242471695,-0.27122417092323,-0.30970868468285,6.32308673858643,6.16506958007813,6.19858837127686,SWING_LEFT
-1.82587623596191,-1.66705119609833,-1.65910995006561,0.05619960278273,0.08124507963657,-0.09468411654234,3.96240377426147,3.34948825836182,2.45166254043579,10.2136640548706,9.78510189056396,8.95431423187256,-3.98100876808167,-4.56499576568604,-4.95961475372314,1.43652105331421,-0.19153612852097,-1.14921677112579,-2.57052087783813,-2.76049995422363,-2.30601620674133,0.38484510779381,0.48075094819069,0.33964106440544,-6.06690692901611,-9.25119495391846,-11.566388130188,7.53934097290039,11.2599306106567,21.3993740081787,-5.11355304718018,-2.11664795875549,3.04333066940308,-26.9204044342041,-40.5721435546875,-40.8402938842773,3.74338221549988,2.15574336051941,0.39217549562454,1.42270517349243,3.32738304138184,3.2559118270874,-32.6952171325684,-47.6877098083496,-60.0346069335938,6.23689556121826,5.90410137176514,9.17458057403564,19.0999240875244,17.3387985229492,13.3351879119873,15.4809083938599,28.335376739502,31.3137645721436,3.95351982116699,3.44833421707153,2.93337488174438,-4.54972457885742,-2.70185708999634,-0.51495939493179,-12.2990140914917,-6.62236213684082,-4.07014274597168,0.27533319592476,0.61530983448029,0.50517654418945,2.86495804786682,1.6279559135437,0.68355822563171,23.7121734619141,19.7904720306396,15.6125888824463,0.68294733762741,0.33292156457901,-0.04825835302472,1.35367739200592,0.78190749883652,0.5406157374382,1.04387199878693,1.44370365142822,1.90817880630493,4.7907977104187,5.08289003372192,5.09725522994995,-1.02258837223053,-0.91629785299301,-0.73487091064453,5.49708700180054,4.25210237503052,3.76847338676453,SWING_LEFT
-0.62186080217361,-0.93706727027893,-1.07390105724335,-0.15943582355976,-0.03970624133945,0.50579643249512,2.37504816055298,1.41018486022949,1.09654438495636,7.7260890007019,8.27675533294678,9.34456920623779,-2.68169832229614,-3.11846709251404,-3.90892672538757,-1.4676456451416,-0.16041150689125,0.02154781483114,-1.56442594528198,-1.93705368041992,-2.04395508766174,0.72815138101578,0.76907932758331,0.51495939493179,-9.57201862335205,-13.539210319519,-16.9293994903564,4.08211374282837,5.32709884643555,8.29351425170898,-5.22045421600342,-1.86374986171722,3.77392554283142,-34.1868057250977,-45.6334838867188,-36.6097373962402,3.60532665252686,3.71222805976868,2.70979833602905,-2.82586264610291,-0.98349303007126,0.2858849465847,-31.9386501312256,-45.5113792419434,-66.2786865234375,4.09169054031372,-0.03591302409768,-1.7405846118927,20.0033931732178,19.4566688537598,12.7371511459351,32.1349754333496,58.514289855957,46.7635459899902,1.01831233501434,3.89854192733765,4.44526624679565,-3.02989172935486,-4.75008821487427,-3.69451308250427,-5.75087261199951,-6.62954473495483,-3.6846764087677,19.6779441833496,5.07570743560791,-2.01591777801514,2.85396242141724,2.3090705871582,1.04335784912109,15.7227230072021,18.4257755279541,16.074670791626,-0.76602500677109,-0.96761053800583,-0.99265605211258,0.20158553123474,-0.66156703233719,-1.05068826675415,2.19308876991272,1.28089785575867,1.02950668334961,6.37575912475586,8.02536392211914,9.44512557983398,-0.5894849896431,-0.29077184200287,0.04642575979233,3.39976644515991,2.90416669845581,3.18428826332092,SWING_LEFT
-1.66460776329041,-1.4367550611496,-1.20890235900879,-0.07208210229874,-0.20769418776035,0.00916297826916,3.72537779808044,3.31836366653442,3.04063606262207,10.2567596435547,10.0652236938477,9.35414600372314,-2.49294114112854,-2.70857644081116,-3.23514223098755,-0.61770403385162,1.71664261817932,1.13006317615509,-1.85947382450104,-1.96515345573425,-2.03723549842834,0.8228355050087,1.23089349269867,1.02808618545532,-2.10210919380188,-4.94642066955566,-9.43076038360596,8.10197830200195,7.74524259567261,7.10599040985107,-6.44340658187866,-5.79039144515991,-3.58150291442871,-9.95509052276611,-21.4089508056641,-32.7550735473633,0.79595738649368,2.62061190605164,2.4245240688324,-0.78618359565735,-0.39095374941826,0.20341812074184,-17.1185417175293,-34.4956588745117,-46.1219024658203,16.9605255126953,7.48188018798828,4.81234550476074,18.008918762207,16.7108287811279,11.9063749313354,-0.76853877305984,38.6855125427246,41.4484214782715,2.96758341789246,3.97367835044861,2.5925121307373,-2.62183356285095,-3.70062160491943,0.07330382615328,-9.23204135894775,-7.39329481124878,-1.7788919210434,11.9015769958496,3.9073371887207,-1.34554135799408,2.09771132469177,0.81245076656342,-0.0842994004488,21.1623497009277,16.9174289703369,12.6270198822021,-0.43127086758614,-0.8350527882576,-0.8961393237114,0.23823744058609,-0.2944370508194,-0.46242499351501,1.12527477741241,1.08696758747101,0.60094463825226,6.47631549835205,8.66461563110352,10.2830963134766,-0.69211030006409,-0.4416555762291,-0.16187928617001,2.95205068588257,1.82917010784149,2.05183076858521,SWING_LEFT
-1.51433491706848,-1.09283792972565,-0.84543752670288,0.91385442018509,0.7006624341011,0.28283059597015,2.5091233253479,2.3247697353363,1.69509482383728,9.28710842132568,8.76996040344238,7.88889455795288,-3.74826908111572,-3.55829000473022,-3.6114354133606,-2.09013819694519,-1.58735573291779,-1.39342534542084,-2.45323491096497,-2.8857274055481,-2.84235596656799,0.25595253705978,0.44959682226181,-0.1472185254097,-2.29603934288025,-2.41574954986572,-3.98395156860352,5.53060579299927,8.63349151611328,11.0588178634644,-3.6236526966095,-3.80996656417847,-3.08303689956665,-2.21942496299744,-5.71495962142944,-12.9526309967041,2.50943446159363,4.51001787185669,4.33653259277344,-0.3286454975605,0.38912117481232,2.0891592502594,-19.0051727294922,-33.1836357116699,-53.8767204284668,26.858154296875,14.690821647644,7.67581081390381,19.0119590759277,18.1170406341553,13.0749597549438,-4.2257661819458,37.2011070251465,40.0645713806152,6.6572093963623,6.25464916229248,3.99872398376465,-6.58268404006958,-4.86431980133057,-0.04520402848721,-17.3100776672363,-12.0500173568726,-6.25126075744629,-0.38786068558693,-10.0556468963623,-9.00459289550781,3.75743222236633,2.85090804100037,1.19057631492615,22.0314445495605,26.8725204467773,27.1263046264648,0.39156460762024,-1.41293132305145,-1.72691607475281,1.29686689376831,1.05924034118652,0.59620445966721,0.41659110784531,0.01675941236317,-0.73980832099915,0.32800564169884,7.3693528175354,9.89284133911133,-1.12032687664032,-0.59864795207977,-0.30970868468285,2.6240451335907,1.08217918872833,1.74537301063538,SWING_LEFT
-1.24311077594757,-1.41598558425903,-1.30480813980103,-0.9950994849205,-1.05252087116241,-0.46609017252922,3.70143580436707,2.82994651794434,1.7788919210434,9.89523601531982,11.5639944076538,13.2135992050171,-1.29747772216797,-1.58214104175568,-1.93766450881958,0.48123455047607,-0.00478840339929,-0.0526724383235,-0.86315256357193,-1.0067058801651,-0.49602258205414,2.05372905731201,2.99812650680542,4.65662574768066,-0.89782565832138,-2.02310037612915,-5.88734197616577,7.60159063339233,8.95192050933838,7.05331802368164,-4.54117202758789,-4.34264087677002,-2.43613052368164,-8.52335834503174,-15.9621429443359,-47.5033569335938,-0.28099802136421,0.97860610485077,1.42820298671722,-1.82954144477844,-3.01339817047119,-0.77213364839554,-15.8496150970459,-39.8826103210449,-62.7424507141113,16.0052375793457,11.389217376709,9.26077175140381,19.5855617523193,18.3998718261719,16.4921398162842,7.45075559616089,11.1641626358032,15.1983919143677,7.30167245864868,6.75616979598999,5.18258094787598,-6.16973876953125,-3.25285744667053,0.3500257730484,-33.4805183410645,-23.1303825378418,-13.5847005844116,-4.97036266326904,-7.74763679504395,-5.38934803009033,2.87534260749817,0.24068090319633,-1.34695792198181,30.6409931182861,21.8351192474365,12.717999458313,-1.58336269855499,-1.48684597015381,-1.13865280151367,1.88207578659058,-0.13500121235847,-0.96211278438568,-1.64960491657257,-0.67995327711105,0.49081134796143,4.61841487884521,9.44752025604248,8.57603073120117,-0.32436943054199,-0.1667662113905,-0.27183502912521,4.77882671356201,6.85699367523193,8.32942771911621,SWING_LEFT
-0.39706242084503,-0.23762658238411,0.01160643994808,0.39278635382652,0.10751228034496,-0.07391469180584,2.12126278877258,2.30322194099426,2.16196417808533,11.2647190093994,11.9638261795044,11.4490728378296,-0.58765238523483,-0.90591317415237,-1.62734496593475,1.76213240623474,1.48919343948364,-0.36391866207123,-0.99082344770432,-1.56259334087372,-2.21621918678284,1.95049273967743,2.45873260498047,2.53875589370728,-0.00957680679858,-2.74854350090027,-5.93522596359253,5.60003757476807,4.47476291656494,3.93127918243408,-4.39212131500244,-4.54178333282471,-1.6267341375351,-4.8410758972168,-12.6701154708862,-28.4263572692871,3.92175483703613,5.01214933395386,3.79958176612854,-2.90405344963074,-2.73973059654236,0.61575216054916,-24.4974708557129,-34.0407600402832,-52.6891975402832,10.2830963134766,3.19625926017761,-1.77649760246277,17.3528499603271,14.6571006774902,10.1409740447998,28.2036952972412,38.5466461181641,34.5195999145508,6.21860837936401,2.90099906921387,1.00609505176544,-4.0958514213562,1.17163956165314,2.19300627708435,-7.55849456787109,-4.13239192962646,-2.25773215293884,-5.82988119125366,-3.66791701316834,2.22181916236877,2.35366368293762,0.95905846357346,0.59437185525894,14.484920501709,10.6015253067017,10.8002443313599,0.08796459436417,-0.46181413531303,-0.78679442405701,-0.10873401165009,-0.26755899190903,-0.44104471802711,1.6903064250946,2.12605118751526,1.76692080497742,4.01028776168823,5.36780023574829,7.36456441879272,-0.49846604466438,-0.51129418611526,-0.46975538134575,4.69742393493652,4.00310516357422,3.52905321121216,SWING_LEFT
0.1050688251853,-0.01893682219088,-0.22418753802776,0.08979719132185,0.01221730466932,0.05864306539297,2.40617275238037,2.54024791717529,2.25294375419617,8.79390239715576,8.31985092163086,8.50899314880371,-0.59620445966721,-1.12948977947235,-2.21255397796631,0.87867200374603,1.63284552097321,2.08534979820251,-0.86193084716797,-1.26143670082092,-1.10261178016663,1.06595981121063,0.54305922985077,-0.5583308339119,-3.78283858299255,-9.09796619415283,-12.2535238265991,5.83706378936768,9.78270816802978,14.3005666732788,-3.72016930580139,-0.55038958787918,4.56438493728638,-26.1997489929199,-39.5929145812988,-39.1380157470703,4.27116966247559,4.47519874572754,3.2113184928894,-1.03297317028046,1.32435584068298,2.48561072349548,-33.4637565612793,-46.1003532409668,-52.5216026306152,13.8360919952393,7.62792682647705,9.6007490158081,16.8415546417236,13.9601030349731,10.9656419754028,24.3466377258301,26.7671756744385,23.1998138427734,7.07076501846313,7.15384292602539,6.3670482635498,-4.22535467147827,-2.56746673583984,0.58581978082657,-22.5485916137695,-15.7562417984009,-8.98065090179443,1.06781399250031,-2.9352912902832,-4.51546430587769,3.66213703155518,1.63162112236023,-0.53756141662598,29.2092609405518,31.4047431945801,20.9516582489014,-2.51432132720947,-3.46727108955383,-3.17222332954407,1.24066734313965,1.85275423526764,1.42942464351654,1.31441676616669,0.46208092570305,0.34237083792686,3.08612608909607,9.10275459289551,12.7682781219482,-0.83932882547379,-0.68661254644394,-0.25900685787201,2.42532634735107,0.85233581066132,1.56101953983307,SWING_LEFT
0.48685958981514,0.63285636901855,0.5705481171608,0.42210787534714,0.75075340270996,0.76785761117935,3.59130263328552,3.26090264320374,2.77009129524231,9.67018032073975,7.85058736801147,6.23210716247559,-3.59005498886108,-4.6835036277771,-5.50328493118286,3.88578939437866,0.64882868528366,-2.82036972045898,-1.96271002292633,-2.80448222160339,-3.378084897995,2.23821020126343,2.7391197681427,2.06533551216125,-8.94234371185303,-12.4067535400391,-13.4721727371216,1.75255560874939,3.72058939933777,11.8991823196411,-5.02619934082031,1.15270268917084,4.86676359176636,-26.5708503723145,-29.6090927124023,-22.7880115509033,6.878342628479,6.33467245101929,4.80628776550293,-1.91872775554657,0.84482663869858,2.48499989509583,-32.8771781921387,-45.1235198974609,-56.3571128845215,7.46512079238892,5.81551599502563,7.65186882019043,18.1127662658691,17.8073329925537,14.541036605835,12.7610950469971,31.2850341796875,35.1396980285645,5.20762634277344,5.55154323577881,5.02131223678589,-0.83749628067017,-0.72815138101578,-0.45142942667007,-18.3826808929443,-14.7674360275269,-11.9231243133545,5.64552783966064,0.98880529403687,-0.69671267271042,5.52955198287964,4.03781938552856,2.266921043396,24.6315479278564,26.4583225250244,22.3163547515869,1.51494586467743,0.86803948879242,0.16432274878025,1.81182634830475,1.29992127418518,0.52595496177673,0.0,1.15161097049713,0.93852704763412,0.61291563510895,1.43412685394287,2.39659595489502,0.13011430203915,0.04948008432984,-0.03665191307664,9.59356594085693,9.05726528167725,9.16500377655029,SWING_LEFT
-0.13011430203915,0.19364428520203,0.36713001132011,0.09773843735456,0.43554693460464,0.88941979408264,1.9943699836731,2.56179571151733,2.70784211158752,11.7076463699341,10.7140522003174,8.56884765625,-1.63223195075989,-2.4678955078125,-4.07996892929077,0.94570964574814,1.32638776302338,-1.06541979312897,-1.44042026996613,-2.1447479724884,-2.24920582771301,0.93828904628754,-0.35430184006691,-1.36467289924622,-8.90164184570313,-13.1657152175903,-15.1098070144653,3.98395156860352,6.91445446014404,11.827356338501,-4.01094102859497,-0.51251596212387,4.87775897979736,-25.4862766265869,-38.8938064575195,-35.3144760131836,4.76902484893799,4.47764205932617,2.55647110939026,0.16920967400074,0.65057146549225,0.54183745384216,-34.9146423339844,-45.5353202819824,-60.6427345275879,9.10275459289551,0.60812723636627,1.83395850658417,17.9240074157715,16.462818145752,14.0651721954346,19.5606269836426,27.4303684234619,35.5874137878418,9.18374824523926,8.41711235046387,6.23326873779297,-2.57540798187256,-1.07634460926056,0.40927970409393,-23.1734790802002,-15.1313543319702,-8.62152004241943,-1.38145434856415,-8.34858131408691,-10.2471828460693,2.88756012916565,-0.10751228034496,-0.85704392194748,39.6168556213379,16.0842475891113,8.32224464416504,-3.5014796257019,-3.69206953048706,-2.53631258010864,1.7446311712265,0.96944314241409,0.05925392732024,-2.12365698814392,-1.68072962760925,-1.27850365638733,7.13711547851563,16.0483341217041,18.5119667053223,-0.23640485107899,0.2138028293848,0.51618111133575,0.85233581066132,2.53545951843262,4.95120906829834,SWING_LEFT
0.19975294172764,0.37568211555481,0.51495939493179,-0.10140363126993,-0.00305432616733,0.56199604272842,3.96958637237549,4.18985319137573,3.5960910320282,11.7531356811523,11.0827598571777,9.35893440246582,-1.55953896045685,-2.53936672210693,-3.31821990013123,2.44208574295044,0.23463176190853,-0.79248076677322,0.06352998316288,-0.45570546388626,-1.0690141916275,1.97492730617523,1.64078402519226,1.33779489994049,-1.82917010784149,-5.1379566192627,-10.060435295105,3.20344185829163,2.18590617179871,2.35350036621094,-6.46845197677612,-6.14469337463379,0.28283059597015,-11.8345394134521,-24.12158203125,-36.7438125610351,2.38237452507019,3.86860966682434,4.47336626052856,-4.64257574081421,-3.79164052009583,-1.58641707897186,-26.0824337005615,-35.5251655578613,-47.441104888916,13.2112045288086,9.23204135894775,7.41484260559082,18.6191730499268,19.2013263702393,17.3870582580566,5.28160905838013,23.7289333343506,39.7413558959961,6.10254383087158,6.50388240814209,4.90585899353027,-3.16367101669312,-2.26997518539429,0.22785273194313,-21.8710327148438,-10.1538095474243,-8.68616390228271,5.49948120117188,-6.69179391860962,-5.91846656799316,3.59433102607727,2.65665292739868,0.57543504238129,22.1224231719971,20.6475963592529,13.0196685791016,0.36102136969566,-0.29321530461311,-0.83199846744537,1.10810959339142,0.74281215667725,0.72204273939133,-1.41018486022949,-0.63446342945099,-0.87627780437469,3.22259545326233,5.20499467849731,8.32463932037354,-0.64996063709259,-0.5717698931694,-0.38912117481232,6.27759695053101,5.5832781791687,5.52342319488525,SWING_LEFT
-0.63835418224335,-0.65912359952927,-0.75564032793045,1.15331363677979,1.91994941234589,2.41597199440002,1.63284552097321,1.66875863075256,1.12048637866974,10.335768699646,9.49540424346924,8.63109683990479,-2.21316480636597,-3.24674868583679,-3.78308844566345,5.94240856170654,1.68072962760925,-0.57700258493423,-1.81610238552094,-2.06655716896057,-2.22171688079834,2.13436317443848,2.11298298835754,2.28585767745972,-6.16267538070679,-8.32463932037354,-12.9765729904175,5.51145219802856,5.47793340682983,5.87297677993774,-4.935791015625,-4.42999458312988,-1.84175872802734,-12.4474544525146,-27.4303684234619,-39.9376792907715,1.72813773155212,5.56681489944458,5.36461877822876,-3.57050728797913,0.28710666298866,0.69333207607269,-22.1703071594238,-48.3365364074707,-67.6170425415039,18.756175994873,9.00938129425049,6.16028118133545,19.7908115386963,17.5098419189453,12.659571647644,14.3556337356567,36.3320121765137,37.7014923095703,4.67128658294678,4.76352739334106,4.47336626052856,-3.73116493225098,-2.02135300636292,0.06719517707825,-14.9877023696899,-10.448296546936,-7.89368295669556,2.94007968902588,1.03429508209229,-1.03908348083496,3.6603045463562,2.34205746650696,0.96333450078964,26.6761951446533,25.3402309417725,20.671537399292,-0.09651670604944,-0.92301738262177,-1.15209186077118,1.29931032657623,1.32252323627472,1.13315498828888,2.09492659568787,1.81241071224213,1.22104287147522,1.50595283508301,5.44202041625977,8.83699893951416,-0.14599679410458,0.10201449692249,0.17348572611809,3.18189406394959,3.98634576797485,4.39096593856812,SWING_LEFT
-0.49968776106834,-0.20708331465721,0.11056660860777,0.3897320330143,0.61758476495743,0.81245076656342,1.65439331531525,1.40300214290619,0.49320554733276,11.2790842056274,11.0229043960571,8.24802494049072,-2.40558743476868,-3.93336129188538,-5.0604076385498,3.01669406890869,-0.63685762882233,-7.60159063339233,-1.65666651725769,-2.48622155189514,-2.79898452758789,-1.61207342147827,-2.92176842689514,-2.77943682670593,-7.28555583953857,-14.8296852111816,-17.9852428436279,6.9431848526001,9.41878986358643,19.4648590087891,-1.20768058300018,2.05983757972717,5.6059103012085,-24.5333843231201,-26.1183471679688,-20.7673053741455,8.10496044158936,9.2765998840332,8.3431978225708,-0.66706484556198,0.06658431142569,1.63834059238434,-45.590389251709,-57.1855087280273,-68.0671539306641,15.030797958374,4.59926128387451,-1.93451499938965,17.7737350463867,17.2703819274902,15.4829902648926,11.1881046295166,17.2933197021484,28.5412788391113,3.72566723823547,4.92357397079468,5.03780555725098,-1.23394775390625,-1.08795094490051,-0.4844161272049,-26.9012508392334,-17.3627510070801,-17.9613018035889,8.99740982055664,2.00634098052979,-3.71101260185242,5.5472674369812,4.48741626739502,3.0036244392395,26.5732440948486,31.2874279022217,35.3456001281738,1.28281700611115,0.36224308609962,-0.2461786866188,-0.7000515460968,-0.11850785464048,0.30543261766434,-7.06289482116699,-5.23133087158203,-3.58890843391419,-1.92733240127563,1.25935006141663,3.64876341819763,-1.42942464351654,-1.00731682777405,-0.73487091064453,3.57454323768616,2.91374349594116,4.35026454925537,SWING_LEFT
-1.09528136253357,-1.14292883872986,-1.32374501228333,1.12826812267303,1.24860858917236,1.14537239074707,0.1508347094059,-0.79248076677322,-3.09809708595276,10.9199542999268,10.0293111801147,9.14824485778809,-2.54730796813965,-2.66153979301453,-2.58518171310425,-2.93050289154053,-5.18344688415527,-4.14915132522583,-2.93826174736023,-3.08120441436768,-2.85029721260071,1.46852004528046,1.19179809093475,0.74464476108551,-9.49300956726074,-9.62469100952148,-10.3812589645386,7.17781686782837,9.03571701049805,11.9877681732178,0.97371917963028,3.92358756065369,7.07687377929688,-19.9413051605225,-20.7960357666016,-15.813702583313,2.83807992935181,1.73424637317657,0.71410149335861,-0.94745200872421,0.26572638750076,-0.59070670604706,-29.0201187133789,-45.5161666870117,-54.243034362793,5.54975938796997,2.13083958625793,2.49954652786255,17.4750213623047,9.57347965240478,6.45989990234375,30.2028541564941,28.886043548584,18.2725467681885,4.4067816734314,4.18381595611572,0.91629785299301,-4.30721092224121,-3.32860469818115,1.73302471637726,-9.96227359771728,-7.06768321990967,-3.56257224082947,4.37420654296875,-2.41335535049438,4.01028776168823,3.50025796890259,2.24309706687927,1.03663837909698,16.8408145904541,15.5599164962769,11.310209274292,-0.42760565876961,-0.55405479669571,-0.31154128909111,-0.59681534767151,-0.05925392732024,-0.24556782841682,0.67755907773972,0.74459671974182,0.56263738870621,8.02057552337646,10.2998561859131,10.1202907562256,-0.10262536257505,-0.60597831010818,-0.805120408535,9.23443603515625,6.49307489395142,4.53701210021973,SWING_LEFT
-0.62735861539841,-0.50701814889908,-0.43921211361885,-0.61819565296173,-0.25656339526176,0.47158795595169,2.1475989818573,1.08457338809967,0.4955997467041,10.158597946167,9.184157371521,7.30949783325195,-2.78859972953796,-2.99018526077271,-3.49048399925232,-2.12605118751526,-1.63284552097321,-0.71107792854309,-2.51432132720947,-3.11480188369751,-3.40068674087524,1.17835903167725,1.19607412815094,1.1301007270813,-9.31583881378174,-14.0563583374023,-16.1105823516846,4.85544109344482,8.2528133392334,18.0522804260254,-2.88450574874878,0.8906415104866,5.58025407791138,-32.6760635375977,-36.8683128356934,-27.576416015625,3.89182257652283,4.52956581115723,4.07752561569214,0.097127571702,0.5406157374382,0.66767573356628,-42.2911796569824,-54.350772857666,-67.1597518920898,14.3460569381714,8.38688850402832,9.16979217529297,18.7486763000488,17.5147285461426,13.4005508422852,27.10475730896,43.0764770507813,34.6321258544922,4.65357160568237,4.53567457199097,4.08852100372314,0.92546087503433,0.00733038317412,-0.67683869600296,-24.7799873352051,-17.3531742095947,-7.77876138687134,4.47715711593628,0.53869539499283,-2.26730895042419,4.07447099685669,1.22478485107422,0.10812314599752,33.3081321716309,20.7026615142822,10.8337631225586,-0.35674530267715,-0.87353730201721,-0.88514375686646,1.80999374389648,0.85460048913956,0.19364428520203,-1.3718775510788,-2.08056116104126,-0.70389527082443,4.44124412536621,8.31506252288818,10.7763013839722,1.59619092941284,1.20401537418365,0.35674530267715,12.0524110794067,11.5448408126831,9.31583881378174,SWING_LEFT
-0.00366519158706,-0.01954768784344,-0.4111123085022,0.5583308339119,0.75564032793045,1.47707211971283,3.01669406890869,3.31836366653442,3.55538964271545,9.23204135894775,8.49462795257568,7.23288345336914,-1.81488060951233,-2.73850893974304,-3.86555528640747,-0.44532153010368,-1.00317049026489,-1.69748902320862,-2.67925500869751,-2.77149558067322,-2.89427947998047,-0.80817472934723,-1.39888143539429,-0.30054569244385,-8.58560752868652,-11.2671127319336,-13.3931646347046,10.0484647750854,9.61750793457031,13.8408803939819,-3.17894268035889,1.16553092002869,3.98039793968201,-15.4928789138794,-19.5055618286133,-18.1791744232178,3.32432866096497,4.11723184585571,4.07263851165771,-0.38728857040405,-0.11117747426033,0.63529986143112,-23.6259822845459,-32.6784591674805,-65.6945037841797,12.2607069015503,9.4044246673584,8.87291145324707,19.4792709350586,19.1677303314209,16.6711235046387,14.6357545852661,33.4613647460938,47.2016868591309,5.15387010574341,4.64135408401489,4.11723184585571,-1.06534898281097,-0.69027775526047,-1.04030346870422,-17.5351333618164,-13.5296335220337,-12.4402723312378,2.559401512146,0.75896191596985,-2.166752576828,4.2858304977417,3.76720595359802,0.37629300355911,20.863073348999,55.669979095459,27.2029190063477,-0.65668016672134,-0.91080009937286,-0.31764993071556,-0.57910025119781,-1.07939887046814,-0.67256265878677,-0.31603461503983,-2.89937829971313,-2.12365698814392,3.74213719367981,7.77397298812866,4.87698888778687,0.06963863968849,0.20158553123474,0.36041048169136,5.6742582321167,5.08528423309326,5.86339998245239,SWING_LEFT
-0.129503428936,-0.03787364438176,-0.12522737681866,0.47280970215797,0.95478236675262,1.02136671543121,1.51552963256836,0.9911994934082,0.06464344263077,10.1178960800171,9.07163047790527,7.98945093154907,-3.32432866096497,-4.53384208679199,-5.73419189453125,1.16118776798248,0.23223756253719,1.09175598621368,-2.10504174232483,-2.79226493835449,-2.77516078948975,0.07391469180584,-0.59192842245102,-1.45324838161469,-19.6994915008545,-16.182409286499,-12.0452289581299,5.32231044769287,12.9023532867432,20.2453689575195,0.52351152896881,3.77392554283142,6.91438388824463,-22.8646259307861,-17.6452655792236,-10.2902784347534,4.28521966934204,4.18259429931641,3.74277138710022,-0.04031710699201,0.31826078891754,-0.23762658238411,-30.1022987365723,-43.0070457458496,-50.9103050231934,8.94952583312988,5.655104637146,4.57531929016113,15.9069309234619,12.2759475708008,9.46230220794678,35.1636390686035,33.2506713867188,19.3475437164307,4.09890556335449,4.64196491241455,3.92603087425232,-1.9156733751297,-1.99508583545685,-0.75136423110962,-18.0403099060059,-12.7012395858765,-9.05008220672607,8.11873817443848,1.07020819187164,-1.3215993642807,4.00605440139771,2.09832215309143,1.76845490932465,23.4152927398682,13.4147119522095,13.3021850585938,-0.26267206668854,-0.39828413724899,-0.40317106246948,-0.03359758853912,-0.28832840919495,-0.29321530461311,-2.4588451385498,-1.45328044891357,-1.25695586204529,6.03338813781738,7.25682544708252,7.5776481628418,-0.35674530267715,-0.54672437906265,-0.47647488117218,9.93114852905273,6.91924285888672,4.84825849533081,SWING_LEFT
-1.15758967399597,-1.03480577468872,-0.82100290060043,0.76235979795456,0.89797192811966,0.657290995121,-0.83557641506195,-0.92655605077744,-0.87148940563202,10.4530849456787,10.9031944274902,11.3461217880249,-0.52412235736847,-0.88331115245819,-1.31580376625061,-1.77170920372009,-1.89381349086761,-2.2361843585968,0.09407325088978,-0.05558873713017,0.14294247329235,0.11728613078594,-0.38240164518356,-2.07755279541016,-3.02148246765137,-8.66701030731201,-14.5974473953247,6.36618232727051,8.12113189697266,11.0420579910278,-4.97549724578857,-1.99264240264893,3.14962124824524,-22.4121227264404,-36.3248291015625,-43.2728004455566,4.81667232513428,5.10194635391235,3.23392057418823,0.53695052862167,2.20705604553223,3.33898949623108,-29.8317527770996,-51.0826873779297,-67.6002883911133,14.4801321029663,3.0693666934967,2.63362193107605,19.7737083435059,18.5794658660889,14.1158742904663,11.3078145980835,35.2953224182129,39.4540481567383,8.83372211456299,7.42140197753906,4.67739534378052,-5.89057350158691,-2.32556390762329,1.49173295497894,-18.294095993042,-12.8089790344238,-5.4444146156311,-9.80904483795166,-14.853627204895,-11.1952867507935,3.66458058357239,2.40314388275146,1.33718407154083,21.3897972106934,19.1368541717529,15.8974990844727,-1.1979067325592,-1.19729590415955,-1.36467289924622,0.83016586303711,0.17348572611809,-0.2981022298336,-0.02394201606512,0.59376204013824,0.07661445438862,6.86896467208862,7.25203704833984,7.84819316864014,-1.02319931983948,-1.36039686203003,-1.63772976398468,9.82341003417969,9.25837802886963,8.03494071960449,SWING_LEFT
0.07574728876352,0.020158553496,-0.29626965522766,-0.85948741436005,-0.44470989704132,-0.31887164711952,2.32955837249756,1.92254400253296,2.36307716369629,8.34858131408691,7.44117879867554,8.82742214202881,-0.89003068208694,-1.10077917575836,-1.55220854282379,1.32399356365204,2.60249733924866,2.65277552604675,-1.14964842796326,-1.47157442569733,-1.69148588180542,1.36100780963898,1.64322745800018,1.34573614597321,-0.57939678430557,-2.42293214797974,-4.771644115448,7.70214700698853,7.62553262710571,7.05331802368164,-3.98772835731506,-4.49902248382568,-4.76719236373901,-0.76614451408386,-3.42849683761597,-30.6266288757324,0.11178833991289,4.13005971908569,6.87101221084595,-1.91322994232178,-2.702467918396,0.75625115633011,-14.7123699188232,-32.9609756469727,-56.7521553039551,37.0311164855957,23.2548809051514,6.82108068466187,19.0431137084961,19.9985065460205,17.4243202209473,1.89141929149628,26.4104385375977,22.8047714233398,4.41899919509888,7.71095180511475,8.17887496948242,-5.08972930908203,-7.20393371582031,-4.81972694396973,-40.6200256347656,-32.2211647033691,-22.778434753418,10.2950668334961,-4.69502973556519,-7.97269153594971,8.88442420959473,5.98342514038086,2.60045337677002,38.7453651428223,38.6495971679688,31.1102561950684,2.15146732330322,-0.19058994948864,-1.9956967830658,1.22661745548248,2.64077043533325,3.14534521102905,-0.82121115922928,-2.26491475105286,-2.88740730285645,-7.71890640258789,-2.94247388839722,3.6152446269989,-1.94255149364471,-1.26693451404572,-0.30848693847656,2.77009129524231,-0.81881695985794,2.58334374427795,SWING_LEFT
-0.07147123664618,-0.21563543379307,-0.5100724697113,0.93706727027893,1.4801265001297,1.73485732078552,2.10450339317322,1.99676418304443,1.63523972034454,8.84178733825684,7.99423933029175,8.5903959274292,-0.99387776851654,-1.4245377779007,-2.21072125434875,-1.35032975673676,-2.10929179191589,-5.54257678985596,-0.70127332210541,-0.76480329036713,-0.85765480995178,0.38362336158752,0.12644910812378,-1.13987457752228,-3.57454323768616,-5.77242040634155,-9.33499240875244,8.71489429473877,8.62870311737061,10.979808807373,-2.96819424629211,-1.20523715019226,3.4202344417572,-11.9925565719604,-29.9107627868652,-37.2274436950684,6.90644264221191,6.94614887237549,4.2992696762085,-1.61818206310272,1.4245377779007,4.34630632400513,-27.9762477874756,-42.0373916625977,-49.595890045166,11.3461217880249,-1.30962836742401,-1.31681096553802,16.5874347686768,15.230092048645,13.4781303405762,16.5559043884277,16.541540145874,24.5190200805664,7.4794340133667,7.63398313522339,6.01580095291138,-5.60652112960815,-3.59127688407898,-0.81794857978821,-21.7728710174561,-15.6389255523682,-11.5568113327026,3.00232887268066,-5.49708700180054,-5.1786584854126,5.20273923873901,3.58089208602905,1.79044604301453,25.5892276763916,23.9061031341553,20.2190341949463,-0.26939156651497,-1.33840572834015,-2.15330004692078,-0.14294247329235,0.68661254644394,1.1966849565506,-0.80205756425858,-0.98641109466553,-1.1755530834198,-0.7781155705452,1.88423669338226,5.71974802017212,-0.77702057361603,-0.57604593038559,-0.4453207552433,5.45638561248779,4.85544109344482,4.82910490036011,SWING_LEFT
-1.06595981121063,-1.23089349269867,-1.49356555938721,0.47830748558044,1.08550751209259,0.69149947166443,-0.641646027565,-1.76931500434875,-2.53067111968994,7.07007741928101,6.23210716247559,7.03655862808228,-3.43000841140747,-2.51004528999329,-1.42942464351654,-7.68299341201782,-7.62792682647705,-5.17147588729858,-0.65301495790482,-0.51923543214798,-0.49907690286636,-1.39827048778534,-0.82405722141266,-0.6878342628479,-4.51785850524902,-5.59524917602539,-7.07726001739502,10.3884410858154,10.1202907562256,11.5208988189697,0.46181413531303,2.4123067855835,5.73113775253296,-12.6413850784302,-19.6803379058838,-21.4544410705566,3.97551107406616,3.94252419471741,3.22964453697205,1.16308736801147,1.8600846529007,1.42087256908417,-28.1246871948242,-40.900146484375,-48.2599220275879,11.4323129653931,7.53455257415771,7.38371801376343,16.4108943939209,14.9478721618652,12.5923757553101,16.2231101989746,22.0769348144531,30.6098690032959,5.98464679718018,5.30108880996704,3.65053081512451,-4.24184846878052,-2.55769276618958,-0.03176499158144,-13.1250133514404,-9.01895809173584,-6.47392129898071,-3.94085597991943,-6.88811826705933,-3.89776039123535,4.24856758117676,3.06226754188538,1.66521871089935,22.5342254638672,22.182279586792,19.4050045013428,0.52412235736847,-0.3158173263073,-0.67622780799866,0.75075340270996,0.72082096338272,1.02442097663879,-0.85712420940399,0.02154781483114,-0.90021985769272,-0.28730419278145,5.21935987472534,8.49941635131836,-0.87475901842117,-0.91385442018509,-0.92057394981384,5.75805521011353,5.57370138168335,5.21935987472534,SWING_LEFT
-0.42332962155342,-0.61880648136139,-0.88880890607834,0.79534655809402,1.06107294559479,1.0677924156189,0.97444009780884,0.66319388151169,0.06224924325943,7.82425117492676,7.7069354057312,8.23844814300537,-2.08977007865906,-2.69025063514709,-3.43000841140747,-1.29526317119598,-1.13963997364044,-3.42610263824463,-1.75929188728333,-1.25716066360474,-0.33047810196877,0.40439277887344,-0.03604105114937,-0.63468897342682,-12.1888809204102,-13.9605903625488,-14.5304098129272,14.2598657608032,15.4234476089478,13.4338655471802,-1.58214104175568,0.78618359565735,3.79164052009583,-19.3690910339355,-21.1982612609863,-16.8456039428711,2.06289196014404,1.17958080768585,-1.60107779502869,-0.30604347586632,1.02625358104706,1.94132971763611,-22.8742027282715,-27.21728515625,-35.1636390686035,3.90973138809204,1.66875863075256,9.6797571182251,16.6863956451416,14.3504467010498,10.0481224060059,25.5245838165283,41.0485877990723,30.1382102966309,4.16671180725098,3.87410736083984,2.95109009742737,-2.5424211025238,-4.27361345291138,-2.7947084903717,-14.5328044891357,-8.44195556640625,-5.14035081863403,4.1659107208252,-1.05344879627228,-2.67911171913147,3.72627806663513,3.00118088722229,2.27180790901184,19.1751613616943,17.9158115386963,17.3579616546631,-0.31642818450928,-0.53511798381805,-0.62613689899445,-1.56992363929749,-2.88694906234741,-2.85823845863342,0.50278234481812,0.72544312477112,0.96007490158081,6.97909784317017,8.53293514251709,9.71088218688965,-0.09162978827953,-0.12522737681866,-0.00794124789536,6.89769506454468,5.07091903686523,4.22097778320313,SWING_LEFT
-0.09346238523722,-0.01527163106948,-0.07757988572121,-0.58887410163879,-0.43004912137985,-0.0421497002244,2.38701915740967,3.08852028846741,4.11084413528442,10.1753568649292,9.59117221832275,9.8784761428833,-1.04213607311249,-2.31334662437439,-3.22170329093933,3.99592256546021,2.91853189468384,0.25857377052307,-0.17470745742321,-0.62369340658188,-1.58336269855499,1.44225287437439,1.31519281864166,1.10383355617523,3.09330868721008,0.97683429718018,-6.30632734298706,6.21295356750488,5.28160905838013,5.20738887786865,-6.1037654876709,-3.4770450592041,0.42149701714516,-10.5105457305908,-20.6044998168945,-11.0659999847412,-0.19608774781227,2.39275908470154,4.84477233886719,-2.57113170623779,-1.79350030422211,0.42088615894318,-15.5623111724854,-27.2005252838135,-45.6502456665039,15.2654304504395,17.3866920471191,6.27520275115967,15.9429721832275,15.5703439712524,13.2826538085938,7.47230339050293,25.8621673583984,34.6800117492676,5.44342041015625,5.41654205322266,4.08974266052246,-2.28707957267761,-2.73545455932617,-1.54426729679108,-17.0778408050537,-14.470555305481,-8.04451751708984,2.32237553596497,-0.33997663855553,-3.09809708595276,3.43672776222229,1.76540052890778,0.36041048169136,27.1167278289795,22.6802730560303,15.4665431976318,0.78496181964874,0.70310592651367,0.62247169017792,1.64139497280121,0.43432518839836,-0.75502943992615,-0.15562310814857,0.14365209639072,0.64404028654099,4.26407337188721,3.80438661575317,1.35032975673676,0.38912117481232,0.56077426671982,0.44348818063736,7.98226833343506,9.02374649047852,9.55525875091553,SWING_LEFT
-0.75014251470566,-1.09650313854218,-1.53021740913391,0.52351152896881,1.08795094490051,1.70859014987946,5.55454778671265,5.03979444503784,3.08373188972473,7.37414121627808,6.56968927383423,6.03338813781738,-4.58515453338623,-5.47762870788574,-6.49105405807495,-0.73023152351379,-1.60890352725983,-3.62960982322693,-2.04517674446106,-1.97187304496765,-1.77150917053223,0.97921699285507,-1.43308985233307,-3.249192237854,-14.9637603759766,-15.1313543319702,-15.8232793807983,6.76840829849243,16.0243911743164,25.1486949920654,3.1001410484314,6.50693655014038,8.96200370788574,-28.3234062194824,-17.9565124511719,-13.0196685791016,2.80631494522095,3.23330974578857,3.54668354988098,-0.26083946228027,-1.26143670082092,-1.53388261795044,-35.678394317627,-45.1498565673828,-55.5071716308594,8.09958457946777,6.53138208389282,2.74375510215759,17.8671970367432,16.8659896850586,13.2075176239014,14.676456451416,33.2219429016113,37.9385185241699,2.77271723747253,3.54485106468201,3.51369690895081,-1.35550999641418,-3.67313265800476,-3.8759400844574,-18.9716548919678,-15.0236158370972,-8.42519569396973,8.1115550994873,1.35751235485077,-4.61841487884521,3.43428444862366,1.27609753608704,0.40927970409393,29.6354293823242,19.5342922210693,10.4770269393921,-1.40499007701874,-1.1612548828125,-0.62308257818222,0.40744712948799,-0.72204273939133,-1.09039449691772,-4.69263553619385,-4.9990930557251,-4.21379518508911,7.00543403625488,9.62947940826416,10.527304649353,0.83260935544968,0.6139195561409,0.21685716509819,11.2359886169434,12.0739593505859,10.8122148513794,SWING_LEFT
-0.03543018549681,-0.06047565862536,-0.1991420686245,0.15943582355976,-0.1685988008976,-0.45631635189056,3.08373188972473,3.19865345954895,3.227383852005,8.47547435760498,8.4132251739502,8.2336597442627,-1.22356307506561,-2.1325306892395,-3.32738304138184,1.68791222572327,2.60967993736267,2.83952331542969,-1.39827048778534,-1.52533054351807,-2.23149085044861,-1.74096596240997,-1.15820050239563,-1.36833810806274,-7.78115558624268,-12.2750720977783,-14.2909898757935,10.0652236938477,8.44195556640625,12.7970085144043,-4.36218881607056,-1.59557998180389,1.65361225605011,-16.7857475280762,-20.3243789672852,-22.4839477539063,0.35430184006691,3.35609364509583,3.09525418281555,1.23944556713104,1.53021740913391,0.85032439231873,-20.4345111846924,-46.1889381408691,-61.5525321960449,24.1527061462402,9.50258636474609,7.9846625328064,18.5751895904541,17.4163799285889,13.6540603637695,20.5661926269531,33.8851356506348,34.0910377502441,5.25405216217041,4.97855186462402,2.53203654289246,-1.75257241725922,-0.731205701828,0.73364913463593,-19.598934173584,-13.8743991851807,-9.82819843292236,1.84353530406952,-1.62566292285919,-9.46188545227051,0.70249503850937,-0.50029861927032,-0.40194934606552,22.3857860565186,11.9374895095825,9.31823348999023,-1.05618596076965,-0.80817472934723,-0.36651915311813,0.45998153090477,0.05131268128753,-0.56077426671982,-4.13718032836914,-2.62165093421936,-2.55221891403198,8.927978515625,12.8975648880005,12.2439470291138,0.40072759985924,0.35613444447517,0.13072516024113,3.61285042762756,5.53778839111328,5.94480276107788,SWING_LEFT
-0.08368854224682,-0.23335053026676,-0.31093040108681,-0.18936823308468,0.23396138846874,0.52900928258896,2.14520478248596,2.00155258178711,1.96563959121704,9.28471374511719,9.78510189056396,9.39724159240723,-2.18628668785095,-3.39335632324219,-4.41899919509888,2.77009129524231,-1.19710087776184,-5.98071575164795,-1.47951567173004,-1.67377078533173,-1.8924605846405,0.78068578243256,-0.22724187374115,-0.87109386920929,-6.74925470352173,-10.3237981796265,-13.7044105529785,7.01022243499756,7.28555583953857,9.35893440246582,-3.98956084251404,-1.42637038230896,2.50821280479431,-19.7928657531738,-29.0680027008057,-35.8172569274902,2.85151886940002,4.15632724761963,4.09279727935791,-0.96822142601013,-0.47464230656624,0.14355333149433,-26.1901721954346,-37.5315055847168,-50.1704978942871,19.9413051605225,10.5512466430664,6.03338813781738,17.3919448852539,17.1115570068359,14.034628868103,12.3899936676025,31.021671295166,33.9306259155273,3.18260788917542,4.00177812576294,3.45994067192078,-0.45265114307404,-1.79960906505585,-0.84604835510254,-19.9604587554932,-11.8848171234131,-6.79474449157715,11.8345394134521,2.41335535049438,-1.15879356861115,3.48071026802063,2.38359618186951,2.2901337146759,23.1806602478027,14.6836385726929,12.8784112930298,-0.64263021945953,-0.77518796920776,-0.37262779474258,-0.16126842796803,-0.65973448753357,-0.50029861927032,-2.81558108329773,-2.2553379535675,-1.01992988586426,6.92163705825806,10.5560350418091,13.1178312301636,0.66217792034149,0.4544837474823,0.45265114307404,7.82903957366943,5.92564916610718,5.11401462554932,SWING_LEFT
-0.78068578243256,-0.96516710519791,-1.08611845970154,1.42514860630035,1.04519045352936,0.79107052087784,-1.41736745834351,-2.07577276229858,-2.83712911605835,7.18021106719971,7.74284839630127,7.22091245651245,-3.89487671852112,-3.64564371109009,-3.1691689491272,-5.43723201751709,-6.31829833984375,-7.92959594726563,-2.1258111000061,-1.45508098602295,-0.33108896017075,0.24923302233219,0.16310101747513,0.25961771607399,-6.4164605140686,-7.4770917892456,-9.56723022460938,14.4944972991943,17.6404781341553,18.7106857299805,0.94317591190338,2.74889349937439,5.43608999252319,-17.4824600219727,-21.0067253112793,-28.3329830169678,4.74947738647461,5.98159265518188,5.98464679718018,-2.40864157676697,-1.33962750434875,0.18387043476105,-36.736629486084,-55.4832305908203,-67.9091339111328,15.4162645339966,8.2528133392334,1.82198750972748,18.5971813201904,10.9289903640747,7.72927808761597,32.3025703430176,31.7135963439941,23.7169628143311,4.58637619018555,4.03048896789551,2.81059098243713,-1.20951318740845,0.12644910812378,1.406822681427,-12.0476226806641,-9.105149269104,-7.16584587097168,0.46208092570305,-1.82917010784149,0.67995327711105,3.01889610290527,2.10565257072449,1.44591808319092,17.053897857666,13.7738428115845,11.0564231872559,1.03908181190491,1.14109623432159,0.87964594364166,0.35491269826889,0.21135938167572,-0.26816985011101,-0.22505496442318,0.90979665517807,1.4293384552002,7.25682544708252,4.51307010650635,2.55461311340332,-0.48747047781944,-1.12032687664032,-1.04885566234589,11.5999069213867,6.60799646377563,4.76206731796265,SWING_LEFT
-0.95783668756485,-1.28159523010254,-1.68659889698029,2.00485968589783,2.48927593231201,2.80692577362061,1.19710087776184,-0.78769236803055,-4.71178913116455,7.35977602005005,6.23689556121826,4.76685571670532,-4.36951923370361,-5.67371654510498,-5.4983983039856,-2.82515811920166,-11.3485164642334,-19.962854385376,-2.92726635932922,-1.34940135478973,0.76846849918365,-2.06411361694336,-4.9871039390564,-5.43547916412354,-13.1872625350952,-14.032416343689,-16.4026756286621,16.6085777282715,19.6252708435059,18.4066219329834,6.07505464553833,8.84044170379639,11.6180458068848,-16.3212738037109,-11.1210670471191,-8.80587387084961,3.44100403785706,3.10869312286377,2.76477599143982,2.15085649490356,1.38055551052094,-0.38423424959183,-43.1004180908203,-49.8017883300781,-56.6803321838379,8.43956089019775,6.73728370666504,5.91846656799316,17.2361736297607,15.5379686355591,11.779314994812,20.6667499542236,30.4183330535889,46.117115020752,4.12089681625366,3.12396478652954,1.58214104175568,-3.19787955284119,-0.64690631628036,1.37444674968719,-10.1274728775024,-11.0540294647217,-8.87291145324707,-2.18830037117004,-3.84508800506592,-4.44363832473755,-0.20647245645523,-1.64506006240845,-2.01524448394775,23.4535999298096,10.4866037368774,3.99113416671753,-1.35734260082245,-0.97921699285507,-0.54367005825043,-0.57604593038559,-1.30358648300171,-1.61818206310272,-1.81001651287079,-1.63284552097321,-1.00795888900757,13.0747356414795,13.7235641479492,11.9303073883057,0.39950588345528,0.61147612333298,0.49052479863167,0.71586632728577,3.4620156288147,4.81473970413208,SWING_LEFT
-0.93706727027893,-1.34512531757355,-1.67438161373138,0.20952677726746,0.57726764678955,0.75747293233871,-0.12928688526154,-1.2641384601593,-3.2585084438324,7.39808320999146,7.74524259567261,7.67341661453247,-2.92543363571167,-3.6603045463562,-4.30476760864258,1.91775560379028,0.25617957115173,-2.84191751480103,-3.22597932815552,-2.55341672897339,-1.27182149887085,2.07755279541016,2.63282918930054,1.76540052890778,-14.4657669067383,-14.7937726974487,-15.3803520202637,12.4929447174072,15.6772327423096,19.632453918457,-0.98654735088348,1.57603228092194,5.34384918212891,-21.3993740081787,-25.9555397033691,-29.7431678771973,4.52345705032349,4.0335431098938,2.2968533039093,0.10445795953274,0.56260687112808,2.08121800422669,-32.6042404174805,-52.2726058959961,-76.1020965576172,6.06211853027344,0.04788403213024,0.74220252037048,20.008279800415,19.5318050384521,13.5208911895752,26.5493030548096,51.7195434570313,45.7938957214355,2.54181027412415,3.71467161178589,3.64564371109009,-3.58455729484558,-4.16976594924927,-2.29502081871033,-14.1952219009399,-13.7786312103271,-9.42597198486328,12.7706718444824,4.48673391342163,-0.33518823981285,5.2015175819397,3.80324697494507,2.55158424377441,23.6283760070801,19.4840126037598,14.6692733764648,0.91874134540558,0.1924225538969,-0.44043383002281,0.33903020620346,-0.17226399481297,0.14416420459747,-2.53785371780396,-1.78846871852875,-1.38145434856415,3.07415509223938,5.0876784324646,8.27675533294678,0.68600165843964,0.11606439948082,-0.38301250338554,12.0571994781494,9.82101535797119,6.47631549835205,SWING_LEFT
-2.05433988571167,-2.0445659160614,-1.99814021587372,0.61147612333298,1.25838243961334,1.67315995693207,1.14682257175446,-1.51313543319702,-4.33111095428467,9.01416969299316,9.02135181427002,8.82263278961182,-5.15631341934204,-5.76290273666382,-5.95288181304932,-2.15238738059998,-5.30076265335083,-13.9007349014282,-2.07083320617676,-1.91872775554657,-1.60229957103729,1.63528621196747,0.5705481171608,-0.33841934800148,-12.3061971664429,-13.1345901489258,-14.853627204895,10.3740758895874,11.7363767623901,13.2614831924438,0.96516710519791,3.75315618515015,7.03166961669922,-23.4607830047607,-23.9420166015625,-18.4640827178955,2.69330477714539,2.95780944824219,2.68475270271301,-1.54732167720795,-0.87414819002151,-0.4673119187355,-34.6321258544922,-43.7109413146973,-53.8862991333008,6.08127212524414,4.40533113479614,3.36864185333252,17.1506519317627,16.7908535003662,15.4530582427979,14.336480140686,21.0115146636963,34.8188743591309,4.22779846191406,5.19357633590698,4.69266700744629,-2.47766947746277,-3.46910381317139,-3.51003170013428,-21.2126274108887,-13.0029096603394,-8.54011726379395,8.37252330780029,1.01992988586426,-3.45483303070068,2.66276168823242,2.40986347198486,2.40314388275146,18.9572887420654,15.6006183624268,14.1569147109985,0.34452798962593,0.30787608027458,0.4850270152092,1.36467289924622,0.15149457752705,-0.97616267204285,-1.05105459690094,-0.93613284826279,-0.90979665517807,4.69742393493652,6.16028118133545,5.74608421325684,1.08367490768433,0.7305948138237,0.34758231043816,12.1697273254395,11.9159421920776,11.8393278121948,SWING_LEFT
-0.25595253705978,-0.42760565876961,-0.81611597537994,0.72021013498306,0.9700540304184,1.46485483646393,1.1755530834198,0.60094463825226,-0.18435353040695,8.02536392211914,6.31590414047241,4.93923807144165,-3.19849038124084,-3.98100876808167,-4.61508703231812,-0.08140286058187,-1.72861361503601,-3.30399823188782,-2.7201828956604,-2.79593014717102,-2.3347270488739,1.28770399093628,0.36774086952209,-1.19057631492615,-11.650185585022,-12.4594259262085,-14.1736736297607,7.24485445022583,11.4993505477905,17.4010581970215,-0.58093285560608,6.01763343811035,9.11716365814209,-25.5006427764893,-22.3091716766357,-14.5232276916504,3.8191294670105,3.65725016593933,3.54729437828064,-0.11423180252314,-0.42760565876961,-1.32313406467438,-36.9305610656738,-42.8514213562012,-48.1761283874512,5.90888977050781,4.14196872711182,0.7493851184845,16.2129745483398,15.2032146453857,12.4518775939941,16.0411510467529,28.1869373321533,30.4326972961426,1.47890472412109,2.45323491096497,2.96391820907593,-0.4544837474823,-1.40437924861908,-1.08856189250946,-15.2343053817749,-9.47385597229004,-8.07085418701172,11.3868236541748,7.7763671875,2.32716393470764,3.6224308013916,2.7446174621582,1.29808866977692,20.9061698913574,18.452112197876,10.6948986053467,-0.66645395755768,-0.36102136969566,-0.10812314599752,0.14660765230656,-0.65179324150085,-0.95050632953644,-1.70946002006531,-1.56341373920441,-0.7493851184845,10.7547540664673,10.4363250732422,9.52652835845947,1.07390105724335,0.92668259143829,0.68966686725616,6.68939971923828,7.14669227600098,7.45314979553223,SWING_LEFT
-0.11423180252314,-0.02565634064376,0.03054326213896,0.62430429458618,0.45753806829453,0.36957347393036,4.19464159011841,3.82593441009521,2.55221891403198,9.95987892150879,9.23922443389893,7.66383981704712,-2.51859736442566,-2.55036234855652,-2.86862325668335,-5.69101762771606,-3.40694904327393,-0.22026655077934,-1.91200816631317,-2.41536116600037,-2.5992317199707,-1.52105450630188,-0.99387776851654,-0.56993728876114,-8.79150867462158,-11.0995187759399,-12.3804168701172,7.62313842773438,10.7523593902588,15.5790700912476,-2.67375707626343,-0.48747047781944,2.27364039421082,-15.5790700912476,-17.7865238189697,-20.6643543243408,5.8239893913269,6.21127796173096,4.99015808105469,1.33657312393188,2.16918253898621,3.07937169075012,-31.0168838500977,-37.5243225097656,-45.590389251709,13.2088108062744,7.5273699760437,10.6039190292358,16.1598300933838,15.5807285308838,12.7023315429688,23.5780982971191,33.3536224365234,29.8987903594971,6.95836591720581,6.0347375869751,3.95474147796631,-1.15942227840424,1.50822627544403,3.68779349327087,-19.7186450958252,-11.049241065979,-3.60087943077087,-1.59932672977448,-0.64404028654099,2.64798712730408,1.96820783615112,-0.15027284622192,-1.20706975460052,29.9299163818359,22.4360637664795,14.3843641281128,0.55588740110397,-0.55588740110397,-1.24066734313965,1.12521374225616,0.84665924310684,0.18997909128666,0.87148940563202,1.93930339813232,2.4205379486084,-1.56341373920441,1.72621941566467,3.87142419815064,0.09468411654234,0.15393804013729,-0.08124507963657,5.64792203903198,6.72291851043701,5.46356821060181,SWING_LEFT
-0.72815138101578,-0.80389869213104,-1.10200095176697,0.13683381676674,0.28710666298866,0.50579643249512,4.61602067947388,4.60644388198853,4.4532151222229,10.0676183700562,8.75080680847168,7.93917274475098,-1.80999374389648,-2.10504174232483,-2.54303193092346,0.15801730751991,-0.8164227604866,-1.16597628593445,-2.80020618438721,-3.23941850662231,-3.04943919181824,1.74707460403442,0.25350907444954,-1.19240891933441,-1.07260239124298,-4.81713390350342,-9.65342140197754,5.67904663085938,9.11711978912354,12.7419414520264,-4.54178333282471,-3.44039297103882,-1.13315498828888,-10.5440645217896,-17.580623626709,-35.0654792785645,2.09710049629211,5.80383062362671,6.85085391998291,-2.87167739868164,-1.6157386302948,0.85460048913956,-20.3004360198975,-38.4508781433105,-61.8972969055176,32.9490051269531,17.8966579437256,5.29358005523682,19.8537311553955,19.7688217163086,16.1744899749756,5.91846656799316,29.628246307373,43.6870002746582,5.79405689239502,7.02617216110229,5.97975969314575,-4.44404458999634,-4.41838836669922,-1.879021525383,-19.8646907806396,-14.8799638748169,-10.5608234405518,5.0685248374939,-7.01022243499756,-10.582371711731,4.37135171890259,3.30844616889954,1.90040183067322,22.419303894043,22.1248188018799,20.9995422363281,-0.36896261572838,-0.56688296794891,-0.77885317802429,0.70860368013382,0.53450709581375,0.13194689154625,0.90500825643539,1.18512988090515,1.07499659061432,5.02303504943848,5.9208607673645,6.13873338699341,-1.34817957878113,-1.40499007701874,-1.46424400806427,6.41167211532593,6.28238534927368,5.80833339691162,SWING_LEFT
-0.59803706407547,-0.81489425897598,-1.21806526184082,1.00609505176544,1.19973933696747,-0.07269296050072,0.37588965892792,-1.99197578430176,-5.85382318496704,6.88811826705933,6.95994424819946,11.8201742172241,-2.26936435699463,-0.40561452507973,2.83930158615112,-14.7961664199829,-23.3195247650146,-21.1695308685303,5.90584516525269,5.19601964950562,2.93337488174438,-0.47280970215797,1.87291288375854,3.08731293678284,-19.9293346405029,-26.3027000427246,-37.6943130493164,7.61116743087768,2.88980150222778,7.75960779190063,16.1989250183105,16.659517288208,15.1604537963867,0.91458505392075,15.3468332290649,20.0322856903076,8.4128360748291,7.80441427230835,6.32367706298828,-3.6102135181427,-0.55649822950363,1.89062798023224,-29.8963966369629,-23.1351718902588,-12.3804168701172,-3.76368498802185,-4.27843856811523,-2.14281058311462,4.53017663955688,-0.65790188312531,-2.63038563728333,54.2238807678223,24.9164562225342,14.6213893890381,-3.0158417224884,-3.52285981178284,-2.45140218734741,3.42756485939026,2.63832688331604,0.5894849896431,-6.16028118133545,-4.92726707458496,-2.36786556243896,6.8043212890625,15.2941608428955,16.1800155639648,-1.91628432273865,-1.14659404754639,-0.36957347393036,-0.89782565832138,-0.69192427396774,2.50194072723389,-0.86803948879242,-0.43432518839836,-0.10262536257505,-0.75564032793045,-0.39767327904701,-0.32192599773407,0.78769236803055,1.35751235485077,1.12766897678375,11.8177795410156,10.6422262191772,8.98065090179443,-0.83077675104141,-1.28526043891907,-1.5968017578125,8.7292594909668,7.77157878875732,6.71813011169434,SWING_LEFT
-1.12032687664032,-0.95722585916519,-0.71593403816223,-0.33292156457901,-0.12522737681866,0.5100724697113,0.93134444952011,-0.08379705995321,-1.10612118244171,10.6589860916138,10.1346559524536,8.27436065673828,-1.26937794685364,-1.65300130844116,-2.47705864906311,1.35272395610809,1.2258312702179,-1.70227742195129,-2.05006384849548,-1.6578882932663,-1.04519045352936,-0.53695052862167,-0.6322455406189,0.08796459436417,-6.90248346328735,-8.64785671234131,-9.86171722412109,11.7028579711914,11.1019134521484,10.7619361877441,-0.85704392194748,-0.19608774781227,1.62490153312683,-7.02937602996826,-15.9118642807007,-29.9275207519531,2.53814506530762,5.58575201034546,7.33588075637817,-1.41354215145111,-2.64504647254944,-2.26875352859497,-24.564510345459,-44.3094902038574,-58.7513160705566,24.6004219055176,10.4554786682129,1.52750062942505,17.7871742248535,17.2294540405273,12.7340965270996,17.9253883361816,45.5736274719238,44.7787551879883,7.92292213439941,7.50997734069824,4.22474384307861,-4.71038198471069,-4.07447099685669,0.44226643443108,-12.7539129257202,-9.55286502838135,-6.02141714096069,-7.65186882019043,-13.6852569580078,-12.7084226608276,3.3212742805481,1.68782067298889,0.97310835123062,20.3746566772461,15.8065195083618,15.0451631546021,1.13376593589783,0.50396382808685,-0.42516219615936,0.29077184200287,0.32131510972977,0.59131753444672,1.31441676616669,1.53468334674835,1.18273568153381,2.05183076858521,0.85951840877533,2.49475812911987,-0.33292156457901,-0.29749137163162,-0.21685716509819,6.37336492538452,5.54018259048462,5.44202041625977,SWING_LEFT
0.32375857234001,0.45631635189056,0.35124751925468,-0.92729341983795,-0.96944314241409,-0.59620445966721,0.88106620311737,0.67995327711105,0.04070143029094,10.6733512878418,9.78270816802978,8.11873817443848,-0.9211847782135,-1.1301007270813,-1.36467289924622,0.79487496614456,0.05506663769484,0.428562104702,-1.29808866977692,-1.65483391284943,-1.59741258621216,0.3933972120285,0.59131753444672,0.6322455406189,-4.85304689407349,-9.63426780700684,-11.9686145782471,7.55849456787109,9.47385597229004,20.8582859039307,-0.15821409225464,3.42084527015686,7.31572198867798,-25.0601100921631,-26.745626449585,-18.3539505004883,5.53138494491577,4.83622026443481,4.0891318321228,0.86070913076401,1.18019163608551,0.80634212493896,-32.7646484375,-43.1674575805664,-51.7506713867188,7.3885064125061,6.23689556121826,7.84819316864014,17.4811305999756,14.8000431060791,9.76712417602539,27.9882183074951,46.900016784668,42.3821601867676,6.59367942810059,4.86004400253296,2.13741755485535,-2.08671569824219,-0.0842994004488,1.6523904800415,-10.1250791549683,-5.42047262191772,-3.65355181694031,-10.4794206619263,-12.9478425979614,-7.19457626342773,3.86066842079163,3.16733622550964,1.96881866455078,16.3978881835938,18.4042282104492,14.8009548187256,-0.18875735998154,0.55588740110397,0.46853363513947,-0.09590584039688,-0.67928212881088,-0.31337386369705,-0.56742578744888,-0.78050976991653,0.22266076505184,11.3964004516602,7.3885064125061,5.13556241989136,-0.15454891324043,-0.24373523890972,-0.23457226157188,7.42681360244751,5.98550415039063,5.2863974571228,SWING_LEFT
-0.41416662931442,-0.36957347393036,-0.3683517575264,-0.01466076634824,0.07696902006865,0.04581489413977,-0.77332717180252,-0.29688102006912,-0.31124621629715,11.0540294647217,10.8984060287476,11.2479591369629,-0.27977627515793,-1.11849427223206,-2.00363802909851,1.44130945205688,0.70150107145309,-0.68953007459641,-0.54611355066299,-0.48014008998871,-0.24068090319633,0.11301007121801,-0.68050390481949,-0.85215699672699,-7.44596719741821,-10.5201225280762,-12.1912746429443,10.1418380737305,10.6709566116333,12.2343702316284,-1.67743599414825,0.87964594364166,5.91622972488403,-21.5885162353516,-36.9473190307617,-28.8501300811768,6.28091621398926,5.52099990844727,3.21498370170593,-0.54977869987488,1.39216184616089,2.22354960441589,-37.9026069641113,-45.1498565673828,-49.4977264404297,4.44842672348022,-1.17076468467712,0.36152446269989,17.3436851501465,14.5434799194336,10.0023078918457,30.9737873077393,40.0717544555664,34.8571815490723,4.3756275177002,3.97062420845032,2.62610960006714,-2.54730796813965,-1.84420216083527,-0.80634212493896,-8.09958457946777,-6.5553240776062,-5.85861158370972,-0.68953007459641,-3.71819519996643,-3.56017804145813,3.4214563369751,2.90771865844727,2.18934106826782,15.3731689453125,15.0451631546021,15.0427694320679,-1.22111964225769,-0.65057146549225,-0.30115658044815,-0.36346483230591,-1.02258837223053,-1.06168377399445,-0.86430680751801,-1.13006317615509,-1.49877023696899,11.3485164642334,10.0340995788574,8.62152004241943,-0.9767735004425,-1.01953411102295,-0.87598073482513,7.1921820640564,5.50187540054321,5.13556241989136,SWING_LEFT
-0.73426002264023,-0.79840087890625,-0.9645562171936,0.2443460971117,0.70493847131729,1.10810959339142,0.62009823322296,0.14125789701939,-0.06703764945269,9.12430286407471,8.2528133392334,7.62792682647705,-0.96516710519791,-1.36222946643829,-1.99447500705719,2.32955837249756,2.37983655929565,2.53545951843262,-2.67253541946411,-3.15756249427795,-3.18932747840881,1.67743599414825,0.62124997377396,-0.93645644187927,-7.62313842773438,-12.9574193954468,-14.9996738433838,6.94079065322876,10.3884410858154,16.0531215667725,-3.60532665252686,-0.6750060915947,3.15878415107727,-22.4767646789551,-26.2117195129395,-22.7066097259521,4.44282293319702,5.36584043502808,5.59124946594238,0.48808133602142,1.52655220031738,1.47646129131317,-32.7790145874023,-42.961555480957,-53.8575668334961,16.3045139312744,12.2678899765015,7.64947462081909,16.6925029754639,16.6265296936035,13.0835113525391,11.2479591369629,33.0543479919434,38.1851234436035,5.10439014434814,5.91195392608643,4.40922546386719,-0.9700540304184,-0.77152281999588,0.40561452507973,-18.4640827178955,-9.84495735168457,-7.03416442871094,11.6070899963379,-4.18027639389038,-7.29273843765259,3.5546247959137,3.25468993186951,2.4678955078125,17.3986644744873,17.8846874237061,18.1193180084229,-0.92423909902573,-1.04580128192902,-0.91080009937286,0.94561940431595,0.32681289315224,-0.26267206668854,-0.27054479718208,-0.54108959436417,-0.56503158807755,6.91684865951538,9.3637228012085,10.675745010376,-0.85154616832733,-1.00059723854065,-0.85582220554352,6.57926607131958,3.90254878997803,1.6903064250946,SWING_LEFT
-0.41050145030022,-0.32681289315224,-0.08552113175392,0.79534655809402,-0.57360243797302,-2.15146732330322,-2.18590617179871,-4.09169054031372,-5.3558292388916,10.8600988388062,12.4642143249512,13.6613149642944,-4.02376937866211,-3.65847206115723,-2.9779679775238,-5.43723201751709,-5.2863974571228,-5.45399141311646,1.17652642726898,1.43186807632446,1.64200580120087,-2.19728231430054,-0.5155702829361,0.74769908189774,-8.1331033706665,-8.53054046630859,-9.08838939666748,14.3269033432007,13.1489553451538,12.0117101669312,1.64078402519226,3.32982635498047,5.69509649276733,-8.68376922607422,-12.6653270721436,-17.8822917938232,3.73971700668335,3.98711752891541,2.99262881278992,2.52104091644287,3.70734119415283,3.94618940353394,-26.8964614868164,-44.9463500976563,-65.5771865844727,13.2135992050171,9.15542697906494,9.5624418258667,20.0064468383789,17.6998195648193,12.4702033996582,35.027172088623,44.896068572998,36.9185905456543,6.29802083969116,7.24363994598389,6.20700168609619,-4.09524059295654,-3.55890083312988,-1.68049025535584,-17.1688213348389,-12.9741792678833,-9.61750793457031,5.96635055541992,-3.62721562385559,-7.24246025085449,3.85517048835754,2.97980070114136,-0.04764748737216,21.902156829834,25.464729309082,15.227123260498,-1.07206845283508,-1.39338362216949,-1.42392683029175,0.03054326213896,-0.10629054903984,0.10995574295521,-2.22900176048279,-2.22900176048279,-1.94169759750366,4.30238056182861,5.71017122268677,7.02698183059692,-0.69577550888062,-0.53023105859756,-0.30665436387062,4.57531929016113,3.68707060813904,4.63996267318726,SWING_LEFT
-0.29138273000717,-0.45998153090477,-0.54611355066299,-0.08063421398401,0.05070181563497,0.25289821624756,0.84275901317596,0.89064306020737,0.12210428714752,9.50019264221191,9.94312000274658,9.74918937683106,-1.66582953929901,-2.00547051429749,-2.65482044219971,2.00394678115845,0.74699091911316,-0.18435353040695,-1.58336269855499,-1.56137156486511,-1.62734496593475,1.54915428161621,1.2278391122818,0.84299403429031,-5.8825535774231,-8.36294651031494,-10.9486846923828,7.92720174789429,6.95036745071411,6.93839645385742,-3.45322132110596,0.63652157783508,4.49841165542603,-12.131420135498,-29.5875453948975,-29.9251270294189,5.19113302230835,5.51305866241455,4.45320749282837,-1.06351637840271,0.16126842796803,0.27977627515793,-30.7008476257324,-38.4173622131348,-46.9071998596191,13.057975769043,5.57130718231201,4.90093088150024,15.9295330047607,15.6625852584839,13.5410499572754,9.10036087036133,22.5438022613525,28.1845417022705,5.52222204208374,6.19478464126587,5.87163686752319,-2.62305545806885,-2.24370813369751,-1.39399445056915,-22.7161865234375,-16.6780090332031,-12.1697273254395,6.63672733306885,0.22026655077934,-4.34787034988403,4.51124000549316,3.24674868583679,2.28891205787659,24.8182945251465,20.7433643341064,16.2829666137695,-0.06597344577312,-0.69333207607269,-0.87659162282944,0.72326445579529,0.39645153284073,0.08918632566929,-1.47722244262695,-0.5147533416748,-0.58418524265289,3.01190567016602,5.91128396987915,7.60637903213501,0.09896016865969,-0.12644910812378,-0.28283059597015,8.9088249206543,7.75003099441528,6.85938787460327,SWING_LEFT
-0.72082096338272,-0.81000733375549,-0.83138757944107,-0.48991394042969,-0.54428094625473,-0.29688051342964,0.59615623950958,0.00239420169964,-0.15562310814857,8.82263278961182,9.33499240875244,9.38048267364502,-1.25716066360474,-1.3213015794754,-1.39704883098602,1.65918183326721,1.39821374416351,0.26815059781075,-0.66462141275406,-0.53145277500153,-0.45631635189056,1.08550751209259,1.27059972286224,1.36528384685516,-1.19710087776184,-1.0989385843277,-1.14682257175446,10.0652236938477,9.32062721252441,8.06845951080322,-1.13437676429749,-1.20706975460052,-2.12092423439026,-2.58094954490662,-1.96803379058838,-3.95522117614746,-1.25838243961334,-0.26511552929878,2.24187541007996,0.08674286305904,-0.82772243022919,-2.7201828956604,-10.3285865783691,-12.0428342819214,-23.6571063995361,15.8089141845703,26.5516967773438,27.1167278289795,16.104850769043,19.1365756988525,18.0822219848633,-10.0867719650269,15.1409311294556,28.5676155090332,5.8203239440918,7.00295925140381,6.74334144592285,-2.81731057167053,-4.9602255821228,-3.39152383804321,-31.0695552825928,-18.0881938934326,-9.18655204772949,1.78846871852875,-6.69897651672363,-9.90960121154785,5.93699932098389,2.48438906669617,-0.43982297182083,38.7477607727051,31.1509590148926,18.7130813598633,-0.65545839071274,-3.06715440750122,-4.62058448791504,2.23210167884827,3.37991738319397,2.70063519477844,-1.33117616176605,-2.5282769203186,-2.17393517494202,-6.45716190338135,0.97683429718018,12.7443351745605,-1.43064641952515,-0.527787566185,-0.38728857040405,2.24815535545349,1.9943699836731,2.04464817047119,SWING_LEFT
-0.43676865100861,-0.36468654870987,0.0274889357388,0.72937309741974,0.55100047588348,0.93279123306274,-2.559401512146,-2.88261890411377,-3.91930818557739,11.3221797943115,12.1577558517456,10.1921167373657,-2.38420701026917,-2.93520760536194,-3.71833682060242,-1.94648599624634,-2.559401512146,-6.04296493530273,-0.35735616087914,-0.36224308609962,-0.28955012559891,1.35367739200592,0.1667662113905,-0.92301738262177,-8.69334602355957,-7.10838460922241,-7.51539897918701,7.23767185211182,8.50899314880371,9.184157371521,-0.76846849918365,1.02136671543121,5.86430644989014,-16.4050693511963,-19.3020534515381,-17.8679275512695,0.63652157783508,1.24738681316376,0.98776912689209,-1.01953411102295,-1.04030346870422,-0.30298915505409,-23.7456932067871,-35.393482208252,-49.4618110656738,8.88248825073242,5.98071575164795,4.07493114471436,17.7175350189209,13.8623647689819,10.1825132369995,29.1996841430664,32.8269004821777,30.8828067779541,4.09707307815552,3.16489291191101,3.03294587135315,-2.10320901870728,-0.42821654677391,-0.62308257818222,-13.2806367874146,-9.6797571182251,-4.1156325340271,-0.45489832758904,4.58010768890381,1.0486603975296,1.49295461177826,-0.65240406990051,-1.47951567173004,30.4877643585205,17.1688213348389,7.99184513092041,-1.71164441108704,-1.9956967830658,-1.72935950756073,0.064751714468,-0.01221730466932,-0.23457226157188,-0.96725749969482,-1.22343707084656,-1.06302559375763,5.84903478622437,9.49300956726074,11.8010206222534,-0.09224065393209,-0.11178833991289,-0.24495697021484,3.19147086143494,4.15633392333984,4.26646757125854,SWING_LEFT
-0.10751228034496,-0.07819075137377,-0.25839599967003,0.28221973776817,0.41294491291046,0.45142942667007,-0.55066639184952,-0.15322890877724,0.30885201692581,10.2687311172485,9.16979217529297,9.12669658660889,-0.9822713136673,-1.8545868396759,-2.74034142494202,1.48201084136963,0.12928688526154,-1.53228902816772,-0.58581978082657,-0.65118235349655,-0.67989301681519,-0.70677107572556,-0.75747293233871,-0.38667771220207,-6.78277349472046,-9.43315505981445,-10.8217916488647,11.226411819458,10.9702320098877,10.2783079147339,-1.79716551303864,-0.1924225538969,1.84298050403595,-12.6413850784302,-14.3580274581909,-18.0498867034912,-1.31274938583374,0.54550266265869,2.44040656089783,0.96761053800583,0.78312921524048,-0.26022860407829,-19.6611843109131,-23.4344463348389,-35.7717666625977,21.543025970459,21.3682498931885,13.1465616226196,19.1573448181152,17.2624416351318,12.3749084472656,32.4701652526855,47.7451705932617,40.2513198852539,5.3328537940979,5.63828611373901,4.38051462173462,-1.63528621196747,-1.91322994232178,-0.69088858366013,-16.6899795532227,-9.78510189056396,-5.88973617553711,3.75650238990784,-4.45800352096558,-7.93917274475098,2.37015724182129,-0.11117747426033,-0.53695052862167,32.2115898132324,17.2143096923828,7.14669227600098,-0.583376288414,-0.75686204433441,-0.96028017997742,0.40866884589195,0.23273965716362,-0.46242499351501,0.4716577231884,0.61770403385162,1.70467162132263,8.4515323638916,8.54730033874512,9.85692882537842,0.37446039915085,-0.03909537568688,-0.11850785464048,4.68784713745117,3.10527968406677,1.84832370281219,SWING_LEFT
-0.51434850692749,-0.08063421398401,0.09285151958466,0.63041293621063,0.58704149723053,0.43188172578812,-1.18273568153381,-0.78050976991653,-1.08457338809967,12.1745157241821,10.8170032501221,9.71567058563232,-0.17348572611809,-0.08674286305904,-0.01527163106948,-3.07176089286804,-3.90973138809204,-4.15872812271118,0.07819075137377,0.14782938361168,-0.20830504596233,0.25167647004128,-0.00488692196086,0.29382619261742,-2.33674097061157,-4.20421838760376,-7.54891777038574,9.52892303466797,6.72531270980835,4.35505294799805,-2.03967905044556,-1.75501585006714,0.74830991029739,-11.2910556793213,-24.4687404632568,-31.6752891540527,2.73301100730896,4.41533422470093,4.69572114944458,-2.40314388275146,-1.64872527122498,-0.34819319844246,-19.5342922210693,-29.053638458252,-40.2896270751953,15.6724443435669,9.31583881378174,4.15872812271118,15.8036947250366,15.4848232269287,13.4060487747192,14.111424446106,22.7473106384277,25.1391181945801,5.30841875076294,6.38476371765137,5.38538789749146,-2.90099906921387,-3.08303689956665,-0.96944314241409,-17.9996089935303,-10.7715129852295,-6.60081386566162,4.67348194122314,-6.18661737442017,-9.105149269104,4.15449476242065,3.57234001159668,2.95170092582703,19.2948722839355,18.5742168426514,18.0067901611328,0.07696902006865,0.18692477047443,0.08857546001673,0.39034289121628,-0.06963863968849,-0.07208210229874,1.29526317119598,2.47799873352051,3.31357526779175,5.88973617553711,5.07570743560791,4.89853668212891,-0.2119702398777,-0.44226643443108,-0.43432518839836,8.00621032714844,5.95916795730591,5.37737703323364,SWING_LEFT
0.85582220554352,0.67011916637421,0.51923543214798,-0.25839599967003,-0.27794370055199,0.06108652427793,0.59136784076691,1.07739078998566,0.87867200374603,9.11233139038086,8.69574069976807,7.07486581802368,-0.91751956939697,-1.6334536075592,-2.5802948474884,3.7349545955658,2.92332029342651,1.5179238319397,-1.20706975460052,-1.59802353382111,-2.12336754798889,1.60779738426209,0.88697636127472,-0.25473082065582,-7.08923101425171,-10.8289747238159,-12.210428237915,4.4723687171936,5.21217727661133,9.85692882537842,-2.77454996109009,-0.15454891324043,4.99076890945435,-17.1065711975098,-36.2937049865723,-40.900146484375,5.57109117507935,6.53747987747192,6.31268167495728,-1.42759203910828,-0.2981022298336,0.36957347393036,-36.470874786377,-49.1864814758301,-58.2102241516113,17.4345760345459,7.67102241516113,5.71974802017212,17.6063575744629,16.6149234771729,12.5013570785522,18.2629699707031,35.9465446472168,38.055835723877,4.99321269989014,4.33836507797241,3.49109482765198,-0.9767735004425,-0.67683869600296,-0.29321530461311,-16.2590236663818,-11.8225679397583,-7.08683681488037,-0.9528923034668,-2.64559292793274,-3.35188245773315,3.80996656417847,2.2724187374115,1.51738929748535,23.4105033874512,18.0570697784424,13.3021850585938,-1.09100532531738,-1.59802353382111,-1.10200095176697,0.19547687470913,0.30909782648087,0.0,-2.22421336174011,-1.69988322257996,-1.03668928146362,4.46758031845093,9.25837802886963,11.9662199020386,0.35552358627319,-0.13072516024113,-0.38179078698158,11.743558883667,9.67018032073975,7.88171195983887,SWING_LEFT
-0.57360243797302,-0.34636059403419,-0.30176743865013,-0.15699236094952,-0.09407325088978,-0.21441370248795,-5.19302368164063,-5.69580602645874,-6.99825143814087,11.1450090408325,10.2256355285645,10.4602670669556,-0.38423424959183,-0.35857790708542,-0.10079276561737,-1.82438170909882,-3.23935484886169,-3.51229381561279,1.59008228778839,2.0323486328125,2.23515582084656,-1.15331363677979,-0.59681534767151,-0.32620203495026,-7.89128875732422,-9.88565921783447,-10.8289747238159,12.3756284713745,10.5009689331055,9.09078407287598,0.51495939493179,2.09954380989075,5.39088582992554,-6.93600225448608,-17.4800662994385,-22.7544937133789,3.82096219062805,4.10684680938721,3.3212742805481,2.52287340164185,3.62548518180847,3.11174750328064,-29.3816432952881,-47.1585922241211,-67.7415466308594,14.5471696853638,10.8481283187866,9.30147361755371,20.008279800415,18.2703685760498,11.8123016357422,33.4972763061523,53.2374687194824,46.4020233154297,4.10806894302368,5.04330348968506,4.40372753143311,-2.78859972953796,-3.65053081512451,-1.95049273967743,-8.99022769927979,-7.37653541564941,-4.75488471984863,7.13950967788696,-2.20984816551209,-4.58729028701782,3.51797294616699,0.51618111133575,-0.84055060148239,42.578483581543,22.503101348877,10.2016935348511,-0.60536748170853,-0.805120408535,-1.26571273803711,1.06473815441132,0.50640726089478,-0.04581489413977,-0.39743748307228,0.51714754104614,0.74459671974182,7.04134702682495,6.82586908340454,9.12909126281738,-0.22785273194313,0.10567969083786,0.3506366610527,1.47243404388428,2.32716393470764,3.2776620388031,SWING_LEFT
-0.31948253512383,-0.27855455875397,-0.19975294172764,-0.20097467303276,0.03298672288656,0.23640485107899,1.13485157489777,1.25216746330261,1.12766897678375,10.582371711731,10.6350440979004,10.0580415725708,-0.22113321721554,-0.46364670991898,-0.78679442405701,0.21547815203667,-0.22266076505184,-0.0454898327589,-0.50762903690338,-0.41905355453491,0.3506366610527,0.90652400255203,1.02014493942261,-0.60475659370422,-1.56101953983307,-7.33343982696533,-8.46829128265381,10.187328338623,16.1608619689941,23.3147354125977,-2.07510924339294,0.38545596599579,3.41290402412415,-24.480712890625,-26.2500267028809,-22.4288806915283,4.67250823974609,3.84661841392517,2.7702739238739,0.32009339332581,2.83074951171875,2.96452903747559,-24.3346652984619,-32.2666549682617,-41.4556007385254,10.2854900360107,11.8129911422729,15.9956617355347,15.3406591415405,14.9087772369385,12.6424674987793,13.1154365539551,23.5110607147217,24.0760917663574,6.94248342514038,5.16425466537476,3.41656923294067,-0.39278635382652,0.79045963287354,-0.01160643994808,-22.2253742218018,-20.0274963378906,-17.0898113250732,-8.20014095306396,-8.17619895935059,-5.88973617553711,5.94982767105103,3.61265707015991,0.657290995121,28.1486301422119,44.0700721740723,25.3474140167236,-1.43858766555786,-0.76724672317505,-0.09651670604944,2.45506739616394,1.51861095428467,0.38240164518356,-2.05661916732788,-2.85388851165771,-3.05260705947876,9.05247688293457,11.5687828063965,8.67179870605469,-2.55280590057373,-2.07327675819397,-1.41537475585938,2.4205379486084,0.74220252037048,2.08774399757385,SWING_LEFT
-0.1924225538969,-0.44348818063736,-0.79412484169006,1.04580128192902,1.24555420875549,1.62490153312683,0.86191260814667,0.73023152351379,0.04309562966228,9.00459289550781,8.47786808013916,7.66144561767578,-2.35977244377136,-3.4648277759552,-4.78551816940308,1.45567464828491,1.51074123382568,2.99754047393799,-2.23637771606445,-2.59800982475281,-2.30968141555786,1.37627935409546,-0.1924225538969,-1.72264003753662,-17.0443210601807,-17.7170925140381,-13.8432741165161,3.51947641372681,8.09000778198242,16.5391445159912,-1.99203157424927,2.10381984710693,6.23693418502808,-29.0584259033203,-28.7926692962646,-22.9603939056396,4.51551580429077,4.45809459686279,3.73971700668335,-0.11667526513338,0.10995574295521,-0.69944071769714,-29.1158866882324,-37.8762702941895,-52.289363861084,10.0556468963623,5.49708700180054,4.05098915100098,18.7633361816406,18.087718963623,13.9796514511108,12.3373212814331,33.2506713867188,38.2066688537598,4.05492353439331,5.33712959289551,5.63523197174072,-2.01768779754639,-3.31699824333191,-4.009108543396,-12.6653270721436,-10.251971244812,-9.43315505981445,11.3772468566895,4.94163227081299,-2.77009129524231,4.42022085189819,3.37380886077881,2.14169359207153,21.3706436157227,22.2636814117432,27.5309257507324,0.35674530267715,-0.65912359952927,-1.24372160434723,1.92483639717102,1.7678439617157,0.4331034719944,-0.72783732414246,0.88106620311737,1.75016140937805,-2.9855694770813,2.19308876991272,8.60476112365723,-0.27733281254768,0.12034045159817,0.032375857234,6.87135887145996,6.7348895072937,6.31829833984375,SWING_LEFT
-0.04153883829713,-0.30360001325607,-0.59742623567581,0.18387043476105,0.44104471802711,0.85093528032303,-0.53390699625015,-0.1508347094059,-0.3447650372982,8.22168827056885,8.23844814300537,8.1115550994873,-0.90957832336426,-1.44652891159058,-2.18323230743408,1.47722244262695,1.38145434856415,3.03105926513672,-1.34084916114807,-1.69148588180542,-2.19056272506714,2.62610960006714,2.55708193778992,1.70309233665466,-9.9000244140625,-17.6907558441162,-19.4241580963135,3.9384617805481,2.17872357368469,7.1921820640564,-2.54547548294067,2.11115026473999,6.59673357009888,-37.488410949707,-33.2985572814941,-21.9955310821533,5.69020986557007,4.99504518508911,3.8570032119751,-0.75258600711823,0.23945917189121,0.23762658238411,-33.8899269104004,-44.0461273193359,-55.1648025512695,4.17548799514771,2.47321033477783,2.60489153862,18.1396427154541,16.5972080230713,12.6669015884399,19.9963722229004,31.8165454864502,29.3457298278809,4.82278108596802,6.07994174957275,6.11903715133667,-3.6859610080719,-4.3615779876709,-3.12152147293091,-15.8831338882446,-12.0619878768921,-10.4363250732422,7.05571222305298,-0.24420857429504,-5.11401462554932,4.52773332595825,4.31270885467529,0.67378437519073,15.21275806427,51.4849128723145,27.2077083587646,-0.09834930300713,-0.34086281061172,-0.24862214922905,0.61208695173264,0.92790430784225,0.88453286886215,4.4340615272522,-0.37588965892792,-1.13485157489777,4.54898309707642,6.09084892272949,5.43962621688843,0.10873401165009,0.10323622822762,0.15577064454556,4.37420654296875,2.73657250404358,3.50271701812744,SWING_LEFT
-0.82955497503281,-0.3805690407753,-0.12095131725073,1.01709067821503,0.59498274326324,-0.07147123664618,-0.33997663855553,-0.25857377052307,0.01197100803256,11.0252990722656,10.4147777557373,11.6046953201294,-0.40561452507973,-1.554652094841,-3.193603515625,0.84754741191864,0.25139117240906,-3.60806202888489,-0.09651670604944,-0.44776421785355,-0.75686204433441,0.9639453291893,1.10383355617523,0.32986724376678,-9.3828763961792,-10.7379941940308,-11.678915977478,8.49941635131836,8.2121114730835,11.8728466033936,-0.16187928617001,2.26142311096191,5.45563745498657,-20.946870803833,-23.6259822845459,-22.969970703125,3.6236526966095,5.38294458389282,6.24609708786011,-2.08366131782532,-1.49845242500305,-0.23518311977386,-32.1565246582031,-43.0764770507813,-52.0738868713379,15.6700496673584,10.3788642883301,7.96072053909302,16.6454677581787,14.7157440185547,11.0609369277954,25.464729309082,36.8754959106445,38.5274925231934,5.54604578018188,5.11905097961426,4.15449476242065,-1.42759203910828,-1.25532805919647,-0.31337386369705,-12.9885444641113,-10.0293111801147,-9.93593692779541,0.19393034279346,-3.21301865577698,-4.66390514373779,1.77883958816528,-2.25226020812988,-0.94867372512817,50.2997817993164,13.3668279647827,9.16739845275879,-0.32681289315224,-1.21378922462463,-1.6157386302948,0.61208695173264,1.28587138652802,1.55831718444824,0.38786068558693,-1.20667767524719,-1.47961664199829,0.08858546614647,6.01423454284668,10.788272857666,0.59803706407547,0.54733526706696,0.57238072156906,3.48835182189941,3.00951147079468,2.94486808776855,SWING_LEFT
-0.20036379992962,-0.04031710699201,-0.01343903504312,0.06352998316288,-0.05131268128753,-0.21441370248795,-1.38863694667816,-1.20667767524719,-0.70628952980042,10.8672819137573,10.2471828460693,10.1035308837891,-0.13866640627384,-0.42516219615936,-1.32557761669159,1.08696758747101,0.9528923034668,0.28730419278145,-0.62369340658188,-0.45020768046379,-0.33108896017075,0.68416905403137,1.36406207084656,1.97553825378418,-4.34308195114136,-7.19936466217041,-12.4211187362671,9.57680702209473,8.57363605499268,6.88093566894531,-3.96940231323242,-2.70674395561218,0.46547931432724,-17.1568489074707,-28.3257999420166,-40.7373428344727,4.29132843017578,6.46723031997681,6.24120998382568,-2.2479841709137,-0.5155702829361,0.77763146162033,-33.3823547363281,-46.8760757446289,-58.1024856567383,23.2476978302002,9.00219821929932,1.01274728775024,17.5196151733398,16.9032516479492,13.5361633300781,13.0891008377075,29.953857421875,34.3807373046875,4.14960765838623,4.89791774749756,4.88142395019531,-3.51247525215149,-3.80996656417847,-2.04151153564453,-16.7378635406494,-11.6094837188721,-10.0221281051636,1.55862534046173,-3.47877502441406,-5.32231044769287,4.11723184585571,4.20947217941284,4.13189268112183,16.5223865509033,15.2534589767456,14.8177146911621,1.1856894493103,0.8356636762619,0.65606927871704,0.46853363513947,-0.13683381676674,-0.50946164131165,-4.82910490036011,-1.73579621315002,0.23942017555237,1.13245737552643,3.13161587715149,3.4308910369873,0.36407569050789,-0.87598073482513,-1.48806774616241,19.3499374389648,13.2734546661377,8.52335834503174,SWING_LEFT
-0.42882740497589,-1.00181901454926,-1.79288947582245,1.05618596076965,1.74279856681824,2.60839462280273,4.1347861289978,1.60411512851715,-1.26174426078796,8.84418106079102,6.23689556121826,7.508216381073,-5.22167634963989,-5.81604814529419,-4.36279964447021,-5.40371322631836,-21.1695308685303,-21.9548301696777,-0.24556782841682,-1.27426493167877,-2.15574336051941,3.28095722198486,1.73302471637726,0.03176499158144,-11.1761331558228,-17.6907558441162,-18.5071792602539,3.44046783447266,5.26963806152344,13.2519063949585,1.90528869628906,6.79221057891846,11.5288600921631,-33.4853057861328,-24.3610019683838,-11.9638261795044,1.06962502002716,1.15270268917084,0.9828822016716,1.19057631492615,-0.16554448008537,-3.28950929641724,-55.1360702514649,-58.7537078857422,-59.0003128051758,7.28795003890991,1.92972660064697,2.79642748832703,16.4609851837158,12.7823553085327,8.3499174118042,37.4357376098633,46.7204513549805,37.2825088500977,4.16671180725098,3.49476003646851,2.41658282279968,-0.41966441273689,-0.51312679052353,0.22540926933289,-13.9294652938843,-10.1490211486816,-7.92959594726563,1.78128612041473,-0.83318221569061,-0.07661445438862,2.19056272506714,-0.89369583129883,-1.39765965938568,38.9225387573242,21.3562793731689,8.56166553497314,0.7177666425705,-0.39217549562454,-1.1856894493103,1.02014493942261,0.54794609546661,0.17837265133858,-1.13485157489777,0.22984336316586,0.45968672633171,1.20667767524719,4.49870491027832,7.69017601013184,0.02076941914856,-0.20219638943672,-0.46670106053352,5.53299999237061,5.82988119125366,5.64313364028931,SWING_LEFT
-0.61575216054916,-1.00242984294891,-1.41720736026764,0.8533787727356,1.67560338973999,2.17345857620239,3.00711727142334,2.86825370788574,2.60967993736267,7.77157878875732,7.15866327285767,8.1331033706665,-2.11725902557373,-2.50332570075989,-2.88817095756531,-0.68474167585373,-0.74699091911316,-1.10851538181305,-1.17591559886932,-1.24127817153931,-1.28709304332733,1.12765729427338,0.90469145774841,0.09896016865969,-2.49954652786255,-4.18506479263306,-9.33020401000977,8.79390239715576,10.3070383071899,13.2112045288086,-5.3194146156311,-4.86126565933228,-1.91872775554657,-11.2024698257446,-27.6171169281006,-31.5962791442871,0.72937309741974,3.69756722450256,4.22168970108032,-1.82648706436157,1.31091678142548,0.97310835123062,-24.2101669311523,-39.9281005859375,-50.8001708984375,23.9420166015625,15.3181028366089,9.19852256774902,15.6607522964478,15.7322235107422,13.4530849456787,6.15788698196411,30.4566402435303,29.9370975494385,4.26994800567627,5.10377931594849,5.45808076858521,-0.0372627787292,-2.5112669467926,-4.27850008010864,-27.9738521575928,-22.9053268432617,-17.2837429046631,8.63349151611328,3.40455484390259,-1.35272395610809,4.37501668930054,3.63525915145874,-0.26755899190903,20.8151893615723,18.1073474884033,16.8886985778809,-1.23272609710693,-0.74036866426468,-0.39889499545097,-0.74464476108551,-1.03114056587219,-0.1777617931366,3.61045622825623,-1.52271223068237,-1.92254400253296,7.49624538421631,3.62482142448425,2.3511061668396,-0.51984632015228,-0.49418997764587,-0.31398472189903,4.81234550476074,4.04380655288696,4.02225875854492,SWING_LEFT
-1.74829638004303,-1.22906088829041,-0.80756384134293,0.21135938167572,0.39828413724899,0.56871557235718,-6.95276165008545,-7.63271522521973,-8.02536392211914,13.0029096603394,12.8353157043457,11.6094837188721,-2.13558483123779,-1.89673662185669,-1.37627935409546,-4.11323833465576,-5.7628436088562,-7.3501992225647,-0.47403141856194,-0.11239920556545,0.33903020620346,1.4501941204071,0.96577793359756,0.05192354694009,-12.4546375274658,-13.8313035964966,-15.813702583313,11.9231243133545,12.3612632751465,12.7132110595703,2.73728704452515,5.03658390045166,8.57227230072021,-15.0331926345825,-21.5933055877686,-21.6028823852539,2.19361710548401,2.5491406917572,2.45812177658081,0.32314771413803,0.30176743865013,0.27427849173546,-39.5737609863281,-55.2150802612305,-74.5410766601563,11.8010206222534,9.18176364898682,8.59757804870605,20.008279800415,19.8714466094971,15.0963125228882,22.2253742218018,48.7052459716797,48.1617622375488,3.08548045158386,4.74459028244019,4.97427558898926,0.5155702829361,-1.48379170894623,-1.58886051177979,-24.7368927001953,-22.5007076263428,-16.1895923614502,15.3707752227783,4.83628749847412,-1.71424841880798,5.84903478622437,4.05248022079468,3.17833185195923,27.2531986236572,21.2413578033447,18.1480484008789,1.22173047065735,0.14294247329235,-0.08491026610136,0.06536258012056,-0.2944370508194,-0.28771752119064,-6.10760831832886,0.13407529890537,1.32878196239471,-2.89937829971313,3.44286203384399,5.04458284378052,-0.34941491484642,-0.04153883829713,0.1472185254097,8.63588523864746,5.66228723526001,4.75249052047729,SWING_LEFT
-1.08245325088501,-1.32741022109985,-1.4312572479248,1.04580128192902,0.805120408535,0.94561940431595,0.84994161128998,0.47884035110474,-0.11731588095427,8.52096366882324,8.60236644744873,8.72207641601563,-0.4202753007412,-0.8533787727356,-0.8784242272377,-0.44053310155869,-2.84191751480103,-4.77643251419067,-0.70860368013382,-0.38851028680801,-0.72876220941544,0.73609262704849,0.62186080217361,0.23884831368923,-6.33505773544312,-9.2224645614624,-12.4306955337524,10.1298675537109,7.31189203262329,8.47547435760498,-0.23396138846874,0.79656827449799,3.41534757614136,-9.86650562286377,-20.3076190948486,-33.4613647460938,2.64687919616699,5.9895339012146,7.36031532287598,-0.82344633340836,-1.28403878211975,-0.84177231788635,-46.1099319458008,-69.9992752075195,-78.4412307739258,26.0752506256104,10.8768587112427,-2.48039293289185,20.0040035247803,16.9191341400146,11.2826814651489,45.7268600463867,49.152961730957,30.7894344329834,5.27604293823242,6.89300346374512,6.40980911254883,-1.89612567424774,-1.97614908218384,-0.47403141856194,-21.6651306152344,-16.3380317687988,-9.75158309936523,3.17231726646423,-5.04458284378052,-9.32781028747559,2.56685566902161,1.39216184616089,0.70493847131729,25.1439056396484,13.5009031295776,29.8317527770996,-0.53572881221771,-0.14355333149433,0.0421497002244,0.92362827062607,0.2981022298336,-0.33108896017075,2.67192912101746,2.76530289649963,1.26174426078796,8.02775859832764,6.47631549835205,6.28238534927368,0.24678955972195,0.39706242084503,0.72937309741974,5.39174222946167,2.75093770027161,2.15238738059998,SWING_LEFT
-2.65848565101624,-2.76660871505737,-2.73973059654236,1.65055787563324,1.80327415466309,1.80021989345551,-1.05823719501495,-2.94247388839722,-4.85544109344482,8.12113189697266,8.4706859588623,7.67581081390381,-3.57539439201355,-4.01460647583008,-4.13677930831909,-2.4899697303772,-3.89057779312134,-4.43166732788086,-1.05924034118652,0.47342056035995,1.81488060951233,-1.17041778564453,-2.71773958206177,-3.82096219062805,-16.4553489685059,-16.0866413116455,-18.0666465759277,18.2390289306641,19.5151386260986,19.1129112243652,-0.47830748558044,2.75927829742432,6.57290983200073,-21.8734264373779,-24.2939643859863,-17.3938751220703,6.04390096664429,4.59859371185303,3.03416776657104,0.91018921136856,2.15268921852112,2.0891592502594,-34.0407600402832,-43.0046501159668,-51.6285667419434,1.69270062446594,2.69587111473084,9.30865573883057,16.7083854675293,15.1598424911499,12.6100912094116,20.8798332214355,26.7575988769531,26.8677310943604,4.57415914535522,4.39578628540039,4.2613959312439,-0.09407325088978,0.73548173904419,0.76297068595886,-23.9108924865723,-20.0322856903076,-15.6844148635864,5.83945798873901,6.13633918762207,5.56891298294067,6.11109590530396,4.65540409088135,3.50881004333496,23.7385101318359,21.1312236785889,18.8567333221436,2.91810321807861,1.91933858394623,0.8906415104866,0.60353487730026,0.88392198085785,0.53206360340118,-5.23372507095337,-4.78361511230469,-3.20583605766296,-1.44609785079956,-1.0414776802063,0.90261405706406,1.57542145252228,1.08978354930878,0.09224065393209,14.2814130783081,16.3571853637695,14.2359237670898,SWING_LEFT
-0.38484510779381,-0.73303830623627,-0.89003068208694,1.85580861568451,1.70187056064606,1.57419979572296,2.89458990097046,1.80283391475677,0.35913026332855,6.93839645385742,7.59919595718384,8.23605346679688,-2.39275908470154,-2.6700918674469,-3.37503051757813,-5.58088397979736,-5.20020627975464,-6.77319669723511,-1.48867857456207,-0.15149457752705,0.97555178403854,-0.74036866426468,-1.01220369338989,-0.93767815828323,-11.0947303771973,-13.4147119522095,-14.4490070343018,18.756175994873,16.3954925537109,10.2807016372681,-2.21438646316528,0.11056660860777,4.2027530670166,-22.3809967041016,-30.9809703826904,-34.1772308349609,2.15818691253662,2.0011944770813,1.05190992355347,0.55344390869141,1.17163956165314,1.44836151599884,-37.7182540893555,-49.2726707458496,-54.4058380126953,11.2695074081421,6.60799646377563,8.16183376312256,16.804292678833,15.7242822647095,13.2368392944336,21.4041633605957,30.8229522705078,32.4127044677734,3.60532665252686,4.50390958786011,4.6627345085144,0.86254173517227,-0.61575216054916,-0.73426002264023,-19.6444244384766,-13.4506254196167,-8.20014095306396,12.9837560653687,7.16824007034302,3.10288548469543,4.49230289459229,2.93520760536194,2.03295946121216,25.160665512085,18.7250518798828,13.1058597564697,1.73424637317657,0.4850270152092,-0.29016098380089,1.67926859855652,0.3897320330143,-0.1685988008976,-0.19871874153614,0.2537853717804,0.80205756425858,1.86508309841156,2.43011474609375,3.77086758613586,1.86924767494202,1.64506006240845,1.34634697437286,8.40364837646484,8.33661079406738,8.56884765625,SWING_LEFT
-1.9956967830658,-2.20155835151672,-2.16429567337036,2.80081725120544,2.88267302513123,2.74828267097473,1.6903064250946,0.12928688526154,-2.05661916732788,7.91283655166626,8.7268648147583,9.42836666107178,-3.45016694068909,-3.38969135284424,-3.36098051071167,-6.37575912475586,-6.36139392852783,-7.82185697555542,-1.94560575485229,-2.58884692192078,-2.67192459106445,2.44040656089783,0.71593403816223,-1.26571273803711,-7.55370616912842,-9.91438961029053,-13.072340965271,6.715735912323,10.350133895874,13.4123182296753,-0.26633724570274,2.09099173545837,5.37378168106079,-18.0714340209961,-23.4152927398682,-24.5238075256348,2.80264973640442,4.05370187759399,4.62852573394775,-1.88513016700745,-1.46668744087219,-1.21134579181671,-31.4813575744629,-43.1794281005859,-55.9453125,15.8687686920166,10.6685628890991,10.5177278518677,16.6106472015381,16.7444267272949,14.8757905960083,9.83777523040772,24.9068794250488,29.6306400299072,4.00788688659668,4.74825572967529,6.52037572860718,0.64812803268433,-0.63652157783508,-1.97614908218384,-31.6082515716553,-23.44162940979,-15.9286241531372,11.4083709716797,12.1002950668335,2.71981310844421,3.48804044723511,0.91874134540558,0.05925392732024,32.4414329528809,20.1615734100342,11.7962322235107,2.04212260246277,0.13255776464939,-0.77518796920776,2.32678580284119,2.05250716209412,0.85948741436005,-3.23935484886169,-1.64960491657257,-0.62728083133698,-8.66222190856934,-2.09971499443054,0.95768070220947,0.63102382421494,0.15454891324043,-0.2138028293848,11.7244052886963,10.4387197494507,8.89445972442627,SWING_LEFT
0.18997909128666,0.01649336144328,-0.18692477047443,0.55710911750793,0.9211847782135,1.0067058801651,1.35272395610809,1.2449848651886,1.21146607398987,8.35097599029541,8.10916137695313,7.98705673217773,-0.05803219974041,-0.30787608027458,-0.85887652635574,-1.50116443634033,-0.93373864889145,0.89543145895004,-1.64444923400879,-2.11115026473999,-2.51554298400879,1.16064393520355,1.06657075881958,0.62308257818222,-5.18105268478394,-10.7403888702393,-14.8416566848755,4.91769027709961,4.33111095428467,5.88494777679443,-4.07080602645874,-2.32006621360779,0.97799527645111,-13.524845123291,-21.3179721832275,-27.4327621459961,1.13071155548096,3.49414920806885,5.3401837348938,-2.28952288627625,-1.48440253734589,-0.38117989897728,-20.8511028289795,-35.8747177124023,-54.1400833129883,25.4240283966064,20.2310047149658,13.0914945602417,18.1604137420654,19.1072540283203,14.9668092727661,11.4131593704224,45.4275817871094,52.4856910705566,6.70546770095825,5.82337856292725,4.61325454711914,-2.18873023986816,-0.85276788473129,0.18692477047443,-9.3637228012085,-7.20654726028442,-6.86417627334595,-2.33434677124023,-6.00226354598999,-7.88171195983887,3.51919460296631,2.56746673583984,0.65912359952927,21.5549983978271,20.3770503997803,16.6804027557373,-0.19975294172764,-0.34513887763023,-0.4850270152092,0.57726764678955,0.64568454027176,0.25839599967003,-0.69671267271042,-1.04626619815826,-1.08936178684235,3.36385345458984,4.70700073242188,6.009446144104,-0.32681289315224,-0.34025195240974,-0.49480083584785,6.43800830841064,6.81629228591919,6.20098257064819,SWING_LEFT
-0.57910025119781,-0.46792277693748,-0.43127086758614,-1.61024081707001,-1.74646377563477,-1.59619092941284,3.78762698173523,3.65355181694031,3.04063606262207,10.6446208953857,10.6350440979004,8.86094093322754,-1.85825204849243,-2.70613312721252,-3.77392554283142,6.8545994758606,7.1419038772583,6.66785192489624,-3.97917628288269,-4.91929769515991,-5.39638376235962,1.03297317028046,1.70309233665466,1.18813288211823,-16.074670791626,-21.6723136901855,-18.0810108184814,3.63918662071228,8.17141056060791,21.2461452484131,-4.64868450164795,-1.25288462638855,2.5992317199707,-24.4735298156738,-28.368896484375,-26.7719631195068,4.5136833190918,6.03534841537476,5.76901149749756,0.3072652220726,1.15881133079529,1.75501585006714,-32.6042404174805,-44.2831535339355,-61.0282020568848,18.5335159301758,9.64384460449219,7.65665721893311,19.137186050415,18.2269973754883,14.7682781219482,10.1298675537109,28.2755222320557,38.1013259887695,5.16547632217407,5.20640468597412,5.62545824050903,-0.74708819389343,-1.68476629257202,-2.21255397796631,-25.8382244110107,-18.7920894622803,-17.4082412719727,5.30315685272217,5.3558292388916,2.4205379486084,5.54482364654541,4.61569786071777,3.12701916694641,24.2628402709961,28.3856544494629,26.5493030548096,3.57967042922974,2.58273816108704,1.49478721618652,1.30053210258484,1.67377078533173,1.36528384685516,-3.7038300037384,-2.88980150222778,-1.7597382068634,-3.03584766387939,-2.74136090278625,-1.25695586204529,0.10445795953274,0.29871311783791,0.28160887956619,8.20253467559814,8.43477249145508,9.06205368041992,SWING_LEFT
0.45204028487206,0.11301007121801,-0.04276056587696,2.65359854698181,2.91993594169617,2.9101619720459,1.56580793857574,-6.19619417190552,-7.07007741928101,7.58722496032715,6.89051246643066,6.34224033355713,-6.82214307785034,-7.12024545669556,-6.43729782104492,-7.08923101425171,-13.6182193756104,-28.251579284668,-2.67131376266479,-2.70307874679565,-3.20887517929077,1.71836388111115,1.8057177066803,1.71714222431183,-9.99579238891602,-12.0835361480713,-15.0212211608887,13.057975769043,10.625467300415,13.0603704452515,1.88207578659058,5.0634617805481,8.04387378692627,-21.4137401580811,-23.1806602478027,-15.5551280975342,-1.88696277141571,0.26755899190903,1.0989465713501,-1.24921941757202,-2.20522356033325,-5.06590557098389,-44.7548141479492,-65.5532455444336,-78.4316558837891,16.3021202087402,6.12197351455688,2.84910011291504,19.9557456970215,17.1323261260986,10.5081043243408,38.1779403686523,42.1044311523438,30.5141010284424,3.77697992324829,3.16733622550964,1.70187056064606,-0.83260935544968,-0.25350907444954,1.33779489994049,-14.8991174697876,-11.1545858383179,-3.86663579940796,-2.77009129524231,-2.59531474113464,-4.065354347229,-1.26510190963745,-0.99265605211258,-0.65179324150085,9.62229633331299,6.6654577255249,5.93283176422119,-0.85460048913956,-0.53878313302994,-0.0842994004488,0.64018678665161,0.06291911751032,-0.53450709581375,1.28808057308197,1.58974993228912,1.31441676616669,9.55047035217285,9.02135181427002,7.58483076095581,-0.0598647929728,-0.17104226350784,-0.37873646616936,6.84023427963257,7.41005420684814,6.79474449157715,SWING_LEFT
-0.66156703233719,-0.43799036741257,-0.8167268037796,1.34695792198181,1.64689266681671,2.22782564163208,4.05338335037231,4.83149909973145,0.97444009780884,11.4634380340576,9.16739845275879,3.45004463195801,-5.67432737350464,-5.89912557601929,-4.75314235687256,-0.62728083133698,-12.1146602630615,-12.1098718643188,-1.62429070472717,-0.52106803655624,0.00183259579353,2.18750834465027,0.33903020620346,-0.04764748737216,-16.8432083129883,-19.3259963989258,-22.3666324615479,13.3069734573364,13.4051351547241,10.2854900360107,3.12946271896362,5.31025171279907,10.9247140884399,-16.098611831665,-18.2964897155762,-11.3078145980835,-0.78190749883652,-0.53267449140549,0.60475659370422,0.16737708449364,-1.23211514949799,-2.61389231681824,-54.6069526672363,-74.0454788208008,-78.4436264038086,10.1250791549683,12.5743474960327,12.6222314834595,19.5311946868896,13.8128852844238,10.6993045806885,62.8908920288086,43.0932350158691,29.3457298278809,2.41902637481689,2.40986347198486,2.57662963867188,0.36713001132011,-0.34025195240974,-0.56260687112808,-28.4910011291504,-22.369026184082,-17.7865238189697,5.6742582321167,5.59046077728271,4.28322696685791,4.88631105422974,3.43184089660645,2.04762029647827,29.156587600708,25.1870021820068,19.0793933868408,1.78189396858215,1.38544237613678,1.09772479534149,0.87598073482513,0.1148426681757,-0.45875978469849,-4.68784713745117,-2.48278713226318,-1.3215993642807,3.11485648155212,3.89776039123535,4.07253694534302,0.15515977144241,0.01588249579072,-0.25900685787201,9.3637228012085,9.24880123138428,8.82263278961182,SWING_LEFT
-2.14658045768738,-2.52959299087524,-3.009122133255,1.23333692550659,1.30480813980103,0.82650065422058,-1.8674772977829,-3.31836366653442,-10.1202907562256,8.81066226959229,9.22964763641357,11.1881046295166,-4.52162456512451,-2.72751331329346,-0.51312679052353,-13.673285484314,-13.0340337753296,-9.82580375671387,0.94256508350372,1.27182149887085,1.38177716732025,-1.34634697437286,-0.14355333149433,0.11606439948082,-16.4673194885254,-19.1919212341309,-24.5621147155762,13.1537437438965,12.1505737304688,13.9917144775391,7.13307332992554,10.2326040267944,13.2930383682251,-11.6884927749634,-7.83143377304077,3.16034626960754,0.84299403429031,5.3328537940979,8.43604946136475,-0.21074850857258,-3.04577422142029,-5.29375839233398,-59.2301559448242,-66.649787902832,-69.7095794677734,21.9428577423096,7.1921820640564,-6.82586908340454,16.2697849273682,15.0443897247314,11.5820055007935,19.3044490814209,44.4842681884766,35.1492767333984,2.20644521713257,2.46606302261353,2.66581583023071,2.04762029647827,-1.49967420101166,-0.92790430784225,-24.2748107910156,-20.424934387207,-8.77714347839355,4.64475107192993,1.23540806770325,-0.76614451408386,2.51004528999329,1.3946053981781,0.95661497116089,20.9205341339111,16.9389762878418,17.0467166900635,-1.46363317966461,-1.75257241725922,-0.86193084716797,-0.18936823308468,-0.13561208546162,-0.53939402103424,-2.1475989818573,-2.46363353729248,-2.47321033477783,6.21774196624756,9.55765342712402,10.4746322631836,0.34941491484642,0.57299160957336,0.47891834378242,4.27125597000122,5.33428144454956,4.7213659286499,SWING_LEFT
-0.96089100837708,-0.94073247909546,-0.72387534379959,-1.7745635509491,-2.45323491096497,-1.79533290863037,-7.27119064331055,-8.48744487762451,-10.8624935150146,9.84974575042725,11.21204662323,10.9271364212036,-1.35795342922211,-1.14598321914673,-0.56382864713669,-1.68551802635193,-4.64714527130127,-9.5624418258667,1.02869701385498,1.02625358104706,-0.12339477986097,-0.38117989897728,-0.55405479669571,0.41966441273689,-21.6076698303223,-25.1798191070557,-30.8061923980713,8.97107410430908,3.98873996734619,6.73010110855103,8.44521236419678,10.9607553482056,13.4830179214478,-13.2806367874146,-10.2974615097046,-4.41730213165283,3.573561668396,3.63709163665771,3.56073355674744,-1.08917272090912,-2.71529603004456,-4.05919933319092,-54.3890800476074,-61.6459045410156,-72.2953109741211,2.78685069084167,-1.89620769023895,-6.21774196624756,19.9172611236572,17.5849781036377,13.3718404769897,35.3671493530273,44.821849822998,39.3558883666992,2.24981665611267,3.84112071990967,4.57415914535522,-0.40805798768997,-2.56563401222229,-3.52774667739868,-24.5429611206055,-21.9572238922119,-16.4050693511963,12.3564748764038,6.07408952713013,1.36230075359344,4.40433835983276,2.5436429977417,1.48806774616241,26.7025318145752,20.5494327545166,14.1497316360474,1.50761544704437,0.56199604272842,-0.00061086524511,1.5534303188324,1.10872042179108,0.39522981643677,-4.87459468841553,-4.13239192962646,-2.13083958625793,0.52911859750748,2.73896670341492,4.02225875854492,0.73914694786072,0.2461786866188,-0.31826078891754,10.3812589645386,9.85692882537842,8.31506252288818,SWING_LEFT
-1.61757111549377,-2.18384313583374,-2.41291761398315,0.59131753444672,0.57604593038559,0.11423180252314,-1.73579621315002,-4.20421838760376,-5.82748699188232,7.23767185211182,7.9846625328064,10.3046445846558,-2.95597696304321,-3.34815239906311,-3.4703254699707,2.26491475105286,2.29364514350891,0.17477671802044,-0.45937067270279,0.96883225440979,2.39520263671875,0.02626720629632,0.50762903690338,0.66706484556198,-12.1769094467163,-13.2327527999878,-14.0012912750244,21.4448642730713,21.277271270752,17.7745532989502,2.97674632072449,7.39391279220581,10.6504354476929,-9.60553741455078,-14.0563583374023,-19.5366859436035,4.16060304641724,3.38663697242737,2.277916431427,3.86433362960815,4.94739770889282,5.08606386184692,-51.2071876525879,-78.0390014648438,-78.4436264038086,11.7483472824097,9.95269680023193,13.5296335220337,19.9545249938965,14.738956451416,8.66451263427734,52.4593544006348,44.9152221679688,21.8686389923096,6.71646356582642,5.02192306518555,3.27118349075317,-5.53810453414917,-1.85397601127625,0.79107052087784,-21.4065570831299,-18.7130813598633,-14.3340854644775,-8.7077112197876,-5.63834476470947,1.36469495296478,4.4825291633606,2.45751094818115,0.63957589864731,29.8556957244873,23.1974201202393,19.6109066009521,1.38544237613678,0.56321775913239,-0.16493362188339,-0.84665924310684,-0.49418997764587,-0.06230825558305,-1.83156430721283,-0.28490999341011,1.20907187461853,-1.5753847360611,-0.45729252696037,1.05823719501495,-0.50274211168289,-0.13439035415649,0.05619960278273,5.55215358734131,5.96395635604858,6.66785192489624,SWING_LEFT
-1.26754534244537,-1.38910758495331,-1.28648221492767,3.67496538162231,3.95168733596802,3.00667881965637,-6.22253036499023,-7.91044235229492,-10.1514148712158,6.44279670715332,6.97430944442749,7.34780502319336,-2.83502554893494,-2.44651532173157,-1.8545868396759,-13.5703353881836,-13.3285207748413,-7.17542266845703,-1.31946897506714,-1.27487576007843,-0.64568454027176,-2.42269158363342,-2.4501805305481,-1.33290791511536,-16.0267868041992,-17.5925941467285,-15.1433258056641,11.5304756164551,14.4130945205688,16.1991691589355,-1.78861343860626,0.69577550888062,6.34444665908813,-22.4839477539063,-29.6186695098877,-31.5795211791992,5.15753507614136,1.6267341375351,1.39827048778534,-0.11972958594561,2.20949959754944,-0.79473567008972,-36.6432571411133,-76.6503677368164,-78.4436264038086,2.58813214302063,6.17464637756348,8.91840171813965,20.008279800415,17.1604270935059,8.89908504486084,49.7060203552246,69.5395889282227,38.2521591186523,6.10926342010498,6.10681962966919,4.25345468521118,-1.68476629257202,-0.76969021558762,0.51618111133575,-17.1376953125,-13.3716163635254,-8.79629707336426,1.98958158493042,-8.03494071960449,-8.93994903564453,3.63037204742432,2.29868602752686,1.8924605846405,25.5006427764893,17.4154224395752,12.1721210479736,0.46975538134575,0.66156703233719,0.87048298120499,1.26204764842987,-0.24373523890972,-1.18935465812683,-3.5314474105835,-3.50750541687012,-2.48757553100586,6.55771827697754,7.1012020111084,7.16584587097168,0.96638882160187,0.56810468435287,0.11728613078594,12.088324546814,11.8584814071655,11.1761331558228,SWING_LEFT
