gyro_x_0,gyro_y_0,gyro_z_0,acc_x_0,acc_y_0,acc_z_0,gyro_x_1,gyro_y_1,gyro_z_1,acc_x_1,acc_y_1,acc_z_1,gyro_x_2,gyro_y_2,gyro_z_2,acc_x_2,acc_y_2,acc_z_2,gyro_x_3,gyro_y_3,gyro_z_3,acc_x_3,acc_y_3,acc_z_3,gyro_x_4,gyro_y_4,gyro_z_4,acc_x_4,acc_y_4,acc_z_4,gyro_x_5,gyro_y_5,gyro_z_5,acc_x_5,acc_y_5,acc_z_5,gyro_x_6,gyro_y_6,gyro_z_6,acc_x_6,acc_y_6,acc_z_6,gyro_x_7,gyro_y_7,gyro_z_7,acc_x_7,acc_y_7,acc_z_7,gyro_x_8,gyro_y_8,gyro_z_8,acc_x_8,acc_y_8,acc_z_8,gyro_x_9,gyro_y_9,gyro_z_9,acc_x_9,acc_y_9,acc_z_9,gyro_x_10,gyro_y_10,gyro_z_10,acc_x_10,acc_y_10,acc_z_10,gyro_x_11,gyro_y_11,gyro_z_11,acc_x_11,acc_y_11,acc_z_11,gyro_x_12,gyro_y_12,gyro_z_12,acc_x_12,acc_y_12,acc_z_12,gyro_x_13,gyro_y_13,gyro_z_13,acc_x_13,acc_y_13,acc_z_13,gyro_x_14,gyro_y_14,gyro_z_14,acc_x_14,acc_y_14,acc_z_14,motion_type
0.11789698898792,0.86681777238846,0.57971113920212,2.47094988822937,2.00241637229919,2.22171688079834,-13.1082544326782,-20.5422496795654,-19.0530567169189,7.98945093154907,0.02154781483114,-2.63362193107605,1.18385684490204,5.43975496292114,7.02311754226685,-36.051887512207,-11.6525793075562,4.26407337188721,-0.42516219615936,-0.32986724376678,-0.01893682219088,-3.193603515625,-2.26386666297913,-1.54060220718384,6.14591598510742,20.4680309295654,32.0224494934082,7.06528902053833,10.4602670669556,12.8496809005737,-0.13927727937698,-3.36036968231201,-5.31025171279907,31.2802448272705,20.5829524993896,10.4961805343628,-2.0690004825592,-1.89856922626495,-1.30419731140137,2.11115026473999,2.33778119087219,2.50149321556091,-1.79086291790009,-16.1273422241211,-19.6228771209717,6.9623384475708,6.4667387008667,1.40060794353485,-2.67192459106445,3.32371783256531,7.94857835769653,-52.0355796813965,-31.8285179138184,0.90979665517807,0.63407814502716,0.13011430203915,-1.05435335636139,-3.38419342041016,-2.37748742103577,-0.98837995529175,-4.65432786941528,11.4825916290283,23.0370082855225,3.09570288658142,2.72938990592957,14.2790193557739,2.53447985649109,-1.21501100063324,-4.21802473068237,35.8004989624023,29.3744602203369,16.9317951202393,0.72143185138702,-0.48991394042969,-0.96822142601013,0.49052479863167,1.38238799571991,2.03357028961182,7.64708042144775,-2.97838687896729,-16.069881439209,3.01429986953735,6.09563732147217,6.68939971923828,-6.46661949157715,-3.4648277759552,2.07633090019226,-36.4134140014649,-48.3078079223633,-24.9547634124756,SHAKE
-1.67254900932312,-1.24494338035584,-0.29504790902138,0.80634212493896,1.36100780963898,1.29442346096039,-17.2382526397705,-20.4273281097412,-19.1799507141113,9.76355457305908,12.6174430847168,12.0931129455566,2.05372905731201,4.88631105422974,6.00480556488037,-20.0969295501709,-5.05894804000854,7.06768321990967,1.15392446517944,0.55222219228745,0.61514127254486,-0.98776912689209,0.44287729263306,0.48319441080093,11.7746839523315,24.7608337402344,30.6074752807617,2.85628271102905,5.37737703323364,5.68144083023071,-2.0635027885437,-4.23573970794678,-5.41959667205811,23.5445804595947,16.2781772613525,8.55208873748779,-1.68537724018097,-2.11542630195618,-1.59863436222076,0.74220126867294,1.61024081707001,2.04212260246277,-3.57214903831482,-16.2853603363037,-22.6802730560303,4.57292509078979,9.87608242034912,12.6772975921631,-1.09528136253357,3.333491563797,5.8826322555542,-40.8402938842773,-24.6363353729248,-5.58567237854004,1.5167783498764,1.54243469238281,1.79350030422211,-1.39521622657776,-0.90713489055634,-0.59315013885498,-4.74530792236328,10.5943422317505,24.3059349060059,6.39491271972656,5.68862342834473,3.66073441505432,2.06472444534302,-1.4245377779007,-3.80752301216125,34.1389236450195,26.2045383453369,18.0259437561035,-2.27974915504456,-3.69451308250427,-4.09646224975586,0.08857546001673,1.1722503900528,2.09954380989075,8.22887134552002,-4.6112322807312,-17.0610809326172,-2.61207413673401,4.50828170776367,13.4290771484375,-4.6523494720459,-0.72570788860321,3.41046071052551,-35.3695411682129,-37.263355255127,-21.4113464355469,SHAKE
-3.69451308250427,-4.09646224975586,-3.10136294364929,1.1722503900528,2.09954380989075,2.59434461593628,-4.6112322807312,-17.0610809326172,-21.5310554504395,4.50828170776367,13.4290771484375,18.1791744232178,-0.72570788860321,3.41046071052551,5.68898820877075,-37.263355255127,-21.4113464355469,-6.97909784317017,1.92361462116241,1.71958565711975,0.89736104011536,-1.77273094654083,-1.3078625202179,-0.78007489442825,-2.36307716369629,12.7539129257202,24.1527061462402,5.83945798873901,-0.6703764796257,5.61440277099609,1.37994456291199,-1.97859251499176,-4.17648553848267,31.380802154541,22.6659069061279,14.1210012435913,-0.22602014243603,-1.17286121845245,-2.34816598892212,0.95722585916519,0.4673119187355,1.36894905567169,5.49948120117188,-6.54335308074951,-17.6285076141357,0.40940847992897,0.41659110784531,7.01979923248291,-4.9871039390564,-0.55344390869141,4.05003643035889,-40.9695777893066,-38.8578948974609,-15.6437139511108,1.03419482707977,1.48134827613831,1.71958565711975,-1.36833810806274,-1.2889256477356,-0.93279123306274,-8.0540943145752,4.15154552459717,16.5750579833984,8.74123001098633,8.40604209899902,8.64306831359863,3.8991527557373,0.76235979795456,-2.53264737129211,29.2284145355225,28.6633834838867,19.6659736633301,-0.93401294946671,-2.77454996109009,-3.48620796203613,0.58520889282227,0.95356065034866,0.89736104011536,11.8105974197388,1.56580793857574,-9.4427318572998,-5.62158536911011,2.97120428085327,12.9717845916748,-5.82276773452759,-3.83073592185974,0.11178833991289,-23.688232421875,-37.7086753845215,-35.6879692077637,SHAKE
-4.39761877059937,-3.64869809150696,-1.16614174842834,1.44652891159058,1.98836636543274,1.74768543243408,-13.4027414321899,-17.4082412719727,-17.4848556518555,12.2822551727295,20.6811141967773,18.1193180084229,1.00181901454926,4.46053791046143,5.83987188339233,-27.2388324737549,-9.65102672576904,1.83874690532684,1.11299645900726,1.23883473873138,1.66033172607422,-0.62002819776535,-0.92912602424622,-1.14537239074707,7.64468622207642,18.8782806396484,25.598804473877,8.4132251739502,6.74925470352173,2.67432332038879,1.06290555000305,-1.81365895271301,-4.23268508911133,26.5732440948486,19.9006042480469,9.93593692779541,-3.21009683609009,-3.52591419219971,-1.92544722557068,1.11666166782379,1.37017071247101,1.62184727191925,1.89141929149628,-11.2216234207153,-17.9493293762207,2.13562798500061,14.6094188690186,23.0920753479004,-1.33474051952362,3.47643399238586,5.81177186965942,-43.6774215698242,-27.5045890808105,-6.15549278259277,2.517986536026,1.90223431587219,2.12275671958923,-0.30787608027458,0.64629542827606,0.35857790708542,-3.7038300037384,8.42519569396973,19.2350158691406,4.35744714736938,3.57933163642883,5.41807842254639,2.24309706687927,-1.06168377399445,-3.64075684547424,30.279468536377,24.5764808654785,16.2590236663818,-3.43306279182434,-6.15568923950195,-6.57779693603516,-0.30360001325607,0.93401294946671,1.95660138130188,8.2719669342041,-5.04218864440918,-15.5479459762573,-14.3245086669922,0.9911994934082,20.5805568695068,-5.08789682388306,-0.96822142601013,3.16367101669312,-36.0710411071777,-38.7908554077149,-24.4998664855957,SHAKE
-3.07815003395081,-3.7103955745697,-2.63649439811707,0.65973448753357,1.16858518123627,1.14170718193054,0.05506663769484,-11.5639944076538,-19.2278347015381,4.29040956497192,15.3276796340942,23.4488105773926,-2.84663200378418,1.14476144313812,4.35913419723511,-37.3926429748535,-27.5644435882568,-11.0157222747803,1.55831718444824,0.78679442405701,0.20525072515011,-0.37507125735283,-0.10323622822762,0.32620203495026,-5.83706378936768,4.79319190979004,15.878345489502,3.37582445144653,2.79642748832703,5.21457147598267,3.73849534988403,1.31397116184235,-1.44836151599884,23.9180755615234,23.8055477142334,17.0179862976074,-0.14233160018921,-2.14413690567017,-4.01460647583008,-0.48685958981514,-0.020158553496,0.94989544153214,14.5256214141846,4.96796846389771,-7.01979923248291,-7.44836139678955,-2.18590617179871,10.6781396865845,-5.04513597488403,-1.49051117897034,2.74400663375854,-38.7046661376953,-36.4134140014649,-19.8527202606201,2.15268921852112,1.07390105724335,1.18202424049377,-0.83199846744537,-0.06658431142569,-0.14110986888409,-11.4203424453735,-0.1723825186491,11.310209274292,5.18584108352661,7.04852962493896,6.31829833984375,3.80996656417847,1.34940135478973,-1.40743350982666,22.8023777008057,25.7975234985352,20.8750438690186,-0.54611355066299,-2.01219010353088,-3.11663436889648,0.06047565862536,0.22235494852066,0.64568454027176,17.3866920471191,8.76517200469971,0.28969839215279,-6.02381134033203,-2.35350036621094,5.1379566192627,-5.21556758880615,-4.29377174377441,-1.32435584068298,-9.9981861114502,-28.718448638916,-36.0542831420898,SHAKE
-3.21864891052246,-1.65361225605011,1.0567969083786,0.92240649461746,0.48808133602142,-0.87964594364166,-10.5943422317505,-17.2789535522461,-20.0634098052979,15.2414884567261,24.1958026885986,19.333179473877,2.38176369667053,4.68472576141357,5.39882707595825,-25.7448501586914,-11.3437280654907,-3.4117374420166,0.6450737118721,0.879035115242,1.67315995693207,0.22846360504627,0.16187928617001,-0.25289821624756,2.23857855796814,13.70201587677,23.2117862701416,7.92001914978027,8.86572933197021,6.71094751358032,0.87475901842117,-2.06044840812683,-4.07630395889282,26.9898357391357,19.1392478942871,12.3899936676025,-2.58823609352112,-4.1025710105896,-3.82951426506042,0.47891834378242,1.32802104949951,1.74218773841858,4.82192230224609,-7.5273699760437,-18.1648082733154,-4.18027639389038,7.3693528175354,20.7385749816895,-3.48620796203613,0.90285885334015,4.78490734100342,-39.1954765319824,-37.0622406005859,-16.5535106658936,1.99325335025787,0.91813045740128,0.75747293233871,-1.39765965938568,-0.41905355453491,-0.07635815441608,-8.44434928894043,3.01908826828003,13.4027414321899,2.75093770027161,6.72770690917969,5.36780023574829,3.44528007507324,0.97371917963028,-1.31946897506714,22.4145164489746,20.0083427429199,15.3037376403809,-1.18630027770996,-2.35427474975586,-2.81486701965332,0.1050688251853,0.55649822950363,1.06718158721924,14.9877023696899,7.30710363388062,-1.00795888900757,-2.44208574295044,3.23935484886169,11.2982378005981,-4.97122144699097,-3.86372256278992,-1.14292883872986,-15.1959981918335,-28.610710144043,-32.4342498779297,SHAKE
-2.15635442733765,-0.56810468435287,0.83993971347809,0.85215699672699,0.26083946228027,-0.09040805697441,-10.0029745101929,-15.9166526794434,-17.1400890350342,18.1695976257324,17.7913131713867,13.0699472427368,2.18323230743408,4.52406787872314,5.34629249572754,-22.8742027282715,-9.105149269104,0.60094463825226,0.93767815828323,1.30419731140137,1.88146495819092,-0.18203784525394,-0.22235494852066,-0.42088615894318,8.44674396514893,17.9421482086182,23.0992584228516,7.93199014663696,7.1227502822876,1.18991827964783,-0.12828169763088,-2.65115523338318,-4.32614755630493,21.8830032348633,15.0714998245239,9.43315505981445,-3.2113184928894,-4.13983392715454,-3.40984988212585,0.64568454027176,1.43064641952515,1.35062301158905,-0.59376204013824,-11.9494609832764,-16.9102458953857,2.4205379486084,13.5032978057861,23.6068286895752,-3.00240278244019,0.73303830623627,3.53629899024963,-33.9569625854492,-26.1135578155518,-13.4913263320923,2.23698854446411,1.54060220718384,0.91935217380524,-0.77152281999588,-0.34697145223618,-0.04153883829713,-6.36857652664185,2.4588451385498,11.9159421920776,3.62003302574158,2.91853189468384,1.47482824325562,3.62487435340881,1.80938291549683,-0.23579397797585,17.9062347412109,18.7465991973877,17.688362121582,-0.31031954288483,-1.50028502941132,-2.78982162475586,-0.2767219543457,0.10201449692249,1.00487327575684,16.587028503418,8.00621032714844,-2.2553379535675,-3.41892004013062,-0.39504328370094,7.22091245651245,-5.08423137664795,-4.20030927658081,-1.47218525409698,-16.7378635406494,-30.8852024078369,-32.3336944580078,SHAKE
-2.78982162475586,-3.24125099182129,-2.00363802909851,1.00487327575684,1.28770399093628,0.88453286886215,-2.2553379535675,-14.1210012435913,-19.0219326019287,7.22091245651245,18.614917755127,22.0793285369873,-1.47218525409698,1.90651047229767,4.33653259277344,-32.3336944580078,-21.5980930328369,-8.64546203613281,1.09467053413391,0.30360001325607,0.3378084897995,-0.51618111133575,-0.15699236094952,0.02382374368608,-1.20188927650452,9.97424411773682,19.9317283630371,4.54419469833374,7.70454120635986,9.45949077606201,2.69513750076294,-1.23089349269867,-3.6358699798584,24.6267585754395,22.4552173614502,14.8919343948364,-1.43492245674133,-3.75437784194946,-4.64624118804932,-0.01588249579072,1.31274938583374,2.57724046707153,8.92079544067383,-6.98867464065552,-19.6516075134277,-7.64708042144775,-0.05985504388809,15.9286241531372,-4.62058448791504,-0.3378084897995,3.27973556518555,-37.7685317993164,-36.1931457519531,-22.9412403106689,2.55708193778992,1.70492494106293,1.43614423274994,-1.41720736026764,-0.74586647748947,-0.40744712948799,-10.857705116272,-1.07260239124298,9.43794345855713,3.76607918739319,5.34864664077759,5.8131217956543,3.71833682060242,1.50700461864471,-0.79595738649368,19.4193706512451,20.9827842712402,18.6580142974854,-0.38728857040405,-1.44103109836578,-2.50454759597778,0.03054326213896,0.16554448008537,0.57604593038559,17.7601890563965,9.92875480651856,0.52193599939346,-3.50750541687012,-1.81480491161346,3.67509961128235,-4.75741863250732,-3.86494445800781,-1.34390354156494,-10.8074264526367,-25.51979637146,-32.9825210571289,SHAKE
-2.50454759597778,-2.9669725894928,-2.13436317443848,0.57604593038559,0.65118235349655,0.29932397603989,0.52193599939346,-9.3828763961792,-18.2486057281494,3.67509961128235,12.6509618759155,20.065803527832,-1.34390354156494,2.082439661026,4.64563035964966,-32.9825210571289,-26.2404499053955,-12.0643825531006,1.09039449691772,0.41722095012665,0.41355577111244,-0.72143185138702,-0.49968776106834,-0.6267477273941,-4.64235687255859,7.81467437744141,20.1184768676758,2.83234071731567,4.92726707458496,5.94719696044922,2.47950196266174,-0.78374010324478,-3.50270128250122,28.5125484466553,23.6451358795166,14.1305780410767,-2.03479218482971,-3.74643659591675,-4.02865648269653,0.66462141275406,1.61390602588654,2.138028383255,7.50103378295898,-3.96000957489014,-14.8081378936768,-1.9249382019043,7.46751499176025,19.8551139831543,-4.69633197784424,-1.54243469238281,2.17101502418518,-30.6074752807617,-34.1413154602051,-22.7568874359131,2.5057692527771,1.84603476524353,1.3756685256958,-1.26693451404572,-0.90774577856064,-0.82650065422058,-13.7690544128418,-6.43800830841064,3.67270541191101,3.97198057174683,3.10767388343811,2.39180755615234,4.80628776550293,3.4825427532196,-1.01464712619781,13.5607585906982,20.3315601348877,15.1959981918335,-0.675616979599,-1.94132971763611,-2.84357762336731,0.03787364438176,0.62369340658188,1.41842913627625,16.1177654266357,8.07564258575439,-0.08140286058187,-0.03830722719431,4.503493309021,11.9614315032959,-4.60531330108643,-3.9901716709137,-2.38848304748535,-8.80587387084961,-19.9748249053955,-30.854076385498,SHAKE
-1.81854581832886,-1.62612330913544,0.4844161272049,0.65179324150085,1.11482906341553,0.56016343832016,6.41885471343994,-20.5709800720215,-25.5389499664307,4.1347861289978,20.6284427642822,17.5830173492432,0.69516462087631,4.57354831695557,6.16851711273193,-37.0167541503906,-18.7992725372314,-2.89458990097046,0.62124997377396,0.61758476495743,1.15025925636292,-0.59681534767151,-0.51679199934006,-0.44226643443108,2.57376670837402,17.0754470825195,27.1813716888428,6.00705194473267,7.3693528175354,6.40688371658325,0.84849184751511,-2.25775790214539,-4.08302307128906,29.4654407501221,19.6899147033691,12.7371530532837,-1.22295224666595,-2.25775790214539,-2.35183119773865,0.32986724376678,0.6139195561409,0.98654735088348,6.31590414047241,-6.41167211532593,-19.7593460083008,0.44292730093002,7.40766000747681,16.7426528930664,-4.06958436965942,0.37323865294456,4.57538080215454,-39.5330581665039,-36.6504402160645,-17.3579616546631,1.88879537582397,1.19912850856781,0.45631635189056,-0.3897320330143,-0.13988813757896,0.49541172385216,-10.8744640350342,1.19710087776184,15.0595283508301,3.84508800506592,2.38223075866699,5.56891298294067,4.55888748168945,1.60596477985382,-1.25654983520508,28.6681709289551,26.6522541046143,18.9908084869385,0.93156951665878,-1.10627698898315,-2.38970494270325,-1.00792765617371,-0.40133845806122,0.5589417219162,17.851167678833,7.52018737792969,-4.14675712585449,-6.33505773544312,1.61129772663116,11.5352640151978,-5.09400510787964,-3.49109482765198,-0.0372627787292,-18.3539505004883,-32.7095832824707,-31.9434394836426,SHAKE
-1.71836388111115,-0.03970624133945,1.51616752147675,0.74953162670135,0.08918632566929,-0.04703662544489,-7.63271522521973,-18.1336841583252,-21.4041633605957,20.2573413848877,18.6771678924561,11.0588178634644,-0.04276056587696,3.51064252853394,5.20884799957275,-31.4406566619873,-15.6580791473389,-3.43567943572998,0.32375857234001,0.09896016865969,0.77457714080811,-0.22113321721554,-0.29199358820915,-0.51740288734436,5.27203226089478,17.8607444763184,26.5301494598389,3.99113416671753,7.14669227600098,5.25766706466675,1.203404545784,-1.53815865516663,-3.49964690208435,26.2715759277344,19.3427562713623,12.8664398193359,-1.41842913627625,-2.57418608665466,-2.02501821517944,-0.13927727937698,0.17165313661098,0.12889257073402,4.04141235351563,-9.70848751068115,-18.7202625274658,4.12042093276978,17.0922050476074,21.2629051208496,-3.00851130485535,1.20584797859192,4.38967752456665,-39.3127937316895,-26.9084320068359,-9.09317779541016,2.48255634307861,1.80938291549683,0.75930547714233,-0.80084431171417,-0.13988813757896,0.6023131608963,-4.23294878005981,6.34463453292847,17.1281185150146,1.68551802635193,-0.4716577231884,-1.7980455160141,2.59312295913696,0.25411993265152,-1.83503913879395,24.7656230926514,23.6475296020508,19.244592666626,-1.39827048778534,-2.41352868080139,-2.51432132720947,-0.62308257818222,0.03420845419168,0.27183502912521,16.6636428833008,8.15225696563721,-2.70544791221619,-1.4676456451416,5.98310995101929,16.620548248291,-4.6627345085144,-2.88939261436462,0.11972958594561,-16.5152034759521,-28.7998523712158,-29.4798049926758,SHAKE
-1.19729590415955,0.68233644962311,1.44469630718231,-0.26328292489052,-0.62308257818222,-0.16554448008537,-13.0148801803589,-18.2486057281494,-18.480842590332,23.4176864624023,18.531120300293,11.6286373138428,3.02378296852112,4.64013242721558,5.05429887771606,-18.8926448822021,-5.90888977050781,1.84114110469818,-0.63102382421494,0.26083946228027,1.68598806858063,1.08856189250946,0.40378192067146,-0.56260687112808,11.0396642684937,23.3410720825195,30.224401473999,7.64229202270508,8.40125370025635,2.97120428085327,-0.35124751925468,-2.99568319320679,-4.41899919509888,28.5340957641602,18.53590965271,9.96706199645996,-2.43857407569885,-2.65848565101624,-1.76478970050812,0.25778514146805,0.42516219615936,0.28344148397446,3.38061285018921,-8.09958457946777,-18.4138050079346,6.90966606140137,14.9254531860352,21.5526027679443,-3.20154476165771,0.43737950921059,3.5546247959137,-34.234691619873,-29.8317527770996,-15.0212211608887,0.62796944379807,-0.27427849173546,-0.76663589477539,0.56627207994461,0.85826569795609,1.14903748035431,-5.97592735290527,5.46356821060181,17.8032836914063,2.18590617179871,2.31279873847961,5.45877981185913,3.34693074226379,1.07145762443542,-1.67621421813965,23.44162940979,26.3003063201904,17.5830173492432,-0.06658431142569,-1.14109623432159,-1.49356555938721,-0.5583308339119,-0.19792033731937,-0.03359758853912,17.4465484619141,8.68855762481689,-0.78050976991653,-0.69910687208176,5.88494777679443,13.5631523132324,-4.80262279510498,-4.41899919509888,-1.90895390510559,-6.0788779258728,-25.795129776001,-36.303279876709,SHAKE
1.01037108898163,1.27609753608704,1.11666166782379,0.05925392732024,-0.08307767659426,-0.07696902006865,-15.6772327423096,-9.43076038360596,0.88106620311737,9.85214042663574,5.37019443511963,3.17471146583557,5.07445764541626,4.2339072227478,2.24370813369751,11.9207305908203,22.6659069061279,25.6682357788086,1.2156218290329,0.68600165843964,-0.56443947553635,-0.78129667043686,-1.06718158721924,-0.81550508737564,26.070463180542,19.5007724761963,10.9223480224609,-2.65516972541809,-2.88501310348511,3.44765043258667,-4.3346996307373,-4.48985958099365,-4.08546686172485,1.71903681755066,-7.37414121627808,-24.2436866760254,2.09587860107422,1.6456710100174,0.90285885334015,-0.44837507605553,0.00977384392172,-0.24862214922905,-14.3939409255981,-6.84502267837524,5.81551599502563,3.18189406394959,1.79565131664276,1.56580793857574,3.60777020454407,-1.71469879150391,-3.44283652305603,27.7248554229736,17.0778408050537,9.15303325653076,-0.47830748558044,-0.40500366687775,0.36163222789764,-0.63896507024765,-0.03420845419168,-0.26083946228027,-7.19697046279907,-12.8688344955444,-15.660472869873,9.76834297180176,13.9127063751221,11.8321447372437,1.40987694263458,3.76170825958252,4.94984102249146,-23.4775409698486,-14.2622594833374,14.1329727172852,1.38605320453644,0.55649822950363,-1.34817957878113,-1.31519281864166,-0.83383107185364,0.28710666298866,21.2293872833252,26.2763633728027,19.1727676391602,-2.3247697353363,-3.23456645011902,0.95768070220947,-3.23880743980408,-3.53752064704895,-3.25285744667053,5.26484966278076,-0.78529816865921,-3.71819519996643,SHAKE
-0.70799279212952,-1.00976026058197,-0.59131753444672,0.49296826124191,-0.0598647929728,-0.72815138101578,0.45968672633171,16.8192672729492,29.9969539642334,4.24252557754517,9.93833160400391,9.77791976928711,2.39642429351807,-0.15515977144241,-2.51737570762634,28.0791969299316,21.8830032348633,12.6940574645996,0.83138757944107,1.15148103237152,-0.07269296050072,0.74464476108551,0.17165313661098,0.77824234962463,10.9486846923828,1.90099620819092,-18.1193180084229,7.11556768417358,3.88100099563599,5.32470464706421,-3.64869809150696,1.49539816379547,4.80934190750122,-31.8811893463135,-28.5963459014893,-13.3716163635254,-0.36468654870987,-0.94073247909546,-0.5705481171608,0.83627450466156,0.38606682419777,-0.463035851717,-2.94247388839722,12.6054716110229,24.7775936126709,-0.78769236803055,6.05014753341675,9.45230865478516,2.35305285453796,-3.053715467453,-3.98467397689819,32.3241157531738,13.2471179962158,8.02297019958496,0.49968776106834,0.13377949595451,-0.54244834184647,0.38301250338554,0.17348572611809,0.51740288734436,3.49553442001343,-16.8240547180176,-18.4784488677979,6.59363126754761,2.24576115608215,4.3143515586853,0.62247169017792,4.06775188446045,5.6547794342041,-31.3065814971924,-15.660472869873,-2.22660756111145,-0.07269296050072,0.13194689154625,-0.18875735998154,-1.46363317966461,-1.38177716732025,-0.23090706765652,7.29513263702393,21.6435832977295,32.0344200134277,5.15950489044189,5.3366756439209,7.52976417541504,-2.58334922790527,-4.17282056808472,-4.96144771575928,17.9804553985596,10.6541976928711,4.94402647018433,SHAKE
-0.41966441273689,-0.07269296050072,0.13194689154625,-0.34880405664444,-1.46363317966461,-1.38177716732025,-6.49546909332275,7.29513263702393,21.6435832977295,3.60806202888489,5.15950489044189,5.3366756439209,3.49231672286987,-2.58334922790527,-4.17282056808472,31.6800765991211,17.9804553985596,10.6541976928711,0.33353242278099,0.89247411489487,1.03358399868011,0.32803463935852,-0.40989059209824,-0.61086523532867,6.41885471343994,-3.23935484886169,-13.0412168502808,9.27753162384033,7.34541082382202,3.92649078369141,-4.20763969421387,-0.97921699285507,2.85151886940002,-29.1685600280762,-34.0982208251953,-20.7673053741455,0.1667662113905,-0.11423180252314,-0.20586158335209,-0.15515977144241,-1.04763388633728,-1.22722828388214,-10.5177278518677,-0.26815059781075,23.6140117645264,0.1723825186491,2.22421336174011,8.80108547210693,2.7391197681427,-0.731205701828,-4.15266180038452,33.300952911377,23.2429103851318,9.35893440246582,0.66339963674545,0.38240164518356,-0.43432518839836,-0.34269541501999,-0.39217549562454,0.42577308416367,-6.35181713104248,-15.7035694122314,-17.7769470214844,3.48595762252808,1.63284552097321,5.30076265335083,0.14416420459747,4.13677930831909,6.03657054901123,-33.7127532958984,-14.2502889633179,0.33997663855553,0.59498274326324,0.69638639688492,-0.43860125541687,-1.52960658073425,-1.65177965164185,0.43066000938416,8.59997272491455,23.3314952850342,31.0001239776611,5.02064085006714,4.41730213165283,4.61841487884521,-2.92299008369446,-4.46603584289551,-5.14776134490967,16.1081886291504,8.65982723236084,4.37420654296875,SHAKE
0.72326445579529,-0.05314527451992,-0.84604835510254,-1.44164192676544,-1.39582705497742,-0.27733281254768,6.84023427963257,19.8431434631348,28.639440536499,0.41898530721664,4.46758031845093,12.880805015564,1.38238799571991,-1.90040183067322,-3.49720358848572,27.9427280426025,15.9741134643555,10.704475402832,-0.03115412779152,-0.99387776851654,-1.60229957103729,0.80145519971848,0.80145519971848,0.91018921136856,8.05170059204102,-1.28808057308197,-19.5318965911865,-0.96246910095215,1.4484920501709,6.97909784317017,-3.03416776657104,1.39277279376984,5.20701551437378,-39.2002639770508,-26.3457946777344,-6.17225217819214,1.55220854282379,1.38360977172852,1.50028502941132,-1.66521871089935,-2.1789562702179,-2.11542630195618,0.61770403385162,16.2183227539063,29.1039161682129,2.31758713722229,5.30315685272217,2.54743051528931,1.20645880699158,-2.32861828804016,-4.78124237060547,35.2474365234375,27.1406707763672,13.6062479019165,-1.77883958816528,-1.45202672481537,-1.40315747261047,1.14415061473846,0.14782938361168,-0.04092797264457,7.10599040985107,-3.21541285514832,-15.4785137176514,5.95198535919189,7.25682544708252,7.00303983688354,-4.62058448791504,-0.67073005437851,3.49231672286987,-31.3185520172119,-37.9911918640137,-17.9445419311523,0.8600982427597,0.32559117674828,-1.02442097663879,-0.70860368013382,-0.85643309354782,0.62369340658188,-11.2934494018555,-0.84994161128998,12.0500173568726,3.18668246269226,0.79966336488724,1.29047477245331,4.700608253479,1.61757111549377,-1.1966849565506,28.5628261566162,26.4702930450439,19.6276664733887,SHAKE
-0.33047810196877,-0.39522981643677,0.2229658216238,0.05742133408785,0.72509706020355,0.65973448753357,-18.3898639678955,-19.8263835906982,-19.1775550842285,9.0452938079834,10.5057573318481,9.80665016174316,4.82400274276733,5.86736059188843,6.13308715820313,-7.94635534286499,-0.00957680679858,7.15866327285767,-0.24740041792393,-0.34086281061172,0.14538592100143,-0.06841690838337,-0.18448130786419,-0.5589417219162,19.4792251586914,30.6362056732178,32.6186027526855,5.21935987472534,7.93199014663696,7.49624538421631,-2.26814270019531,-4.31393051147461,-5.40676832199097,19.8958168029785,12.6701154708862,7.06768321990967,-1.32924282550812,-1.65544486045837,-1.84175872802734,0.15760323405266,0.1490511149168,0.42638394236565,-2.48757553100586,-15.5934352874756,-23.7792110443115,5.88973617553711,8.4132251739502,11.5903301239014,-2.84907555580139,2.35488557815552,5.72502899169922,-42.2720260620117,-23.058557510376,-1.97042798995972,1.8545868396759,1.40499007701874,0.98349303007126,-0.78923791646957,-0.89919364452362,-0.5711590051651,-3.18189406394959,10.405200958252,24.2652339935303,0.79966336488724,1.59214413166046,0.4525041282177,3.68657183647156,-2.90283155441284,-4.35974502563477,33.0040702819824,14.1569147109985,9.07641887664795,-1.20218276977539,-1.59435832500458,-2.07755279541016,-0.36285394430161,-0.03787364438176,0.6139195561409,3.12443327903748,-10.1825399398804,-20.2549457550049,5.74129581451416,6.83544588088989,11.049241065979,-4.11967515945435,-0.22663100063801,3.69878911972046,-35.8148651123047,-29.5492382049561,-9.60314273834228,SHAKE
1.64750361442566,1.8545868396759,1.40499007701874,-0.30848693847656,-0.78923791646957,-0.89919364452362,-14.6261777877808,-3.18189406394959,10.405200958252,4.09887313842773,0.79966336488724,1.59214413166046,5.94371891021729,3.68657183647156,-2.90283155441284,25.8118877410889,33.0040702819824,14.1569147109985,-0.97860610485077,-1.20218276977539,-1.59435832500458,-0.23457226157188,-0.36285394430161,-0.03787364438176,13.3883762359619,3.12443327903748,-10.1825399398804,4.72854852676392,5.74129581451416,6.83544588088989,-5.75068521499634,-4.11967515945435,-0.22663100063801,-19.2757186889648,-35.8148651123047,-29.5492382049561,0.81367248296738,1.314581990242,1.01647973060608,-0.34880405664444,-0.78129667043686,-0.47158795595169,-16.867151260376,9.36611747741699,25.9459629058838,8.31506252288818,2.14520478248596,4.07014274597168,3.87960505485535,0.01466076634824,-3.69390225410461,36.2889137268066,26.9539222717285,14.4921026229858,-1.87474548816681,-3.00728964805603,-2.5369234085083,-0.3371976017952,-0.29993483424187,0.14049901068211,12.9191122055054,0.84275901317596,-14.1377611160278,3.65834021568298,12.2439470291138,16.5846347808838,-5.18013715744019,-2.64749002456665,1.95171451568604,-17.226282119751,-36.3104629516602,-28.7974586486816,1.74890720844269,1.13254415988922,0.72692966461182,0.19792033731937,0.41599923372269,-0.07696902006865,-17.6907558441162,-7.63510942459106,6.96712684631348,3.50511121749878,1.17794728279114,5.28879165649414,4.75986194610596,3.02011775970459,0.1050688251853,15.0451631546021,22.9603939056396,24.6818256378174,SHAKE
-1.74218773841858,-1.63223195075989,-0.89980453252792,0.03604105114937,0.51495939493179,0.57299160957336,-18.7418117523193,-24.9236392974854,-23.9803237915039,11.3485164642334,15.5192155838013,18.6412544250488,3.37075448036194,6.12025880813599,6.82703018188477,-19.5965404510498,-2.92332029342651,8.38688850402832,0.82161372900009,1.20768058300018,1.0567969083786,-0.14172074198723,-0.15515977144241,0.0226020142436,19.8455371856689,32.1469459533691,35.4389724731445,4.63278007507324,0.07422025501728,-2.50433492660522,-1.42637038230896,-3.86372256278992,-5.22534132003784,19.8718738555908,12.2152166366577,5.03261184692383,-1.12460291385651,-1.03724920749664,-1.51311326026917,-0.36774086952209,-0.79656827449799,-0.39706242084503,-0.9911994934082,-15.7873659133911,-26.3529777526855,8.89445972442627,8.83221054077148,8.49702167510986,-3.07448482513428,2.48805403709412,6.87040138244629,-45.2264709472656,-28.965051651001,1.26653265953064,0.94317591190338,0.7611380815506,0.17043140530586,-0.80695301294327,-0.46975538134575,-0.10323622822762,-2.23857855796814,15.3659868240356,29.4462871551514,2.62643933296204,0.90740245580673,1.70467162132263,2.58518171310425,-1.08611845970154,-3.75315618515015,28.1606006622314,20.0993232727051,12.9334774017334,-0.93767815828323,-1.06473815441132,-1.19424152374268,-0.23273965716362,-0.42149701714516,-0.47158795595169,7.6375036239624,-6.08127212524414,-20.9803886413574,7.77397298812866,10.6877164840698,13.4195003509521,-5.26993465423584,-1.05801856517792,3.9193115234375,-35.5538940429688,-36.2027244567871,-14.4514017105103,SHAKE
-1.19424152374268,-1.15575706958771,-0.43676865100861,-0.47158795595169,0.05925392732024,0.67134088277817,-20.9803886413574,-24.7153434753418,-22.620418548584,13.4195003509521,16.7785663604736,18.6987152099609,3.9193115234375,6.47822570800781,6.29496622085571,-14.4514017105103,3.72298359870911,4.76206731796265,2.0690004825592,2.14963483810425,1.8179349899292,-0.05436700582504,0.31093040108681,0.02809980139136,17.0227737426758,28.0456790924072,31.8261222839355,2.36786556243896,-3.28245043754578,-6.85220527648926,-1.49661982059479,-3.66152620315552,-5.0634617805481,17.2430400848389,12.4618196487427,7.99423933029175,-2.91810321807861,-3.58822250366211,-3.3835825920105,-0.44043383002281,-0.16554448008537,0.4459316432476,-6.715735912323,-23.3027648925781,-27.7703456878662,7.66862821578979,15.5742816925049,22.9795475006104,-2.24431896209717,5.57414531707764,7.07809543609619,-42.0469703674316,-16.7019519805908,3.19865345954895,1.67377078533173,0.88147854804993,1.25960409641266,-0.09651670604944,0.76663589477539,0.73303830623627,0.48123455047607,15.1265659332275,26.7719631195068,0.46686932444572,4.97515106201172,2.11886858940125,1.02319931983948,-2.19850397109985,-3.93030691146851,28.0289192199707,17.2286758422852,11.6358203887939,-1.89062798023224,-2.45506739616394,-2.65665292739868,-0.22907446324825,-0.02138028293848,0.50090950727463,9.35654067993164,-1.76213240623474,-16.812084197998,4.18506479263306,8.69574069976807,13.5009031295776,-5.39943790435791,-1.91628432273865,2.91382718086243,-26.5947933197021,-40.1747055053711,-24.7009792327881,SHAKE
-3.95474147796631,-3.38113903999329,-1.83442831039429,0.4886921942234,0.64018678665161,1.16369831562042,-11.8824234008789,-26.4511394500732,-26.2524223327637,14.1210012435913,20.0322856903076,24.2460803985596,1.47951567173004,5.22350883483887,6.08971548080444,-30.1908836364746,-6.92403125762939,2.20266556739807,1.70614659786224,0.54733526706696,0.29016098380089,-0.27244588732719,0.29932397603989,0.40683624148369,3.26329684257507,16.5104141235352,27.9786415100098,-2.12365698814392,-0.60812723636627,3.42131423950195,1.26815629005432,-1.786780834198,-4.09646224975586,23.9635639190674,19.4816188812256,13.7403240203857,-2.11053943634033,-3.98345232009888,-4.61203241348267,-1.42270517349243,-0.47525316476822,0.72143185138702,6.46913290023804,-13.1992340087891,-28.2084846496582,0.48602294921875,10.4889974594116,21.464017868042,-4.32614755630493,1.3390166759491,5.43975496292114,-46.1745758056641,-30.4925537109375,-7.10838460922241,3.4012975692749,2.67864418029785,2.27119708061218,-0.54489177465439,-0.00366519158706,0.59253931045532,-5.91367816925049,8.14507389068604,21.9787712097168,1.1755530834198,1.28808057308197,4.2066125869751,4.14227724075317,0.50640726089478,-2.76538705825806,31.902738571167,25.6083812713623,15.3109197616577,-1.47462868690491,-3.51247525215149,-4.46359252929688,-0.5283984541893,-0.08796459436417,0.23884831368923,11.0205106735229,-1.00556468963623,-16.3164844512939,-5.39174222946167,4.39814853668213,13.8121500015259,-6.27847290039063,-3.43794965744019,1.57419979572296,-30.2052478790283,-42.2839965820313,-26.1949615478516,SHAKE
-2.25836873054504,-1.17835903167725,0.72754049301147,0.65912359952927,0.62796944379807,0.29932397603989,-20.125659942627,-25.6083812713623,-25.3761444091797,19.0147495269775,21.3658561706543,16.5223865509033,2.4990496635437,5.72930526733398,6.44035243988037,-21.7848415374756,-1.92254400253296,3.56736063957214,1.27487576007843,1.3878858089447,2.69452667236328,0.26206117868423,0.36713001132011,-0.23823744058609,7.84340476989746,22.0865116119385,30.3752365112305,5.7628436088562,5.86579418182373,1.90099620819092,-2.08671569824219,-4.2302417755127,-5.34568166732788,22.0003185272217,12.8712282180786,11.3820352554321,-3.9901716709137,-4.93945646286011,-3.94069170951843,0.20708331465721,1.31946897506714,1.65055787563324,-3.93127918243408,-18.9261646270752,-26.2452392578125,1.33357036113739,14.0395984649658,23.9970836639404,-0.89430671930313,4.26567220687866,6.2418212890625,-44.6470718383789,-21.6387958526611,-1.2449848651886,2.14902400970459,0.57971113920212,0.53389620780945,-0.31215214729309,0.57360243797302,0.16310101747513,-1.40300214290619,11.0827598571777,23.2022094726563,-2.05901336669922,3.51947641372681,3.62721562385559,1.56381499767303,-1.73424637317657,-3.8502836227417,27.7751331329346,19.6276664733887,13.1896572113037,-2.03784656524658,-3.29073119163513,-3.46910381317139,-0.22846360504627,-0.0824668109417,0.40500366687775,9.31583881378174,-1.88423669338226,-15.8951053619385,-1.17076468467712,8.16183376312256,17.3795108795166,-5.31391668319702,-1.78128302097321,3.11724543571472,-31.2491207122803,-41.6615028381348,-25.5557098388672,SHAKE
-3.87777256965637,-3.53019022941589,-1.46363317966461,0.04703662544489,1.42942464351654,1.69087505340576,-21.4041633605957,-26.0225791931152,-23.9922943115234,15.0499515533447,22.9005393981934,23.8199119567871,3.4202344417572,5.68898820877075,5.9650993347168,-18.5502738952637,-2.30801033973694,3.76607918739319,1.95354700088501,1.3878858089447,1.62306892871857,0.08124507963657,0.47158795595169,0.1777617931366,11.3509101867676,22.5677452087402,28.4359340667725,0.89782565832138,2.90895509719849,1.87944829463959,-0.66278880834579,-2.64015960693359,-4.17648553848267,17.2119159698486,13.184868812561,9.03332328796387,-1.64872527122498,-3.73605179786682,-5.31147336959839,-1.00487327575684,-0.57848936319351,0.67317348718643,3.07894349098206,-14.0826940536499,-23.8773727416992,-3.41652584075928,3.15076947212219,16.1393127441406,-3.43550610542297,1.33290791511536,5.02681016921997,-40.500316619873,-29.515718460083,-9.71327590942383,3.11968874931335,1.76723313331604,0.07086037099361,-1.30053210258484,-0.28466320037842,0.98654735088348,-6.50744009017944,6.33505773544312,18.1791744232178,0.43335050344467,-0.61530983448029,5.8514289855957,3.56195521354675,0.31398472189903,-2.31701183319092,26.9994125366211,20.942081451416,15.1409311294556,-0.94439768791199,-1.68598806858063,-2.48499989509583,0.16982053220272,-0.17409659922123,-0.00671951752156,13.9318599700928,1.37906014919281,-15.7490587234497,1.20907187461853,3.9073371887207,9.21288776397705,-6.02374219894409,-2.79531931877136,2.58823609352112,-33.6098022460938,-41.9464149475098,-25.3067111968994,SHAKE
-2.48499989509583,-2.95719861984253,-1.76845490932465,-0.00671951752156,0.65790188312531,0.68966686725616,-15.7490587234497,-23.3841686248779,-23.1974201202393,9.21288776397705,19.8934211730957,25.6682357788086,2.58823609352112,6.20883417129517,6.82458639144897,-25.3067111968994,-2.58573794364929,3.56975483894348,2.36954617500305,1.14598321914673,0.97249746322632,-0.09529497474432,0.61941736936569,0.43799036741257,10.0771951675415,21.1695308685303,25.8789253234863,-0.76614451408386,2.37265396118164,2.34631776809692,0.01343903504312,-2.44651532173157,-4.21619176864624,19.278112411499,15.5216093063354,10.8050327301025,-2.37321138381958,-4.66212368011475,-4.04637145996094,-0.44898596405983,0.47036623954773,0.9211847782135,1.93451499938965,-12.7347583770752,-23.5421848297119,0.05985504388809,13.2231760025024,24.4687404632568,-2.65909647941589,2.5491406917572,5.90340185165405,-42.3223037719727,-31.6465587615967,-10.321403503418,3.38113903999329,2.54852986335754,1.87657809257507,-0.60048055648804,-0.12278391420841,0.22357667982578,-9.3637228012085,0.55306059122086,9.95269680023193,2.64080452919006,0.70150107145309,2.2553379535675,4.23512887954712,1.74157679080963,-0.69516462087631,21.0450325012207,21.8016014099121,17.9205989837646,-0.66401052474976,-1.82587623596191,-2.9969048500061,-0.39400807023048,-0.56749379634857,-0.36957347393036,20.0610160827637,13.0220632553101,5.77481460571289,-5.36301183700562,-2.53306531906128,2.62165093421936,-4.99199056625366,-5.65172529220581,-4.96205854415894,3.63918662071228,-7.4770917892456,-31.2371501922607,SHAKE
-3.70795202255249,-2.61205983161926,-0.74953162670135,0.29260444641113,0.53633970022202,0.42882740497589,-17.3531742095947,-22.7401275634766,-21.3562793731689,17.4321823120117,21.0498218536377,21.3155784606934,4.02193689346313,6.37682247161865,6.11598300933838,-20.9253234863281,-0.16759411990643,3.88339519500732,1.33779489994049,1.02319931983948,1.85886299610138,0.2138028293848,0.6010913848877,-0.20036379992962,11.1761331558228,21.6076698303223,27.492618560791,2.55221891403198,4.90811347961426,1.76452660560608,-0.64812803268433,-3.14168000221252,-4.68716907501221,22.1463661193848,15.8663749694824,9.59596061706543,-3.87655091285706,-4.55766582489014,-3.38419342041016,0.05375614017248,0.33903020620346,0.29199358820915,2.58813214302063,-11.142614364624,-24.3226947784424,6.04296493530273,19.1320667266846,27.576416015625,-4.14472055435181,0.77091193199158,4.81422901153564,-39.8826103210449,-32.1708869934082,-10.0867719650269,3.09281063079834,2.3933699131012,1.58275187015533,-0.17226399481297,0.0745255574584,0.56688296794891,-7.6877818107605,4.69502973556519,16.5535106658936,2.42532634735107,-0.50996494293213,-1.56580793857574,3.60166144371033,0.66462141275406,-1.7678439617157,24.751256942749,19.7521648406982,14.3316917419434,-0.9957103729248,-2.2968533039093,-3.43733882904053,-0.64629542827606,-0.59681534767151,-0.30604347586632,16.429012298584,7.73087739944458,-4.75488471984863,-4.10126733779907,1.24259066581726,9.73003578186035,-5.58025407791138,-4.71587991714478,-1.02930796146393,-12.8544692993164,-33.5451583862305,-36.1979370117188,SHAKE
-4.77085733413696,-4.69388866424561,-2.62610960006714,0.40072759985924,0.88697636127472,1.10872042179108,-15.3324680328369,-22.0625686645508,-21.7872352600098,14.3843641281128,25.1798191070557,27.6123275756836,3.31577658653259,5.45869159698486,5.86491727828979,-22.448034286499,-6.30153894424438,0.63925182819366,1.62490153312683,0.99021255970001,1.45935702323914,0.4239404797554,0.52534413337708,-0.18753562867641,8.9471321105957,19.3858509063721,25.110387802124,0.97683429718018,3.99113416671753,3.57454323768616,-0.66645395755768,-2.72934579849243,-4.10134935379028,19.0171432495117,14.1856451034546,9.01177501678467,-3.0659327507019,-4.46786832809448,-4.18198347091675,-0.30115658044815,0.43066000938416,0.76297068595886,3.11006808280945,-12.0236806869507,-20.6404132843018,-0.90979665517807,11.2742958068848,23.4224758148193,-2.36710286140442,2.45934343338013,5.47335243225098,-39.9113426208496,-28.2827053070068,-8.59757804870605,3.01706337928772,2.3591616153717,2.05922675132751,-0.78679442405701,0.00977384392172,0.19547687470913,-6.31590414047241,4.2951979637146,15.1457195281982,4.67587614059448,3.6152446269989,1.60411512851715,3.36525654792786,0.63468897342682,-1.76845490932465,24.6459121704102,22.1296062469482,17.1664257049561,-1.91933858394623,-3.46238422393799,-4.19297885894775,0.03604105114937,0.28955012559891,0.37873646616936,13.3668279647827,4.11802673339844,-7.60398483276367,-6.09324312210083,2.27688574790955,11.7627124786377,-5.4538049697876,-3.3402111530304,1.50883710384369,-18.0546741485596,-39.3103981018066,-31.8093643188477,SHAKE
-1.96881866455078,-1.04824471473694,0.90774577856064,0.45998153090477,0.68905597925186,0.35979962348938,-14.3269033432007,-20.8151893615723,-20.7960357666016,16.2686004638672,21.7034378051758,17.7410354614258,2.66642689704895,5.18930006027222,5.4336462020874,-21.3251552581787,-4.97036266326904,-1.09415018558502,1.94377315044403,1.78372657299042,1.70920097827911,-0.07635815441608,-0.02076941914856,-0.22602014243603,9.99339771270752,20.475212097168,26.5421199798584,2.49475812911987,-0.63925182819366,-4.40772533416748,-0.44837507605553,-2.88084053993225,-4.48924875259399,20.779275894165,14.3532390594482,10.8720703125,-3.42756485939026,-4.2723913192749,-3.61326789855957,-0.0598647929728,0.45020768046379,0.49907690286636,-1.48440504074097,-15.6892032623291,-23.1854496002197,6.2201361656189,17.0323505401611,26.8150596618652,-2.69391584396362,2.18262147903442,5.40127038955688,-38.872257232666,-23.5948581695557,-4.77403831481934,2.78615641593933,1.20584797859192,-0.07269296050072,-0.51068335771561,0.31398472189903,1.21745443344116,-2.04464817047119,9.2631664276123,20.5829524993896,-2.13802218437195,-1.83395850658417,3.28245043754578,3.28523325920105,0.20402899384499,-2.08854818344116,25.3617782592773,18.9548950195313,14.0228395462036,-0.24923302233219,-1.82037842273712,-2.72873497009277,-0.02382374368608,0.24556782841682,0.91935217380524,12.4929447174072,3.03824186325073,-9.23922443389893,-1.09415018558502,5.96395635604858,14.7387056350708,-5.59552574157715,-3.433673620224,4.05309104919434,-29.9299163818359,-37.9121856689453,-10.2591543197632,SHAKE
-0.24923302233219,-1.82037842273712,-2.72873497009277,-0.02382374368608,0.24556782841682,0.91935217380524,12.4929447174072,3.03824186325073,-9.23922443389893,-1.09415018558502,5.96395635604858,14.7387056350708,-5.59552574157715,-3.433673620224,4.05309104919434,-29.9299163818359,-37.9121856689453,-10.2591543197632,2.57846212387085,1.82465445995331,1.2901474237442,-0.60658919811249,-0.24190263450146,-0.14538592100143,-3.40455484390259,6.61517906188965,17.226282119751,0.55784898996353,1.32399356365204,1.46046304702759,1.1233811378479,-2.54181027412415,-4.18198347091675,21.818359375,16.541540145874,11.5185041427612,-3.51552939414978,-3.5668420791626,-2.38359618186951,0.27488934993744,0.40744712948799,0.79962259531021,3.36145925521851,-8.07085418701172,-19.2110748291016,6.51701688766479,17.2837429046631,22.6754837036133,-2.76844120025635,2.35610723495483,5.92661476135254,-43.2344932556152,-35.3216590881348,-11.1689510345459,3.34082198143005,2.04028987884521,1.0812314748764,-0.0500909499824,0.88819807767868,1.28159523010254,-6.2584433555603,6.76122570037842,18.5933704376221,1.6448165178299,-2.39420175552368,0.49081134796143,2.92115759849548,0.1814269721508,-2.23637771606445,26.5229663848877,23.4392337799072,18.3252201080322,-1.59741258621216,-3.5857789516449,-4.14533138275146,-0.83322018384933,-0.10812314599752,0.45570546388626,14.238317489624,4.88656568527222,-6.37336492538452,-9.78749656677246,2.52588272094727,14.6046304702759,-5.74091148376465,-2.7769935131073,2.39092659950256,-25.2253093719482,-44.089225769043,-35.6329040527344,SHAKE
-2.45445656776428,-2.62549877166748,-1.88513016700745,0.097127571702,0.09224065393209,0.34086281061172,-1.24977326393127,-15.8448266983032,-19.8455371856689,8.4132251739502,15.4354181289673,20.0562267303467,-0.7489207983017,3.97856545448303,6.19173002243042,-38.8339500427246,-17.300500869751,-1.20907187461853,2.20583438873291,1.37139248847961,1.29564523696899,-0.75747293233871,-0.02138028293848,-0.05803219974041,3.45243883132935,15.227123260498,26.8342132568359,-1.37427175045013,0.41898530721664,-2.74136090278625,1.76478970050812,-1.31397116184235,-3.67435455322266,28.531702041626,23.1303825378418,15.5623111724854,-2.19361710548401,-2.13986086845398,-1.40926611423492,0.02809980139136,-0.40011674165726,-0.4459316432476,6.20337677001953,-7.7069354057312,-19.0386924743652,9.5600471496582,15.44020652771,16.9102458953857,-4.60836744308472,0.17348572611809,4.79773569107056,-42.2073822021484,-35.9226036071777,-12.7610950469971,3.24735975265503,1.31336033344269,-1.08734011650085,-1.12765729427338,-1.26815629005432,-0.38851028680801,-3.95043277740479,9.81143856048584,21.8566665649414,-11.6693391799927,-6.99825143814087,7.6877818107605,3.36586761474609,0.43799036741257,-2.37870931625366,29.3505191802979,24.1742553710938,15.7825775146484,1.16369831562042,0.46547931432724,0.20463985204697,-0.33964106440544,-0.26328292489052,-0.71410149335861,12.5097036361694,2.00394678115845,-10.8409452438354,2.99993467330933,5.57130718231201,3.7541081905365,-5.60896444320679,-2.92115759849548,1.92666900157928,-30.0639915466309,-39.0087280273438,-23.0896816253662,SHAKE
2.08977007865906,2.6645941734314,1.09222710132599,-0.67011916637421,-1.58214104175568,-1.70309233665466,-12.6389904022217,0.35913026332855,18.5430927276611,0.77332717180252,-8.10916137695313,-8.97825622558594,4.71649074554443,1.20096111297607,-2.29074478149414,32.7670440673828,32.1900405883789,17.8368034362793,1.39643800258636,2.16796064376831,0.91141092777252,0.18997909128666,-0.83138757944107,-0.77763146162033,14.7626476287842,3.09330868721008,-8.67898082733154,7.25682544708252,-3.3423056602478,-6.90966606140137,-4.82705736160278,-1.80938291549683,2.45995426177979,-25.2540397644043,-35.7119140625,-22.857442855835,1.81426978111267,1.98592293262482,0.32009339332581,-0.92790430784225,-1.5112806558609,-1.55648469924927,-6.55292987823486,6.76122570037842,22.2445278167725,-2.85628271102905,-9.105149269104,-3.16752886772156,4.29316091537476,0.09407325088978,-3.14656686782837,40.3423004150391,28.2898864746094,12.540828704834,0.89369583129883,2.24492979049683,1.96026659011841,1.56014978885651,-0.87170469760895,-1.53632605075836,11.5999069213867,0.29688102006912,-8.91840171813965,8.19774627685547,-1.07499659061432,-7.74045419692993,-4.44954252243042,-2.18139982223511,1.38483154773712,-21.3371257781982,-31.3831958770752,-25.4048748016357,1.03969264030457,1.53999125957489,0.80267691612244,-0.69760811328888,-1.4056009054184,-1.79044604301453,-7.35498762130737,4.03662395477295,21.576545715332,-1.13485157489777,-4.2760443687439,-4.86980628967285,4.49169206619263,0.90102624893188,-2.43613052368164,35.6472702026367,27.9858245849609,14.140154838562,SHAKE
1.99264240264893,1.41659653186798,-0.13744467496872,-0.82711154222488,-0.77335542440414,-0.62247169017792,0.86670100688934,16.1417083740234,30.2866516113281,-5.5832781791687,-5.15232229232788,4.1347861289978,2.7458393573761,-1.33657312393188,-3.78675365447998,35.4964332580566,20.0346794128418,8.99740982055664,1.61329507827759,2.1600193977356,0.76480329036713,0.07635815441608,-1.68049025535584,-1.91445171833038,6.77798509597778,-3.93367338180542,-13.4673843383789,-1.37666594982147,-8.9088249206543,-9.66299819946289,-4.18992471694946,-1.17102873325348,3.02866983413696,-31.2946109771729,-35.4964332580566,-19.6803379058838,0.95722585916519,1.65605568885803,0.8228355050087,-0.37812557816505,-0.84849184751511,-0.75564032793045,-5.18344688415527,10.6972932815552,29.0919456481934,0.78290396928787,-5.20738887786865,-3.43567943572998,4.24307012557983,0.35979962348938,-2.92604446411133,36.2099075317383,24.6866130828857,12.9382658004761,0.98532563447952,1.75257241725922,1.32741022109985,0.54733526706696,-0.93462383747101,-1.69698369503021,9.60314273834228,-0.37349545955658,-8.20492935180664,1.27132105827332,-4.26886177062988,-6.21295356750488,-4.37318420410156,-1.27426493167877,1.87535631656647,-19.1033344268799,-27.9738521575928,-25.356990814209,1.30480813980103,1.74768543243408,0.87353730201721,-0.8356636762619,-1.2156218290329,-1.48806774616241,-6.30153894424438,4.17309379577637,21.7824478149414,0.59136784076691,-4.46997451782227,-1.0223240852356,4.42632961273193,0.50213122367859,-2.89489030838013,35.8962669372559,31.2730617523193,14.9877023696899,SHAKE
1.43064641952515,1.67315995693207,0.38851028680801,-0.55955255031586,-0.69699722528458,-0.51862460374832,-4.06774854660034,6.31590414047241,22.1918563842773,0.05985504388809,-7.35977602005005,-5.86339998245239,3.93885898590088,0.05436700582504,-3.23453140258789,37.2920875549316,29.1398296356201,11.1881046295166,-0.75258600711823,-0.15393804013729,0.29504790902138,1.07817721366882,-0.35369098186493,-0.7739662528038,8.36773490905762,-0.40701428055763,-6.67742872238159,2.34152936935425,0.77572137117386,-0.98401689529419,-2.70552206039429,-0.79473567008972,1.97553825378418,-20.5183086395264,-27.2244682312012,-23.8103351593018,0.96089100837708,1.03358399868011,0.24495697021484,0.10629054903984,-0.1795943826437,-0.69944071769714,-2.65995812416077,12.7682781219482,29.5085353851318,-1.10133278369904,-4.44363832473755,-0.05985504388809,3.41351509094238,-1.314581990242,-4.46725749969482,44.6662254333496,26.7073192596436,8.15225696563721,-0.14966198801994,0.57543504238129,1.00731682777405,0.76297068595886,-0.74036866426468,-1.48256993293762,4.37420654296875,-3.97916316986084,-9.33978080749512,0.40222588181496,-1.81959331035614,-4.71418333053589,-2.44468259811401,-0.0421497002244,2.65115523338318,-24.475923538208,-25.6371116638184,-18.1432609558105,1.22600650787354,0.5283984541893,-0.1069014146924,-1.16736352443695,-1.24494338035584,-1.97492730617523,2.67671751976013,17.6763916015625,29.6138801574707,-6.56729507446289,-2.46123933792114,3.41413164138794,2.33411622047424,-1.90101265907288,-4.40189504623413,38.6256561279297,20.5781631469727,5.67904663085938,SHAKE
0.58459806442261,1.28098440170288,1.35734260082245,0.13561208546162,-0.23396138846874,-0.66462141275406,-7.86974096298218,-2.16435837745667,12.3732347488403,0.17477671802044,-2.33434677124023,-3.98634576797485,5.89912557601929,4.0512580871582,-1.32313406467438,33.0998382568359,51.5016746520996,26.6498584747314,-1.51066970825195,-1.23150432109833,-0.2138028293848,2.7947084903717,2.79898452758789,1.23272609710693,10.3956241607666,0.96486330032349,-5.96874475479126,1.45567464828491,1.98479318618774,-0.0454898327589,-4.00055646896362,-1.86863672733307,1.09711396694183,-25.8501949310303,-30.8492889404297,-25.3019237518311,0.55649822950363,-0.40072759985924,-1.55587375164032,-0.70738196372986,-0.80573123693466,-0.84543752670288,-5.00388145446777,6.12197351455688,20.1184768676758,-9.65581512451172,-6.07169532775879,8.48744487762451,6.32062292098999,1.15758967399597,-3.69756722450256,57.204662322998,33.3871421813965,8.69095230102539,0.48930305242538,0.27794370055199,0.29321530461311,2.53753423690796,1.87046933174133,0.86132001876831,4.9990930557251,-2.55461311340332,-7.8266453742981,-2.99514627456665,-4.65193367004395,-5.75087261199951,-2.60228586196899,-0.52717667818069,2.3402247428894,-26.7671756744385,-27.6314811706543,-18.2318458557129,-0.60292398929596,-2.12642192840576,-2.38542866706848,-1.03236222267151,-1.23089349269867,-1.638951420784,5.65749883651733,20.7122383117676,28.3593196868896,-9.13627338409424,2.67911171913147,13.1130428314209,-1.33840572834015,-4.53200912475586,-5.32796669006348,33.2003936767578,10.0197343826294,-2.08774399757385,SHAKE
2.05861592292786,1.78128302097321,0.77579885721207,-0.04948008432984,-0.55161130428314,-0.57360243797302,-9.90960121154785,-9.65342140197754,-6.23210716247559,-10.0700120925903,-12.7587013244629,-12.0979013442993,5.28459501266479,5.75129652023315,5.04757928848267,-0.39504328370094,15.7275114059448,47.9965629577637,-0.71226888895035,0.07635815441608,0.71532320976257,0.12278391420841,2.39886784553528,2.63771605491638,27.4207916259766,16.9317951202393,6.87135887145996,11.7962322235107,6.99106884002686,1.02950668334961,-4.95961475372314,-3.83989882469177,-2.07633090019226,-13.2662715911865,-19.9963722229004,-27.1765842437744,0.2638937830925,-1.01770150661469,-1.34634697437286,0.0177150927484,-0.4239404797554,-0.43432518839836,-9.25837802886963,3.95043277740479,17.3675384521484,-9.74918937683106,-1.23540806770325,8.84178733825684,5.61751699447632,-0.59009581804276,-4.4794750213623,55.861515045166,33.7965507507324,7.77876138687134,-0.37018433213234,-0.40500366687775,-0.06230825558305,3.40496277809143,2.66825938224792,1.72997033596039,5.30076265335083,-4.04380655288696,-8.68855762481689,-3.71340680122375,-4.503493309021,-6.92163705825806,-2.47766947746277,1.33962750434875,4.71587991714478,-34.5100250244141,-28.5532493591309,-13.5128746032715,-1.29198002815247,-0.80695301294327,0.21868975460529,0.66339963674545,-0.31154128909111,-1.13682019710541,3.99592256546021,22.1990375518799,32.5132598876953,3.35667085647583,11.0181159973145,3.63918662071228,-0.71165800094604,-3.91075921058655,-5.35789918899536,27.9163913726807,11.5352640151978,0.96486330032349,SHAKE
-2.12153506278992,-1.70553576946259,-0.98166042566299,1.44164192676544,0.92057394981384,0.81550508737564,-8.98065090179443,-11.8943939208984,-11.8345394134521,-2.16914677619934,0.12210428714752,2.55700731277466,3.30722451210022,5.89790391921997,6.66637229919434,-20.0346794128418,-1.14921677112579,18.1432609558105,2.18995189666748,1.87413454055786,0.66278880834579,-2.04884195327759,-1.26754534244537,0.32803463935852,31.735143661499,33.9042892456055,23.9827175140381,-0.68234747648239,-6.86657047271729,-7.34301662445068,-5.62851238250732,-5.57597780227661,-4.61508703231812,-0.70389527082443,-11.1090955734253,-28.0456790924072,-4.2412371635437,1.47768306732178,1.67621421813965,1.98347949981689,-0.39400807023048,-0.93645644187927,-14.7099752426147,-6.97670364379883,27.5045890808105,18.1911449432373,2.26730895042419,-5.82748699188232,3.84112071990967,-3.68107390403748,-5.97914886474609,38.7884635925293,12.7132110595703,-2.21224236488342,-2.96941590309143,-0.15882496535778,2.5436429977417,1.48073732852936,1.10505521297455,-0.38179078698158,-14.8799638748169,-15.6245603561401,-13.2854251861572,6.71334171295166,11.0013570785522,0.88824880123138,6.73234605789185,6.59367942810059,5.26688003540039,3.72058939933777,15.5814647674561,29.1996841430664,0.37507125735283,-1.09589219093323,-1.13865280151367,-0.28160887956619,1.18813288211823,0.94867372512817,33.650505065918,26.4942359924316,14.7650423049927,-2.63601613044739,-0.48602294921875,-2.2170307636261,-5.97120761871338,-6.19783878326416,-5.17647218704224,4.29040956497192,-6.83784008026123,-27.6314811706543,SHAKE
-0.15882496535778,2.5436429977417,3.48437547683716,1.10505521297455,-0.38179078698158,-1.24494338035584,-15.6245603561401,-13.2854251861572,-2.41574954986572,11.0013570785522,0.88824880123138,-4.86501789093018,6.59367942810059,5.26688003540039,2.47339344024658,15.5814647674561,29.1996841430664,31.8380947113037,-1.09589219093323,-1.13865280151367,-1.42575943470001,1.18813288211823,0.94867372512817,0.4978551864624,26.4942359924316,14.7650423049927,2.10450339317322,-0.48602294921875,-2.2170307636261,-6.14112758636475,-6.19783878326416,-5.17647218704224,-1.52533054351807,-6.83784008026123,-27.6314811706543,-41.534610748291,0.65851271152496,2.89550137519836,1.41965079307556,0.18203784525394,-2.27425122261047,-1.46424400806427,-14.4801321029663,4.93205547332764,24.1527061462402,9.720458984375,-4.69502973556519,-4.55137729644775,2.83563637733459,-1.29747772216797,-5.28276252746582,36.5307312011719,27.2364387512207,2.37504816055298,-2.08854818344116,-4.15877056121826,-3.13312792778015,-1.30419731140137,-0.46120324730873,0.35674530267715,-7.25682544708252,-15.3228912353516,-14.3269033432007,-9.46427917480469,7.16584587097168,20.6188659667969,2.91260552406311,5.87713432312012,5.9693751335144,-27.3896675109863,-3.97916316986084,9.83777523040772,2.22538208961487,1.06657075881958,-0.54550266265869,-1.30297553539276,-0.69272118806839,0.40133845806122,22.7401275634766,30.8397121429443,26.9443454742432,-0.41898530721664,-4.33350515365601,-3.98873996734619,-4.09340810775757,-5.46968746185303,-5.8447585105896,12.3828115463257,3.72537779808044,-11.4897737503052,SHAKE
-1.63589715957642,-1.03419482707977,-0.76052725315094,1.96087741851807,0.93279123306274,0.40011674165726,5.76523780822754,-4.56095409393311,-12.2247934341431,4.43645572662354,1.5945383310318,12.3995704650879,2.83441472053528,6.16546297073364,7.14651250839233,-26.7121086120605,-8.79629707336426,7.01022243499756,2.01585531234741,0.51373767852783,-1.41598558425903,-1.22906088829041,0.17715092003345,1.88635182380676,28.0768032073975,24.12158203125,13.1872625350952,-4.05338335037231,-9.7013053894043,-11.6717329025269,-5.68471193313599,-3.01278734207153,0.78496181964874,-6.36618232727051,-30.20046043396,-25.6299285888672,2.34633350372314,4.16976594924927,3.60654830932617,-0.92423909902573,-2.36099410057068,-3.06776523590088,-7.56088876724243,5.13316822052002,22.2660751342773,8.87530612945557,-0.84754741191864,-1.50834703445435,2.24859499931335,-2.4501805305481,-5.22473049163818,42.2816009521484,24.6794319152832,10.1992988586426,-1.6578882932663,-1.82770884037018,-0.93584555387497,3.0689868927002,1.22845005989075,0.92240649461746,4.58968448638916,-11.5352640151978,-13.5751237869263,-1.38145434856415,6.60081386566162,13.2902135848999,3.13984727859497,5.7305269241333,6.76288890838623,-19.4385242462158,-7.86016416549683,8.22887134552002,3.86372256278992,2.06594634056091,-0.58459806442261,-2.05861592292786,-1.60168862342834,0.57360243797302,22.9340572357178,29.9969539642334,22.069751739502,-6.55292987823486,-9.88805294036865,-10.0795888900757,-4.99015808105469,-6.20516920089722,-6.12086963653564,5.90649557113647,-6.48828649520874,-22.8167419433594,SHAKE
-0.93584555387497,1.49967420101166,3.90770506858826,0.92240649461746,-0.08613199740648,-1.00242984294891,-13.5751237869263,-14.9924907684326,-8.85615253448486,13.2902135848999,10.2471828460693,0.78050976991653,6.76288890838623,6.08910465240479,3.26446390151978,8.22887134552002,27.655424118042,40.023868560791,-0.58459806442261,-2.61755752563477,-3.91503524780273,0.57360243797302,2.49782800674438,2.97124862670898,22.069751739502,9.63426780700684,-2.54503631591797,-10.0795888900757,-9.97185039520264,-3.68946480751038,-6.12086963653564,-3.8435640335083,0.44715335965157,-22.8167419433594,-34.4046783447266,-27.5045890808105,2.67070293426514,4.24062633514404,3.86433362960815,-1.59191477298737,-2.3933699131012,-2.95109009742737,-10.4291429519653,1.56820213794708,20.0969295501709,4.27125597000122,-3.83311700820923,-6.23689556121826,4.67006492614746,0.12828169763088,-4.40372753143311,42.8586044311523,33.4589691162109,13.0938892364502,-4.51918125152588,-4.50452041625977,-3.29622888565063,3.91381359100342,3.06226754188538,1.70736837387085,1.64242231845856,-7.56328296661377,-10.3740758895874,-0.77332717180252,4.34068775177002,11.6358203887939,-1.40376830101013,3.69390225410461,7.35970449447632,-37.1627998352051,-21.059398651123,3.23935484886169,4.44648790359497,3.97245669364929,1.10077917575836,-3.65541768074036,-2.05983757972717,1.71164441108704,20.475212097168,30.8349227905273,25.6011981964111,6.15549278259277,-9.22007083892822,-17.5375270843506,-6.69935894012451,-7.41468238830566,-5.68104696273804,7.84819316864014,-11.7698955535889,-20.9803886413574,SHAKE
-3.39091300964355,-3.21925973892212,-1.4312572479248,3.14045810699463,1.43736588954926,0.16554448008537,-4.7213659286499,-13.9462251663208,-17.5159797668457,-6.22492456436157,4.03183555603027,6.99825143814087,1.22356307506561,6.62666606903076,6.922935962677,-28.1606006622314,-3.18668246269226,14.6022357940674,0.4886921942234,-0.01954768784344,-2.24554061889648,-2.12886548042297,0.49968776106834,2.94498133659363,33.4134788513184,23.7289333343506,7.16824007034302,5.94719696044922,-11.2719011306763,-7.66144561767578,-6.93576383590698,-6.14958047866821,2.0457878112793,-7.82425117492676,-24.5046539306641,-30.1094799041748,2.45445656776428,2.61328148841858,1.48073732852936,-1.48928952217102,-2.39153742790222,-2.26203393936157,-9.63905620574951,6.17225217819214,23.6451358795166,-1.21864867210388,-4.95120906829834,0.81881695985794,4.13494682312012,-1.14415061473846,-4.52773332595825,43.7109413146973,27.2986869812012,10.1178960800171,-1.37811195850372,-2.06655716896057,-1.83076310157776,2.39398097991943,1.7880026102066,1.18385684490204,3.84987640380859,-8.45632076263428,-12.6222314834595,-4.50588750839233,-0.50278234481812,6.14352178573608,-1.30297553539276,2.79959535598755,5.40310287475586,-33.300952911377,-22.1870670318604,-10.8600988388062,2.57907295227051,1.9889771938324,1.96393179893494,-1.99752938747406,-1.66888380050659,-1.39216184616089,7.95114374160767,23.9276523590088,32.8364753723145,-2.40377855300903,3.78044438362122,2.57855534553528,-0.72937309741974,-4.42877292633057,-6.15324544906616,30.0544147491455,11.1904983520508,-1.17315888404846,SHAKE
-0.17837265133858,0.21868975460529,0.6023131608963,-0.03481931984425,-1.48501336574554,-2.37015724182129,-14.7123699188232,-11.3844289779663,0.50517654418945,-6.02381134033203,-3.78044438362122,-3.6152446269989,7.04083299636841,6.57168817520142,3.23636412620544,13.3764047622681,40.2896270751953,44.4459609985351,0.39278635382652,-0.75319683551788,-0.66889744997025,0.62552601099014,3.71833682060242,3.7946949005127,22.5749282836914,6.99346303939819,-5.73171901702881,-1.18034148216248,0.94092124700546,-0.81402856111526,-5.97975969314575,-1.78311562538147,2.517986536026,-23.2285442352295,-34.7278938293457,-30.9594230651855,0.20525072515011,-0.31093040108681,-0.12156218290329,-1.62490153312683,-2.53386902809143,-2.80814743041992,-8.54490566253662,5.54975938796997,23.5469741821289,-4.43884992599487,2.97838687896729,11.6310319900513,3.31944179534912,-2.69880270957947,-5.59674739837646,55.5933647155762,30.9713935852051,10.5081510543823,-0.89675015211105,-1.30602991580963,-0.78679442405701,3.14412331581116,2.86617970466614,1.14353978633881,2.74136090278625,-9.21528244018555,-12.2223997116089,-9.75158309936523,-8.09000778198242,-8.50181007385254,-0.41416662931442,3.60349416732788,5.94738388061523,-31.7255668640137,-20.7170276641846,-10.4602670669556,0.04337143152952,0.08063421398401,0.37323865294456,-3.43856048583984,-3.03844380378723,-0.43127086758614,15.6676559448242,29.0392723083496,29.9778003692627,8.08761310577393,16.2087459564209,6.49307489395142,-5.00298643112183,-6.59856653213501,-6.39270496368408,14.8057432174683,-1.53228902816772,-17.9876365661621,SHAKE
-0.32925635576248,-0.09040805697441,0.0372627787292,-1.24188899993896,-2.38726139068604,-2.79348683357239,-11.9207305908203,-9.70609378814697,0.28251579403877,-7.02698183059692,-3.65355181694031,0.43095630407333,7.11474752426147,5.70853567123413,-0.18081611394882,12.1721210479736,48.9757881164551,41.9224700927734,-0.52900928258896,-1.68537724018097,-1.63223195075989,2.82280826568604,4.57110452651978,4.48497247695923,17.6524486541748,2.39659595489502,-5.96874475479126,-2.63841032981873,-3.38779544830322,-1.53947174549103,-4.08791017532349,-0.31276300549507,3.28950929641724,-29.8006286621094,-29.2930583953857,-21.2796649932861,1.43370068073273,1.39827048778534,1.63834059238434,-2.28952288627625,-3.10441708564758,-3.65053081512451,-4.08450794219971,10.4626617431641,26.9395580291748,-1.51313543319702,4.83628749847412,13.8456687927246,2.52287340164185,-3.79102969169617,-6.21983003616333,56.3020477294922,21.4281044006348,5.61919116973877,-2.35977244377136,-1.80327415466309,-0.34330627322197,4.31393051147461,3.52652502059937,1.47523951530457,-2.29364514350891,-10.4842090606689,-13.85524559021,-4.98951625823975,-4.38138914108276,-7.0509238243103,-0.1050688251853,4.13616847991943,6.68286561965942,-33.2602500915527,-20.0897464752197,-6.13873338699341,0.02932153269649,0.27611109614372,1.28831481933594,-3.78553199768066,-3.72994327545166,-1.51066970825195,12.9382658004761,28.4215679168701,34.0527305603027,7.02937602996826,16.7330760955811,6.53377628326416,-3.38785862922669,-5.82887601852417,-6.56863403320313,19.8694801330566,5.15711069107056,-9.74200630187988,SHAKE
0.81122905015945,0.79962259531021,0.47403141856194,-1.33779489994049,-2.71285247802734,-3.25896596908569,-14.5280160903931,-12.1481790542603,-2.69587111473084,-10.0125513076782,-6.29196214675903,-2.79403328895569,7.79280805587768,7.09153461456299,2.10076546669006,13.2159929275513,49.6629257202149,44.9008598327637,0.84421575069427,-0.75564032793045,-1.53327178955078,2.0323486328125,4.34508466720581,4.15082931518555,22.5509853363037,7.28795003890991,-4.25689077377319,-6.26802015304565,-7.66623401641846,-7.92241334915161,-5.51611328125,-2.71712851524353,1.30908417701721,-22.7712516784668,-31.7973918914795,-27.6673946380615,1.24799764156342,1.98836636543274,1.91689515113831,-2.59739899635315,-3.71528244018555,-3.95413064956665,-7.38371801376343,6.38533592224121,24.2556571960449,-0.28012159466743,-0.63206923007965,-1.86987149715424,4.86187648773193,-1.21256756782532,-5.29986667633057,57.7601165771484,31.6034622192383,8.37970638275146,-2.56074714660645,-2.87289929389954,-1.15087008476257,3.54546189308167,4.25589799880981,4.43366003036499,-1.30244576931,-10.5871601104736,-12.6796922683716,-1.71664261817932,2.16196417808533,-0.07661445438862,3.06226754188538,5.96387720108032,6.6706485748291,-18.9932022094727,-2.6623523235321,11.2790842056274,0.25473082065582,0.61147612333298,0.94439768791199,-3.29317450523376,-2.91443800926209,-0.47647488117218,27.7272491455078,32.7670440673828,26.2643928527832,9.56723022460938,5.75805521011353,-8.14507389068604,-4.76658153533936,-6.02618551254272,-6.15385627746582,6.91684865951538,-1.7980455160141,-12.8855934143066,SHAKE
1.99386417865753,1.7434093952179,1.03297317028046,-2.32617473602295,-3.43733882904053,-3.36953258514404,-11.3485164642334,-2.26012635231018,13.3668279647827,-9.2416181564331,-8.32703304290771,-1.85790050029755,6.1593542098999,3.7348301410675,-1.35184478759766,31.8859786987305,46.2631607055664,23.8725852966309,-1.08062064647675,-2.33350515365601,-1.86802589893341,2.85457324981689,3.83256864547729,3.43123006820679,12.167332649231,0.13646949827671,-7.87931776046753,-5.13556241989136,0.50996494293213,1.56580793857574,-4.84965896606445,-1.66460776329041,2.40375471115112,-27.2340450286865,-31.5699443817139,-20.0562267303467,1.51372408866882,0.56688296794891,-0.15271630883217,-2.71835041046143,-2.9413161277771,-3.71711492538452,-3.1699230670929,13.1345901489258,28.1558113098145,-6.46434450149536,1.08457338809967,12.1050834655762,4.42022085189819,-1.72386169433594,-5.33102083206177,50.4554061889649,23.4847240447998,5.87776517868042,-1.7012597322464,-0.35369098186493,1.03052961826324,5.19601964950562,5.2057933807373,2.138028383255,-4.67348194122314,-13.7834196090698,-14.9829139709473,-0.42377370595932,-4.67587614059448,-15.9693250656128,2.96208548545837,5.6993727684021,5.57719945907593,-23.6810493469238,-2.65277552604675,21.1527729034424,0.05070181563497,1.63772976398468,0.50762903690338,-1.93216681480408,0.23273965716362,2.45506739616394,34.6608581542969,31.8093643188477,18.4066219329834,22.1152420043945,1.7788919210434,-6.15309858322144,-5.89118432998657,-5.96021223068237,-4.8661527633667,1.74297881126404,-6.3087215423584,-17.1568489074707,SHAKE
1.31824719905853,0.76969021558762,0.33353242278099,-1.35306656360626,-2.17101502418518,-2.39642429351807,-14.0491752624512,-10.0245227813721,0.59136784076691,-10.6853218078613,-6.86657047271729,-5.14035081863403,6.80809307098389,6.31329250335693,1.57908666133881,9.47625064849854,43.5936241149902,42.887336730957,-0.64140850305557,-0.72876220941544,-1.03114056587219,1.79288947582245,3.0659327507019,3.29989409446716,22.8263187408447,10.4746322631836,-0.51235914230347,3.83551120758057,-2.18830037117004,-0.44532153010368,-5.57414531707764,-3.78675365447998,-0.601702272892,-11.7914438247681,-23.0010948181152,-23.8917388916016,1.34329271316528,0.45998153090477,-0.48075094819069,-2.00730323791504,-1.76478970050812,-1.75318324565887,-9.95509052276611,-3.42849683761597,10.8720703125,-10.0963487625122,-6.85938787460327,-1.40300214290619,4.52895498275757,-1.62062549591064,-5.15387010574341,52.7251091003418,27.9499111175537,8.00142192840576,-0.90346968173981,-0.34269541501999,0.61819565296173,3.33776760101318,2.2968533039093,1.44103109836578,3.88339519500732,-6.13873338699341,-13.4578075408936,0.04070143029094,-0.42137950658798,-3.67509961128235,-2.49477362632751,0.92546087503433,4.39456462860107,-26.8964614868164,-25.1678485870361,-11.5831480026245,-0.17837265133858,-0.52351152896881,-1.314581990242,-2.02624011039734,-2.49721717834473,-2.68658542633057,0.85712420940399,21.1527729034424,35.8148651123047,-2.35828876495361,0.59136784076691,16.1512851715088,2.12092423439026,-3.6358699798584,-5.61568403244019,45.231258392334,15.1122007369995,1.77170920372009,SHAKE
1.31641459465027,0.39278635382652,-0.17837265133858,-0.86498516798019,-1.66033172607422,-2.02624011039734,-14.9039058685303,-10.9486846923828,0.85712420940399,-11.2024698257446,-6.38773012161255,-2.35828876495361,6.99196338653564,6.53564739227295,2.12092423439026,12.9047470092773,45.7891082763672,45.231258392334,0.097127571702,0.21685716509819,-0.00855211354792,1.47707211971283,2.77760434150696,2.55219507217407,24.0713043212891,11.295844078064,-0.95049810409546,3.66312861442566,-2.04225397109985,-1.4867992401123,-5.42448329925537,-4.22474384307861,-1.60291039943695,-9.38048267364502,-21.1455898284912,-28.6226806640625,0.20097467303276,-0.56382864713669,-0.92668259143829,-1.74829638004303,-1.99752938747406,-2.74217414855957,-4.9990930557251,9.29668521881104,28.1917247772217,-7.13232707977295,-0.74699091911316,12.0979013442993,5.19113302230835,-0.53328537940979,-4.63646697998047,50.9366416931152,28.1390533447266,7.49863958358765,-0.9767735004425,-0.7617489695549,0.18203784525394,3.03661108016968,2.67986583709717,2.63282918930054,3.92170238494873,-5.91607236862183,-12.7347583770752,-0.23223756253719,0.38786068558693,-2.15238738059998,-3.43489527702332,0.11667526513338,3.87899422645569,-28.8118228912354,-25.5126132965088,-12.0931129455566,-0.41722095012665,-1.13987457752228,-1.99936199188232,-2.18323230743408,-2.72262644767761,-3.29989409446716,0.10055647045374,18.1384716033936,32.848445892334,-5.21457147598267,1.14203417301178,16.8982753753662,3.93397212028503,-2.2412645816803,-5.12454843521118,47.6661605834961,17.0874176025391,3.12443327903748,SHAKE
0.65240406990051,-0.6023131608963,-1.41293132305145,-1.65972089767456,-1.94010806083679,-2.36649203300476,-10.8696756362915,-1.34793555736542,17.1640319824219,-12.2846488952637,-6.00705194473267,-1.79086291790009,6.26136875152588,1.76845490932465,-3.92786359786987,40.7157936096191,50.9366416931152,14.8488388061523,0.48380526900291,0.6023131608963,1.14537239074707,2.88511657714844,3.17344498634338,2.62672066688538,11.7794723510742,1.41497325897217,-7.04613542556763,1.86268889904022,0.03351882472634,-3.64397501945496,-3.97612190246582,-1.68537724018097,1.54915428161621,-16.2638130187988,-24.2580509185791,-21.0641860961914,-0.56749379634857,-1.61085164546967,-2.19483876228333,-1.35550999641418,-1.95232534408569,-3.009122133255,-8.85136413574219,2.44926834106445,23.0417976379395,-11.0731830596924,-4.32153415679932,12.1984577178955,6.28519248962402,0.10079276561737,-4.63707828521729,58.1096687316895,38.256950378418,9.68454551696777,-0.58276546001434,0.38240164518356,1.89368224143982,3.69329118728638,3.19177079200745,2.85518407821655,7.59440755844116,-2.47560453414917,-10.8888292312622,4.28562116622925,2.51391172409058,-2.69826531410217,-3.34937405586243,-0.00977384392172,3.76048636436462,-25.7209091186523,-28.1677837371826,-14.8440504074097,-0.23701570928097,-1.60107779502869,-2.3212878704071,-1.63284277915955,-2.30968141555786,-3.16000580787659,-2.26970314979553,14.5256214141846,29.6330337524414,-10.7284173965454,-1.10612118244171,16.2805709838867,3.41168236732483,-2.56929922103882,-5.36217498779297,50.0867004394531,21.1264362335205,4.63996267318726,SHAKE
-0.19181168079376,-1.25777149200439,-1.99936199188232,-1.18935465812683,-1.60413217544556,-2.11603713035584,-9.6797571182251,0.97922849655151,18.8184261322021,-11.0851535797119,-5.83466958999634,1.86029469966888,7.27051830291748,3.48620796203613,-3.01217651367188,50.788200378418,46.5768013000488,14.3292970657349,-0.01832595653832,-1.01586890220642,-0.83260935544968,2.22843647003174,3.10502815246582,3.04760670661926,10.3309803009033,-0.45010992884636,-8.78911399841309,-4.44363832473755,-0.74699091911316,-0.37110126018524,-4.60958909988403,-2.33045101165771,1.08917272090912,-18.8543376922607,-27.3705139160156,-21.0522155761719,-0.34513887763023,-1.58214104175568,-2.35977244377136,-1.45996797084808,-2.08427214622498,-3.68290662765503,-8.83460426330566,5.54736518859863,25.273193359375,-12.4977331161499,-6.67024612426758,7.16824007034302,5.82826519012451,-1.46363317966461,-5.72441816329956,64.66259765625,42.5808753967285,14.1736736297607,-1.18263506889343,2.22660374641419,2.74889349937439,3.99078273773193,2.43063282966614,1.02014493942261,2.07577276229858,-17.8894748687744,-17.9613018035889,6.11718511581421,-6.75643730163574,-16.5822410583496,1.6401731967926,4.65540409088135,5.87346935272217,-23.4966945648193,-8.92319011688232,-1.82917010784149,-0.63835418224335,0.83749628067017,1.05313169956207,-2.74156332015991,-1.68598806858063,1.11055302619934,33.6792335510254,37.0909729003906,25.2995300292969,13.9917144775391,7.33822822570801,-1.88423669338226,-6.00480556488037,-6.1972279548645,-5.8270435333252,2.37504816055298,-3.1890766620636,-9.57920074462891,SHAKE
0.62735861539841,-0.99204516410828,-2.28524684906006,-1.79838728904724,-2.03967905044556,-2.99446153640747,-8.82502746582031,2.16435837745667,19.2805061340332,-14.2670478820801,-8.63349151611328,5.50666379928589,7.55151605606079,2.0512855052948,-3.68229579925537,57.9444694519043,43.0333824157715,11.939884185791,-1.07756626605988,-0.37995818257332,0.82344633340836,3.82523822784424,3.25285744667053,2.76660871505737,10.3884410858154,0.21308395266533,-7.77397298812866,3.93606758117676,2.84431171417236,0.43335050344467,-4.16915512084961,-2.22660374641419,1.04152524471283,-16.9102458953857,-26.7240791320801,-22.0482025146484,0.16554448008537,-1.40621185302734,-2.61328148841858,-1.26082587242126,-1.5668693780899,-2.31395745277405,-9.22007083892822,3.48356342315674,23.4152927398682,-13.1633205413818,-8.61673164367676,10.4147777557373,7.43056488037109,1.74157679080963,-4.12150764465332,64.2555847167969,38.0271072387695,10.1657800674438,0.43127086758614,-0.10445795953274,0.47952923178673,3.04455232620239,3.22659015655518,3.50270128250122,7.3501992225647,-4.948814868927,-14.0036859512329,-3.28245043754578,-1.93930339813232,-5.48511600494385,-4.75192070007324,-1.33168625831604,2.90588593482971,-28.9913883209229,-28.9195613861084,-13.1369848251343,-1.06718158721924,-2.27608394622803,-2.65359854698181,-1.98409032821655,-2.30112934112549,-3.4202344417572,-4.34787034988403,13.2447242736816,28.2491855621338,-10.7188405990601,-2.67671751976013,15.0475578308105,3.07265210151672,-3.32493948936462,-6.05733966827393,58.8207473754883,23.3482551574707,-0.98162269592285,SHAKE
0.79290306568146,-0.45020768046379,-1.66399693489075,-1.47035264968872,-1.74707460403442,-2.1013765335083,-12.0284690856934,-4.7907977104187,10.8050327301025,-14.7722244262695,-10.7523593902588,-6.09563732147217,7.81296634674072,5.05124473571777,-1.46668744087219,30.6888771057129,57.1232566833496,27.0664501190186,-1.02930796146393,-0.59070670604706,1.17896997928619,3.13923645019531,4.04942560195923,4.09340810775757,14.1210012435913,-0.16280572116375,-11.0875482559204,4.51067590713501,5.01106405258179,-2.23379015922546,-4.8282790184021,-1.15514612197876,3.18505144119263,-29.2786922454834,-32.858024597168,-16.4122524261475,-0.83260935544968,-1.49539816379547,-2.09648942947388,-1.63467538356781,-2.26753187179565,-3.03905463218689,-3.65594601631165,12.0069217681885,28.5819797515869,-8.39646530151367,-3.03345346450806,15.9190473556519,3.95535254478455,-3.06226754188538,-5.79161357879639,59.9436264038086,21.5909118652344,5.1068320274353,-0.12217304855585,-0.30604347586632,0.25106561183929,2.75378060340881,2.77332830429077,2.0567831993103,0.94570964574814,-9.4235782623291,-15.4449949264526,-4.18506479263306,-5.39413642883301,-10.9391078948975,-2.1978931427002,1.67987942695618,4.6523494720459,-30.0280780792236,-20.2717056274414,-9.01656341552734,-0.68905597925186,-1.00487327575684,-0.52656584978104,-2.7324001789093,-3.36525654792786,-3.41412591934204,9.19612884521484,27.21728515625,35.077449798584,-0.9433154463768,10.2615480422974,11.389217376709,-1.11360728740692,-4.6315803527832,-5.46602201461792,23.8917388916016,3.81396341323853,-3.17231726646423,SHAKE
2.17040419578552,1.25044119358063,-0.14538592100143,0.12095131725073,-0.67317348718643,-0.94134336709976,-12.2583122253418,-9.05008220672607,1.28808057308197,-15.2582473754883,-13.9653787612915,-9.10993766784668,6.72012853622437,6.99318552017212,2.71651768684387,11.6023015975952,50.3404846191406,45.6358795166016,-0.66706484556198,-0.65606927871704,-0.60475659370422,1.61696028709412,2.95414423942566,3.28217887878418,20.5470390319824,7.42681360244751,-4.50588750839233,2.93050289154053,-0.46447512507439,-0.66798228025436,-6.11659383773804,-4.33286714553833,-0.29260444641113,-19.2206516265869,-33.7726097106934,-25.2109432220459,-0.1667662113905,-0.92546087503433,-0.81367248296738,-2.22965812683105,-3.07020878791809,-3.69023704528809,-6.67982292175293,4.21618938446045,21.8135719299316,-7.22091245651245,1.16118776798248,11.6262435913086,6.27664041519165,1.08917272090912,-3.96390461921692,53.6109657287598,33.6098022460938,8.69574069976807,-2.57113170623779,-1.05252087116241,1.1734721660614,3.71589326858521,3.37930655479431,1.57358884811401,1.2258312702179,-7.25921964645386,-11.8297510147095,4.58489608764648,4.33829355239868,0.01915361359715,-1.03724920749664,2.60289669036865,5.07934474945068,-29.1110992431641,-21.02587890625,-10.0652236938477,0.33475416898727,-0.37262779474258,-0.47036623954773,-2.36710286140442,-2.23698854446411,-1.6157386302948,9.90720653533936,27.6290874481201,33.8923187255859,-4.80037450790405,4.19703578948975,4.8099513053894,-2.61022710800171,-4.98282766342163,-5.35240125656128,20.5398559570313,3.28963303565979,-2.93050289154053,SHAKE
2.43796324729919,1.2046263217926,0.33475416898727,-1.42026174068451,-1.53938043117523,-2.36710286140442,-10.8912239074707,-3.69185900688171,9.90720653533936,-12.0141038894653,-8.58081912994385,-4.80037450790405,6.30596208572388,2.79593014717102,-2.61022710800171,27.9068145751953,46.9574775695801,20.5398559570313,-0.71104717254639,-0.54977869987488,-0.13805554807186,2.37321138381958,2.63771605491638,2.44712615013123,14.8823575973511,3.91212558746338,-5.32470464706421,0.60812723636627,-1.20667767524719,-1.19710087776184,-3.81302094459534,-1.31824719905853,2.16124129295349,-18.9141941070557,-27.5812034606934,-24.2365036010742,0.13805554807186,-0.49663344025612,-0.09040805697441,-1.45691359043121,-1.63711881637573,-2.51676487922669,-4.32632255554199,11.1569795608521,31.2251777648926,-4.81473970413208,2.79163908958435,9.17218685150146,2.66092896461487,-3.01156568527222,-5.96326637268066,48.4538536071777,24.2748107910156,3.26569104194641,-1.35489916801453,0.21868975460529,1.95110356807709,2.87839698791504,1.92666900157928,0.82039201259613,-2.37265396118164,-13.2375411987305,-18.4185943603516,5.18105268478394,3.31836366653442,-3.92409658432007,-0.25656339526176,3.97795438766479,6.43485450744629,-32.9705505371094,-18.1863555908203,-0.84275901317596,-0.30115658044815,-0.2852740585804,-0.68966686725616,-2.07449841499329,-2.41413950920105,-0.59376102685928,23.6499252319336,36.420597076416,32.7407073974609,2.36547136306763,2.41814374923706,-1.18512988090515,-3.79102969169617,-5.30903005599976,-5.38538789749146,9.64863300323486,-1.02471828460693,-8.10197830200195,SHAKE
2.52409529685974,1.5112806558609,0.23701570928097,-0.69394290447235,-1.3390166759491,-1.52655220031738,-16.6373081207275,-11.4275245666504,2.38701915740967,-11.2623243331909,-10.5344877243042,-4.96078586578369,7.08725833892822,5.54909992218018,0.66828656196594,20.070592880249,44.0078201293945,33.8300704956055,-1.36589467525482,-1.1001683473587,-0.61758476495743,1.75379407405853,2.2913556098938,2.21499729156494,19.9748249053955,6.15549278259277,-5.36301183700562,2.36307716369629,0.29927521944046,0.4955997467041,-4.61753034591675,-2.11237192153931,1.83076310157776,-21.547815322876,-31.89794921875,-23.3674087524414,0.79656827449799,0.32559117674828,0.05253441259265,-1.21256756782532,-1.78617000579834,-2.30051851272583,-5.05894804000854,10.2950668334961,29.4774112701416,-5.73890161514282,-1.84353530406952,4.89135408401489,4.25711965560913,-1.60413217544556,-5.17708301544189,50.3428802490234,26.0034255981445,4.2951979637146,-1.87413454055786,0.0549778714776,1.91322994232178,3.5979962348938,2.63954877853394,0.56993728876114,-3.81156921386719,-12.2056398391724,-14.7841958999634,6.6463041305542,0.9528923034668,-8.1139497756958,0.83871799707413,4.24917840957642,6.50876903533936,-25.4623355865479,-10.6039190292358,32.7622566223145,-0.13866640627384,-0.99265605211258,-2.10504174232483,-2.40497636795044,0.24862214922905,2.39581346511841,34.2969398498535,25.5078258514404,11.8034143447876,-1.25456166267395,-1.70467162132263,2.41335535049438,-5.55093240737915,-5.25954961776733,-3.62976121902466,-5.91846656799316,-17.3795108795166,-28.9435043334961,SHAKE
0.0549778714776,1.91322994232178,2.2467622756958,2.63954877853394,0.56993728876114,-1.02014493942261,-12.2056398391724,-14.7841958999634,-12.6126546859741,0.9528923034668,-8.1139497756958,-12.5671644210815,4.24917840957642,6.50876903533936,4.06408643722534,-10.6039190292358,32.7622566223145,49.9933242797851,-0.99265605211258,-2.10504174232483,-1.93705368041992,0.24862214922905,2.39581346511841,2.74278497695923,25.5078258514404,11.8034143447876,-0.58897364139557,-1.70467162132263,2.41335535049438,5.59285497665405,-5.25954961776733,-3.62976121902466,-0.42088615894318,-17.3795108795166,-28.9435043334961,-29.2954521179199,1.85886299610138,0.39400807023048,-0.58459806442261,-1.20401537418365,-1.27182149887085,-1.95537960529327,-10.2040872573853,1.27610945701599,22.0122909545898,-12.5767412185669,-7.68059921264648,-1.44130945205688,7.22836828231812,2.12214589118958,-3.55095958709717,55.1408576965332,39.4133491516113,10.4004125595093,-1.80632853507996,-1.04030346870422,0.53633970022202,3.16367101669312,3.18566226959229,2.59556651115417,2.97599267959595,-8.62391471862793,-15.8376445770264,5.19541788101196,3.59130263328552,-2.51870012283325,-3.1746666431427,0.77213364839554,4.43121671676636,-32.4462203979492,-23.5828876495361,-8.03972911834717,-0.22418753802776,-0.57971113920212,-0.59315013885498,-1.70981180667877,-2.378098487854,-1.50578284263611,13.2016277313232,30.1406059265137,33.5116424560547,-0.81881695985794,4.33829355239868,0.51954174041748,-5.46846580505371,-5.53199577331543,-4.36524295806885,0.34715923666954,-8.69574069976807,-22.5653514862061,SHAKE
0.53633970022202,1.80938291549683,1.79777646064758,2.59556651115417,0.89797192811966,-0.57299160957336,-15.8376445770264,-15.3971109390259,-12.5120983123779,-2.51870012283325,-9.70848751068115,-11.6190605163574,4.43121671676636,6.2418212890625,6.68775272369385,-8.03972911834717,8.04451751708984,36.6935348510742,-0.59315013885498,-1.5778648853302,-0.4453207552433,-1.50578284263611,3.12274312973022,3.11480188369751,33.5116424560547,8.99022769927979,-2.65995812416077,0.51954174041748,2.75572609901428,3.91212558746338,-4.36524295806885,-1.29381263256073,2.66764855384827,-22.5653514862061,-32.2355308532715,-23.1734790802002,0.29199358820915,-0.70493847131729,-0.7183775305748,-1.18507862091064,-1.98042511940002,-2.66215062141419,-3.45722723007202,11.841721534729,29.7718982696533,-9.78510189056396,-0.76135611534119,6.99346303939819,1.77883958816528,-3.59372019767761,-5.72991609573364,47.850513458252,19.6659736633301,2.4013843536377,-0.95783668756485,0.06108652427793,0.83199846744537,2.68597459793091,2.31456851959229,0.69699722528458,-5.87297677993774,-11.7914438247681,-12.2319765090942,3.38061285018921,-0.24420857429504,-4.62799167633057,2.36710286140442,5.34629249572754,6.93332052230835,-23.6954135894775,-10.3812589645386,9.76594829559326,0.16798794269562,-0.42210787534714,-1.54487824440002,-2.78188037872314,-1.30664074420929,1.82404363155365,29.1853179931641,32.149341583252,21.2485408782959,-0.70628952980042,-3.40934324264526,-1.54665434360504,-5.95715808868408,-5.9339451789856,-5.12393760681152,-0.40940847992897,-6.57926607131958,-17.7506122589111,SHAKE
0.83199846744537,0.97066485881805,0.67317348718643,0.69699722528458,-0.40927970409393,-0.78251838684082,-12.2319765090942,-11.226411819458,-4.05817174911499,-4.62799167633057,-6.14112758636475,-5.54497098922729,6.93332052230835,6.53381443023682,1.5112806558609,9.76594829559326,45.1115493774414,47.4722328186035,-1.54487824440002,-1.89551484584808,-1.04824471473694,1.82404363155365,3.1991012096405,3.08914566040039,21.2485408782959,8.59278964996338,-1.9632453918457,-1.54665434360504,1.24019646644592,2.33674097061157,-5.12393760681152,-2.9168815612793,1.01159286499023,-17.7506122589111,-30.9618167877197,-29.8437232971191,-0.07391469180584,-0.7739662528038,-0.21624629199505,-0.97494095563889,-1.77395272254944,-3.26629638671875,-5.89691877365112,6.48349809646606,22.4959182739258,-6.90248346328735,1.29765737056732,5.97353315353394,4.33653259277344,-1.95476877689362,-4.73176240921021,52.6508903503418,22.1391830444336,2.96881008148193,-1.54976511001587,-0.46670106053352,1.22173047065735,3.06471085548401,3.15634083747864,1.90040183067322,0.5434837937355,-7.73087739944458,-10.3405570983887,4.503493309021,3.79241538047791,-1.91057300567627,0.08063421398401,3.83073592185974,6.05795049667358,-27.6650009155273,-14.2574710845947,0.37110126018524,0.1991420686245,-0.1600466966629,0.28160887956619,-2.14413690567017,-2.33655953407288,-0.39522981643677,20.8080062866211,30.0592021942139,27.8014698028564,-0.24660277366638,4.88656568527222,-2.86346530914307,-3.87899422645569,-5.16058969497681,-5.82093477249146,11.4466781616211,4.11084413528442,-4.46758031845093,SHAKE
1.22173047065735,2.17590188980103,2.06472444534302,1.90040183067322,-0.06536258012056,-0.80206608772278,-10.3405570983887,-10.7379941940308,-8.04212379455566,-1.91057300567627,-7.18260526657104,-9.56723022460938,6.05795049667358,6.96447467803955,5.52038908004761,0.37110126018524,24.5477504730225,51.5639228820801,0.28160887956619,-0.2767219543457,-0.8344419002533,-0.39522981643677,2.02868342399597,2.47400426864624,27.8014698028564,16.6564617156982,4.10366153717041,-2.86346530914307,-4.75967311859131,-2.31040453910828,-5.82093477249146,-5.52405452728271,-2.82586264610291,-4.46758031845093,-24.5118370056152,-37.612907409668,-0.09834930300713,-0.49907690286636,-0.64934974908829,-0.76663589477539,-1.21317839622498,-2.37137889862061,-8.40843677520752,-0.96965169906616,14.7889842987061,-7.98945093154907,-3.99831676483154,4.41730213165283,6.94065093994141,0.55710911750793,-4.55644369125366,59.0194664001465,36.0949859619141,10.8385515213013,-3.85089445114136,-3.19238185882568,-0.78496181964874,3.74216055870056,3.39091300964355,2.89061427116394,0.59615623950958,-8.31985092163086,-10.527304649353,5.3366756439209,8.80587387084961,4.42927312850952,-2.713463306427,1.92483639717102,5.64744901657104,-36.6719856262207,-25.5365562438965,-11.1593742370605,1.21256756782532,1.13559854030609,0.85643309354782,-2.32312059402466,-3.06226754188538,-2.27302956581116,9.01177501678467,26.9826526641846,31.1964473724365,-3.22259545326233,0.75896191596985,-3.51708221435547,-2.55769276618958,-5.02314472198486,-5.70181608200073,16.1393127441406,2.92332029342651,-2.51870012283325,SHAKE
1.70553576946259,2.56991004943848,1.97920334339142,0.69027775526047,-1.26143670082092,-1.46668744087219,-10.6853218078613,-9.45230865478516,-3.94803857803345,-4.49870491027832,-8.77953720092773,-6.44279670715332,7.83556842803955,7.2448616027832,2.77943682670593,16.9413719177246,47.4746246337891,42.4180717468262,-0.04153883829713,-0.89247411489487,-1.61207342147827,0.59131753444672,1.87169110774994,1.90040183067322,23.1782665252686,11.6549739837646,0.35913026332855,-4.44124412536621,-5.41089582443237,-0.97922849655151,-5.74091148376465,-4.45809459686279,-1.33657312393188,-14.3269033432007,-28.088773727417,-30.6912708282471,0.4239404797554,0.41844269633293,0.84360492229462,-0.89552843570709,-0.9950994849205,-2.38603973388672,-8.33421611785889,0.22744916379452,15.9286241531372,-3.49074602127075,0.79487496614456,6.10760831832886,3.33960032463074,-2.79287600517273,-5.64134073257446,51.6405372619629,26.3098831176758,6.03578233718872,-4.05981063842773,-1.99447500705719,0.91446524858475,3.8747181892395,3.25285744667053,0.66401052474976,-2.3056161403656,-8.48265647888184,-10.5512466430664,6.91924285888672,9.40681838989258,3.01190567016602,2.54608631134033,6.12697839736938,7.89298963546753,-28.8501300811768,-14.3388738632202,13.5296335220337,1.11299645900726,1.12704634666443,-0.10629054903984,-2.0256290435791,-1.22417390346527,1.20645880699158,25.6826019287109,33.133358001709,22.7353401184082,4.00789356231689,-5.36780023574829,-6.9623384475708,-5.77878522872925,-6.31634664535522,-5.99442052841187,4.54658889770508,-2.30801033973694,-15.3516216278076,SHAKE
0.91446524858475,2.4245240688324,1.99630761146545,0.66401052474976,-0.95478236675262,-0.29871311783791,-10.5512466430664,-11.4083709716797,-7.09401941299438,3.01190567016602,-5.76523780822754,-8.39407157897949,7.89298963546753,6.24731874465942,1.05557513237,13.5296335220337,45.9471244812012,42.5904541015625,-0.10629054903984,-1.02197754383087,-1.35856425762177,1.20645880699158,2.21377563476563,1.72141826152802,22.7353401184082,10.3022499084473,-2.32716393470764,-6.9623384475708,-5.26484966278076,-1.98479318618774,-5.99442052841187,-3.8069121837616,0.41294491291046,-15.3516216278076,-31.6345863342285,-33.4134788513184,0.31642818450928,-0.29077184200287,-0.07513642311096,-1.23089349269867,-1.71714222431183,-3.41840195655823,-8.95670890808105,1.22822546958923,20.0346794128418,-6.67982292175293,-1.56101953983307,1.09654438495636,4.66823244094849,-2.91871404647827,-6.06772470474243,64.2124862670898,25.6754188537598,0.22744916379452,-2.6890287399292,-1.09161615371704,1.24188899993896,3.34509801864624,3.05493712425232,1.00059723854065,-2.41814374923706,-9.16500377655029,-11.650185585022,6.51701688766479,7.61595582962036,1.11090958118439,1.64811444282532,5.64256238937378,8.08174705505371,-31.5220603942871,-16.2111396789551,14.2957782745361,1.1301007270813,0.88025683164597,-0.80634212493896,-3.2247576713562,-1.84420216083527,1.57542145252228,27.1263046264648,30.7032432556152,19.2900829315186,0.105344876647,-8.24563026428223,-6.97909784317017,-6.72196102142334,-5.45441579818726,-2.0146336555481,-11.1881046295166,-27.3058700561523,-35.7310676574707,SHAKE
0.15577064454556,1.52044355869293,1.53021740913391,1.54365646839142,-0.59498274326324,-1.52044355869293,-11.7962322235107,-12.2319765090942,-10.1035308837891,-0.25857377052307,-7.13950967788696,-8.97825622558594,6.1593542098999,8.01088714599609,6.1349196434021,-9.57441234588623,22.9580001831055,50.6565208435059,0.36346483230591,-2.33228349685669,-4.14960765838623,-1.80816113948822,1.84725654125214,3.03722190856934,28.5173358917236,16.8049011230469,2.03985977172852,-11.678915977478,-6.6056022644043,4.09169054031372,-5.58697366714478,-3.9193115234375,-0.11850785464048,-17.2597999572754,-31.9625930786133,-32.2953872680664,2.64199209213257,2.3212878704071,2.01157927513123,-1.02503192424774,-1.03175139427185,-2.25653624534607,-7.8457989692688,2.45166254043579,20.2645225524902,-5.77720880508423,-3.99831676483154,-4.7022123336792,5.01642560958862,-0.79473567008972,-4.98099517822266,52.1265602111816,31.9841403961182,9.37329959869385,-2.81669974327087,-2.77271723747253,-1.17896997928619,2.6700918674469,2.2656991481781,2.24920582771301,2.3702597618103,-8.94952583312988,-14.336480140686,0.39983168244362,5.74847841262817,3.84269380569458,-2.60900545120239,2.37504410743713,6.35299873352051,-37.921760559082,-25.6993618011475,-5.43962621688843,0.35796701908112,0.78801614046097,1.2156218290329,-1.16186571121216,-3.17833185195923,-2.96208548545837,16.7618064880371,31.021671295166,28.6585941314697,4.67348194122314,5.02542924880981,-11.3317565917969,-3.78675365447998,-5.6614990234375,-5.95043849945068,8.30787944793701,-3.11246228218079,-18.294095993042,SHAKE
-2.02135300636292,-0.18264870345592,1.74707460403442,1.83320665359497,1.65666651725769,-1.16491997241974,-5.60722017288208,-9.14585018157959,-10.5153341293335,4.98712205886841,3.5003228187561,-5.82509279251099,6.26564502716064,8.37068653106689,7.91192674636841,-15.9046821594238,4.87698888778687,37.2705383300781,0.10018189996481,-2.35122036933899,-3.16977977752686,-0.32742378115654,2.52104091644287,2.73728704452515,27.0137786865234,12.3253507614136,-1.42694425582886,-12.717999458313,-5.74129581451416,1.60411512851715,-6.51548862457275,-3.95718502998352,0.65484756231308,-17.851167678833,-34.1341323852539,-32.522834777832,1.65544486045837,1.22967171669006,0.9217956662178,-0.29688051342964,-0.84116142988205,-2.54119944572449,-8.49941635131836,0.77572137117386,19.0362968444824,-5.34864664077759,-4.5226469039917,-0.18674772977829,3.41779112815857,-2.21316480636597,-5.19357633590698,50.7235565185547,26.695348739624,7.01740503311157,-3.66885662078857,-1.87108027935028,0.90957832336426,2.9223792552948,2.43796324729919,1.59496915340424,0.54108959436417,-7.34541082382202,-9.97424411773682,7.30710363388062,9.60553741455078,5.52102899551392,-0.14233160018921,4.22596597671509,6.9473705291748,-33.8707733154297,-20.9803886413574,-3.12682747840881,0.73975783586502,0.03848451003432,-1.67315995693207,-2.7012460231781,-1.73974418640137,1.36161863803864,28.8213996887207,27.5069828033447,16.1632556915283,-1.7597382068634,-7.98226833343506,-4.3837833404541,-5.89790391921997,-5.55154323577881,-2.82891702651978,2.48278713226318,-20.8463134765625,-34.3998908996582,SHAKE
-2.73850893974304,-0.66462141275406,1.47829389572144,2.09221339225769,1.22722828388214,0.68600165843964,3.05260705947876,-11.4969568252563,-11.9829797744751,1.73100781440735,6.49786329269409,-0.91458505392075,1.63956236839294,5.83742809295654,7.60099601745605,-31.0982856750488,-15.7730007171631,47.9199485778809,1.36406207084656,-0.88147854804993,-3.34937405586243,-3.14962124824524,0.36468654870987,3.16611456871033,35.268985748291,25.081657409668,10.596736907959,-13.4745674133301,-12.717999458313,-1.27132105827332,-6.35177659988403,-6.18134546279907,-4.69327783584595,-3.90254878997803,-13.5152683258057,-31.7279605865479,2.58090567588806,2.66031813621521,0.25045475363731,0.26022860407829,-0.80206608772278,-1.92300379276276,-13.9941091537476,-11.0971250534058,17.5614700317383,-8.57603073120117,-12.6581439971924,0.72544312477112,6.66698312759399,0.44287729263306,-4.46786832809448,58.6220283508301,36.3487701416016,9.30386734008789,-2.50454759597778,-1.55098688602448,0.32070425152779,2.73056769371033,2.16490650177002,1.46424400806427,2.42293214797974,-7.97269153594971,-12.1002950668335,5.51145219802856,5.95916795730591,-0.48602294921875,-2.20644521713257,1.89979088306427,5.03658390045166,-30.2770748138428,-20.9516582489014,-8.45632076263428,0.10812314599752,0.22846360504627,0.06291911751032,-1.6511687040329,-2.87167739868164,-2.39581346511841,14.8991174697876,30.150182723999,30.7295780181885,2.32716393470764,1.39581954479218,-5.4252610206604,-3.14045810699463,-5.35606670379639,-5.59124946594238,11.5568113327026,-1.47482824325562,-6.31111574172974,SHAKE
1.53876960277557,1.554652094841,0.76785761117935,-0.11239920556545,-0.69516462087631,-0.66278880834579,-11.990161895752,-9.5217399597168,-0.72783732414246,-6.29435634613037,-7.80988597869873,-4.7213659286499,6.80626058578491,6.56924486160278,2.54181027412415,13.4745674133301,45.1833763122559,40.541015625,-1.35245561599731,-2.42574596405029,-2.18201065063477,0.94134336709976,2.72995686531067,2.53509068489075,20.0059490203857,7.96790313720703,-2.827552318573,-2.80361008644104,1.71664261817932,4.70700073242188,-5.30964088439941,-3.66213703155518,0.08307767659426,-17.7625827789307,-32.6880340576172,-29.5707855224609,2.33167266845703,1.19179809093475,0.44226643443108,-0.75991636514664,-1.04824471473694,-2.31517934799194,-7.5273699760437,3.95282697677612,22.373815536499,-10.979808807373,-5.71017122268677,2.06619596481323,6.69325065612793,-2.64077043533325,-5.6926531791687,60.7432899475098,30.2603149414063,7.79791498184204,-2.23271250724792,-0.19486601650715,1.79227864742279,2.36771368980408,1.66216433048248,1.01403629779816,-1.67833542823792,-11.7100400924683,-14.4298534393311,9.49300956726074,7.85776996612549,-0.34715923666954,-0.45814892649651,4.06164312362671,6.73051309585571,-35.6448745727539,-22.2229804992676,-4.24013137817383,-0.3158173263073,-0.16920967400074,0.11178833991289,-1.95293617248535,-2.54425382614136,-1.32557761669159,17.8104667663574,31.6034622192383,30.0424423217773,-1.56101953983307,3.21301865577698,-2.61925673484802,-4.49230289459229,-5.52710866928101,-5.59063863754272,9.79707336425781,-0.651222884655,-3.67270541191101,SHAKE
1.51800012588501,1.80083072185516,1.00181901454926,1.39827048778534,-0.48808133602142,-0.84055060148239,-12.0500173568726,-11.7890491485596,-7.36217021942139,-6.72531270980835,-10.9869918823242,-8.2504186630249,7.38108491897583,7.85511636734009,5.49045705795288,3.88818359375,30.4398803710938,54.3100700378418,-0.43615779280663,-1.89734745025635,-2.23698854446411,-0.73853605985641,2.12031316757202,2.78737807273865,27.5309257507324,13.5009031295776,-2.54743051528931,-4.8410758972168,-0.24181437492371,3.71101260185242,-6.38965034484863,-4.81911611557007,-0.63346725702286,-16.9126415252686,-35.3743286132813,-34.009635925293,1.01525807380676,0.33353242278099,-0.08796459436417,-1.12704634666443,-1.53693699836731,-2.82219743728638,-8.13789176940918,6.36378812789917,23.5972518920898,-6.46913290023804,-3.32554626464844,0.13168109953403,5.35484457015991,-1.36222946643829,-5.19418716430664,58.32275390625,27.7176723480225,4.41251373291016,-1.27915179729462,-1.02503192424774,0.32009339332581,2.74889349937439,2.38909387588501,2.29196643829346,-1.27850365638733,-12.4905500411987,-13.1992340087891,-0.53630119562149,1.32878196239471,-0.72304892539978,4.11051225662231,6.46112155914307,7.59610939025879,-12.3828115463257,1.76213240623474,34.1987762451172,0.56382864713669,0.0250454749912,-0.93523466587067,-2.35610723495483,-0.68355822563171,1.56625843048096,31.5460014343262,24.8566017150879,12.8879880905151,0.43095630407333,-4.81952810287476,-2.79642748832703,-5.95532512664795,-5.7891697883606,-5.15936803817749,-3.84269380569458,-10.7643308639526,-25.9651165008545,SHAKE
1.60840821266174,1.73974418640137,0.89736104011536,1.31030595302582,-0.37079519033432,-0.53878313302994,-9.21767616271973,-8.50899314880371,-6.3470287322998,-4.74051952362061,-9.12909126281738,-7.71172380447388,6.27419710159302,8.06586456298828,7.24425077438354,-8.64785671234131,13.7666597366333,59.2588844299316,-0.08185594528913,-1.81854581832886,-1.77395272254944,-1.41537475585938,2.87351012229919,2.52287340164185,26.6570415496826,5.73171901702881,-3.39018964767456,-2.57855534553528,-2.0829553604126,0.4955997467041,-6.08299589157104,-4.65112781524658,-0.9950994849205,-12.5049152374268,-29.4630470275879,-36.4038352966309,0.71349060535431,0.30848693847656,0.17409659922123,-1.54487824440002,-1.69515109062195,-3.07326292991638,-9.69651699066162,-1.65678763389587,15.3540153503418,-7.03416442871094,-3.96719217300415,5.564124584198,7.52647066116333,0.83993971347809,-4.2546763420105,59.3402900695801,42.2073822021484,12.3373212814331,-1.61512768268585,-0.80206608772278,0.70249503850937,3.05188274383545,2.57296442985535,1.97004044055939,6.30393314361572,-4.78361511230469,-9.79946708679199,3.28963303565979,4.503493309021,0.80684596300125,-2.82952785491943,0.89919364452362,4.31454133987427,-29.7168312072754,-25.3617782592773,-16.7570171356201,0.5589417219162,0.43371433019638,0.44776421785355,-0.75258600711823,-2.17468023300171,-3.04821753501892,5.17626428604126,24.0186309814453,29.5013542175293,-2.89219570159912,-1.41736745834351,-5.63595056533813,-2.13314151763916,-5.61629486083984,-6.0206880569458,23.3674087524414,1.24977326393127,-3.40694904327393,SHAKE
1.30725157260895,2.42574596405029,1.71958565711975,2.25775790214539,-0.26450464129448,-1.2889256477356,-14.9613666534424,-12.8520746231079,-7.9846625328064,-3.94325017929077,-12.7299699783325,-12.0308637619019,6.35360956192017,7.19721412658691,5.01886892318726,1.67354702949524,28.8884372711182,55.6244888305664,-0.73426002264023,-1.37689030170441,-1.86863672733307,0.09162978827953,2.49843883514404,3.04638504981995,27.1071510314941,14.7650423049927,-0.1723825186491,0.70628952980042,-1.21146607398987,2.87304210662842,-5.60713195800781,-3.85944652557373,-0.25839599967003,-17.7961006164551,-30.3656597137451,-29.3672771453857,1.34817957878113,0.52351152896881,-0.22724187374115,-1.13559854030609,-1.92972326278687,-2.43368721008301,-7.0126166343689,7.92241334915161,30.6481761932373,-8.73404788970947,-4.87698888778687,0.47884035110474,4.02499103546143,-6.05672883987427,-5.88568687438965,57.8415184020996,-5.20020627975464,-12.7299699783325,1.61818206310272,3.39274549484253,2.77760434150696,1.26388013362885,0.06536258012056,-0.57665681838989,-16.6109714508057,-18.0307331085205,-13.6924390792847,-1.5179238319397,-13.3452806472778,-15.6437139511108,3.84600758552551,5.5093936920166,6.27175331115723,-8.97586250305176,4.62320327758789,30.4350929260254,-0.87292641401291,-0.14294247329235,-0.70860368013382,-1.23394775390625,0.68539083003998,2.2033908367157,35.819652557373,25.2372798919678,10.060435295105,10.0795888900757,1.76213240623474,0.39983168244362,-5.27665376663208,-4.86676359176636,-3.04516315460205,-6.36378812789917,-16.8527851104736,-26.4702930450439,SHAKE
3.39274549484253,2.77760434150696,0.78801614046097,0.06536258012056,-0.57665681838989,-0.37995818257332,-18.0307331085205,-13.6924390792847,-3.49792861938477,-13.3452806472778,-15.6437139511108,-9.56483554840088,5.5093936920166,6.27175331115723,4.25834178924561,4.62320327758789,30.4350929260254,49.394775390625,-0.14294247329235,-0.70860368013382,-0.85948741436005,0.68539083003998,2.2033908367157,2.77638244628906,25.2372798919678,10.060435295105,-4.17309379577637,1.76213240623474,0.39983168244362,1.94648599624634,-4.86676359176636,-3.04516315460205,0.07330382615328,-16.8527851104736,-26.4702930450439,-26.2117195129395,0.64629542827606,-0.71593403816223,-1.36039686203003,-0.71104717254639,-1.24249994754791,-2.28219246864319,-7.53694677352905,11.0995187759399,34.442985534668,-10.3285865783691,-1.36948335170746,6.7851676940918,5.10805511474609,-1.41232049465179,-5.25344133377075,53.9246063232422,19.8431434631348,-0.91937345266342,-0.44470989704132,1.30602991580963,2.64443564414978,2.953533411026,1.86252808570862,0.42577308416367,-5.47075080871582,-16.620548248291,-17.8487739562988,4.5226469039917,-4.70460653305054,-13.5080862045288,0.25839599967003,3.60838103294373,6.08971548080444,-22.3953628540039,-9.59117221832275,5.87297677993774,-0.28466320037842,-0.11301007121801,-1.09955739974976,-2.38542866706848,-1.23700213432312,1.32618844509125,35.5610771179199,37.8858489990234,25.1343288421631,5.96635055541992,1.3910311460495,-0.86191260814667,-5.53443908691406,-5.3469033241272,-3.91198110580444,-0.62009823322296,-9.720458984375,-18.564640045166,SHAKE
2.34816598892212,1.61696028709412,0.15393804013729,-0.03970624133945,-0.91568702459335,-0.94073247909546,-16.1848030090332,-12.471396446228,-4.26646757125854,-11.6573677062988,-14.3484506607056,-8.36294651031494,5.80627393722534,6.36827039718628,3.27301597595215,3.32554626464844,28.2372150421143,51.6333541870117,-0.71349060535431,-1.25227379798889,-0.45509460568428,-0.07941248267889,1.98653376102448,2.23393416404724,26.671407699585,11.1761331558228,-3.14837527275085,1.17315888404846,3.98634576797485,7.25443124771118,-4.70549488067627,-2.4367413520813,1.19546329975128,-16.8049011230469,-27.8541431427002,-26.7288684844971,-0.10873401165009,-0.53084188699722,-0.03481931984425,-0.07696902006865,-0.81367248296738,-1.26449108123779,-10.0819835662842,4.15393972396851,28.7830924987793,-4.75249052047729,1.42455005645752,3.76607918739319,5.65172529220581,-1.15025925636292,-5.6236252784729,60.5517539978027,38.1420288085938,10.7978496551514,-3.40740633010864,-2.73606538772583,-0.48685958981514,2.2168300151825,1.45080494880676,0.67806041240692,0.47884035110474,-12.9310836791992,-20.1519966125488,0.74699091911316,7.52018737792969,2.56179571151733,-1.91750597953796,1.96515345573425,4.88631105422974,-30.6793003082275,-21.5669689178467,-6.21055936813354,0.53145277500153,-0.35246923565865,-1.32374501228333,-0.75808376073837,-1.67926859855652,-1.15514612197876,18.9572887420654,37.888240814209,37.1939239501953,-2.58573794364929,-1.2258312702179,1.29047477245331,-3.55401396751404,-5.96387720108032,-5.6816577911377,16.6827983856201,-3.2082302570343,-12.56955909729,SHAKE
-0.20036379992962,1.20768058300018,1.78250479698181,0.63468897342682,-0.16554448008537,-0.67378437519073,-15.7658185958862,-17.1736087799072,-12.9813613891602,1.68312382698059,-2.31040453910828,-3.05260705947876,2.88939261436462,3.66458058357239,4.55400037765503,-3.61285042762756,-1.47482824325562,21.9332809448242,-1.51922190189362,-2.09038090705872,-2.08182883262634,-0.66095620393753,0.77274453639984,1.59008228778839,35.151668548584,20.7984294891357,5.54018259048462,2.45405673980713,3.92888498306274,5.43244361877441,-4.58759784698486,-3.6658022403717,-1.53143918514252,-10.1633863449097,-21.547815322876,-31.8309116363525,1.68293380737305,1.09222710132599,0.10445795953274,0.30543261766434,0.22235494852066,-0.28466320037842,-11.3126029968262,7.74524259567261,31.2299671173096,-5.58806657791138,-5.7819972038269,0.90500825643539,5.20029592514038,0.25778514146805,-4.40311670303345,47.2783012390137,24.037784576416,-2.4205379486084,-1.30725157260895,-0.40317106246948,0.65240406990051,1.59557998180389,0.19181168079376,-0.10629054903984,0.72783732414246,-11.7244052886963,-17.4106349945068,3.59848523139954,1.67594122886658,-2.94007968902588,-0.8784242272377,2.86068201065063,5.39455080032349,-30.4542465209961,-13.5966711044312,2.84910011291504,0.50029861927032,-1.87718892097473,-2.63832688331604,-1.44958317279816,-1.07267940044403,1.09100532531738,33.8923187255859,38.5610122680664,25.711332321167,-5.66707563400269,1.07739078998566,7.41484260559082,-5.05857515335083,-4.90646982192993,-4.14655351638794,-1.16597628593445,-6.62954473495483,-17.7027282714844,SHAKE
-1.16064393520355,0.55038958787918,2.05189633369446,1.1844676733017,0.94928461313248,0.42882740497589,-4.19464159011841,-15.4282360076904,-17.1233310699463,7.52018737792969,4.76685571670532,-2.79882168769836,2.29929685592651,6.06100511550903,5.6816577911377,-25.8166770935059,7.14669227600098,39.8251495361328,0.34086281061172,-1.8057177066803,-3.1435124874115,-1.46057879924774,1.41659653186798,2.5057692527771,37.4764404296875,22.7592811584473,7.20175886154175,-8.93994903564453,-7.18260526657104,2.60010313987732,-5.49106788635254,-4.55033540725708,-2.2467622756958,-7.80988597869873,-17.2382526397705,-36.1644172668457,1.53143918514252,1.44042026996613,1.55831718444824,-0.02932153269649,-0.10873401165009,-0.54550266265869,-19.1320667266846,-11.0420579910278,12.279860496521,-1.26892685890198,0.02633621916175,-0.22026655077934,2.81975388526917,-3.68351745605469,-6.00785970687866,53.9724884033203,17.6309013366699,0.78769236803055,-2.97124862670898,-2.17956709861755,0.20402899384499,0.23212879896164,-0.41783183813095,-0.75441855192184,-6.33745193481445,-17.8248310089111,-18.8375797271729,4.35744714736938,13.057975769043,9.2440128326416,1.52716314792633,5.13065719604492,5.90462350845337,-26.9227981567383,-3.09091448783875,11.8800287246704,0.65484756231308,-0.76358157396317,-2.12458920478821,-0.7189884185791,-0.03176499158144,1.1979067325592,35.7310676574707,35.5155868530273,21.9668006896973,-2.86825370788574,-4.95360326766968,-1.15400516986847,-4.82583522796631,-4.90585899353027,-4.09462976455688,-0.77093297243118,-7.82425117492676,-20.2525520324707,SHAKE
-2.17956709861755,0.20402899384499,1.92911243438721,-0.41783183813095,-0.75441855192184,-0.49174651503563,-17.8248310089111,-18.8375797271729,-15.7562417984009,13.057975769043,9.2440128326416,0.53869539499283,5.13065719604492,5.90462350845337,5.11049842834473,-3.09091448783875,11.8800287246704,33.1046257019043,-0.76358157396317,-2.12458920478821,-2.36832451820374,-0.03176499158144,1.1979067325592,1.61696028709412,35.5155868530273,21.9668006896973,7.60637903213501,-4.95360326766968,-1.15400516986847,4.95360326766968,-4.90585899353027,-4.09462976455688,-1.63589715957642,-7.82425117492676,-20.2525520324707,-33.0447731018066,1.68965327739716,1.67743599414825,1.79166781902313,-0.02565634064376,0.31276300549507,-0.64568454027176,-15.0714998245239,-2.76530289649963,21.5406322479248,-0.39264908432961,1.15879356861115,-0.8164227604866,5.72625064849854,1.0690141916275,-5.84170436859131,44.089225769043,37.2609596252441,-3.07894349098206,-2.77882599830627,0.53023105859756,3.54668354988098,1.02319931983948,1.29992127418518,0.7367035150528,-14.111424446106,-17.851167678833,-16.098611831665,18.7154750823975,14.839262008667,-1.37427175045013,5.00054311752319,5.82948684692383,4.99565601348877,-0.19393034279346,12.5791358947754,25.1199645996094,-0.03543018549681,-2.41352868080139,-3.23575329780579,-0.77335542440414,-0.34086281061172,0.25717425346375,35.9393615722656,23.2381210327148,8.02536392211914,-16.9102458953857,-5.71017122268677,-0.82839381694794,-5.4024920463562,-5.03841638565063,-2.9236011505127,-3.96958637237549,-20.4345111846924,-34.2251129150391,SHAKE
-3.48437547683716,-3.15084290504456,-1.29992127418518,-0.47158795595169,-0.61330872774124,0.25350907444954,-7.97747993469238,-17.7817363739014,-17.6739978790283,6.56250667572021,13.8528509140015,17.1233310699463,1.39704883098602,5.36339664459229,6.37193536758423,-25.3354415893555,-1.05823719501495,14.8368682861328,1.75318324565887,-0.94256508350372,-3.2992832660675,-0.68661254644394,-0.40989059209824,0.67134088277817,36.3056755065918,36.1596298217773,21.8901863098145,-14.7722244262695,-10.5512466430664,2.14041638374329,-5.22961759567261,-5.2949800491333,-4.55888748168945,-1.07739078998566,-7.55370616912842,-20.2956485748291,0.97860610485077,3.14717769622803,2.66092896461487,0.28710666298866,0.58704149723053,-0.1991420686245,-17.5183734893799,-0.54587799310684,24.9882831573486,7.39568901062012,-6.08606052398682,-5.8131217956543,5.80932855606079,0.8533787727356,-4.25406551361084,51.3197135925293,31.2012367248535,4.91290187835693,-2.05861592292786,-1.3322970867157,-0.38240164518356,0.49235737323761,-0.73731434345245,-0.21563543379307,2.55221891403198,-14.4083061218262,-21.9548301696777,2.30801033973694,3.31836366653442,5.08049583435059,-0.16982053220272,4.73237323760986,6.95653343200684,-37.8666954040527,-18.9141941070557,6.13873338699341,1.3011429309845,-0.23701570928097,-2.19422793388367,-1.4611896276474,-1.09772479534149,0.91935217380524,33.8971061706543,42.5569343566895,31.347282409668,-1.65918183326721,-6.69897651672363,-1.27371525764465,-5.19418716430664,-5.65844488143921,-5.46296787261963,3.24653744697571,-1.30005156993866,-14.2838077545166,SHAKE
1.59557998180389,2.49294114112854,2.36099410057068,-0.00305432616733,-0.14294247329235,-0.03543018549681,-18.6532249450684,-16.5175971984863,-10.0652236938477,3.22020125389099,-1.14921677112579,-0.44292730093002,6.8404688835144,5.89973640441895,3.10991501808167,12.1122665405273,27.1287002563477,51.2885894775391,-2.54181027412415,-3.97551107406616,-3.95657420158386,0.16249015927315,1.65910995006561,1.61879289150238,29.1518001556396,10.2040872573853,-5.4252610206604,-6.78995609283447,0.62967503070831,11.1881046295166,-5.49900913238525,-3.63159394264221,0.58887410163879,-14.6118125915527,-32.439037322998,-35.0319595336914,3.10930418968201,1.9657644033432,0.97188657522202,-0.23457226157188,-0.33658674359322,-0.97127574682236,-13.4721727371216,9.82101535797119,39.3032150268555,-7.95593214035034,-6.28477954864502,0.16759411990643,4.07996892929077,-2.35427474975586,-5.42570495605469,52.7442626953125,18.9932022094727,0.87148940563202,-2.22171688079834,-0.69394290447235,0.88086766004562,1.88146495819092,0.82527893781662,-0.16126842796803,-4.99191045761108,-16.3021202087402,-18.8088493347168,5.53299999237061,3.73974299430847,-0.11252748221159,0.41233405470848,4.24245929718018,6.10559797286987,-27.7655563354492,-10.4075946807861,5.17147588729858,1.77089834213257,1.57664322853088,-0.80145519971848,-1.53632605075836,-1.9779816865921,-0.20830504596233,34.7231063842773,41.1730880737305,31.4813575744629,0.82599955797195,-13.6110363006592,-13.9581956863403,-4.48985958099365,-5.59002780914307,-5.70059442520142,5.97592735290527,-0.67995327711105,-10.5919485092163,SHAKE
-3.18077540397644,0.50946164131165,1.98531210422516,-0.00366519158706,0.15210545063019,0.88880890607834,-5.79875659942627,-15.3923225402832,-16.5774517059326,15.9836902618408,9.96227359771728,5.22414827346802,3.13679313659668,5.3194146156311,5.97059679031372,-18.3874683380127,-2.10929179191589,13.0891008377075,1.14720487594604,-1.67621421813965,-3.43978214263916,-1.37933373451233,-0.37018433213234,0.82650065422058,37.8212051391602,35.1923713684082,21.4879608154297,-16.1057949066162,-12.9119300842285,-0.06943184882402,-5.31391668319702,-4.26078510284424,-1.51494586467743,1.84353530406952,-19.9006042480469,-33.8372535705566,2.39825701713562,3.46666026115417,3.31455492973328,0.73914694786072,-0.15393804013729,-0.89736104011536,-16.9724960327148,-5.04218864440918,22.9149036407471,5.70538282394409,-2.1978771686554,-8.77235507965088,5.32063627243042,-0.40744712948799,-5.04513597488403,48.6046905517578,38.256950378418,7.55131196975708,-3.55645751953125,-0.20769418776035,2.14902400970459,1.72691607475281,1.22111964225769,1.25166285037994,2.03507137298584,-19.5031661987305,-19.8239898681641,8.06127738952637,10.5847654342651,4.28562116622925,3.38602614402771,5.69815111160278,6.68042230606079,-17.9373588562012,-3.65834021568298,6.9623384475708,1.30297553539276,0.34819319844246,-1.38422060012817,-1.78128302097321,-1.19240891933441,1.57114541530609,36.6408615112305,40.0166854858398,24.8996982574463,-3.15316367149353,-7.75242519378662,-1.88902509212494,-5.62545824050903,-5.52649784088135,-4.76963567733765,-1.43412685394287,-6.4667387008667,-13.1513500213623,SHAKE
0.0,0.12705996632576,1.09344875812531,0.44348818063736,0.36041048169136,-0.1924225538969,-19.1392478942871,-17.5518932342529,-13.072340965271,-1.80043971538544,3.81396341323853,5.56891298294067,6.3358941078186,7.28029203414917,5.9315013885498,0.33039984107018,20.9803886413574,53.1560668945313,-0.28221973776817,-2.55830359458923,-3.07631731033325,-0.46364670991898,1.84664559364319,2.04212260246277,33.8611946105957,18.4592952728271,3.79241538047791,-12.1433906555176,-3.65115761756897,1.95845699310303,-5.67677068710327,-4.79101610183716,-2.43063282966614,-9.20809936523438,-21.2437515258789,-35.1540641784668,2.29746413230896,2.34755516052246,1.95415794849396,-0.21502456068993,-0.66523224115372,-1.35795342922211,-15.7203283309937,-5.31033945083618,19.1847381591797,-3.44286203384399,-4.38138914108276,-1.57299053668976,7.40307569503784,2.70735478401184,-3.78736448287964,53.9629135131836,47.6350364685059,11.417947769165,-2.10504174232483,-1.57847583293915,-0.22724187374115,2.33228349685669,1.7012597322464,1.22600650787354,8.50659847259521,-5.55933618545532,-16.34521484375,3.39018964767456,5.77002620697021,4.08929634094238,0.60292398929596,4.61936283111572,6.44462823867798,-28.0600433349609,-8.63109683990479,4.82192230224609,0.63835418224335,-0.7611380815506,-2.57540798187256,-1.5534303188324,-0.68477994203568,2.03723549842834,30.7104244232178,30.4901580810547,14.2455005645752,0.15801730751991,-5.79636240005493,0.54827219247818,-5.61751699447632,-5.55887365341187,-4.31576299667358,-3.06697249412537,-14.15452003479,-27.655424118042,SHAKE
-1.57847583293915,-0.22724187374115,2.37687659263611,1.7012597322464,1.22600650787354,-0.10140363126993,-5.55933618545532,-16.34521484375,-17.1017818450928,5.77002620697021,4.08929634094238,-8.77235507965088,4.61936283111572,6.44462823867798,7.21187496185303,-8.63109683990479,4.82192230224609,28.7854862213135,-0.7611380815506,-2.57540798187256,-3.04210901260376,-0.68477994203568,2.03723549842834,2.58823609352112,30.4901580810547,14.2455005645752,-0.84754741191864,-5.79636240005493,0.54827219247818,6.10281991958618,-5.55887365341187,-4.31576299667358,-1.37994456291199,-14.15452003479,-27.655424118042,-32.9083023071289,2.3347270488739,1.66705119609833,1.14537239074707,-0.58887410163879,-0.83688539266586,-1.94255149364471,-10.6805334091187,6.44279670715332,29.5516319274902,-7.66144561767578,-3.84987640380859,-3.33512306213379,5.99930763244629,-0.60597831010818,-4.75436401367188,59.1750907897949,21.8686389923096,2.20266556739807,-2.75744581222534,-0.66645395755768,1.65483391284943,2.71040916442871,1.88451933860779,1.12399208545685,2.07577276229858,-9.5600471496582,-17.1568489074707,6.00465774536133,8.14028549194336,0.23702596127987,-0.51068335771561,4.38784503936768,6.99379634857178,-38.5298881530762,-21.7178039550781,-1.78128612041473,0.6444628238678,-0.58826321363449,-2.67375707626343,-2.2724187374115,-0.70188415050507,2.53325819969177,38.8674697875977,36.7940902709961,20.7768821716309,-2.1284453868866,-10.0580415725708,-3.38540124893188,-6.60711860656738,-5.05368804931641,-1.96942949295044,-0.04070143029094,-22.6826667785645,-34.835636138916,SHAKE
