gyro_x_0,gyro_y_0,gyro_z_0,acc_x_0,acc_y_0,acc_z_0,gyro_x_1,gyro_y_1,gyro_z_1,acc_x_1,acc_y_1,acc_z_1,gyro_x_2,gyro_y_2,gyro_z_2,acc_x_2,acc_y_2,acc_z_2,gyro_x_3,gyro_y_3,gyro_z_3,acc_x_3,acc_y_3,acc_z_3,gyro_x_4,gyro_y_4,gyro_z_4,acc_x_4,acc_y_4,acc_z_4,gyro_x_5,gyro_y_5,gyro_z_5,acc_x_5,acc_y_5,acc_z_5,gyro_x_6,gyro_y_6,gyro_z_6,acc_x_6,acc_y_6,acc_z_6,gyro_x_7,gyro_y_7,gyro_z_7,acc_x_7,acc_y_7,acc_z_7,gyro_x_8,gyro_y_8,gyro_z_8,acc_x_8,acc_y_8,acc_z_8,gyro_x_9,gyro_y_9,gyro_z_9,acc_x_9,acc_y_9,acc_z_9,gyro_x_10,gyro_y_10,gyro_z_10,acc_x_10,acc_y_10,acc_z_10,gyro_x_11,gyro_y_11,gyro_z_11,acc_x_11,acc_y_11,acc_z_11,gyro_x_12,gyro_y_12,gyro_z_12,acc_x_12,acc_y_12,acc_z_12,gyro_x_13,gyro_y_13,gyro_z_13,acc_x_13,acc_y_13,acc_z_13,gyro_x_14,gyro_y_14,gyro_z_14,acc_x_14,acc_y_14,acc_z_14,motion_type
-2.79688739776611,-3.38813757896423,-3.64347505569458,2.08695006370544,2.03400015830994,-0.39405003190041,-1.10206246376038,-1.43673753738403,-1.85336244106293,-0.04042499884963,-0.16266250610352,-0.19923749566078,2.41800022125244,1.55895006656647,-0.00705000013113,7.62900018692017,7.9980001449585,7.56900024414063,-4.7100625038147,-4.88234996795654,-4.76506233215332,-1.7940000295639,-2.83395004272461,-4.70295000076294,-2.34451246261597,-0.30676248669624,0.93706250190735,-0.77838748693466,0.77563750743866,2.75357508659363,-9.1360502243042,-13.8979511260986,-14.0110502243042,12.3220510482788,15.5209503173828,16.7959499359131,10.5784254074097,14.0358619689941,17.1683864593506,-22.4230518341064,-17.9340000152588,-14.4259510040283,-0.95177501440048,2.27480006217957,6.1403374671936,-2.59146237373352,-3.91943740844727,-5.5075626373291,-55.4650535583496,-51.0409507751465,-18.0190505981445,13.5589504241943,18.5359516143799,6.81495046615601,6.41244983673096,5.23586225509644,2.72167491912842,22.6369514465332,23.9719505310059,24.1210517883301,0.87958747148514,0.59125000238419,0.0671000033617,2.44694995880127,1.23378753662109,0.3920125067234,0.12105000764132,0.74100005626678,1.34805011749268,4.69305038452148,2.81205010414124,2.42895007133484,0.10711249709129,-0.27403751015663,-0.55137497186661,13.7400007247925,12.538950920105,10.9570503234863,-0.64872497320175,-0.55715000629425,-0.42638748884201,1.17631244659424,0.94421249628067,0.42872500419617,1.17599999904633,1.50195002555847,2.24805021286011,8.2369499206543,9.0100507736206,9.70095062255859,SWING_LEFT
-4.71982479095459,-4.95811223983765,-5.04721260070801,-0.69000005722046,-2.16405010223389,-3.37005019187927,-1.63597500324249,-1.59431254863739,-1.64697504043579,1.01750004291534,0.62658751010895,0.10491249710321,-3.73800015449524,-5.26905012130737,-6.85395050048828,8.53095054626465,8.83995056152344,9.153000831604,-3.94776248931885,-3.14751243591309,-1.79987502098084,-7.92405033111572,-9.38895034790039,-11.2930507659912,0.82829999923706,1.72259998321533,2.24908757209778,2.26861238479614,3.46335005760193,2.8110499382019,-11.497950553894,-13.2690010070801,-16.8299999237061,14.2669506072998,15.3340511322021,15.5520009994507,13.8110494613647,17.4700622558594,20.1249122619629,-25.2820510864258,-19.6249504089355,-9.35295009613037,1.62112498283386,4.11097478866577,5.13727474212646,-0.82238751649857,-1.5859249830246,-3.82538747787476,-59.0209541320801,-38.169002532959,-12.2140502929688,4.93005037307739,15.7339506149292,11.3260507583618,3.44726252555847,2.5029125213623,0.54944998025894,20.6149501800537,23.826000213623,18.7510509490967,0.45319998264313,-0.45814999938011,-0.63414996862411,1.39383745193481,0.37619999051094,0.82445001602173,2.26005005836487,2.4250500202179,2.21205019950867,2.16795015335083,3.87000012397766,5.5620002746582,-0.73466247320175,-0.55494999885559,-0.2398000061512,7.19295024871826,4.79595041275024,3.22800016403198,-0.32752498984337,-0.31886249780655,-0.28228750824928,0.04509999975562,-0.42405000329018,-0.59633749723434,2.05200004577637,2.53995013237,2.7529501914978,9.37305068969727,9.41400051116943,9.55500030517578,SWING_LEFT
-3.80723738670349,-3.79747486114502,-4.0613374710083,-3.19605016708374,-2.58300018310547,-1.57800006866455,-2.77818751335144,-2.63161253929138,-1.70060002803802,-0.61957502365112,-0.11137499660254,0.59235000610352,-5.67405033111572,-6.68100023269653,-6.33900022506714,8.82299995422363,13.1730003356934,16.0020008087158,-1.68272495269775,-0.59166252613068,0.31611248850822,-7.58895015716553,-7.48605012893677,-6.71595048904419,1.34997498989105,0.95534998178482,0.65972501039505,3.12248754501343,3.37782502174377,3.11396241188049,-10.6249504089355,-12.9310503005981,-14.0560503005981,8.66805076599121,7.12905025482178,8.05695056915283,10.0689878463745,14.1470994949341,19.5164756774902,-26.2300510406494,-25.7059516906738,-3.65805006027222,2.46661257743835,4.90146255493164,4.99922513961792,0.57887500524521,-2.20659995079041,-4.38968753814697,-53.1750030517578,-33.6330032348633,-14.3119506835938,7.23405027389526,12.5920505523682,5.15505027770996,3.51573753356934,1.67461252212524,1.23475003242493,24.4870510101318,19.2580509185791,16.4560508728027,-0.02199999988079,-0.3091000020504,-0.29205000400543,1.02368748188019,0.94668751955032,1.03949999809265,2.11199998855591,1.72905004024506,1.17599999904633,3.09195017814636,4.82505035400391,7.8870005607605,-0.21422499418259,-0.45732501149178,-0.59289997816086,6.56595039367676,6.07605028152466,5.5009503364563,-0.45567500591278,-0.44591251015663,-0.39462500810623,-0.40081250667572,-0.12361250072718,0.05719999969006,2.02605009078979,2.13600015640259,1.95900011062622,9.37604999542236,9.28995037078857,9.66495037078857,SWING_LEFT
-4.68324995040894,-5.4064998626709,-5.75588750839233,5.66400003433228,3.31005024909973,0.14400000870228,-1.69207501411438,-2.06112504005432,-2.35798740386963,1.27902495861053,1.67117500305176,1.6356999874115,0.0709500014782,-1.99095010757446,-5.23605012893677,5.91300010681152,5.63100004196167,5.86305046081543,-6.11875009536743,-5.74612474441528,-4.7711124420166,-4.85205030441284,-7.07895040512085,-9.80505084991455,-1.0225875377655,0.68406248092651,0.92729997634888,0.42625001072884,1.71751248836517,1.74693751335144,-10.7250003814697,-9.62700080871582,-11.2440004348755,13.5439510345459,14.5849504470825,12.7140007019043,9.81736278533936,15.0083999633789,17.1133880615234,-18.0559501647949,-11.9730005264282,-7.58700037002563,3.4684374332428,3.84958744049072,3.51243758201599,-1.67145001888275,-1.60545003414154,-2.51570010185242,-44.6730003356934,-32.9170532226563,-14.3430004119873,9.33795070648193,7.27995014190674,4.36995029449463,3.91159987449646,2.72896242141724,1.22374999523163,24.8580017089844,22.7040004730225,16.2049503326416,0.47891250252724,0.19415000081062,-0.40081250667572,1.55141246318817,0.82816249132156,0.3920125067234,0.41505002975464,1.27695000171661,1.74300003051758,4.82895040512085,4.44405031204224,6.52800035476685,-0.10793749988079,-0.01746249943972,0.03135000169277,9.42105007171631,6.27405023574829,5.90295028686523,-0.18081249296665,-0.20899999141693,-0.29686251282692,-0.26166251301765,-0.26042500138283,-0.13695000112057,2.00400018692017,2.36805009841919,2.36505007743835,9.3420000076294,8.9040002822876,8.32095050811768,SWING_LEFT
-2.5280749797821,-3.47118759155273,-4.38019990921021,5.29995012283325,5.58795022964478,4.72605037689209,-0.34938749670982,-0.62796247005463,-1.0922999382019,0.1379124969244,0.44453749060631,0.604587495327,3.61905026435852,2.10900020599365,-0.4240500330925,8.52405071258545,8.18205070495605,7.72200059890747,-6.28856229782104,-6.08932495117188,-5.46136236190796,-3.47100019454956,-5.58195018768311,-8.3929500579834,-0.54119998216629,0.30414998531342,1.05916249752045,0.73535001277924,1.05421245098114,1.47207498550415,-8.98305034637451,-9.6409502029419,-12.151050567627,13.2859506607056,14.881950378418,11.8090505599976,9.86122512817383,15.5043621063232,17.7974491119385,-15.6199502944946,-13.2030010223389,-8.33295059204102,3.47201251983643,5.08832502365112,3.74687504768372,-1.86697494983673,-1.14730000495911,-0.69657498598099,-45.7810516357422,-35.9899520874023,-8.94705009460449,10.0819501876831,13.498950958252,-4.89000034332275,5.35562515258789,3.47297501564026,1.76261246204376,24.5130004882813,26.0569515228271,25.5210018157959,0.76958751678467,0.27843749523163,-0.03918749839067,1.82022500038147,2.40666246414185,2.12437510490417,-0.69195002317429,-0.26805001497269,0.30495002865791,1.93605005741119,1.76595008373261,3.93900012969971,0.19016249477863,0.007012499962,-0.20556250214577,10.1010007858276,9.78000068664551,9.17895030975342,-0.63896250724792,-0.47286251187325,-0.40438750386238,0.06943749636412,-0.11866249889135,-0.16018749773502,1.16895008087158,1.36005008220673,1.87005007266998,8.40000057220459,9.80400085449219,9.67305088043213,SWING_LEFT
-0.24103750288486,-1.02300000190735,-2.25197505950928,2.26605010032654,4.92705011367798,6.57300043106079,-1.25592494010925,-1.65549993515015,-2.41298747062683,-0.13818749785423,0.4433000087738,2.10237503051758,5.36805009841919,4.04295015335083,-0.99795007705688,7.36305046081543,8.12700080871582,7.70595026016235,-6.44737482070923,-5.81817483901978,-5.19749975204468,-1.55400002002716,-7.02405023574829,-8.14695072174072,0.19786250591278,0.78677499294281,0.80258750915527,0.19415000081062,0.68516248464584,2.0963249206543,-10.4359502792358,-10.6339502334595,-13.921950340271,14.4199504852295,13.6590003967285,10.2540006637573,10.5234251022339,15.8769874572754,17.7743492126465,-17.5650005340576,-11.0209503173828,-5.04795026779175,4.42626237869263,4.89898729324341,5.04322481155396,-2.05259990692139,-2.15531253814697,-3.0494749546051,-46.501953125,-32.9479522705078,-16.1160011291504,5.87505006790161,5.77005004882813,4.389000415802,5.93106269836426,3.90183758735657,2.18033742904663,27.9540004730225,26.4870014190674,25.4749507904053,0.32120001316071,0.4629625082016,0.39696249365807,2.09013748168945,2.04256248474121,1.98508751392365,0.18300001323223,-0.33300000429153,0.34605002403259,1.03694999217987,3.21195006370544,3.38895010948181,-0.1567499935627,-0.60637497901917,-0.71995002031326,12.1990509033203,9.65100002288818,8.20995044708252,-0.50586247444153,-0.4325749874115,-0.4130499958992,0.09638749808073,-0.259187489748,-0.5157625079155,1.61205005645752,1.55895006656647,1.49400007724762,8.76600074768066,8.9239501953125,8.75100040435791,SWING_LEFT
-4.4522500038147,-4.04909992218018,-3.87557506561279,-3.61905026435852,-5.20305013656616,-5.55795049667358,-1.69455003738403,-1.37692499160767,-0.9675874710083,0.74758750200272,0.54106247425079,0.54834997653961,-3.85500025749207,-5.58795022964478,-7.35405015945435,10.9909505844116,11.2570505142212,11.4310503005981,-2.02716255187988,-0.63442498445511,1.01364994049072,-10.6710004806519,-12.6450004577637,-13.9380006790161,0.6182000041008,0.17833749949932,-0.21628749370575,0.03891250118613,0.24296249449253,0.1891999989748,-13.0030508041382,-13.9320011138916,-15.4819507598877,9.74400043487549,6.84900045394897,6.80805015563965,14.4219627380371,17.3772506713867,19.1168994903564,-17.9980506896973,-13.3489503860474,-3.82005023956299,4.19402503967285,3.22286248207092,1.32550001144409,-4.0257248878479,-3.75567507743835,-1.16077494621277,-43.8859519958496,-20.2830009460449,-1.6560001373291,-2.89200019836426,-3.61200022697449,-3.02805018424988,3.97746253013611,3.11492490768433,2.50538754463196,15.2410507202148,16.1449508666992,15.3750009536743,1.3084499835968,0.78429996967316,0.62177497148514,0.91973751783371,0.43724998831749,0.42377498745918,-2.5530002117157,-1.23000001907349,-0.88800007104874,5.17200040817261,5.21895027160645,5.94705009460449,0.57626247406006,0.82307499647141,0.86460000276566,8.24100017547607,6.49695014953613,6.80595016479492,-0.08071249723434,-0.1380500048399,-0.04276249930263,-0.32023748755455,-0.36671251058578,-0.45100000500679,0.5950500369072,0.23595000803471,0.69495004415512,7.12200021743774,7.81305027008057,8.65995025634766,SWING_LEFT
-3.95009994506836,-4.83463764190674,-5.72646236419678,1.51695013046265,-1.25295007228851,-3.79395008087158,-3.66877508163452,-3.27181243896484,-2.64261245727539,1.30955004692078,0.72916251420975,1.14950001239777,-7.80795049667358,-6.64305019378662,-7.81995058059692,7.37295055389404,13.9320011138916,15.247950553894,1.84566247463226,3.67578744888306,5.10386228561401,-18.256950378418,-16.0150508880615,-12.4680004119873,0.57777500152588,0.90530002117157,1.4745500087738,-0.174899995327,-0.61338752508163,-0.48757499456406,-17.1769504547119,-19.2559509277344,-21.2130012512207,11.0560503005981,9.92100048065186,10.4719505310059,12.5173120498657,15.6069374084473,17.4700622558594,-14.1739511489868,-11.9730005264282,-2.36295008659363,2.32856249809265,5.21661233901978,5.30461263656616,-1.71545004844666,-3.73491239547729,-3.24252510070801,-51.7990531921387,-38.9020500183105,-25.0519504547119,9.1200008392334,11.2830009460449,1.26405000686646,6.01892518997192,4.90723752975464,3.04040002822876,25.5880508422852,23.1439514160156,19.7629508972168,1.92774999141693,1.71641254425049,1.59431254863739,0.770687520504,1.28260004520416,1.09078752994537,-7.81500053405762,-6.57105016708374,-3.42405009269714,4.53299999237061,5.45205020904541,6.38505029678345,1.45103752613068,0.90612500905991,0.57254999876022,10.3450508117676,9.69600009918213,9.22500038146973,-0.10999999940395,-0.42391249537468,-0.55962496995926,-0.28118750452995,-0.18218749761581,-0.15647499263287,3.16200017929077,3.1189501285553,3.16500020027161,4.93905019760132,5.72895050048828,7.17405033111572,SWING_LEFT
-1.36867499351501,-2.15545010566711,-3.34179997444153,3.39600014686584,5.88705015182495,6.8730001449585,-0.72201251983643,-0.71472501754761,-0.84796249866486,2.2893750667572,2.69004988670349,2.0596125125885,2.15205001831055,-2.05305004119873,-4.40295028686523,9.24900054931641,8.60100078582764,7.93995046615601,-6.44737482070923,-6.31661224365234,-5.41860008239746,-3.31095004081726,-5.39205026626587,-9.07500076293945,-1.23516249656677,-1.01406252384186,-0.84796249866486,2.07308745384216,0.862399995327,0.61187499761581,-13.4910001754761,-15.6190509796143,-17.4400501251221,8.29200077056885,9.18900012969971,8.45700073242188,10.0164623260498,16.7382869720459,19.5640506744385,-18.1249504089355,-14.3629503250122,-8.23500061035156,2.99804997444153,3.60030007362366,3.82634997367859,-2.44117498397827,-2.2506000995636,-3.97072505950928,-62.3380546569824,-52.101001739502,-28.078950881958,5.45400047302246,6.49005031585693,5.46105003356934,6.00682497024536,4.86447477340698,4.83271265029907,27.1000518798828,19.0170001983643,16.4749507904053,0.19304999709129,0.95782500505447,1.47083747386932,2.02784991264343,2.24289989471436,1.810462474823,-4.16595029830933,-3.5029501914978,-2.62995004653931,5.98305034637451,10.4890508651733,9.32295036315918,2.06923747062683,1.46685004234314,1.09917497634888,17.9179515838623,15.5440511703491,13.6300506591797,0.35062500834465,0.07809999585152,-0.10271249711514,0.62534999847412,0.81963747739792,0.6876375079155,-0.06495000422001,0.32700002193451,0.55605000257492,5.28900003433228,5.55900049209595,6.43695020675659,SWING_LEFT
-1.5274875164032,-1.85982501506805,-2.25445008277893,0.29895001649857,0.2710500061512,0.26100000739098,-0.51067501306534,-0.46309998631477,-0.43738749623299,1.54659998416901,1.88979995250702,1.95098745822906,1.07805001735687,-0.2710500061512,-1.98900008201599,9.65295028686523,9.53595066070557,9.06494998931885,-4.97144985198975,-4.69053745269775,-3.55918741226196,-3.73395013809204,-6.26295042037964,-8.43405055999756,0.84534996747971,0.62548750638962,-1.0702999830246,0.3077250123024,-0.89072501659393,-0.14794999361038,-13.3840503692627,-12.9480009078979,-16.605001449585,7.20795011520386,7.33695030212402,4.42694997787476,12.7249374389648,18.8457508087158,20.1297245025635,-18.7399501800537,-11.1310501098633,-0.93900007009506,3.15191245079041,4.08897495269775,4.39078760147095,-3.26576256752014,-4.76849985122681,-5.05931234359741,-52.5439529418945,-35.4319534301758,-20.4910507202148,6.13305044174194,7.87605047225952,4.02104997634888,7.38361263275146,5.90411233901978,4.33551263809204,23.0770511627197,23.355001449585,24.8860511779785,1.64312493801117,0.97487497329712,0.48620000481606,0.99316251277924,1.82875001430511,1.35107493400574,-3.32205009460449,-1.75200009346008,-0.27795001864433,1.86705005168915,1.08195006847382,6.42105007171631,0.41139999032021,-0.02364999987185,-0.01622499898076,11.2990503311157,8.67705059051514,6.95400047302246,-0.36533749103546,-0.20033749938011,-0.11247500032187,-0.22247499227524,-0.08689999580383,0.12691250443459,0.85800004005432,0.63795000314713,0.67095005512238,9.20400047302246,9.04095077514648,9.04800033569336,SWING_LEFT
-0.18727499246597,-0.63566249608994,-1.14138746261597,2.14394998550415,1.68705010414124,1.7370001077652,0.37496250867844,-0.09899999946356,-0.98477500677109,-0.42405000329018,0.01333750039339,0.73039996623993,2.58300018310547,1.60395002365112,-0.22800001502037,9.44295024871826,6.64605045318604,4.24500036239624,-6.01975011825562,-6.08203744888306,-5.47002506256104,-0.77205002307892,-2.87505006790161,-7.15095043182373,0.05376249924302,0.46543750166893,0.90530002117157,0.90763747692108,-0.45828750729561,-0.00508749997243,-13.2190504074097,-13.6350002288818,-17.2600517272949,10.113000869751,10.0990505218506,8.95500087738037,10.0310373306274,15.0352125167847,17.3344879150391,-12.9970502853394,-10.6140003204346,-7.04400014877319,3.90816259384155,3.7725875377655,4.26002502441406,-3.21076250076294,-3.50638747215271,-3.76915001869202,-57.1000518798828,-51.2160034179688,-30.0810012817383,4.63800001144409,0.49605002999306,4.0639500617981,8.20215034484863,6.63478755950928,5.58524990081787,28.8730506896973,24.6019515991211,25.2670516967773,1.72136247158051,1.98893749713898,1.92774999141693,1.83122503757477,2.25513744354248,1.82998752593994,-5.99895048141479,-4.51800012588501,-2.30205011367798,1.732950091362,3.92205023765564,2.64195013046265,1.46451246738434,0.99041247367859,0.44549998641014,17.5090503692627,15.5350503921509,14.4409503936768,-0.77219998836517,-0.62438750267029,-0.23952500522137,0.5850625038147,0.50929999351501,0.36272498965263,0.6810000538826,0.54900002479553,0.14699999988079,5.45595026016235,8.5290002822876,8.95005035400391,SWING_LEFT
-0.10298749804497,-0.68942499160767,-2.94841241836548,3.15900015830994,3.91695022583008,6.58995008468628,0.28091248869896,0.38843750953674,0.04881250113249,1.70651245117188,0.41648748517036,-0.07342500239611,0.54405003786087,-1.93800008296967,-3.99405026435852,8.89995002746582,8.64795017242432,7.31295013427734,-5.87193727493286,-5.48212480545044,-3.77671241760254,-6.08400011062622,-7.90005016326904,-12.8940010070801,3.73353743553162,3.94116258621216,3.23991250991821,1.75546252727509,2.42371249198914,1.94603753089905,-13.5919504165649,-16.9950008392334,-22.2520503997803,16.7080516815186,13.4440507888794,9.24900054931641,16.0943756103516,19.3674240112305,21.4406490325928,-16.8930015563965,-12.4710006713867,-2.59305024147034,0.11357499659061,0.18081249296665,3.03833746910095,1.63088750839233,2.5482873916626,0.60211247205734,-63.4890022277832,-48.1840515136719,-22.3309516906738,0.8400000333786,10.2490501403809,25.8010520935059,6.9889874458313,6.17292499542236,5.6451997756958,28.1410522460938,18.6389999389648,19.6099510192871,1.22292494773865,1.20449995994568,0.95534998178482,0.79763752222061,1.83727502822876,1.23378753662109,-5.69505023956299,-3.57795023918152,-0.67005002498627,-0.51794999837875,5.29395008087158,3.50805020332336,0.43092501163483,0.20487499237061,0.01058750040829,13.6830005645752,11.1919507980347,8.79600048065186,-0.23223750293255,-0.6182000041008,-0.67196249961853,0.2771999835968,0.21848750114441,-0.11618749797344,0.39105001091957,0.52305001020432,0.51794999837875,8.78700065612793,7.95405054092407,9.09405040740967,SWING_LEFT
-6.55118751525879,-6.57800006866455,-6.16027498245239,-1.72200012207031,-3.63105010986328,-6.18495035171509,-1.82283747196198,-1.42573750019073,-0.69519996643066,0.22824999690056,0.39696249365807,0.45553749799728,-6.60495042800903,-6.27000045776367,-6.79800033569336,8.59305000305176,11.3839502334595,12.9870004653931,-0.7871875166893,1.06122493743896,2.96587491035461,-15.6720008850098,-15.9049510955811,-15.3210010528564,0.48372501134872,0.64625000953674,0.77934998273849,0.29672500491142,0.42996248602867,0.18548749387264,-13.6020002365112,-14.8909511566162,-17.4900016784668,10.4380502700806,10.6350002288818,10.4959506988525,14.6845874786377,18.2055492401123,20.0149116516113,-18.9649505615234,-15.646050453186,-4.01700019836426,2.04270005226135,3.07738757133484,5.06522512435913,-1.77278745174408,-2.65856242179871,-4.64021253585815,-57.844051361084,-51.153003692627,-8.87805080413818,8.74905014038086,9.16499996185303,2.94105005264282,6.50526237487793,5.88582515716553,2.90358757972717,17.623950958252,20.5099506378174,23.0389518737793,1.93641245365143,0.91740000247955,-0.15028749406338,1.37555003166199,1.17754995822906,0.42748749256134,-1.2679500579834,-0.6889500617981,0.40305000543594,3.05595016479492,-0.15900000929832,5.21700048446655,0.08387500047684,-0.00646249996498,0.04977500066161,10.1940002441406,7.5930004119873,6.53505039215088,-0.3603875041008,-0.42281249165535,-0.3286249935627,-0.33495000004768,-0.38005000352859,-0.21023750305176,2.2150502204895,2.12400007247925,1.69095003604889,8.74695014953613,8.93805027008057,9.41895008087158,SWING_LEFT
-5.47236251831055,-5.48336267471313,-5.08268737792969,-2.61705017089844,-4.43100023269653,-6.82095050811768,-1.34516251087189,-0.66591250896454,0.55343747138977,0.43848749995232,0.14519999921322,-0.04661250114441,-7.47300052642822,-7.81500053405762,-8.55705070495605,10.8790502548218,13.4560508728027,16.3920001983643,0.2231625020504,2.5309624671936,4.98176240921021,-15.6559505462646,-17.1150016784668,-15.8950510025024,2.96009993553162,2.21484994888306,1.25716245174408,1.94851243495941,2.53728747367859,2.45066237449646,-12.2299509048462,-14.9100008010864,-18.5599517822266,9.24195003509522,7.5450005531311,6.9660005569458,16.1665630340576,19.2721366882324,19.981912612915,-15.5890502929688,-11.731050491333,1.24200010299683,1.75917494297028,4.6998872756958,6.75839996337891,-1.97560000419617,-3.49428749084473,-4.4446873664856,-55.4029541015625,-38.6220016479492,-22.6420516967773,11.8570508956909,19.689001083374,13.0110006332397,7.38361263275146,5.39962482452393,1.45351254940033,25.9849510192871,28.9639511108398,27.7789516448975,0.28833749890327,0.75253748893738,0.42872500419617,2.84762501716614,1.41212499141693,0.89897501468658,-1.75905013084412,-0.82605004310608,-0.34200000762939,2.46300005912781,5.00205039978027,4.37505006790161,-0.21656249463558,-0.34979999065399,-0.19098749756813,9.74895000457764,8.3299503326416,5.44905042648315,-0.16623750329018,-0.23333749175072,-0.20405000448227,-0.25176250934601,-0.25671249628067,-0.05513750016689,1.53705012798309,2.10900020599365,1.99695014953613,8.54295063018799,8.36400032043457,8.49300003051758,SWING_LEFT
-5.14497518539429,-5.99293756484985,-5.8157000541687,3.60600018501282,0.15105000138283,-4.18905019760132,-2.60356259346008,-2.05369997024536,-1.37692499160767,1.03826248645782,1.00650000572205,0.65463751554489,-7.53300046920776,-11.368950843811,-12.1039505004883,7.7920503616333,12.2830505371094,13.7500505447388,-0.3827999830246,2.82177495956421,5.97616243362427,-17.5720500946045,-22.3129501342773,-21.0949516296387,0.64130002260208,0.27238750457764,-0.32257500290871,1.65164995193481,1.37183749675751,0.95644998550415,-17.8560009002686,-20.943000793457,-25.5780010223389,11.3860502243042,8.17005062103271,6.88200044631958,16.2226619720459,18.1358375549316,19.4699993133545,-10.0710000991821,-5.98095035552979,-1.56105005741119,3.42567491531372,5.15927505493164,3.63948750495911,-3.77396249771118,-2.18459987640381,-0.61105000972748,-55.936954498291,-23.1010513305664,-8.31300067901611,11.94105052948,4.70504999160767,-4.86300039291382,3.28363752365112,1.77113747596741,0.17916250228882,26.7580509185791,25.6230010986328,17.7100505828857,-0.11976250261068,-0.4838624894619,-0.62191247940063,1.11526250839233,0.99192500114441,0.54711252450943,0.52500003576279,1.75995004177094,1.47795009613037,4.92000007629395,8.4190502166748,8.98605060577393,0.00934999994934,0.14739999175072,-0.03575000166893,3.85305023193359,4.22805023193359,5.08500003814697,0.03904999792576,0.05857500061393,0.12828749418259,0.29672500491142,0.54477500915527,0.49829998612404,2.49000000953674,2.26200008392334,2.45595002174377,8.95995044708252,8.98305034637451,9.12495040893555,SWING_LEFT
-5.22321224212646,-5.23421239852905,-5.2377872467041,-2.6050500869751,-2.96805024147034,-2.91795015335083,-2.30174994468689,-2.46661257743835,-2.39951252937317,-0.35928750038147,-0.22247499227524,0.04633750021458,-5.77695035934448,-6.61695051193237,-6.75795030593872,7.60305023193359,8.3899507522583,10.0939502716064,-2.47554993629456,-1.04857504367828,0.52126252651215,-9.45600032806396,-11.4319505691528,-12.3919506072998,-2.2760374546051,-2.48132491111755,-2.23698759078979,1.4218875169754,1.36454999446869,1.13726246356964,-12.9220504760742,-15.0439510345459,-15.9300003051758,8.43795013427734,8.16300010681152,10.2559509277344,11.0158128738403,16.7320995330811,18.1920757293701,-17.9239501953125,-9.61605072021484,-2.59500002861023,6.56177473068237,6.39567518234253,5.59418725967407,-5.99994993209839,-4.93831253051758,-2.48627495765686,-53.8170013427734,-43.245002746582,-16.4130001068115,2.07300019264221,-2.67405009269714,-5.60805034637451,6.60178756713867,1.79795002937317,0.43450000882149,32.6419525146484,29.3179512023926,21.8230514526367,-0.47162500023842,-0.18452499806881,-0.19304999709129,1.30336248874664,0.61558747291565,0.82211250066757,-1.99605011940002,-1.59105002880096,-0.28500002622604,4.45095014572144,6.2440505027771,5.57595014572144,-0.82994997501373,-0.91423749923706,-0.76999998092651,10.8280506134033,8.57205009460449,6.59505033493042,-0.42157500982285,-0.37881249189377,-0.35433748364449,0.58258748054504,-0.09913749992847,-0.33852499723434,0.82005006074905,1.44405007362366,1.89195013046265,8.33700084686279,8.57205009460449,8.42400074005127,SWING_LEFT
-8.04663753509521,-8.04663753509521,-7.5517749786377,1.35195004940033,-4.40205001831055,-8.20394992828369,-0.92248749732971,-0.25533750653267,-0.01718750037253,1.00045001506805,-0.24076250195503,-0.57062500715256,-9.77805042266846,-9.31605052947998,-9.57705020904541,11.1870002746582,12.3670501708984,11.0680503845215,-1.3026750087738,1.07593750953674,5.23957490921021,-18.4189510345459,-18.340051651001,-14.1430511474609,0.37014999985695,0.04399999976158,0.10862500220537,0.01333750039339,-0.60486251115799,-0.90048748254776,-13.627950668335,-17.5570507049561,-22.5010509490967,8.51700019836426,7.66995048522949,6.75795030593872,15.6204128265381,18.0967864990234,15.8060369491577,-8.97705078125,1.91700005531311,19.1190013885498,1.83988749980927,2.78423738479614,2.09398746490479,-0.67210000753403,-1.53711247444153,-0.5157625079155,-27.6790504455566,0.15000000596046,2.06400012969971,5.61405038833618,7.87605047225952,1.73505008220673,2.20604991912842,1.05270004272461,-0.17146250605583,19.8949508666992,21.094051361084,18.5790004730225,-0.18823750317097,-0.28352499008179,-0.43491250276566,1.34612500667572,0.08415000140667,-0.41676250100136,3.28395009040833,2.64795017242432,2.22405004501343,8.48295021057129,7.42995023727417,7.76100015640259,-0.99481248855591,-0.73342502117157,-0.51590001583099,4.30005025863647,3.08700013160706,2.46705007553101,-0.75625002384186,-0.52910000085831,-0.18081249296665,0.05609999969602,-0.45457500219345,-0.68186247348785,1.95900011062622,1.95900011062622,1.77195012569427,10.3590002059937,11.6659507751465,11.9629507064819,SWING_LEFT
-6.1443247795105,-6.33984994888306,-6.2543249130249,5.06100034713745,1.13205003738403,-0.72405004501343,-3.8313000202179,-3.36833739280701,-2.6168999671936,2.00832509994507,1.61370003223419,0.74263751506805,-5.52105045318604,-5.79300022125244,-4.95105028152466,8.34899997711182,10.6630506515503,13.0920009613037,-2.52449989318848,-1.04252505302429,0.67650002241135,-10.9339504241943,-12.0619506835938,-13.0930509567261,-1.78983747959137,-1.62978744506836,-1.60421252250671,1.68698751926422,2.30395007133484,2.19408750534058,-9.23400020599365,-10.2300004959106,-12.5610008239746,10.0290002822876,11.6850004196167,11.8480501174927,11.7695875167847,17.0876750946045,18.669750213623,-17.8999500274658,-12.72705078125,-4.76805019378662,1.62607502937317,4.56912517547607,4.7011251449585,-2.11488747596741,-3.06542491912842,-3.45881247520447,-43.6609535217285,-28.4659519195557,-6.47505044937134,16.3180503845215,21.2059516906738,-1.56105005741119,4.81195020675659,2.11805009841919,1.21522498130798,22.8979511260986,21.5290508270264,19.1220016479492,-0.05747500061989,-0.52662497758865,-0.77824997901917,1.02849996089935,0.69863748550415,0.35653749108315,2.56905007362366,2.65305018424988,2.36505007743835,2.3929500579834,3.80295014381409,7.12395048141479,-0.30098751187325,-0.14327499270439,0.01553750038147,7.36305046081543,6.13095045089722,5.57100009918213,-0.29452499747276,-0.06971249729395,0.12086249887943,-0.35447499155998,-0.31171250343323,0.12319999933243,1.87200009822845,2.2150502204895,2.19495010375977,11.2450504302979,10.9360504150391,10.1370000839233,SWING_LEFT
-4.18357515335083,-5.09245014190674,-5.56407499313354,5.87205028533936,5.34600019454956,4.37895011901855,-0.88330000638962,-1.46492505073547,-1.73731243610382,0.67058748006821,1.19955003261566,1.61864995956421,-0.25394999980927,-2.16105008125305,-3.21405005455017,8.46900081634521,6.6190505027771,6.2839503288269,-6.49494981765747,-6.21527481079102,-4.25686264038086,-4.300950050354,-6.20100021362305,-11.9920501708984,-1.39645004272461,-0.90653747320175,-0.25533750653267,-0.59138751029968,-0.23100000619888,0.52882498502731,-10.7779502868652,-11.017050743103,-15.0180006027222,11.4240007400513,12.0460510253906,10.9459505081177,14.7871627807617,17.376012802124,18.7309379577637,-15.4189510345459,-12.7480506896973,-5.07195043563843,2.68647503852844,3.7872998714447,4.03644990921021,-1.90726244449615,-2.49603748321533,-2.76608753204346,-48.0810012817383,-43.1950531005859,-28.94700050354,13.6260004043579,11.017050743103,5.39595031738281,7.97376251220703,5.85158729553223,6.20097494125366,32.5150527954102,23.8549518585205,14.8339509963989,1.30102503299713,2.6168999671936,2.11474990844727,1.11402499675751,0.81963747739792,0.96373748779297,-7.03095054626465,-5.49900007247925,-2.16600012779236,10.5510005950928,7.42995023727417,3.73800015449524,0.67402499914169,-0.32903748750687,-0.41703748703003,14.2620010375977,10.0099506378174,7.4520001411438,-0.43491250276566,-0.49114999175072,-0.44591251015663,0.05115000158548,-0.2396624982357,-0.55233746767044,1.52505004405975,1.28595006465912,1.68600010871887,6.4680004119873,7.69095039367676,8.50695037841797,SWING_LEFT
-5.08763742446899,-5.96722507476807,-6.31180000305176,4.03200006484985,2.13705015182495,-0.69495004415512,-0.39338749647141,-0.35557499527931,-0.37028750777245,1.20449995994568,1.05173754692078,1.16902494430542,-6.40095043182373,-8.20995044708252,-10.1700000762939,9.3880500793457,8.90895080566406,8.33505058288574,-4.85306262969971,-3.41756248474121,-0.76147496700287,-9.24705028533936,-12.3919506072998,-18.6559505462646,-0.53886252641678,-0.56086248159409,-0.33962500095367,1.24107503890991,0.78911250829697,0.23567499220371,-11.943000793457,-13.9249505996704,-17.5500011444092,9.83805084228516,10.4790000915527,10.6300506591797,11.8831624984741,16.5622882843018,17.7021617889404,-16.396951675415,-8.94405078887939,7.14495038986206,2.5141875743866,3.90582489967346,3.95711255073547,-0.85043752193451,-2.37517499923706,-2.39346241950989,-45.1810531616211,-18.2989501953125,-10.2679500579834,5.6569504737854,11.3620510101318,4.58295011520386,6.0494499206543,5.09409999847412,2.09233736991882,18.3970508575439,20.5459518432617,21.3469505310059,1.55636250972748,0.43848749995232,-0.11728750169277,3.71387505531311,2.76086258888245,1.43783748149872,-0.13695000112057,0.4650000333786,0.57495003938675,7.41105031967163,4.60200023651123,5.91600036621094,0.9843624830246,0.90983748435974,0.71802496910095,6.6670503616333,7.55205059051514,8.25795078277588,-0.47409999370575,-0.60596251487732,-0.7012500166893,-0.92372500896454,-0.40576249361038,-0.01237499993294,1.58805012702942,1.41300010681152,1.54905009269714,6.35100030899048,7.26300048828125,8.11200046539307,SWING_LEFT
-3.05222487449646,-3.71689987182617,-6.00874996185303,2.37900018692017,2.8090500831604,2.75205016136169,-1.70183753967285,-1.27063751220703,-1.26211249828339,0.84039998054504,0.47025001049042,0.45553749799728,-5.81295013427734,-6.69105052947998,-7.44000053405762,8.05305004119873,10.2400503158569,10.1730003356934,-1.75724995136261,0.1913999915123,2.33557510375977,-13.8870010375977,-15.1080007553101,-15.1080007553101,-0.42391249537468,-0.15647499263287,0.38843750953674,1.20573747158051,2.4701874256134,3.35225009918213,-13.3450508117676,-15.6810007095337,-18.1669502258301,12.1129503250122,12.3840007781982,15.3439502716064,13.7560501098633,17.1121501922607,19.1706619262695,-23.086051940918,-19.1329517364502,-9.0130500793457,3.57706236839294,3.66382503509521,5.01751232147217,-2.93589997291565,0.01209999993443,0.21491250395775,-56.7619514465332,-34.3669509887695,-23.7040519714355,4.61400032043457,11.7930002212524,15.9919509887695,11.520299911499,9.22226238250732,7.30056238174438,12.4290008544922,22.5010509490967,24.1950016021729,2.4641375541687,1.70788753032684,1.12639999389648,2.16356253623962,2.53852510452271,1.05173754692078,-6.50700044631958,-4.86705017089844,-4.24995040893555,0.09900000691414,1.63695013523102,4.65195035934448,0.5322625041008,-0.19580000638962,-0.52456247806549,14.7739505767822,13.2810010910034,12.2280006408691,-0.2223374992609,-0.32504999637604,-0.39833748340607,0.39324998855591,0.34443750977516,0.40424999594688,-0.69705003499985,-0.55305004119873,0.0730499997735,6.60495042800903,7.33200025558472,7.79400014877319,SWING_LEFT
-7.64706230163574,-7.5237250328064,-4.457200050354,-1.45905005931854,-5.12205028533936,-16.3450508117676,1.12887501716614,0.09033749997616,-1.43192493915558,0.96621251106262,0.53253751993179,0.85992497205734,-12.2590503692627,-12.2260503768921,-12.4339504241943,15.3060007095337,3.20205020904541,1.50105011463165,2.22928738594055,3.39473748207092,4.66647481918335,-6.01695013046265,-7.68495035171509,-8.52495002746582,-1.07511246204376,-0.24681249260902,0.35062500834465,-0.80038750171661,-1.20353746414185,-1.12901246547699,-15.7219505310059,-16.94700050354,-17.6310005187988,11.2060508728027,9.52905082702637,7.24095010757446,10.6847124099731,13.355375289917,14.1274375915527,-7.84500026702881,1.35705006122589,6.088050365448,0.10628750175238,0.19057500362396,1.2277375459671,-2.57922506332397,-0.52676248550415,-1.40511250495911,-29.8660507202148,-20.9929504394531,-15.7770004272461,-0.7620000243187,10.6390504837036,14.7769508361816,6.91088724136353,6.50526237487793,6.2645001411438,14.3050508499146,11.3040008544922,12.2899503707886,1.34255003929138,1.12144994735718,0.76835000514984,1.037024974823,1.12749993801117,0.06462500244379,-3.09405016899109,-1.52205002307892,-1.30395007133484,6.86100053787231,7.27500057220459,7.19400024414063,1.70871245861053,1.45461249351501,1.17617499828339,11.6869506835938,10.3140001296997,10.8330001831055,0.42996248602867,0.33838748931885,0.11233749985695,-0.12594999372959,-0.24323749542236,-0.03918749839067,0.96300005912781,1.82895004749298,2.15205001831055,9.07905006408691,7.94295024871826,7.14300012588501,SWING_LEFT
-6.34590005874634,-6.45466232299805,-6.16274976730347,-6.01500034332275,-5.98095035552979,-7.78800058364868,-1.11058747768402,-0.82829999923706,-0.57186251878738,1.92774999141693,1.55512499809265,0.80134999752045,-9.20595073699951,-10.6150503158569,-13.1299505233765,9.48405075073242,11.7520503997803,12.7399501800537,-2.72731256484985,-1.10233747959137,0.97941249608994,-8.46300029754639,-10.9489507675171,-11.6860504150391,-2.38122487068176,-2.56561255455017,-0.53143751621246,1.40483748912811,1.69441246986389,-0.65986251831055,-15.693000793457,-16.6210498809814,-18.1030502319336,7.62405014038086,10.0960502624512,13.4269504547119,13.3809499740601,16.1213245391846,16.3889007568359,-9.63300037384033,3.59700012207031,11.4600009918213,-1.9901750087738,0.95411247014999,4.45555019378662,-0.97501248121262,-4.05748748779297,-5.78984975814819,-35.6209526062012,-28.8829517364502,-13.312050819397,14.9110507965088,21.4120502471924,9.51000022888184,5.16738748550415,5.91387510299683,5.62677478790283,14.1810007095337,9.69600009918213,12.867000579834,2.39085006713867,2.11474990844727,1.36578750610352,0.05609999969602,-0.39599999785423,-0.33728748559952,-1.03905010223389,-0.61305004358292,-0.93795001506805,9.89505004882812,5.95395040512085,4.01100015640259,2.09852504730225,1.86642503738403,1.47179996967316,9.06704998016357,9.43095016479492,9.64395046234131,0.70606249570847,0.7207750082016,0.68406248092651,0.03767500072718,-0.45223748683929,-0.37276250123978,1.48200011253357,1.49895012378693,1.9080001115799,7.94295024871826,7.4040002822876,6.9330005645752,SWING_LEFT
-5.6923623085022,-5.27078723907471,-4.57929992675781,-4.97400045394897,-6.75600051879883,-9.07005023956299,-1.53573751449585,-1.02877497673035,-0.65614998340607,2.39318752288818,1.65041244029999,1.06026244163513,-6.50205039978027,-5.99205017089844,-5.17605018615723,15.0730504989624,15.7600507736206,14.7690010070801,0.29892501235008,1.22127497196198,2.0460000038147,-12.44700050354,-10.9420509338379,-10.276050567627,-1.22292494773865,-1.72259998321533,-2.12822508811951,1.47083747386932,1.71641254425049,1.89474999904633,-7.80300045013428,-9.17505073547363,-11.4049501419067,7.91895055770874,7.57905054092407,8.27805042266846,12.0652122497559,14.5501127243042,17.3478240966797,-13.243950843811,-9.06599998474121,2.31600022315979,-2.37256240844727,2.98210000991821,4.8232250213623,0.79035001993179,-6.8954873085022,-7.55397510528564,-50.7270011901855,-26.7769508361816,-17.6500511169434,12.6709508895874,23.3860511779785,14.3959503173828,6.60659980773926,5.84182500839233,3.68554997444153,19.0600509643555,20.6080513000488,20.1169509887695,1.56502497196198,0.99687498807907,0.24791249632835,-0.12471249699593,-0.52786248922348,0.02186249941587,0.85995006561279,0.89595001935959,0.59700000286102,6.01605033874512,3.26895022392273,3.01605010032654,1.00017499923706,1.02093744277954,1.02712500095367,9.7630500793457,8.53305053710938,7.9350004196167,0.40067499876022,0.27486249804497,0.15138749778271,0.39820000529289,0.02914999984205,-0.12594999372959,0.95400005578995,1.09500002861023,1.29105007648468,9.76800060272217,8.15505027770996,8.08095073699951,SWING_LEFT
-8.22126293182373,-8.26897525787354,-7.15838766098022,0.2490000128746,-2.48700022697449,-7.41405057907104,-2.65732502937317,-2.05493760108948,-1.35987496376038,-0.62314999103546,1.15073752403259,2.07308745384216,-9.09794998168945,-7.61700057983398,-7.60695028305054,10.4980506896973,14.1259508132935,14.4660005569458,0.79860001802444,2.39415001869202,3.73559999465942,-14.3950510025024,-11.5249509811401,-9.31395053863525,-1.46726250648499,-1.56997501850128,-1.76660001277924,-0.29699999094009,0.86487501859665,1.53065001964569,-13.3410005569458,-14.6620502471924,-17.8270511627197,9.79905033111572,9.9529504776001,10.6750507354736,13.5324745178223,17.5628757476807,17.1549129486084,-14.9590511322021,-2.26005005836487,8.53995037078857,1.76412498950958,1.70417499542236,2.36761260032654,-1.41487503051758,-0.92496252059937,-1.53463745117188,-46.5900039672851,-24.8239517211914,-14.7019510269165,6.18105030059814,10.6819505691528,11.7160501480103,6.91569995880127,6.23768758773804,5.59143733978271,14.5729503631592,13.558051109314,16.1830501556396,1.56859993934631,1.79341244697571,1.79712498188019,0.31748750805855,0.30043751001358,0.64487498998642,-3.14205026626587,-2.8050000667572,-1.95300006866455,6.14100027084351,6.73200035095215,5.84400033950806,1.54756247997284,1.49380004405975,1.36675000190735,10.8420009613037,9.71805000305176,9.35400009155273,0.67553746700287,0.42515000700951,0.20638750493526,0.36148750782013,0.2894375026226,0.13062499463558,0.64695000648499,1.48995006084442,1.62105011940002,6.59805011749268,6.34200048446655,6.62895011901855,SWING_LEFT
-3.56537508964539,-4.09805011749268,-5.39055013656616,1.25400006771088,2.03895020484924,2.74995017051697,-1.44649994373322,-2.25293755531311,-2.47156238555908,0.18067499995232,1.33402502536774,1.26802504062653,0.87195003032684,-3.16605019569397,-4.07295036315918,6.90405035018921,5.06895017623901,5.53305006027222,-5.43826246261597,-4.17738771438599,-1.29786252975464,-7.10295057296753,-8.94105052947998,-12.7530002593994,-4.58755016326904,-1.85336244106293,-0.42281249165535,1.01873743534088,-0.82238751649857,-1.61521244049072,-14.3839502334595,-18.8490009307861,-21.7210502624512,12.3600006103516,17.4450016021729,16.0879516601563,12.34255027771,13.8708620071411,14.999737739563,-7.24500036239624,-3.46605014801025,1.3330500125885,4.27349996566772,3.55753755569458,2.85752487182617,-3.60909986495972,-3.6761999130249,-1.58344995975494,-38.683952331543,-34.0230026245117,-26.5110015869141,3.43200016021729,-1.72605013847351,0.57705003023148,12.1237878799438,11.176962852478,9.15626239776611,15.2860507965088,15.3600006103516,20.0380516052246,3.54296255111694,2.74394989013672,1.84112501144409,-1.04596245288849,-0.53157502412796,1.17149996757507,-10.8090009689331,-6.32205009460449,-3.94605016708374,2.38394999504089,0.47400003671646,3.26700019836426,3.68183755874634,2.34162497520447,1.63666248321533,16.1569499969482,16.1569499969482,15.1740007400513,1.29373753070831,0.80258750915527,0.38362500071526,0.8233500123024,0.86487501859665,0.90997499227524,0.28800001740456,0.51600003242493,0.29595002532005,5.26200008392334,4.36500024795532,4.85805034637451,SWING_LEFT
-3.21832489967346,-3.84999990463257,-4.46448755264282,1.125,0.98805004358292,-0.07800000160933,-0.67443752288818,-1.13987493515015,-1.1533499956131,1.34860002994537,1.21302497386932,1.22883749008179,-2.24205017089844,-5.9800500869751,-8.36805057525635,7.9830002784729,5.40105009078979,8.80605030059814,-4.94711256027222,-2.75659990310669,-0.27527499198914,-4.77705001831055,-14.8470010757446,-16.6300506591797,0.64006251096725,1.01034998893738,0.05857500061393,1.17521250247955,0.88811248540878,0.92344999313354,-15.399001121521,-14.7930011749268,-12.7999505996704,17.4589500427246,15.937050819397,8.86395072937012,9.14773750305176,15.1219749450684,18.8798503875732,-10.828950881958,-15.9190511703491,-0.22605000436306,1.27792501449585,3.3706750869751,4.06821250915527,-0.54862499237061,-1.63349997997284,-3.86925005912781,-50.7199516296387,-28.4470520019531,-17.0659503936768,3.07800006866455,14.8080005645752,9.27795028686523,8.47220039367676,7.85028743743896,6.68717479705811,12.8880004882813,15.0520505905151,19.1839504241943,1.84841251373291,2.12203741073608,2.02922487258911,0.29672500491142,0.55577498674393,0.79516249895096,-9.47595024108887,-6.94200038909912,-5.02095031738281,6.28200006484985,6.19095039367676,4.70295000076294,1.92623746395111,1.34103751182556,0.8816499710083,16.8220500946045,14.8459510803223,13.8529510498047,1.3084499835968,0.96139997243881,0.64130002260208,1.35107493400574,1.65646255016327,0.62782502174377,-2.19705009460449,-1.11495006084442,-0.17700000107288,4.2529501914978,4.14000034332275,5.85795021057129,SWING_LEFT
-0.53308749198914,-1.14152503013611,-2.63436245918274,2.18204998970032,3.10095024108887,2.82600021362305,-0.06599999964237,-0.54614996910095,-0.77096247673035,0.50077497959137,-0.01718750037253,-0.52057498693466,1.93005013465881,0.79800003767014,0.42495003342628,8.59605026245117,8.23200035095215,7.9069504737854,-6.30561256408691,-6.46813726425171,-5.4955997467041,2.38095021247864,0.55500000715256,-4.78695011138916,-2.5008499622345,-0.8234875202179,0.00976249948144,1.84222495555878,0.14286249876022,-0.42033749818802,-14.9100008010864,-15.7170009613037,-17.5740013122559,10.3860006332397,16.6600513458252,15.7510509490967,12.4903621673584,14.4940128326416,16.4401874542236,-12.3030004501343,-6.93795013427734,4.26405000686646,4.13916254043579,4.87341260910034,5.65042495727539,-1.53092503547668,-2.85890007019043,-2.99818754196167,-45.0439529418945,-43.1710510253906,-37.6069526672363,10.8310508728027,9.51195049285889,8.14095020294189,11.5960626602173,9.64383697509766,8.21809959411621,18.5929508209229,18.6619510650635,17.9250011444092,3.63824987411499,3.26067495346069,3.10062503814697,-0.35571250319481,-1.24629998207092,-1.50534999370575,-11.1199502944946,-8.01405048370361,-7.84200048446655,-1.03500008583069,3.06300020217896,2.60595011711121,2.53948760032654,1.82490003108978,1.05517494678497,18.5280017852783,17.3340015411377,14.6110506057739,0.57653748989105,0.3091000020504,0.08428750187159,1.07249999046326,0.66082501411438,0.5460125207901,-2.23800015449524,-1.40205001831055,-1.66995012760162,3.45600008964539,4.2529501914978,4.16205024719238,SWING_LEFT
-2.35826253890991,-3.3576123714447,-4.2433876991272,4.52505016326904,3.74295020103455,2.4340500831604,-0.32628750801086,-1.25716245174408,-1.6493124961853,0.33948749303818,1.00650000572205,1.26307499408722,-1.01205003261566,-5.43900012969971,-7.90395021438599,7.09305047988892,6.18900012969971,6.93795013427734,-5.48955011367798,-4.12486267089844,-2.12863755226135,-6.43605041503906,-12.3529510498047,-17.6370010375977,1.84222495555878,1.88993752002716,1.23268747329712,0.83792501688004,-0.68062502145767,-0.70633751153946,-12.5989503860474,-16.1160011291504,-18.5809516906738,14.0230503082275,9.48795032501221,7.09305047988892,10.7860498428345,14.0919628143311,18.7467498779297,-14.1670503616333,-15.4450511932373,-0.24105000495911,1.52336251735687,1.74459993839264,3.76530003547669,0.47753748297691,0.84534996747971,-0.69410002231598,-52.8259506225586,-47.6929512023926,-33.5130004882813,6.21495008468628,10.8379507064819,19.8780002593994,9.85751247406006,8.59801292419434,7.50337505340576,22.0530014038086,17.3650512695313,18.1069507598877,2.62295007705688,2.08051252365112,2.34684991836548,0.90997499227524,1.64917504787445,1.63446247577667,-8.96205043792725,-7.20000028610229,-7.04295015335083,-3.60000014305115,4.38195037841797,7.48800039291382,3.75512504577637,3.63907504081726,3.36421251296997,14.0299510955811,11.8189506530762,13.2040510177612,1.61878752708435,1.32921254634857,0.86129999160767,-0.33605000376701,-0.21271249651909,0.72806251049042,-3.34800004959106,-1.54095005989075,-0.04800000041723,5.64795017242432,4.875,3.34800004959106,SWING_LEFT
-4.22757482528687,-4.81634998321533,-5.26968765258789,0.43095001578331,-0.13500000536442,-1.20000004768372,-1.05558753013611,-1.363450050354,-1.58578753471375,0.62782502174377,-0.09666249901056,-0.77962499856949,-1.29705011844635,-2.09400010108948,-3.53700017929077,4.40595006942749,5.27400016784668,6.39900016784668,-4.86406230926514,-4.68324995040894,-4.21781253814697,-4.12695026397705,-5.36595010757446,-7.5319504737854,-2.20646238327026,-1.94865000247955,-1.43797504901886,0.26124998927116,-0.01718750037253,-0.49981248378754,-11.7640504837036,-13.1659507751465,-14.2279510498047,9.28995037078857,10.5940504074097,12.8790006637573,9.17826271057129,12.8262748718262,19.6043376922607,-23.5000514984131,-20.5849514007568,-11.5590009689331,6.52148723602295,3.78963756561279,3.76887488365173,-3.58214998245239,-1.23653745651245,-2.1038875579834,-66.0880508422852,-33.1750526428223,-10.7640008926392,2.96805024147034,0.10305000841618,3.42195010185242,5.28962516784668,4.42832517623901,3.75388741493225,18.9880504608154,17.6670017242432,15.456000328064,1.6993625164032,1.33155000209808,0.83311247825623,0.21972499787807,0.62053751945496,0.9149249792099,-2.09595012664795,-0.84495002031326,-0.43800002336502,7.62195014953613,4.29795026779175,4.27905035018921,2.11557507514954,1.94576251506805,1.63913750648499,8.58600044250488,8.14095020294189,7.60005044937134,0.32120001316071,0.00852499995381,0.16005000472069,1.40964996814728,1.128737449646,-0.01113750040531,0.93900007009506,0.39105001091957,-0.76395004987717,7.49505043029785,8.06505012512207,11.1990003585815,SWING_LEFT
-4.24462509155273,-4.71253728866577,-4.85911226272583,0.72795003652573,-0.31005001068115,-2.14995002746582,-1.29387497901917,-1.38668751716614,-1.66526246070862,0.39930000901222,0.22220000624657,0.19538749754429,-3.78300023078919,-3.94905018806458,-4.93005037307739,8.66295051574707,8.06895065307617,7.74900054931641,-3.40284991264343,-2.98388743400574,-1.33691251277924,-7.0770001411438,-7.68000030517578,-10.0039501190186,-0.47533750534058,1.64312493801117,2.69376254081726,-0.00618749996647,0.05733750015497,0.53982502222061,-13.8030004501343,-16.7599506378174,-19.9210510253906,13.6020002365112,16.8589515686035,16.3339500427246,12.9522247314453,15.5079374313354,17.6679248809814,-11.767050743103,-9.92700004577637,3.39105010032654,2.00117492675781,3.3206250667572,4.3102126121521,-1.14853751659393,-0.46076250076294,-1.28287494182587,-48.9730529785156,-33.0270004272461,-24.2140502929688,-0.34605002403259,12.2160005569458,10.6030502319336,8.23143768310547,7.89676237106323,5.42891263961792,15.0439510345459,17.2049999237061,26.4370517730713,3.19962501525879,2.31879997253418,1.89722502231598,1.65646255016327,1.64917504787445,1.05173754692078,-7.7029504776001,-5.41500043869019,-5.41995048522949,4.0009503364563,2.41995000839233,3.56400012969971,1.06369996070862,0.77288746833801,0.45402500033379,13.4530506134033,13.2109508514404,12.6850509643555,0.66329997777939,0.38719999790192,0.20638750493526,0.53377497196198,0.37496250867844,0.17943750321865,-2.03700017929077,-0.7540500164032,-0.02400000020862,3.47295022010803,4.56405019760132,5.13300037384033,SWING_LEFT
-4.30814981460571,-4.24462509155273,-4.14809989929199,-2.02800011634827,-2.94495010375977,-3.20805025100708,-2.63766241073608,-2.24070000648499,-1.72507500648499,1.43288743495941,0.90021246671677,0.83668750524521,-6.93495035171509,-11.2369508743286,-11.260950088501,7.27305030822754,11.5459508895874,12.1489505767822,-1.31009995937347,3.72831249237061,5.53396224975586,-16.9500007629395,-19.2019500732422,-14.5930509567261,0.97363752126694,1.88498747348785,3.26920008659363,-0.03066249936819,-0.57805001735687,-1.02643752098084,-22.756950378418,-23.7120018005371,-28.4730014801025,12.3000001907349,13.3500003814697,9.59595012664795,12.8788003921509,14.0553874969482,14.4084873199463,-6.58905029296875,-2.31795001029968,2.11304998397827,2.77323746681213,2.91623759269714,2.96752500534058,-0.865149974823,-1.52487504482269,-1.59568750858307,-42.0150032043457,-40.6339530944824,-36.351001739502,4.64505004882813,5.65995025634766,4.35795021057129,9.72441291809082,8.01281261444092,7.33713722229004,20.4739513397217,20.3610000610352,18.7870502471924,3.40724992752075,3.35843753814697,3.41948747634888,0.88068747520447,1.83974993228912,1.58441245555878,-15.9250507354736,-13.3740005493164,-12.796950340271,8.60805034637451,7.55700016021729,9.00705051422119,3.05139994621277,2.2121000289917,1.78942501544952,23.1199512481689,19.969051361084,16.4149513244629,1.72012495994568,1.53807497024536,-0.14052499830723,-0.01718750037253,-1.20229995250702,-1.61150002479553,-2.54595017433167,-1.20405006408691,1.81500005722046,6.72705030441284,4.99005031585693,-1.11600005626678,SWING_LEFT
-5.98798751831055,-6.64895009994507,-6.92628765106201,-2.9520001411438,-5.93100023269653,-8.31195068359375,-1.94136250019073,-1.8631249666214,-1.72507500648499,2.25142502784729,1.65522503852844,0.85511249303818,-11.6920509338379,-13.0560007095337,-13.8310508728027,6.50700044631958,6.46395015716553,6.74805021286011,-3.62642502784729,-1.85130000114441,3.93965005874634,-14.6200504302979,-16.9980010986328,-22.4610004425049,-0.30552500486374,-0.18452499806881,-0.19428749382496,-1.1583000421524,-0.93348747491837,-0.81743746995926,-17.7630004882813,-21.8620510101318,-26.1379508972168,9.44505023956299,8.03295040130615,6.49995040893555,13.5459499359131,14.9899749755859,15.788987159729,-4.20600032806396,-0.8440500497818,3.45795011520386,1.35726249217987,2.29308748245239,3.07862496376038,-2.44598746299744,-2.44598746299744,-2.39841246604919,-41.9910011291504,-36.7890014648438,-25.441951751709,8.84505081176758,9.95700073242188,10.8210000991821,8.52596282958984,7.77094984054565,6.94498729705811,19.5,19.8130512237549,21.0670509338379,2.8550500869751,2.66571259498596,1.94246244430542,0.04138749837875,0.5545374751091,1.47564995288849,-6.2839503288269,-3.64200019836426,-1.70595002174377,6.95895051956177,4.28400039672852,1.42905008792877,1.50713753700256,1.40084993839264,1.28851246833801,14.6850004196167,11.4210004806519,10.113000869751,-0.43862500786781,-0.48138749599457,-0.48867499828339,0.77192497253418,0.43724998831749,0.1024374961853,1.24500000476837,1.8840000629425,1.62105011940002,5.671950340271,6.25605010986328,7.05195045471191,SWING_LEFT
-5.38697481155396,-5.52378749847412,-5.73264980316162,-1.93005013465881,-3.58605027198792,-3.80805015563965,-2.45327496528625,-3.03847503662109,-3.57115006446838,-0.04537500068545,0.25891250371933,0.94916248321533,-9.38295078277588,-13.1989507675171,-17.1880512237549,6.53505039215088,6.69105052947998,6.91800022125244,-4.56720018386841,-0.94847500324249,4.41732501983643,-12.4849510192871,-26.2180519104004,-36.8710517883301,1.49283754825592,2.05975008010864,1.79588747024536,-0.19799999892712,-0.28847500681877,0.17462499439716,-18.5929508209229,-25.9750518798828,-32.2660522460938,19.6960506439209,11.461950302124,6.09000015258789,16.2141380310059,18.2091255187988,19.3184757232666,-5.12205028533936,-4.67204999923706,-1.19805002212524,0.45567500591278,3.81906247138977,4.74017477035522,-3.08618760108948,-6.46538734436035,-3.73972487449646,-52.0960540771484,-39.832950592041,-19.4089508056641,20.7490501403809,20.8690509796143,0.27300000190735,7.27732515335083,4.96099996566772,4.17051267623901,22.3429508209229,20.7130508422852,19.4640007019043,1.63212502002716,0.70001250505447,-0.71843749284744,0.34801250696182,0.93321251869202,0.90392500162125,-4.14195013046265,-1.89105010032654,-1.75905013084412,4.15500020980835,2.38095021247864,5.9520001411438,0.80341249704361,0.85236251354218,0.89883750677109,9.09600067138672,7.2049503326416,6.84900045394897,0.00728749996051,0.07328750193119,0.08057499676943,-0.46076250076294,-0.05513750016689,0.35901248455048,0.4609500169754,1.03305006027222,1.18995010852814,9.66300010681152,9.12705039978027,8.71095085144043,SWING_LEFT
-4.37043762207031,-5.34049987792969,-5.7534122467041,0.01005000062287,-1.9780501127243,-2.20005011558533,-2.08793759346008,-2.24193739891052,-2.12217497825623,1.95827496051788,1.49517500400543,1.0419750213623,-9.37604999542236,-10.3110008239746,-10.8450002670288,6.88005018234253,7.45905017852783,8.78205013275146,-3.44190001487732,-1.71806252002716,0.48344999551773,-12.0520505905151,-14.5090503692627,-16.2829513549805,0.07204999774694,0.37138751149178,0.30414998531342,-0.10147500038147,-0.30428749322891,-0.5878124833107,-14.1379508972168,-16.8030014038086,-20.7040500640869,12.0679502487183,11.3190002441406,10.2469501495361,12.5246000289917,16.7345752716064,17.956262588501,-12.3940505981445,-4.53299999237061,0.26595002412796,3.44643759727478,3.88135004043579,2.78905010223389,-2.12588739395142,-1.48087501525879,-0.27500000596046,-51.2250022888184,-36.6859512329102,-10.4359502792358,9.37305068969727,7.47405052185059,2.06805014610291,6.02868747711182,5.5107250213623,3.7233624458313,13.7689504623413,16.336950302124,19.6459503173828,1.51126253604889,1.07387495040894,0.3286249935627,1.10302495956421,1.44264996051788,1.84827494621277,-3.16605019569397,-2.02005004882813,-0.47205001115799,6.17400026321411,4.77405023574829,6.15705013275146,1.37527501583099,1.54384994506836,1.54508745670319,7.60695028305054,7.27695035934448,7.76295042037964,-0.16499999165535,-0.40438750386238,-0.49967500567436,-0.40204998850822,-0.51810002326965,-0.83091247081757,0.8320500254631,1.46100008487701,1.10400009155273,7.0090503692627,7.33695030212402,8.45205020904541,SWING_LEFT
-3.17803740501404,-4.23486232757568,-4.63196229934692,4.33605003356934,4.13505029678345,2.52705001831055,-2.43003749847412,-2.71466255187988,-3.10681247711182,2.37971258163452,3.05414986610413,2.9381000995636,-1.02195000648499,-2.51295018196106,-7.53795051574707,8.0310001373291,7.28700017929077,7.91400051116943,-5.58607482910156,-1.38091254234314,2.73872494697571,-4.70100021362305,-20.2309513092041,-27.775951385498,1.65783751010895,1.83493745326996,1.38902497291565,1.62964999675751,2.23561239242554,2.30766248703003,-8.99505043029785,-16.10205078125,-24.0870018005371,15.4009504318237,13.627950668335,10.0990505218506,17.64963722229,20.194486618042,20.1297245025635,-16.7280006408691,-11.3440504074097,-0.0730499997735,1.15568745136261,2.9808623790741,4.2332124710083,-3.9059624671936,-4.12582492828369,-3.10571241378784,-55.9849510192871,-38.1739501953125,-18.7249507904053,9.48795032501221,10.1419506072998,8.29200077056885,4.40385007858276,3.48507499694824,1.89818751811981,23.1300010681152,19.1029510498047,16.123950958252,1.30597496032715,1.35602498054504,1.34626245498657,0.31748750805855,0.64735001325607,1.17149996757507,-2.37900018692017,-1.15605008602142,-0.06195000186563,8.55795001983643,7.92795038223267,7.80900049209595,0.32092499732971,0.05211250111461,-0.05293750017881,6.95595026016235,5.88195037841797,5.48700046539307,-0.03671250119805,-0.02571249939501,-0.10504999756813,-0.21271249651909,-0.42033749818802,-0.52181249856949,2.08500003814697,2.05200004577637,1.62600004673004,7.94700050354004,8.074049949646,7.54800033569336,SWING_LEFT
-4.51467514038086,-4.73948764801025,-5.09121227264404,-0.97305005788803,-1.01595008373261,-0.72600001096725,-2.54237508773804,-2.87842488288879,-2.90647506713867,0.02914999984205,0.4824874997139,1.34007501602173,-1.58895003795624,-2.38095021247864,-3.03195023536682,7.66005039215088,8.58105087280273,9.0100507736206,-5.28550004959106,-5.58360004425049,-5.39426231384277,-4.27995014190674,-4.6840500831604,-5.56695032119751,-1.12887501716614,-0.38609999418259,1.06892502307892,0.28696250915527,0.25025001168251,0.08415000140667,-15.2100009918213,-13.3930501937866,-19.5790500640869,12.3360004425049,13.9150505065918,12.7450504302979,12.7419872283936,17.072961807251,18.5609874725342,-14.2080011367798,-5.89995050430298,-2.14500021934509,0.19415000081062,0.57653748989105,2.2710874080658,0.10491249710321,0.06091250106692,-1.04830002784729,-45.2140502929688,-31.0390510559082,-17.6809501647949,2.12100005149841,10.2370500564575,16.0639514923096,3.98722505569458,3.47654986381531,3.62312507629395,22.7809505462646,16.4590511322021,14.0940008163452,0.49472498893738,1.40497493743896,0.90158748626709,1.13849997520447,0.26372501254082,0.12443749606609,-1.66605007648468,0.87495005130768,1.27905011177063,8.50500011444092,8.00505065917969,4.75500011444092,0.02158750034869,0.18535000085831,0.67636251449585,8.72504997253418,5.46600008010864,3.79800009727478,-0.0354750007391,0.18081249296665,0.14409999549389,-0.30195000767708,-0.61338752508163,-0.57309997081757,0.5830500125885,0.63795000314713,1.55895006656647,10.1820001602173,9.5910005569458,8.34495067596436,SWING_LEFT
-6.36184978485107,-6.72952508926392,-6.86523723602295,7.46400022506714,5.14995002746582,3.00600004196167,-1.45873749256134,-1.61026251316071,-2.1099374294281,0.08043749630451,0.32601249217987,1.90946245193481,-0.60105001926422,-2.23305010795593,-3.42405009269714,8.98095035552979,8.69595050811768,6.59805011749268,-6.98486232757568,-7.47367477416992,-7.20114994049072,-3.34395027160645,-4.50495004653931,-5.89005041122437,-2.47156238555908,-1.47826254367828,-0.87477499246597,-1.07401251792908,-0.01484999991953,0.76340001821518,-14.5870504379272,-9.41895008087158,-12.0439510345459,11.8740005493164,15.8850011825562,16.1290512084961,12.9069871902466,14.8519248962402,16.1273746490479,-13.2600002288818,-7.89495038986206,-3.14595007896423,1.56612503528595,2.67190003395081,3.3486750125885,-1.70926249027252,-1.97807502746582,-2.12712502479553,-44.7070503234863,-41.943000793457,-25.6690521240234,9.65595054626465,10.3830003738403,6.44700050354004,6.85341262817383,4.91823768615723,4.70442485809326,24.8820018768311,20.943000793457,14.8390502929688,2.47513747215271,2.15627503395081,1.91798746585846,-0.55357497930527,0.53377497196198,1.33526253700256,-4.35300016403198,-3.32895016670227,-2.37405014038086,3.82200026512146,2.66595005989075,2.94900012016296,3.64759993553162,2.89258742332459,2.15228748321533,18.2080516815186,17.7820510864258,16.465950012207,1.05544996261597,0.60348749160767,0.16362500190735,0.47148749232292,0.19167499244213,-0.0686125010252,0.87195003032684,2.23395013809204,2.52300000190735,3.76905012130737,4.32405042648315,4.96095037460327,SWING_LEFT
-6.83223724365234,-7.33672475814819,-7.36119985580444,1.60605013370514,-0.21705001592636,-2.83695006370544,-2.80513739585876,-2.81847500801086,-2.31756258010864,1.71146249771118,1.26073753833771,0.76216250658035,-9.8299503326416,-8.11005020141602,-7.71495056152344,5.03805017471313,7.89705038070679,9.77505016326904,-3.64113736152649,-2.78107500076294,-1.94782495498657,-10.7809505462646,-9.20895004272461,-8.61105060577393,-1.4001624584198,-1.23887503147125,-0.28586250543594,-0.86143749952316,-1.20106244087219,-1.23406255245209,-18.1069507598877,-17.9569511413574,-17.8489513397217,7.24905014038086,10.3930501937866,15.0160503387451,14.1139621734619,18.206787109375,21.908561706543,-29.2450523376465,-20.1780014038086,0.34005001187325,1.14716243743896,1.43673753738403,3.09815001487732,-0.48510000109673,-2.0488874912262,-3.46004986763,-74.3359527587891,-36.870002746582,-22.8570003509521,0.95805007219315,11.1300001144409,13.2160511016846,7.86252498626709,6.22421264648438,4.26579999923706,23.9719505310059,26.0590515136719,22.5100517272949,1.69688749313354,1.6993625164032,0.91258752346039,1.45131254196167,1.3388375043869,1.2277375459671,-5.87700033187866,-3.75705027580261,-0.43305000662804,8.46195030212402,6.88005018234253,6.12195014953613,0.7178875207901,0.63002496957779,0.65202498435974,10.7970008850098,8.0310001373291,6.79095029830933,0.12086249887943,0.07204999774694,0.04028749838471,0.15743750333786,0.03891250118613,-0.18590000271797,0.15000000596046,0.41295000910759,0.38400000333786,8.68200016021729,8.70105075836182,8.73495006561279,SWING_LEFT
-3.45056247711182,-4.17381238937378,-4.79435014724731,-0.2790000140667,-1.63800013065338,-2.76705002784729,-1.64697504043579,-1.56021249294281,-0.76725000143051,1.88498747348785,1.51717495918274,0.49582499265671,-6.22200012207031,-9.8830509185791,-13.231050491333,7.47795057296753,8.78999996185303,13.0009508132935,-4.27514982223511,-1.12433743476868,3.04768753051758,-12.6859502792358,-21.8460006713867,-26.5890007019043,1.45873749256134,1.20449995994568,0.9260625243187,0.54477500915527,0.50806248188019,0.44096249341965,-14.9220008850098,-20.6770515441895,-26.1160507202148,13.642050743103,11.8860006332397,10.7950506210327,16.0003242492676,18.1700744628906,19.1523742675781,-8.47695064544678,-4.1100001335144,3.14895009994507,3.29491257667542,3.19838738441467,3.67729997634888,0.87463748455048,2.56052494049072,0.46901249885559,-57.6649513244629,-43.3570518493652,-16.6000499725342,9.73500061035156,9.54105091094971,11.0410509109497,6.29873752593994,6.77036237716675,5.65372514724731,19.7080516815186,13.0270509719849,21.6180019378662,2.08903741836548,1.8191249370575,1.41831254959106,0.19415000081062,1.15802502632141,0.88192498683929,-6.80295038223267,-1.91205012798309,-1.85700011253357,7.71495056152344,4.31505012512207,4.70295000076294,1.33732497692108,0.83888751268387,0.6678375005722,9.27705001831055,8.39205074310303,8.12595081329346,-0.20157499611378,-0.32010000944138,-0.34457498788834,-0.69891250133514,-0.76491248607635,-0.44852501153946,1.57095003128052,2.26005005836487,2.7480001449585,7.20105028152466,7.39200019836426,7.4089503288269,SWING_LEFT
-4.46806240081787,-4.72463750839233,-4.9372124671936,-2.13105010986328,-1.62105011940002,-1.49205005168915,-3.0775249004364,-3.38910007476807,-2.99571251869202,1.73181247711182,2.00186252593994,1.35671246051788,-7.09305047988892,-8.94000053405762,-10.9120502471924,4.40805006027222,5.9370002746582,9.56295013427734,-4.05033731460571,-2.44612503051758,0.01677500084043,-8.82600021362305,-12.6240005493164,-16.9770011901855,0.01704999990761,0.81111252307892,2.17456245422363,-0.859375,-0.70056247711182,-0.25959998369217,-11.4169502258301,-13.0129508972168,-19.9999504089355,14.2000503540039,14.5639505386353,10.7899503707886,12.1703996658325,14.7420625686646,14.9839248657227,-8.23500061035156,-2.69295001029968,1.2280501127243,1.48183751106262,2.13674998283386,3.25091242790222,-1.63033747673035,-2.22777509689331,-1.41171252727509,-32.4340515136719,-29.7180023193359,-21.3349514007568,8.87100028991699,9.05505084991455,8.18400001525879,7.65118741989136,5.74543762207031,4.61903762817383,18.760950088501,19.1700000762939,19.0260009765625,2.80981254577637,2.36032509803772,1.45378744602203,1.37018752098084,0.67993748188019,0.58588749170303,-5.7460503578186,-4.73805046081543,-2.22795009613037,7.61505031585693,4.98195028305054,2.67600011825562,1.4999874830246,0.79131251573563,0.28682500123978,14.4529504776001,13.3380002975464,11.7540006637573,-0.76614999771118,-0.93101251125336,-0.92372500896454,0.69574999809265,0.39765000343323,0.08126249909401,0.42495003342628,0.40605002641678,0.81195002794266,7.09500026702881,8.16300010681152,9.21795082092285,SWING_LEFT
-4.46201229095459,-4.26525020599365,-4.57558727264404,-1.5090000629425,-4.47105026245117,-4.16700029373169,-1.08611249923706,-0.75996249914169,-0.48991250991821,0.70922499895096,0.39531248807907,-0.24612499773502,-3.49605011940002,-5.93505048751831,-8.67000007629395,8.56005001068115,8.12205028533936,8.06505012512207,-3.60800004005432,-0.5879499912262,0.80849999189377,-12.6880502700806,-12.2790002822876,-9.90495014190674,-0.66962498426437,-0.55715000629425,0.09762500226498,-0.98161250352859,-0.61874997615814,-1.41281247138977,-11.2639503479004,-15.939001083374,-19.9549503326416,7.41105031967163,10.5750007629395,12.9270009994507,15.2795495986938,17.5410118103027,18.2985000610352,-14.3010005950928,-8.06295013427734,0.41400003433228,3.50872492790222,3.5844874382019,3.83982491493225,-2.25582504272461,-1.42752504348755,-0.80203747749329,-52.8379516601563,-43.9480514526367,-27.2460021972656,7.79400014877319,5.9370002746582,8.31795024871826,9.68659973144531,6.79607486724854,5.88472509384155,22.3279514312744,18.79905128479,18.6190509796143,1.99251246452332,1.51483750343323,0.79530000686646,0.33412501215935,0.68846249580383,1.08308744430542,-6.21195030212402,-4.6710000038147,-0.83100003004074,2.60895013809204,3.13005018234253,4.40805006027222,0.16211250424385,0.06448750197887,0.26111251115799,13.1850004196167,9.90000057220459,6.78405046463013,-0.04647500067949,0.04028749838471,0.13681249320507,0.46007499098778,-0.36836248636246,-0.61998748779297,0.53205001354218,0.74805003404617,0.79995006322861,7.8919506072998,9.72300052642822,9.46695041656494,SWING_LEFT
-4.22372484207153,-4.7234001159668,-5.63722515106201,1.78995013237,0.68205004930496,-1.37205004692078,-1.64450001716614,-1.57973754405975,-1.28411245346069,1.95043754577637,1.53147494792938,-0.08236250281334,-2.97705006599426,-5.06805038452148,-5.19495010375977,6.38700008392334,7.46595048904419,9.51195049285889,-4.59635019302368,-3.11932492256165,-2.07240009307861,-9.11100006103516,-8.4529504776001,-9.27600002288818,0.57406252622604,0.29438748955727,-0.25052499771118,-0.49169999361038,-1.61686253547668,-0.90832501649857,-11.5360507965088,-13.3549509048462,-14.8909511566162,11.66100025177,9.63900089263916,11.0100002288818,10.7544250488281,17.6020622253418,19.8500499725342,-19.1659507751465,-13.4059505462646,5.49405002593994,3.47201251983643,3.17638754844666,3.14709997177124,-1.43357503414154,-0.79351252317429,-0.66646248102188,-57.1330528259277,-33.6709518432617,-14.8549509048462,5.32005023956299,5.21205043792725,6.12405014038086,6.06787490844727,4.82789993286133,4.06559991836548,25.945951461792,20.1460514068604,16.9420509338379,0.63277500867844,-0.01594999991357,0.97363752126694,0.60541248321533,1.34089994430542,0.50283747911453,-0.34200000762939,-1.88595008850098,-0.3160500228405,-2.57100009918213,1.29300010204315,9.78495025634766,1.20188748836517,0.67044997215271,0.7705500125885,10.6960506439209,7.29105043411255,5.60895013809204,-0.12223749607801,-0.06118749827147,0.08181250095367,-0.14959999918938,-0.2095499932766,-0.65903747081757,2.00595021247864,2.02095007896423,1.14705002307892,8.92605018615723,9.28305053710938,9.65295028686523,SWING_LEFT
-4.25920009613037,-4.73082494735718,-5.69469976425171,0.41895002126694,0.21300001442432,1.22100007534027,-0.19799999892712,-0.17723749577999,-0.52057498693466,1.97243750095367,0.84727501869202,-0.46846249699593,-4.875,-13.4629507064819,-13.4509506225586,5.90595006942749,6.11700010299683,6.80400037765503,-2.99103736877441,-0.07975000143051,2.45533752441406,-21.6880512237549,-20.9059505462646,-18.0220508575439,-1.61521244049072,-1.86202502250671,-1.64821243286133,0.74951249361038,0.82403749227524,0.78498750925064,-11.7469501495361,-14.4649505615234,-16.4830513000488,10.0170001983643,10.8979501724243,12.3840007781982,9.76236248016357,12.1679248809814,16.5294246673584,-10.9150505065918,-11.6260509490967,-7.42605018615723,2.2210373878479,3.58682489395142,3.47324991226196,-2.26682496070862,-1.59004998207092,-1.10494995117188,-43.276050567627,-33.5370025634766,-24.6760520935059,12.538950920105,8.67705059051514,5.0779504776001,8.6530122756958,6.25968742370605,4.96099996566772,23.7570018768311,20.9400005340576,22.101001739502,1.63817501068115,1.05187499523163,0.66082501411438,0.42460000514984,1.09656250476837,1.42271244525909,-3.94905018806458,-2.37405014038086,-1.42200005054474,-0.36195001006126,0.61800003051758,2.68995022773743,0.7595499753952,0.71802496910095,0.89155000448227,12.7999505996704,8.45205020904541,6.04905033111572,-0.21147499978542,-0.45210000872612,-0.47286251187325,-0.15578749775887,-0.62370002269745,-0.8068500161171,1.50195002555847,1.48695003986359,1.62795007228851,7.03995037078857,8.2369499206543,9.20595073699951,SWING_LEFT
-4.86516237258911,-5.08750009536743,-5.328125,0.10800000280142,0.25095000863075,0.20595000684261,-1.38668751716614,-1.76660001277924,-2.26517510414124,0.75322496891022,1.11237502098084,0.99756246805191,-3.50805020332336,-5.98995018005371,-8.44200038909912,5.81295013427734,5.73405027389526,5.45895004272461,-6.04408740997314,-4.39601230621338,-2.04421257972717,-5.82105016708374,-11.8339509963989,-17.3280010223389,-2.28222489356995,-1.2450624704361,-0.44962498545647,0.93774998188019,0.67622500658035,0.24860000610352,-10.5979509353638,-12.2140502929688,-15.7500009536743,13.9150505065918,15.8370008468628,15.0370502471924,11.3444375991821,14.1593370437622,18.2617874145508,-20.1400508880615,-15.8280010223389,-6.89505052566528,4.03039979934692,4.94175004959106,5.84333753585815,-4.07989978790283,-4.23376226425171,-3.40422487258911,-51.6150016784668,-50.6940040588379,-39.2820014953613,9.34995079040527,6.35400009155273,7.2529501914978,10.038462638855,7.54256248474121,4.38322496414185,25.3000507354736,27.715051651001,23.1870002746582,1.380499958992,0.92482501268387,1.26073753833771,2.64811253547669,1.46299993991852,1.11113750934601,-7.2460503578186,-3.64695024490356,-2.99595022201538,-2.71005010604858,4.97295045852661,6.8730001449585,1.19817495346069,1.1004124879837,0.95136249065399,10.371000289917,9.37800025939941,7.41795015335083,0.05733750015497,-0.17352500557899,-0.27500000596046,0.07273750007153,-0.80327498912811,-0.57969999313354,-1.00499999523163,-0.30405002832413,0.09900000691414,8.04795074462891,7.67700052261353,7.59600019454956,SWING_LEFT
-4.82611227035522,-4.81758737564087,-5.01545000076294,-2.52600002288818,-2.32200002670288,-2.06205010414124,0.26386249065399,0.68406248092651,0.68035000562668,1.00485002994537,-0.33412501215935,-0.73851251602173,-7.4850001335144,-9.43305015563965,-9.52395057678223,8.57205009460449,8.00505065917969,7.71300029754639,-0.54147499799728,2.1840500831604,4.94518756866455,-16.4599514007568,-16.7089500427246,-15.7939510345459,-1.67626249790192,-1.57973754405975,-1.13753747940063,0.24007499217987,0.07397499680519,-0.76779997348785,-14.8360509872437,-18.2250003814697,-23.97705078125,9.23505020141602,10.6990509033203,12.1729507446289,17.2819633483887,19.7485752105713,19.879337310791,-15.9570007324219,-10.8820505142212,0.71295005083084,5.06508731842041,3.8226375579834,2.88433742523193,-4.86915016174316,-1.64986252784729,-0.25836250185966,-63.5130043029785,-37.6669502258301,-22.3669509887695,2.32905006408691,-5.91405010223389,0.81195002794266,9.28468704223633,8.8204870223999,7.51079988479614,18.6480007171631,14.7139511108398,20.1030006408691,2.61318755149841,1.75670003890991,1.52707493305206,1.15266251564026,1.14413750171661,0.80575001239777,-8.18400001525879,-3.52500009536743,-3.06795024871826,0.65595000982285,4.23600006103516,5.14005041122437,1.60379993915558,1.50975000858307,1.46079993247986,10.2270002365112,9.11700057983398,8.47305011749268,0.98463749885559,0.49953749775887,0.42501249909401,0.44659999012947,0.84603750705719,0.61888748407364,-1.32105004787445,0.19995000958443,0.22605000436306,7.73400020599365,7.62705039978027,8.45895004272461,SWING_LEFT
-4.86516237258911,-5.36978769302368,-5.44059991836548,-2.72895002365112,-3.30105018615723,-4.47105026245117,-1.40263748168945,-1.29387497901917,-1.07277500629425,0.28902500867844,0.10573749989271,0.04578749835491,-6.10200023651123,-5.21700048446655,-5.43000030517578,9.74205017089844,10.40505027771,11.0890502929688,-0.99110001325607,0.42116248607635,2.07776260375977,-12.2550001144409,-12.0180006027222,-12.6499509811401,0.66453748941422,1.23268747329712,1.1336874961853,1.19308745861053,1.1308000087738,0.88274997472763,-12.996000289917,-13.8030004501343,-15.8650503158569,11.613000869751,10.7730007171631,7.93095016479492,12.1789245605469,18.054162979126,19.751049041748,-16.8570003509521,-12.6600008010864,-6.6540002822876,-2.5008499622345,2.85023736953735,4.87822484970093,-2.00901246070862,-3.50322508811951,-3.70961236953735,-58.339054107666,-31.8829517364502,-15.9150009155273,5.38695049285889,21.9049510955811,14.9440507888794,5.35809993743896,3.84078741073608,3.04301238059998,25.2240009307861,17.4829502105713,17.8009510040283,0.29686251282692,1.04321253299713,1.36702501773834,1.66828751564026,1.21137499809265,0.03368749842048,-3.76200008392334,-2.56800007820129,-0.02205000072718,5.66205024719238,10.0219507217407,6.74805021286011,0.6569749712944,0.56773751974106,0.44068750739098,8.38500022888184,7.44195032119751,6.49905014038086,-0.12099999934435,0.10615000128746,0.19910000264645,0.16307500004768,0.20226250588894,0.00921249948442,1.00095009803772,1.17105007171631,0.84300005435944,9.89505004882812,9.8929500579834,9.50505065917969,SWING_LEFT
-3.80833745002747,-4.15291261672974,-4.39725017547607,2.02905011177063,1.02195000648499,-0.3120000064373,-0.72696250677109,-1.31834995746613,-1.987837433815,1.88333749771118,2.15696239471436,2.55034995079041,1.01595008373261,0.73800003528595,-0.44100001454353,5.7480001449585,4.71900033950806,4.08300018310547,-4.27748727798462,-4.12362480163574,-3.97581243515015,-5.44995021820068,-5.3730001449585,-5.16000032424927,-1.08501243591309,0.6767749786377,1.81169998645782,0.25602498650551,-0.13502499461174,-0.41346248984337,-14.1139507293701,-13.6950006484985,-13.6729507446289,13.9180507659912,15.9060010910034,14.2410011291504,10.5198497772217,13.4616622924805,18.9899883270264,-19.4509506225586,-15.8209505081177,-11.5900506973267,2.51789999008179,4.59717512130737,4.3663125038147,-3.89785003662109,-2.84831237792969,-1.73057496547699,-54.2550010681152,-39.7129516601563,-22.0290012359619,12.1830005645752,3.85305023193359,1.54095005989075,6.38797473907471,4.1498875617981,2.93177509307861,33.5299530029297,28.1340007781982,22.9429512023926,-0.16005000472069,-0.52291250228882,-0.23457500338554,1.3249499797821,1.56694996356964,1.64628744125366,-0.98595005273819,-1.93605005741119,-1.21800005435944,-1.86300003528595,2.68500018119812,6.19605016708374,0.72049999237061,0.71678751707077,0.65573751926422,12.6919507980347,8.92800045013428,8.09295082092285,-0.24805000424385,-0.35804998874664,-0.12347500026226,0.69217497110367,0.51012498140335,0.43188750743866,1.69995009899139,2.05200004577637,1.93500006198883,7.09500026702881,8.74695014953613,10.1680507659912,SWING_LEFT
-6.82481241226196,-6.8260498046875,-6.39966249465942,-2.27700018882751,-4.64805030822754,-7.45305013656616,-1.17411243915558,-1.76426243782043,-2.06964993476868,0.18026250600815,-0.21807499229908,-0.1385999917984,-3.72405028343201,-2.84805011749268,-2.86500024795532,5.85405015945435,6.81495046615601,7.84905052185059,-2.09549999237061,-1.07662498950958,0.06448750197887,-10.9030504226685,-10.276050567627,-10.4970006942749,-1.48816251754761,-0.0709500014782,1.10797500610352,0.38183748722076,1.27118754386902,2.24977493286133,-11.4499502182007,-15.0949506759644,-17.1169509887695,13.2949504852295,16.2240009307861,16.006950378418,10.837474822998,15.2002124786377,18.1200256347656,-27.9820518493652,-28.0099506378174,-17.4739513397217,-2.09165000915527,-0.89924997091293,0.97611248493195,-1.51800000667572,-2.79468750953674,-2.42687487602234,-51.4090538024902,-41.4619522094727,-25.219051361084,5.28405046463013,6.77205038070679,15.1830005645752,8.82777500152588,8.3586254119873,5.07100009918213,11.4649505615234,16.4590511322021,24.1110019683838,0.72806251049042,0.73053747415543,0.4129124879837,0.70922499895096,0.70317500829697,0.76298749446869,-3.19200015068054,-0.55305004119873,0.35100001096725,4.50405025482178,6.14100027084351,5.58300018310547,0.18535000085831,0.14877499639988,0.23911249637604,10.0650005340576,7.59000015258789,6.51795053482056,-0.18095000088215,-0.2419999986887,-0.31652501225471,-0.15578749775887,-0.5625125169754,-0.7763249874115,1.2960000038147,1.87695014476776,1.72905004024506,8.34899997711182,8.44305038452148,8.42100048065186,SWING_LEFT
-4.27267503738403,-4.7221622467041,-5.06921243667603,2.52495002746582,1.11795008182526,-0.55605000257492,-1.88883745670319,-1.82283747196198,-1.60668754577637,1.4997124671936,0.88398748636246,0.54188752174377,-2.26605010032654,-3.30000019073486,-5.13105010986328,7.49295043945313,8.80200004577637,9.30405044555664,-5.61412477493286,-5.26226234436035,-4.5622501373291,-4.39200019836426,-6.64905023574829,-8.403000831604,0.27843749523163,0.62548750638962,0.7928249835968,-2.33034992218018,-1.20766246318817,0.37331250309944,-10.1700000762939,-9.67005062103272,-16.8679504394531,12.8530502319336,12.3619508743286,11.1510009765625,12.1629753112793,15.154974937439,15.9722747802734,-11.0089502334595,-4.55505037307739,-1.45605003833771,4.20502519607544,4.09268760681152,3.10186243057251,-2.50511240959167,-0.48798748850822,0.9645624756813,-39.3760528564453,-32.2279510498047,-19.8829517364502,7.07895040512085,2.07000017166138,2.0220000743866,6.01287508010864,5.01971244812012,4.27075004577637,24.9370517730713,19.8090000152588,17.4679508209229,1.46107494831085,1.18621253967285,0.80506247282028,-0.01526249945164,0.33660000562668,0.51493752002716,-3.29805016517639,-2.35500001907349,-0.74400001764297,3.94200015068054,4.16895008087158,4.11405038833618,0.81331247091293,0.27706250548363,0.08030000329018,13.5820503234863,11.4529504776001,9.34905052185059,-0.79048746824265,-0.61710000038147,-0.37757501006126,-0.01278750039637,-0.07136250287294,0.014024999924,-0.57705003023148,-0.31395000219345,-0.22305001318455,8.05500030517578,9.37095069885254,9.68505001068115,SWING_LEFT
-3.57500004768372,-4.28601264953613,-4.97639989852905,1.2520500421524,1.20600008964539,0.86400002241135,-2.62061238288879,-3.02500009536743,-3.11781239509583,2.71163749694824,3.11354994773865,2.75563740730286,-7.43295049667358,-10.78005027771,-12.5629501342773,5.31495046615601,5.24295043945313,7.34700012207031,-5.62993764877319,-3.26837491989136,-0.38637501001358,-8.88105010986328,-16.873950958252,-20.1180000305176,0.31514999270439,1.07497501373291,1.40978753566742,-0.59193748235703,-1.01708745956421,-1.00732505321503,-9.44295024871826,-10.1680507659912,-12.702000617981,16.0930500030518,13.0009508132935,9.6870002746582,11.043999671936,13.5569496154785,17.7865867614746,-7.86900043487549,-8.85705089569092,-3.58605027198792,2.53137493133545,1.43659996986389,1.28149998188019,0.08249999582767,-0.15083749592304,0.0629749968648,-43.4700012207031,-17.8009510040283,-7.03800010681152,5.16900014877319,7.76805019378662,6.94200038909912,1.69056248664856,1.00512504577637,0.8732625246048,21.1300506591797,14.403000831604,8.22900009155273,-0.26028749346733,-0.61091250181198,-0.79420000314713,-0.21188749372959,-0.89003747701645,-1.10742497444153,2.2219500541687,2.10900020599365,1.81500005722046,6.33405017852783,6.99000024795532,7.78500032424927,0.82555001974106,1.13836252689362,1.36798751354218,3.56805014610291,2.70405006408691,3.10905003547669,-0.51191252470016,-0.36533749103546,-0.22852499783039,-1.23323750495911,-1.1672375202179,-0.98890000581741,0.20505000650883,0.53205001354218,0.85095006227493,10.4260501861572,10.6630506515503,10.5409507751465,SWING_LEFT
-4.91287517547607,-5.08626270294189,-5.0289249420166,-1.09500002861023,-1.47795009613037,-3.11400008201599,-0.48262500762939,-0.75872498750687,-1.20463752746582,-2.03101253509521,-2.39387488365173,-1.52281248569489,-1.92705011367798,-1.62495005130768,-2.10600018501282,8.85195064544678,8.0910005569458,7.40700054168701,-1.57877504825592,-1.00581252574921,1.20917499065399,-5.95500040054321,-6.18195009231567,-12.2290506362915,1.07992494106293,2.42989993095398,3.31072497367859,-0.51741248369217,-1.21494996547699,-1.82586252689362,-12.9000005722046,-14.3050508499146,-18.271951675415,17.8320007324219,17.5570507049561,14.7460508346558,12.7641248703003,14.7065877914429,15.5973119735718,-13.7959508895874,-7.77600049972534,-1.75500011444092,4.47259998321533,4.52031230926514,4.93927478790283,-2.47087502479553,-2.46963739395142,-2.04325008392334,-41.2950019836426,-40.7970008850098,-33.4480514526367,5.01405000686646,4.02104997634888,5.12400007247925,11.1038122177124,8.76796245574951,6.48326253890991,17.9779510498047,19.6270503997803,13.3840503692627,1.96803748607636,2.55942487716675,2.26008749008179,0.00068749999627,0.29754999279976,0.97803747653961,-10.0260000228882,-8.44995021820068,-6.76305055618286,2.55405020713806,6.64800024032593,3.6499502658844,2.80596256256104,1.70637500286102,0.5324000120163,16.8820514678955,14.5440006256104,13.4599504470825,0.16609999537468,0.10738749802113,-0.27004998922348,0.40012499690056,0.47341248393059,0.53570002317429,-1.39995002746582,-1.29495000839233,-0.64605003595352,7.37505054473877,7.28400039672852,7.57905054092407,SWING_LEFT
-4.61353731155396,-4.90544986724854,-5.08873748779297,0.04800000041723,-0.78600001335144,-1.97505009174347,-1.67131245136261,-2.00983738899231,-2.21869993209839,2.31824994087219,2.37682509422302,2.13015007972717,-3.96300029754639,-6.03795051574707,-9.02100086212158,5.48295021057129,5.45895004272461,5.63595008850098,-6.25061225891113,-3.47847509384155,-0.20556250214577,-2.99505019187927,-15.7320003509521,-23.8230018615723,0.47396248579025,1.09092497825623,0.87958747148514,-0.83503746986389,0.16554999351501,0.64198750257492,-11.8480501174927,-18.9420013427734,-23.3839511871338,16.8390007019043,8.7180004119873,7.55700016021729,14.9961624145508,17.4689617156982,19.302661895752,-11.2530002593994,-11.2500009536743,4.24995040893555,1.66883754730225,1.29373753070831,1.45626246929169,-2.88873744010925,-1.20271253585815,0.32436248660088,-49.1100006103516,-28.0930519104004,-12.7069501876831,0.63705003261566,2.10405015945435,5.77005004882813,5.48762512207031,3.4925000667572,1.9849499464035,29.4619522094727,25.8529510498047,22.4530506134033,0.05486249923706,-0.70496249198914,-0.94696247577667,0.06421250104904,0.24378749728203,0.28778749704361,-0.1489500105381,-0.81105005741119,-0.76605004072189,1.25700008869171,2.09205007553101,6.29400014877319,-0.23732499778271,-0.16032500565052,-0.09927500039339,10.372950553894,8.14095020294189,6.59505033493042,-0.12099999934435,-0.35928750038147,-0.45581248402596,0.31459999084473,-0.42693749070168,-1.05984997749329,0.18495000898838,0.54704999923706,0.27600002288818,9.06494998931885,9.7300500869751,10.606050491333,SWING_LEFT
-3.72405004501343,-3.89262509346008,-4.13091230392456,0.12900000810623,-0.7620000243187,-1.11405003070831,-0.8955374956131,-0.76614999771118,-0.26276248693466,2.04462504386902,2.02138757705688,1.5778124332428,-1.06305003166199,-1.6470000743866,-3.01500010490417,8.09295082092285,8.75100040435791,10.3429508209229,-4.48277521133423,-3.7705249786377,-2.8419873714447,-5.09295034408569,-8.16795063018799,-9.50100040435791,-1.70073747634888,-1.26211249828339,-0.09295000135899,0.254787504673,-0.06407500058413,-0.23512500524521,-8.5290002822876,-9.61005020141602,-16.1980514526367,8.74695014953613,12.5560503005981,13.3789510726929,14.195912361145,17.4224872589111,19.5799999237061,-18.3000011444092,-14.9020509719849,-7.51500034332275,2.76347494125366,2.88076257705688,3.21296238899231,-1.03537499904633,-1.09766244888306,-0.88261246681213,-60.2820014953613,-52.1560516357422,-28.734001159668,12.4650001525879,7.63905048370361,8.05500030517578,6.59573745727539,4.33193731307983,3.76254987716675,38.5710029602051,26.4130516052246,19.3230018615723,0.82706248760223,0.87835001945496,1.20202493667603,1.40071249008179,1.9296749830246,2.1544873714447,-0.10095000267029,-0.10305000841618,0.76500004529953,2.31405019760132,5.87295007705688,7.08795022964478,1.13960003852844,0.11701250076294,0.04372499883175,15.4339504241943,9.52605056762695,7.03095054626465,-0.49362498521805,-0.3287625014782,-0.19181250035763,-0.20707499980927,-0.33770000934601,-0.04083750024438,1.92495012283325,2.25795006752014,2.94405007362366,8.8210506439209,9.58200073242188,9.41700077056885,SWING_LEFT
-3.24390006065369,-4.11138725280762,-4.44729995727539,1.88295006752014,-0.56805002689362,-1.51095008850098,-1.63954997062683,-1.84112501144409,-2.02936244010925,1.04527497291565,0.55536252260208,-0.75803750753403,-4.91295003890991,-6.76005029678345,-8.6050500869751,7.15800046920776,7.09995031356812,10.0960502624512,-2.57317495346069,1.98247504234314,4.62879991531372,-9.27600002288818,-15.8419504165649,-15.4090509414673,2.23808741569519,3.13733744621277,3.58077502250671,0.98051249980927,1.31037497520447,1.20161247253418,-11.7180004119873,-15.1519508361816,-20.0839500427246,16.1880016326904,14.8870506286621,12.8599510192871,16.8470497131348,19.749813079834,19.8415241241455,-14.4589509963989,-10.4080505371094,4.10595035552979,3.05057501792908,3.62229990959167,4.0951623916626,-2.48558759689331,-1.87343752384186,-2.20577502250671,-53.9100036621094,-28.0360507965088,-13.9819507598877,3.02505016326904,4.94700002670288,5.65995025634766,6.89136266708374,6.14239978790283,5.29209995269775,21.2730007171631,19.0999507904053,19.6750507354736,0.82211250066757,0.9149249792099,1.27049994468689,1.44099998474121,1.08185005187988,0.16073749959469,-5.81505012512207,-4.20705032348633,-2.11605000495911,1.89795005321503,7.05195045471191,8.17500019073486,1.62951254844666,0.93431252241135,0.69354999065399,12.3859510421753,10.3159503936768,9.1429500579834,0.86734998226166,0.92358750104904,0.9149249792099,1.05503749847412,1.02808749675751,0.9755625128746,-0.16305001080036,-0.26295000314713,-0.07695000618696,10.1850004196167,8.96895027160645,8.53095054626465,SWING_LEFT
-4.05281257629395,-4.22386264801025,-4.14933729171753,-3.94695019721985,-5.3299503326416,-6.14100027084351,-0.84425002336502,-1.03977501392365,-0.99701249599457,-0.60362499952316,-1.3171124458313,-2.17236256599426,-5.03700017929077,-6.463050365448,-8.30400085449219,5.91600036621094,7.56405019760132,9.65595054626465,-2.64302492141724,-0.87271249294281,2.10086250305176,-6.14400005340576,-9.34305000305176,-14.3299503326416,2.21608757972717,2.99433755874634,3.30343747138977,0.04509999975562,0.47877499461174,-0.05871250107884,-10.0050001144409,-12.9910507202148,-15.8100004196167,16.8799514770508,15.4279508590698,13.828950881958,12.5184125900269,14.2899627685547,15.3333120346069,-8.64405059814453,-4.86600017547607,-0.44895002245903,5.53066253662109,5.56118726730347,4.70717477798462,-1.39411246776581,-1.81554996967316,-0.7294374704361,-40.7320518493652,-39.6600036621094,-25.336051940918,9.61800003051758,5.85795021057129,1.24995005130768,9.21497535705566,7.24803733825684,5.94192504882813,22.2349510192871,21.3660011291504,19.0500011444092,2.66942501068115,2.06098747253418,0.94311249256134,0.10009999573231,0.60706251859665,1.56970000267029,-4.37400007247925,-2.49405002593994,-0.89505004882813,1.39095008373261,1.35000002384186,2.50800013542175,0.48826250433922,0.17792500555515,0.19634999334812,12.9150009155273,8.83500003814697,8.21700000762939,0.0757625028491,-0.23333749175072,-0.47038748860359,-0.26042500138283,-0.24076250195503,-0.04166249930859,0.01605000160635,0.72900003194809,1.32405006885529,6.34200048446655,6.20505046844482,6.6259503364563,SWING_LEFT
-3.39432501792908,-3.82923746109009,-4.32767486572266,-0.11595000326633,-0.87000006437302,-1.58805012702942,-2.16246247291565,-2.11846256256104,-1.52968752384186,1.47936248779297,1.32536244392395,0.75858747959137,-5.81700038909912,-8.16195011138916,-10.8379507064819,7.0570502281189,7.78005027770996,10.9459505081177,-1.95758748054504,0.862124979496,6.13016223907471,-14.7630004882813,-20.0920505523682,-16.4599514007568,2.00722503662109,1.85212504863739,1.76893746852875,-1.12406253814697,-0.6403374671936,-0.71967500448227,-15.8940010070801,-20.5939502716064,-23.2950019836426,9.43994998931885,6.73905038833618,6.75105047225952,13.6070003509521,14.8359746932983,15.8317499160767,-3.06900024414063,-2.41095018386841,-0.48195001482964,3.59548759460449,3.94487500190735,4.13173770904541,-2.22241258621216,-2.00131249427795,-2.09536242485046,-41.661003112793,-39.7990531921387,-28.4209518432617,8.04795074462891,6.36300039291382,6.83895015716553,9.36526203155518,7.71471261978149,6.68483734130859,25.7599506378174,21.7159519195557,20.6530513763428,1.5246000289917,1.04334998130798,0.95163750648499,1.05297493934631,1.12378752231598,0.72916251420975,-7.42095041275024,-6.09705018997192,-4.16400003433228,-0.86700004339218,2.59905004501343,4.81695032119751,1.62442493438721,1.18827497959137,0.88412499427795,12.7710008621216,11.6370000839233,9.94500064849854,-0.5741999745369,-0.57186251878738,-0.46915000677109,0.04386249929667,0.10738749802113,0.23196250200272,-2.17500019073486,-2.08395004272461,-2.03400015830994,7.22700023651123,8.3299503326416,9.03404998779297,SWING_LEFT
-1.84153747558594,-2.07734990119934,-2.25568747520447,-1.69305002689362,-2.42805004119873,-3.28200006484985,-1.58221244812012,-1.48802495002747,-1.0115875005722,0.69258749485016,0.41772499680519,0.21491250395775,-4.29105043411255,-5.55195045471191,-6.53295040130615,8.17695045471191,10.3090505599976,11.4480009078979,-1.64848744869232,-1.1255749464035,-0.17874999344349,-5.89500045776367,-6.07695007324219,-8.05305004119873,-0.94201248884201,0.26138749718666,1.49902498722076,0.33096250891685,0.17943750321865,-0.00618749996647,-12.2160005569458,-12.4650001525879,-14.776050567627,12.4200010299683,15.7240505218506,15.127950668335,13.4164247512817,16.9923877716064,19.7290496826172,-17.0820007324219,-17.6029510498047,-11.6809501647949,1.46478748321533,1.36221253871918,3.1128625869751,0.77316248416901,0.53982502222061,-0.94943749904633,-60.8059539794922,-50.6920509338379,-36.0640525817871,-2.05605006217957,7.50195026397705,15.1789503097534,11.2479124069214,10.1666126251221,7.79281234741211,17.3940010070801,17.0620498657227,21.3949508666992,2.06579995155334,2.62047505378723,2.88681244850159,0.85992497205734,0.030387500301,-0.23952500522137,-12.9100503921509,-11.8140001296997,-9.6409502029419,2.07000017166138,8.74695014953613,7.62195014953613,2.59201240539551,1.84800004959106,1.294562458992,17.9970016479492,16.94700050354,16.0020008087158,1.34378755092621,0.96511250734329,0.39820000529289,1.35602498054504,0.47272500395775,-0.33247500658035,-5.42295026779175,-4.04400014877319,-3.40500020980835,5.47095012664795,5.58795022964478,3.28395009040833,SWING_LEFT
-4.82982492446899,-5.05092477798462,-4.85306262969971,-0.22605000436306,-1.51395010948181,-2.83905005455017,-3.29504990577698,-3.71043753623962,-3.28638744354248,2.11956238746643,1.8654625415802,0.87216252088547,-6.40095043182373,-6.86100053787231,-8.44200038909912,4.65495014190674,6.38700008392334,11.1559505462646,-2.08958745002747,-0.72490000724792,0.87917500734329,-10.2619504928589,-11.5830001831055,-12.2790002822876,1.25826251506805,1.75065004825592,2.20274996757507,-1.5969250202179,-1.40992498397827,-0.68791252374649,-11.6440505981445,-12.3019504547119,-16.7530498504639,13.9080009460449,13.2829504013062,10.7040004730225,11.1416254043579,14.0236253738403,14.7516870498657,-4.73400020599365,-0.90795004367828,2.62005019187927,4.06697511672974,3.88739991188049,4.02187490463257,1.02492499351501,1.5246000289917,1.74570000171661,-36.5419502258301,-33.0769500732422,-26.8080005645752,8.41200065612793,8.80395030975342,10.9860000610352,9.88693714141846,8.77882480621338,7.41166257858276,14.5870504379272,15.3889503479004,18.5050506591797,3.93016242980957,2.00351238250732,1.29497504234314,0.28091248869896,0.90763747692108,1.47688746452332,-10.0840501785278,-8.10300064086914,-5.59500026702881,4.56405019760132,2.28795003890991,3.55200028419495,2.55667495727539,2.01423740386963,0.85112500190735,15.6430511474609,14.3550004959106,19.0000514984131,-0.36533749103546,-0.7099124789238,-0.46186250448227,-0.14918750524521,-0.37523749470711,-0.64391249418259,-5.66400003433228,-1.88595008850098,-0.1219500079751,-1.83900010585785,2.58705019950867,6.68895053863525,SWING_LEFT
-4.60624980926514,-5.15968751907349,-5.20121240615845,3.27105021476746,2.40300011634827,1.28295004367828,-3.1825749874115,-3.76777505874634,-4.32616233825684,1.89846253395081,2.32237505912781,1.54041254520416,-1.41195011138916,-2.35500001907349,-5.42700004577637,2.52705001831055,3.9060001373291,6.27195024490356,-3.49690008163452,-2.00887489318848,-0.61489999294281,-5.81805038452148,-7.213050365448,-9.96105003356934,-1.40621244907379,-0.27004998922348,1.42449998855591,-0.5682874917984,-0.42157500982285,-0.66233748197556,-11.4670505523682,-13.4170503616333,-20.332950592041,17.8129501342773,16.1500511169434,14.2050008773804,11.9209747314453,14.1396751403809,14.3375377655029,-6.70605039596558,-1.01595008373261,3.41700005531311,6.01314973831177,4.20997476577759,2.00970005989075,-0.25299999117851,1.96927499771118,2.71452498435974,-38.7340507507324,-30.6199512481689,-23.7400512695313,5.44695043563843,0.02205000072718,-0.39600002765656,8.60777473449707,7.91133737564087,7.53389978408813,19.0720500946045,15.4150505065918,14.6089506149292,1.12997496128082,1.15816247463226,0.83558750152588,0.65958750247955,0.86968749761581,0.46777498722076,-5.24805021286011,-1.38300001621246,-1.09905004501343,3.64695024490356,8.07705020904541,6.41595029830933,2.22681260108948,2.60548758506775,2.87677502632141,6.66195011138916,5.75505018234253,6.96795034408569,0.7537750005722,0.88453751802444,0.82582497596741,0.47272500395775,0.27843749523163,-0.1394249945879,-1.03905010223389,-1.50300002098084,-1.6030501127243,9.41205024719238,8.91900062561035,8.38500022888184,SWING_LEFT
-3.49456238746643,-3.62766242027283,-3.6704249382019,2.68500018119812,1.125,-1.10895001888275,-1.51250004768372,-2.37875008583069,-2.56561255455017,1.26555001735687,0.80616247653961,1.03949999809265,-0.79200005531311,-3.64500021934509,-5.7049503326416,6.06900024414063,5.76495027542114,6.03300046920776,-4.94711256027222,-4.07109975814819,-2.79936242103577,-1.10205006599426,-5.93595027923584,-11.9610004425049,-0.60362499952316,0.82458752393723,1.86917495727539,-1.97560000419617,-2.08065009117126,-1.23777496814728,-11.8360509872437,-13.9320011138916,-20.6650505065918,16.8540000915527,16.8870010375977,13.7089509963989,13.6240501403809,14.8482122421265,15.222074508667,-10.6780500411987,-4.12200021743774,1.09800004959106,2.42866253852844,2.75618743896484,3.05305004119873,-2.29212498664856,-3.27676248550415,-4.05625009536743,-38.3200531005859,-35.3290519714355,-31.7610015869141,6.44700050354004,5.63100004196167,4.7310004234314,11.4212999343872,9.42136287689209,7.26137495040894,12.1080007553101,17.8060512542725,21.0430507659912,2.06098747253418,1.91798746585846,2.07803750038147,-0.35447499155998,-0.27623748779297,-0.13323749601841,-5.96295022964478,-6.12405014038086,-7.12395048141479,3.05400013923645,4.62600040435791,4.85805034637451,3.99341249465942,3.08192491531372,2.66777491569519,14.4079504013062,14.731050491333,14.0509510040283,0.83929997682571,0.72324997186661,0.72324997186661,0.50806248188019,0.17462499439716,0.06833750009537,-3.10095024108887,-3.16800022125244,-2.85000014305115,5.17905044555664,6.2839503288269,6.96405029296875,SWING_LEFT
-3.3148500919342,-3.99891257286072,-4.81139993667603,0.7950000166893,0.41895002126694,-0.06599999964237,-1.07153749465942,-0.99206250905991,-0.75143748521805,1.99210000038147,1.59128749370575,0.9315624833107,-8.67495059967041,-11.0839509963989,-13.678050994873,7.96905040740967,8.59800052642822,9.65805053710938,-4.28367519378662,-1.19996249675751,2.58843755722046,-12.6619510650635,-20.8000507354736,-25.3830013275146,3.04204988479614,3.25819993019104,2.91376256942749,0.9620875120163,1.5497624874115,1.78804993629456,-12.667950630188,-17.4799499511719,-25.2570018768311,14.5009508132935,11.9550008773804,8.84895038604736,16.9215755462646,18.5391254425049,18.8397006988525,-11.6910009384155,-5.44305038452148,1.24005007743835,-0.64391249418259,1.05668747425079,3.12262487411499,-2.04325008392334,-2.27411246299744,-1.39205002784729,-51.8710517883301,-42.4650001525879,-27.2550010681152,6.00405025482178,12.01305103302,15.5710506439209,6.45026254653931,6.03982496261597,5.83948755264282,23.6280002593994,17.5350017547607,15.8700008392334,1.60283744335175,1.8654625415802,1.58455002307892,1.62800002098084,1.39823746681213,0.92551249265671,-6.92100048065186,-2.68005013465881,-3.1519501209259,8.56905078887939,8.05305004119873,6.98295021057129,2.08023738861084,1.36551249027252,-0.16775000095367,12.1819505691528,13.9150505065918,13.40505027771,-0.29205000400543,-0.38252499699593,-0.2773374915123,0.15950000286102,-0.15578749775887,-0.34759998321533,-1.94805014133453,-1.3620001077652,-0.76800000667572,7.57395029067993,9.17700004577637,9.42405033111572,SWING_LEFT
-4.76492500305176,-5.85103750228882,-6.4021372795105,3.3360002040863,4.12995004653931,3.74295020103455,-2.14293742179871,-3.18752503395081,-4.57655000686646,0.04702499881387,0.20226250588894,0.74346250295639,-3.57300019264221,-5.64495038986206,-10.4599504470825,3.42195010185242,3.63105010986328,5.95605039596558,-4.84921264648438,-1.58248746395111,1.51332497596741,-7.75200033187866,-16.2280502319336,-23.0659503936768,0.69382500648499,2.02180004119873,2.7230498790741,-0.63580000400543,-0.87285000085831,-0.93389999866486,-14.4679508209229,-17.9089508056641,-22.1059513092041,20.2999515533447,16.3009510040283,12.4650001525879,13.7341871261597,16.0480365753174,17.402961730957,-12.282000541687,-10.1830501556396,-5.09595012664795,4.01445007324219,2.98210000991821,2.64123749732971,-2.82754993438721,-1.32247495651245,-0.15578749775887,-45.1500015258789,-44.2210502624512,-39.553050994873,-0.95100003480911,-2.11605000495911,4.24995040893555,12.3707370758057,6.46992492675781,5.09547519683838,26.9869518280029,27.2290515899658,21.4620018005371,1.93998754024506,1.1446875333786,0.69877499341965,-0.07136250287294,0.35983750224113,0.6982250213623,-4.42905044555664,-3.97200012207031,-3.98895025253296,1.16295003890991,1.15095007419586,3.63495016098022,2.02894997596741,0.64597499370575,0.21711249649525,14.3290510177612,12.8400001525879,10.687050819397,-0.18095000088215,-0.09899999946356,-0.10518749803305,0.2938374876976,-0.04578749835491,-0.18754999339581,-1.182000041008,-0.94500005245209,-0.33000001311302,8.05500030517578,8.50500011444092,8.73900032043457,SWING_LEFT
-4.62082481384277,-5.24026250839233,-6.03803730010986,3.22095012664795,4.72095012664795,4.97700023651123,-1.14730000495911,-1.63102495670319,-1.97312498092651,1.50218749046326,1.8405749797821,1.78928744792938,-0.02895000204444,-0.96495002508163,-1.1779500246048,4.61400032043457,4.08300018310547,4.56599998474121,-6.26284980773926,-5.99279975891113,-5.36002492904663,-4.6429500579834,-5.58600044250488,-5.4810004234314,-2.23093748092651,-1.80331254005432,-1.1583000421524,-0.02873750030994,-1.06342494487762,-1.18442499637604,-7.32495021820068,-12.1390504837036,-13.5660009384155,7.65495014190674,9.80400085449219,12.4240503311157,6.51626253128052,11.2943878173828,16.3656616210938,-29.3310012817383,-29.8069515228271,-29.8309516906738,2.29789996147156,0.68406248092651,1.08721244335175,-1.0451375246048,-2.12753748893738,-3.21612501144409,-77.0730056762695,-78.3730545043945,-76.4460067749023,4.875,-2.27205014228821,5.75505018234253,10.6566619873047,8.83753776550293,8.00800037384033,32.9269523620605,24.0970516204834,19.4740505218506,2.19408750534058,2.41037487983704,2.47994995117188,1.07085001468658,0.74222499132156,0.81303751468658,-13.2520503997803,-15.6499509811401,-13.4839506149292,1.19505000114441,6.2839503288269,5.79795026779175,4.39051246643066,2.97453737258911,1.65880000591278,22.021951675415,21.0739517211914,18.9829502105713,1.41583752632141,0.95287501811981,0.42748749256134,0.72269999980927,0.65065002441406,0.70069998502731,-4.29795026779175,-4.04700040817261,-3.64905023574829,7.75800037384033,6.51600027084351,6.31305027008057,SWING_LEFT
-1.22567498683929,-2.06139993667603,-3.13651251792908,1.32600009441376,3.77595019340515,3.98400020599365,-0.95548748970032,-1.1253000497818,-1.15706253051758,-0.07259999960661,-1.10866248607636,-1.66581249237061,-0.61995005607605,-2.97900009155273,-5.51295042037964,8.90700054168701,10.5889501571655,11.0770502090454,-6.47900009155273,-5.3770751953125,-3.78757500648499,1.74705004692078,-5.5290002822876,-9.72405052185059,0.22110000252724,1.0066374540329,1.63336253166199,1.30171251296997,1.05256247520447,0.88274997472763,-4.3840503692627,-6.80100011825562,-9.99495029449463,15.0589504241943,14.9779510498047,10.8259506225586,8.41843700408936,13.0255126953125,18.3632621765137,-5.83005046844482,-10.5420007705688,-8.11800003051758,2.11474990844727,3.30714988708496,3.65406250953674,-0.94366252422333,-0.7763249874115,-1.06466245651245,-47.5980033874512,-28.9860019683838,-16.0690498352051,11.4169502258301,10.0530004501343,9.86595058441162,7.05141258239746,6.60797500610352,6.40021228790283,19.066951751709,14.0539503097534,12.7620010375977,2.65347504615784,2.03898739814758,1.64807498455048,-0.77027499675751,-0.25588750839233,0.34636250138283,-7.49505043029785,-6.35805034637451,-4.18994998931885,2.04404997825623,2.13495016098022,3.32895016670227,3.61473751068115,2.75948739051819,1.95566248893738,15.2530508041382,14.4580507278442,13.1400003433228,0.76477497816086,0.4311999976635,0.12333749979734,0.10573749989271,0.20831249654293,0.37083750963211,0.40095001459122,0.28800001740456,0.26399999856949,5.99895048141479,5.76495027542114,5.68800020217896,SWING_LEFT
-2.90798759460449,-3.47118759155273,-4.09667491912842,0.98805004358292,0.50700002908707,-0.05205000191927,-0.84177500009537,-1.20106244087219,-1.29016244411469,1.93833744525909,2.18872499465942,1.41542494297028,-3.35700011253357,-5.33205032348633,-9.98295021057129,6.79395055770874,6.40095043182373,8.48805046081543,-4.79558753967285,-1.6935875415802,3.34345006942749,-6.95700025558472,-14.4160509109497,-17.1420001983643,2.00846242904663,2.10374999046326,2.25761246681213,-0.25712499022484,-0.03107500076294,0.4478375017643,-10.1149501800537,-14.767050743103,-18.2580013275146,10.312050819397,7.70100021362305,8.64405059814453,15.0438747406006,17.5445880889893,18.3985996246338,-12.8419504165649,-10.0900506973267,-2.46795010566711,2.1513249874115,3.67234992980957,5.21661233901978,-1.55704998970032,-2.15201258659363,-2.6784999370575,-50.0740509033203,-41.5909538269043,-27.1570510864258,9.32295036315918,12.7930507659912,13.4370002746582,8.74101257324219,7.70261240005493,7.03422498703003,21.3619518280029,18.5719509124756,18.5190010070801,2.73047494888306,1.95098745822906,1.28878748416901,0.56993746757507,1.57299995422363,1.66333746910095,-8.1739501953125,-6.10695028305054,-3.82395029067993,-1.5040500164032,0.02895000204444,4.0420503616333,2.03018760681152,1.86518752574921,1.48651254177094,14.1640510559082,10.8229503631592,10.4089508056641,0.26867499947548,0.35791251063347,0.45443749427795,0.03602499887347,0.12155000120401,0.08002500236034,-1.35705006122589,-0.93795001506805,0.37200000882149,7.76505041122437,8.87295055389404,8.13195037841797,SWING_LEFT
-4.2421498298645,-4.83339977264404,-6.38137483596802,4.37205028533936,3.67095017433167,2.13705015182495,-1.62744998931885,-2.7025625705719,-2.93094992637634,1.1978999376297,0.82403749227524,0.85703748464584,-4.6690502166748,-10.0860004425049,-11.0460004806519,4.85805034637451,4.4850001335144,6.89400053024292,-1.80482494831085,1.48156249523163,5.59019994735718,-21.9709510803223,-24.1939506530762,-12.9520502090454,1.11416244506836,0.94792497158051,1.09216248989105,0.03492499887943,-0.08483749628067,-0.15331250429153,-17.7840003967285,-20.5309505462646,-25.5610504150391,9.71805000305176,9.46695041656494,11.203950881958,13.7377624511719,16.9790496826172,17.725399017334,-13.1410503387451,-6.14400005340576,-2.29605007171631,4.25631237030029,5.46713733673096,6.25514984130859,-1.14537501335144,-0.35365000367165,0.48317500948906,-53.6899528503418,-49.1029510498047,-37.2480010986328,10.651050567627,15.6739511489868,11.296950340271,11.8393001556396,9.83083724975586,7.92495012283325,23.6710510253906,23.6830520629883,24.9220504760742,1.93998754024506,0.13186250627041,-1.17658746242523,-0.02859999984503,0.75817501544952,0.89622497558594,-13.2690010070801,-10.2160501480103,-8.45700073242188,-7.74705028533936,-6.90900039672852,-2.15700006484985,1.9849499464035,1.16641247272491,0.89031249284744,17.5429515838623,15.0610504150391,11.6179504394531,-0.50338751077652,-0.58891248703003,0.09528750181198,-0.13007499277592,0.014024999924,0.52964997291565,-6.58500051498413,-5.24805021286011,-3.34095025062561,8.425950050354,9.925950050354,11.5890007019043,SWING_LEFT
-5.64217519760132,-5.53093767166138,-4.97021245956421,-4.20105028152466,-4.74195003509521,-6.25200033187866,-2.79290008544922,-1.89859998226166,-0.7099124789238,1.21508753299713,0.98656249046326,0.60664999485016,-11.4739503860474,-11.7660007476807,-12.5959501266479,9.17505073547363,12.3690004348755,13.993950843811,0.6349750161171,2.4418625831604,4.38803768157959,-14.2339506149292,-14.5840511322021,-13.9690504074097,2.80857491493225,3.33520007133484,3.9143500328064,-1.76838743686676,-1.84167504310608,-1.5300999879837,-17.5159511566162,-19.1700000762939,-21.631950378418,11.0410509109497,9.46005058288574,8.75100040435791,12.3499746322632,14.1201496124268,15.5385999679565,-8.96700000762939,-7.02405023574829,-4.28700017929077,3.93744993209839,3.01757502555847,2.42137503623962,-1.43728744983673,-0.68103748559952,-0.3768875002861,-41.0839538574219,-37.6930503845215,-25.8559513092041,2.30505013465881,-0.12795001268387,2.46495008468628,8.16557502746582,7.81742477416992,8.13504981994629,19.230001449585,10.1440505981445,6.21900033950806,2.31990003585815,1.810462474823,1.96198749542236,-0.37812501192093,-0.82637500762939,-1.52776253223419,-11.4450006484985,-12.7810506820679,-13.0870504379272,1.72305011749268,4.69500017166138,8.83995056152344,5.87248754501343,4.86695003509521,4.32822513580322,20.6530513763428,18.7080001831055,15.9580507278442,2.78905010223389,2.57290005683899,2.10608744621277,1.31394994258881,1.57423746585846,1.5387624502182,-6.088050365448,-4.73594999313354,-4.06305027008057,6.38700008392334,5.0179500579834,3.5110502243042,SWING_LEFT
-5.08873748779297,-5.24631261825562,-5.23654985427856,-2.66505002975464,-2.581050157547,-3.25305008888245,-2.61208748817444,-2.46056246757507,-1.86436247825623,0.94627499580383,0.62741249799728,0.13378749787807,-7.4040002822876,-8.82000064849854,-9.79200077056885,6.60195016860962,8.10494995117188,10.2330007553101,-2.51583743095398,-0.69300001859665,1.86642503738403,-10.0630502700806,-12.2170505523682,-15.4000511169434,1.03839993476868,1.69441246986389,1.82393753528595,-2.48792505264282,-2.5393500328064,-1.375,-13.5199508666992,-15.8700008392334,-21.8119506835938,13.3390502929688,12.2809505462646,9.39300060272217,15.405499458313,17.6778240203857,17.925874710083,-13.0690507888794,-7.25400018692017,2.46705007553101,5.74928760528564,5.92033767700195,5.45118761062622,-2.7201623916626,-2.07748746871948,-1.99567496776581,-54.6180038452149,-41.7250518798828,-28.9639511108398,8.22705078125,3.37695026397705,1.42905008792877,10.0555124282837,8.73977470397949,7.88823747634888,13.1710510253906,12.2689504623413,10.443000793457,1.15321254730225,1.07745003700256,1.33650004863739,-1.7158625125885,-0.90337496995926,0.17902499437332,-9.34005069732666,-8.92605018615723,-7.91595029830933,3.70695018768311,4.12305021286011,6.04995012283325,4.65684986114502,4.36122512817383,4.18041229248047,11.2729501724243,10.818000793457,11.4480009078979,1.90698754787445,1.77869999408722,1.87041246891022,0.66893750429153,0.57846248149872,1.05379998683929,-8.31599998474121,-7.73895025253296,-6.65505027770996,6.53295040130615,7.06395053863525,7.81305027008057,SWING_LEFT
-5.25855016708374,-4.76987504959106,-4.16267490386963,-3.94005012512207,-5.90505027770996,-6.26805019378662,-0.40810000896454,-0.71719998121262,-1.13987493515015,-1.7598625421524,-1.28452503681183,-0.74456250667572,-6.52305030822754,-7.08300018310547,-8.70105075836182,8.68905067443848,7.67700052261353,7.27695035934448,-0.34485000371933,0.99054998159409,3.08701252937317,-6.69405031204224,-8.3430004119873,-12.6310510635376,0.43972501158714,1.99979996681213,3.55382490158081,-0.36712500452995,-1.43852496147156,-1.90643751621246,-14.6929502487183,-18.3610515594482,-24.6900005340576,16.6770000457764,18.4309501647949,15.9760503768921,14.7555370330811,16.90576171875,19.2733745574951,-12.3370504379272,-8.48400020599365,-0.95400005578995,2.24661254882813,2.4421374797821,4.56183767318726,1.34337496757507,-1.59486246109009,-3.958899974823,-57.9160537719727,-53.9340019226074,-45.7429504394531,4.4850001335144,10.9530000686646,12.5659503936768,13.3395624160767,10.2608003616333,7.68184995651245,22.7419509887695,27.6139507293701,28.9590015411377,1.38531243801117,0.00481249997392,-0.18576249480247,2.62116241455078,3.03902506828308,2.04091238975525,-11.6749505996704,-10.3810501098633,-9.4549503326416,-7.54305028915405,-0.6810000538826,6.75795030593872,2.01423740386963,1.1591249704361,0.78897500038147,18.8749504089355,16.7620506286621,12.8719501495361,0.08662500232458,-0.39957499504089,-0.55962496995926,0.65065002441406,0.46612501144409,0.44536250829697,-6.54195022583008,-5.36505031585693,-4.45305013656616,6.08595037460327,7.46400022506714,8.98305034637451,SWING_LEFT
-5.41131258010864,-6.47047519683838,-7.30124998092651,-0.29595002532005,-1.53000009059906,-2.95905017852783,-0.82472497224808,-0.75748747587204,-0.66096252202988,2.65058755874634,1.29442501068115,-0.12278749793768,-13.2570009231567,-16.3650016784668,-15.399001121521,5.36505031585693,6.67695045471191,9.05295085906982,-1.61782503128052,2.94153738021851,6.93536233901978,-26.3950519561768,-32.4540023803711,-25.8660011291504,2.37984991073608,2.74147486686707,3.01757502555847,-0.26565000414848,-0.51370000839233,-0.34869998693466,-23.1400508880615,-27.961051940918,-31.8949508666992,11.4670505523682,10.1320505142212,8.77005004882813,15.7341251373291,17.6631126403809,18.9410381317139,-7.15800046920776,-6.16800022125244,-1.77195012569427,1.83741247653961,2.37490010261536,3.37919998168945,-0.53074997663498,0.32078748941422,1.00251245498657,-56.8080024719238,-47.662052154541,-35.1259498596191,5.3100004196167,8.40900039672852,12.0370502471924,9.84417533874512,8.57367515563965,7.57308769226074,31.7370014190674,25.381950378418,24.8719520568848,2.91981244087219,2.43966245651245,2.2893750667572,2.19367504119873,3.2210750579834,2.86192488670349,-11.3190002441406,-6.58305025100708,-5.00595045089722,2.02500009536743,4.40595006942749,6.64605045318604,1.2311749458313,0.63126248121262,0.14877499639988,20.1889514923096,16.9519500732422,15.6829509735107,-0.70496249198914,-0.42281249165535,-0.16376249492168,0.91698747873306,0.57612502574921,0.2230249941349,-1.39800012111664,-1.16295003890991,-1.13700008392334,8.11695003509521,12.4510507583618,12.3840007781982,SWING_LEFT
-7.63234996795654,-7.82416248321533,-7.16691255569458,1.29195010662079,-0.97305005788803,-5.11695003509521,-1.56502497196198,-1.13987493515015,-0.27252501249313,1.21013748645782,1.10137498378754,0.684750020504,-10.4479503631592,-7.46595048904419,-7.23900032043457,9.60795021057129,12.2070007324219,14.308051109314,2.0656623840332,4.64708757400513,6.90359973907471,-16.7179508209229,-14.8560009002686,-11.6689500808716,1.6993625164032,1.58688747882843,1.3585000038147,1.54123747348785,1.93338751792908,2.24496245384216,-15.4150505065918,-18.7650012969971,-24.0900020599365,8.57895088195801,8.38005065917969,8.24400043487549,17.9636878967285,20.9299755096436,21.8547992706299,-14.0380506515503,-12.2740507125854,-0.00600000005215,0.92111247777939,2.5752375125885,4.89169979095459,-0.94737499952316,-0.67856252193451,-1.59362494945526,-65.2480545043945,-31.7370014190674,-20.2230014801025,9.51900005340576,19.6920013427734,22.2780017852783,7.91271257400513,8.24986267089844,8.54191207885742,18.715051651001,13.7550010681152,13.9150505065918,1.68093752861023,1.6773624420166,2.04503750801086,0.46860000491142,-0.58822500705719,-0.45498749613762,-15.4110012054443,-15.3169507980347,-10.3590002059937,3.88905024528503,7.48095035552979,6.84405040740967,3.43392491340637,0.77673751115799,-0.55247497558594,28.0759506225586,30.8020515441895,21.586950302124,-0.5876749753952,-0.32628750801086,-0.31404998898506,0.12649999558926,0.18878750503063,0.91808748245239,0.22605000436306,-2.11605000495911,-2.33295011520386,7.40700054168701,8.48805046081543,8.03595066070557,SWING_LEFT
-3.62161254882813,-3.25008749961853,-2.80541253089905,-2.0419499874115,-3.85605025291443,-5.1340503692627,-1.73126244544983,-1.40139997005463,-0.84425002336502,0.89663749933243,1.17397499084473,1.49407494068146,-3.70905017852783,-4.13295030593872,-4.90800046920776,9.1560001373291,10.6180505752563,12.0610504150391,-0.81647497415543,0.00329999998212,0.99412500858307,-7.60395050048828,-9.62805080413818,-10.3699502944946,0.92111247777939,1.04334998130798,0.18809999525547,1.3278374671936,0.55330002307892,-0.00508749997243,-7.92105054855347,-8.21295070648193,-11.6350507736206,9.0,9.31395053863525,5.87295007705688,14.0919628143311,18.138313293457,20.433874130249,-27.8880004882813,-24.0690002441406,-13.5330009460449,-1.26568746566772,1.87164998054504,4.58988761901855,-1.61397504806519,-2.91513752937317,-4.05501270294189,-64.9440002441406,-56.427001953125,-38.7289505004883,15.1690511703491,19.9620018005371,18.7870502471924,11.4079627990723,9.97480010986328,8.92539978027344,15.9270009994507,15.5760011672974,16.3290004730225,1.84965002536774,1.33650004863739,1.60036253929138,1.31202495098114,0.95768749713898,0.45677500963211,-11.1559505462646,-12.3600006103516,-10.078950881958,-0.45795002579689,5.12100028991699,7.9980001449585,3.82236242294312,1.52789998054504,0.80588752031326,21.3070507049561,17.2170009613037,15.0229511260986,1.52102494239807,1.20340001583099,0.8123499751091,0.81840002536774,0.89045000076294,0.60582500696182,-3.07500004768372,-2.66100001335144,-2.050950050354,5.55900049209595,5.32500028610229,5.91600036621094,SWING_LEFT
-1.24781250953674,-1.57643747329712,-2.0491623878479,4.33800029754639,4.08494997024536,5.48700046539307,0.26510000228882,0.55701249837875,0.54848748445511,-0.74662500619888,-0.73562496900558,-0.47052499651909,0.91500002145767,0.29805001616478,-0.46695002913475,12.3450002670288,11.5729503631592,9.62205028533936,-4.77606248855591,-4.81277513504028,-4.76630020141602,2.47005009651184,0.65595000982285,-0.37005001306534,-1.64807498455048,-2.22117495536804,-2.37751245498657,1.18854999542236,1.62841248512268,1.75917494297028,-4.4320502281189,-7.90395021438599,-10.4449501037598,4.4370002746582,5.1670503616333,8.22195053100586,-3.54213738441467,-0.41703748703003,3.87241244316101,-11.2740001678467,-23.6430015563965,-30.5370006561279,4.28202486038208,5.77128744125366,5.88128757476807,-1.47111248970032,-0.92619997262955,0.20019999146461,-13.4119510650635,-22.7500514984131,-30.2509517669678,24.7840518951416,17.8540515899658,10.5390005111694,13.3456125259399,13.5287628173828,13.1353750228882,-4.75605010986328,-1.02300000190735,1.69395005702972,2.69747495651245,2.97852492332459,3.38648748397827,-0.26042500138283,-0.71733748912811,-0.51686251163483,-26.803050994873,-23.5939502716064,-22.0530014038086,7.26795053482056,9.46200084686279,9.79500007629394,9.76112461090088,9.77198791503906,10.1813249588013,11.0479507446289,10.6920003890991,12.1540508270264,4.24421262741089,4.55455017089844,4.4763126373291,1.15802502632141,1.79575002193451,2.1733250617981,-23.4360008239746,-20.8930511474609,-18.2770500183105,10.1890506744385,9.12705039978027,7.42995023727417,SWING_LEFT
12.5906000137329,13.3456125259399,13.5287628173828,-9.45105075836182,-4.75605010986328,-1.02300000190735,3.00533747673035,2.69747495651245,2.97852492332459,0.48124998807907,-0.26042500138283,-0.71733748912811,-30.9310512542725,-26.803050994873,-23.5939502716064,6.72705030441284,7.26795053482056,9.46200084686279,10.5271377563477,9.76112461090088,9.77198791503906,9.69105052947998,11.0479507446289,10.6920003890991,3.80558753013611,4.24421262741089,4.55455017089844,0.83916246891022,1.15802502632141,1.79575002193451,-22.4100017547607,-23.4360008239746,-20.8930511474609,10.0000505447388,10.1890506744385,9.12705039978027,8.22043704986572,7.17956256866455,5.8125376701355,21.984001159668,21.0409507751465,18.7800006866455,0.26138749718666,-0.06118749827147,-0.37509998679161,1.18731248378754,1.84703743457794,1.18002498149872,-8.12400054931641,0.33900001645088,-3.4939501285553,-11.752950668335,0.86205005645752,4.12800025939941,-0.90571248531342,-1.07428753376007,-0.77123749256134,9.67905044555664,4.94100046157837,0.62700003385544,-0.47409999370575,-0.40204998850822,-0.26757499575615,-0.38747498393059,-0.24076250195503,-0.11013749986887,-1.58205008506775,-1.04595005512238,-0.55305004119873,13.0590009689331,11.5030508041382,11.568000793457,0.18411250412464,0.04111250117421,-0.28503748774529,2.39805006980896,4.50600004196167,6.55200052261353,-0.39833748340607,-0.47657498717308,-0.52786248922348,-0.41552498936653,-0.34471249580383,-0.40823748707771,-0.0430500023067,-0.64905005693436,-1.06005001068115,8.24400043487549,7.71795034408569,7.95900058746338,SWING_LEFT
10.8532876968384,12.5673627853394,13.5727624893188,-13.7700004577637,-9.64905071258545,-5.4859504699707,0.7097749710083,1.3194500207901,2.13922500610352,-0.48633748292923,-1.56145000457764,-2.43746256828308,-30.0289516448975,-31.2280521392822,-30.340051651001,9.61305046081543,11.5870504379272,11.5750503540039,13.027850151062,12.2190752029419,11.8318748474121,4.34295034408569,7.21200037002563,8.43795013427734,4.18068742752075,4.1562123298645,3.83858752250671,-0.21518750488758,0.67058748006821,1.17026245594025,-21.7420501708984,-18.7680015563965,-15.2500505447388,9.9859504699707,7.9980001449585,6.27495050430298,7.77947473526001,6.06540012359619,4.02874994277954,20.6410503387451,22.5030002593994,21.9769515991211,-0.50338751077652,-0.72696250677109,-0.04152499884367,0.47877499461174,0.56182497739792,-0.0954250022769,-7.50900030136108,-0.60105001926422,0.3649500310421,-0.19005000591278,2.75205016136169,9.2629508972168,-1.42738747596741,-0.87147498130798,-0.22646249830723,6.13995027542114,2.73795008659363,0.09300000220537,0.28462499380112,0.29067498445511,-0.02076249942183,0.11962500214577,0.12938749790192,0.33096250891685,0.05400000140071,1.26705002784729,2.37495017051697,13.3189506530762,9.64395046234131,7.75605058670044,-0.38651248812675,-0.43161249160767,-0.45980000495911,4.49895000457764,3.84795022010803,3.58200025558472,-0.0757625028491,-0.04647500067949,-0.04523750022054,-0.02818750031292,-0.03437500074506,0.04867500066757,2.12100005149841,2.20500016212463,1.8270001411438,9.06704998016357,8.62905025482178,8.2369499206543,SWING_LEFT
