gyro_x_0,gyro_y_0,gyro_z_0,acc_x_0,acc_y_0,acc_z_0,gyro_x_1,gyro_y_1,gyro_z_1,acc_x_1,acc_y_1,acc_z_1,gyro_x_2,gyro_y_2,gyro_z_2,acc_x_2,acc_y_2,acc_z_2,gyro_x_3,gyro_y_3,gyro_z_3,acc_x_3,acc_y_3,acc_z_3,gyro_x_4,gyro_y_4,gyro_z_4,acc_x_4,acc_y_4,acc_z_4,gyro_x_5,gyro_y_5,gyro_z_5,acc_x_5,acc_y_5,acc_z_5,gyro_x_6,gyro_y_6,gyro_z_6,acc_x_6,acc_y_6,acc_z_6,gyro_x_7,gyro_y_7,gyro_z_7,acc_x_7,acc_y_7,acc_z_7,gyro_x_8,gyro_y_8,gyro_z_8,acc_x_8,acc_y_8,acc_z_8,gyro_x_9,gyro_y_9,gyro_z_9,acc_x_9,acc_y_9,acc_z_9,gyro_x_10,gyro_y_10,gyro_z_10,acc_x_10,acc_y_10,acc_z_10,gyro_x_11,gyro_y_11,gyro_z_11,acc_x_11,acc_y_11,acc_z_11,gyro_x_12,gyro_y_12,gyro_z_12,acc_x_12,acc_y_12,acc_z_12,gyro_x_13,gyro_y_13,gyro_z_13,acc_x_13,acc_y_13,acc_z_13,gyro_x_14,gyro_y_14,gyro_z_14,acc_x_14,acc_y_14,acc_z_14,motion_type
-0.09886249899864,-0.02076249942183,0.12952500581741,0.01168750040233,-0.14588749408722,-0.34993749856949,2.01405000686646,2.47305011749268,3.00405025482178,10.2949504852295,10.7899503707886,11.3020505905151,0.43587499856949,0.31858751177788,0.29411250352859,1.88595008850098,2.68995022773743,3.16095018386841,0.5986750125885,0.74524998664856,0.73919999599457,-1.89667499065399,-2.15682506561279,-2.25706243515015,3.52800011634827,3.83205008506775,3.56205010414124,11.0580005645752,10.8240003585815,9.8860502243042,-0.67347496747971,-1.32701253890991,-2.2506000995636,12.1729507446289,14.9680509567261,18.4540500640869,-0.69753748178482,-0.85758751630783,-0.62906247377396,-0.41841250658035,0.66769999265671,1.21261250972748,1.20195007324219,-0.50295001268387,-3.38595008850098,9.90195083618164,11.1900005340576,13.1400003433228,-7.63716268539429,-8.99442481994629,-9.85462474822998,21.9259510040283,18.6580505371094,14.5590009689331,2.2199375629425,2.39098739624023,1.84112501144409,-0.2606999874115,-0.08607500046492,0.02516249939799,-17.6620502471924,-20.7870006561279,-22.9339504241943,12.142050743103,7.87095022201538,4.29105043411255,-11.3291749954224,-10.5986375808716,-9.4379997253418,3.09705018997192,-1.81500005722046,-5.92095041275024,0.83943748474121,0.98229998350143,0.8320124745369,-1.06466245651245,-1.47881245613098,-1.87591254711151,-14.1730508804321,-13.9390506744385,-14.2330503463745,9.1200008392334,8.79195022583008,8.3899507522583,-5.69469976425171,-4.57187509536743,-3.37823748588562,-9.30495071411133,-10.8910503387451,-11.6880006790161,SWING_RIGHT
-0.09886249899864,-0.00481249997392,0.04399999976158,-0.02007500082254,-0.5490375161171,-1.39328753948212,3.17400026321411,3.63105010986328,3.72195029258728,10.9600505828857,11.0149507522583,11.2590007781982,2.59104990959167,2.81696248054504,3.19701242446899,-0.69300001859665,0.21300001442432,1.14900004863739,-0.11838749796152,-0.1379124969244,-0.14891250431538,-1.9186749458313,-1.39081251621246,-0.65298748016357,2.87700009346008,2.63295006752014,3.39900016784668,8.54100036621094,8.84205055236816,8.5890007019043,1.28865003585815,-0.19566249847412,-1.74611246585846,15.8940010070801,19.617000579834,21.35205078125,-0.47396248579025,0.00371249997988,0.63896250724792,-0.87408751249313,-0.58822500705719,-0.20693749189377,2.29395008087158,0.91800004243851,-0.94305002689362,12.703950881958,13.0800008773804,12.9340505599976,-6.5815749168396,-8.08678722381592,-8.95166206359863,26.812952041626,26.3130016326904,22.8570003509521,-0.24914999306202,-0.33962500095367,-0.02681249938905,0.91698747873306,1.47290003299713,2.69939994812012,-16.3270511627197,-18.598051071167,-20.0599517822266,7.03095054626465,8.42100048065186,8.2300500869751,-8.91880035400391,-8.9419002532959,-8.96885013580322,12.6949510574341,9.16499996185303,5.82195043563843,2.61579990386963,2.09165000915527,1.28411245346069,-0.14107500016689,-1.30900001525879,-1.60710000991821,-19.2820510864258,-17.1360015869141,-13.9510507583618,6.44895029067993,4.18800020217896,4.14000034332275,-6.53399991989136,-5.84732484817505,-5.4381251335144,-5.1340503692627,-4.69905042648315,-4.06905031204224,SWING_RIGHT
-0.10381250083447,-0.14038750529289,-0.13186250627041,-0.26441249251366,-0.10807500034571,-0.02131249941885,1.28400003910065,1.1620500087738,1.95105004310608,9.36195087432861,9.2920503616333,9.37800025939941,0.52758747339249,0.66068750619888,0.89031249284744,-0.20505000650883,-0.16605000197887,-0.16395001113415,-0.56196248531342,-0.69877499341965,-0.80753749608994,-0.9620875120163,-1.02066254615784,-0.98395001888275,3.26700019836426,3.72495007514954,3.83205008506775,9.8500509262085,10.4239501953125,10.7110500335693,1.99966251850128,2.2257125377655,2.55557489395142,3.43200016021729,3.83805012702942,4.79805040359497,1.01048743724823,1.81431245803833,1.84607493877411,-2.91183757781982,-2.81902503967285,-2.51363754272461,2.51100015640259,1.33905005455017,1.13295006752014,15.246000289917,14.320050239563,11.3550004959106,-3.06308746337891,-5.25236225128174,-6.02085018157959,27.3300018310547,25.3650016784668,19.9900512695313,-1.13849997520447,-0.85263746976852,-0.58753746747971,0.12402500212193,1.41295003890991,2.17414999008179,-4.35795021057129,-4.97295045852661,-5.89905023574829,7.85595035552979,8.46405029296875,7.95405054092407,-8.5925121307373,-10.1942501068115,-10.8319749832153,25.7689514160156,24.8719520568848,20.601001739502,-0.03533750027418,0.46805000305176,0.70496249198914,2.13743758201599,2.19724988937378,1.85886251926422,-16.6620006561279,-18.0040512084961,-20.5600509643555,6.02805042266846,5.09295034408569,3.43005013465881,-12.2454748153687,-12.3090000152588,-11.550274848938,13.8600006103516,9.0600004196167,3.60105013847351,SWING_RIGHT
0.32381248474121,0.59014999866486,0.78072500228882,-1.57904994487762,-1.73414993286133,-1.73662495613098,-0.27300000190735,-0.64605003595352,-1.12695002555847,10.9030504226685,11.5060501098633,11.9460000991821,-0.20790000259876,-1.46258747577667,-3.11684989929199,16.231050491333,17.1960010528564,18.1620006561279,0.40081250667572,0.52538752555847,0.48014998435974,-0.66275000572205,0.1142624989152,0.93279999494553,-3.24705004692078,-4.22100019454956,-5.19300031661987,11.1510009765625,9.92895030975342,8.16000080108643,-6.94072484970093,-8.30665016174316,-9.58086204528809,22.276050567627,22.9189510345459,21.4170017242432,0.20047499239445,-0.04509999975562,-0.16486249864101,0.81798750162125,0.80575001239777,1.20161247253418,-14.3100004196167,-17.239049911499,-21.4069519042969,5.65500020980835,5.38500022888184,4.80795001983643,-12.7719621658325,-12.8929624557495,-12.2075252532959,14.3959503173828,10.2150001525879,5.7529501914978,1.31216251850128,1.49545001983643,1.712975025177,-0.29988750815392,-0.66879999637604,-0.73961251974106,-21.7420501708984,-19.0120506286621,-17.8800010681152,9.2160005569458,9.08205032348633,9.21795082092285,-8.84908771514893,-8.05007457733154,-7.34401226043701,-1.36995005607605,-2.01405000686646,-1.76205003261566,1.03482496738434,1.0422500371933,1.2804000377655,-0.75185000896454,-0.94737499952316,-0.96318751573563,-17.5830001831055,-17.0539512634277,-15.6259508132935,9.07395076751709,10.6699504852295,11.943000793457,-2.98608756065369,-1.40524995326996,-0.36066249012947,-13.0500001907349,-12.820050239563,-10.4700002670288,SWING_RIGHT
-0.76230001449585,-0.88206249475479,-0.85758751630783,-0.82761251926422,-0.29012501239777,0.0409750007093,-0.22305001318455,-0.31800001859665,-0.7540500164032,7.96905040740967,8.6220006942749,9.74205017089844,0.7987374663353,0.45911249518394,0.39682498574257,8.70105075836182,8.08605003356934,8.27505016326904,1.07511246204376,1.35863745212555,1.0422500371933,-2.74573755264282,-2.35963749885559,-1.28947496414185,-2.23305010795593,-1.54095005989075,-2.47905015945435,13.3579502105713,11.1300001144409,8.4190502166748,-3.5040500164032,-5.08873748779297,-6.56452512741089,25.0920009613037,24.3910503387451,25.0399513244629,-0.85758751630783,-0.20033749938011,0.11618749797344,1.32990002632141,1.77333748340607,1.71599996089935,-8.13105010986328,-11.6490001678467,-15.1759510040283,10.0480508804321,10.570050239563,8.04495048522949,-13.6932125091553,-14.1134128570557,-13.8642625808716,28.9729518890381,22.2109508514404,18.1620006561279,0.55962496995926,1.39411246776581,1.91565001010895,2.14114999771118,1.17713749408722,0.17655000090599,-27.4180507659912,-27.7440013885498,-25.6309509277344,5.5900502204895,7.78905057907104,6.44205045700073,-10.7170248031616,-9.55157470703125,-8.15883731842041,-1.54500007629395,-3.74595022201538,-6.32805013656616,-0.02076249942183,0.16376249492168,0.3617624938488,-1.35547494888306,-1.26128745079041,-0.79832500219345,-15.9660005569458,-14.4610509872437,-11.6749505996704,9.27105045318604,10.2829504013062,10.1220006942749,-0.3936625123024,0.18548749387264,0.36506250500679,-9.83100032806396,-7.08900022506714,-4.86105012893677,SWING_RIGHT
-0.27486249804497,0.5656750202179,1.43439996242523,-2.69197487831116,-2.79097509384155,-1.96624994277954,-0.97695004940033,-2.94300007820129,-4.02705001831055,12.1800003051758,13.1779508590698,11.8410005569458,2.70338749885559,-0.86886250972748,-2.76375007629395,24.0150012969971,29.4739513397217,24.3790512084961,0.0709500014782,0.30057498812675,0.46915000677109,-1.71338748931885,-1.36028754711151,-0.15812499821186,-2.27595019340515,-2.86500024795532,-3.76695013046265,11.1919507980347,11.4430503845215,9.77805042266846,-8.63898754119873,-11.1788873672485,-13.0602998733521,36.1069526672363,35.2639503479004,32.029052734375,-0.11962500214577,0.08318749815226,0.44604998826981,1.16737496852875,1.5107125043869,1.62552499771118,-26.0140514373779,-32.2849502563477,-36.4150505065918,5.22405004501343,4.89195013046265,4.71705007553101,-16.300350189209,-15.1359996795654,-13.4096870422363,18.9139499664307,10.2630004882813,2.89800024032593,0.54738748073578,-0.15138749778271,-0.97240000963211,-1.41776251792908,-1.38833749294281,-0.88384997844696,-28.0620021820068,-23.7670516967773,-20.9479503631592,6.22695016860962,5.91300010681152,5.49195003509521,-6.15037488937378,-4.8272123336792,-3.61157488822937,-7.74495029449463,-7.4239501953125,-8.58705043792725,0.93706250190735,1.67021250724792,1.8631249666214,-0.99494999647141,-1.08294999599457,-0.95590001344681,-12.8500509262085,-11.7850503921509,-10.2010507583618,13.9420509338379,12.3499507904053,10.0360507965088,-0.18713749945164,0.26001250743866,0.51534998416901,-6.05295038223267,-6.09405040740967,-4.96395015716553,SWING_RIGHT
-0.66329997777939,-0.62782502174377,-0.63153749704361,0.15578749775887,0.2255000025034,0.29507499933243,3.71295022964478,3.68100023269653,3.55200028419495,8.71500015258789,8.68395042419434,8.38005065917969,1.51469993591309,2.20371246337891,2.99653744697571,1.24905002117157,0.69600003957748,0.98805004358292,-0.36148750782013,-0.03052499890327,0.26523751020432,-1.13671255111694,-1.63033747673035,-1.52528750896454,1.24995005130768,-0.39495003223419,-1.02404999732971,9.94095039367676,10.3000507354736,9.8500509262085,1.22759997844696,-0.92991250753403,-2.36665010452271,19.3230018615723,21.867000579834,21.8500518798828,-0.29438748955727,-0.46777498722076,-0.7207750082016,-1.26376247406006,-0.84232497215271,-0.11288750171661,-0.68700003623962,-1.36695003509521,-3.29805016517639,10.7449502944946,9.90000057220459,8.10300064086914,-11.0237874984741,-13.2753496170044,-14.2136497497559,33.4650001525879,29.6410522460938,23.7349510192871,-1.82270002365112,-1.1446875333786,-0.21491250395775,1.94933748245239,2.23396253585815,1.96638751029968,-17.8150501251221,-18.3660011291504,-20.1720008850098,4.74600028991699,6.12195014953613,6.64995050430298,-14.0975999832153,-13.4403495788574,-12.4042873382568,12.7900505065918,8.65095043182373,5.5009503364563,0.99206250905991,0.02942499890924,-0.54848748445511,-1.84043753147125,-1.33347499370575,-0.85208749771118,-22.0819511413574,-21.6060009002686,-19.0090503692627,5.9089503288269,5.78205013275146,8.55000019073486,-4.69892501831055,-2.81146240234375,-1.59582495689392,-9.11595058441162,-8.61600017547607,-5.81100034713745,SWING_RIGHT
-2.39442491531372,-2.45561242103577,-2.14884996414185,-1.48857498168945,-1.8709625005722,-1.80620002746582,0.16395001113415,-1.75200009346008,-2.44800019264221,6.85395050048828,8.21100044250488,9.83100032806396,2.42481255531311,0.62287497520447,-1.07786250114441,15.3220510482788,19.1790008544922,20.3569507598877,0.05871250107884,-0.07562500238419,-0.34567499160767,-0.02131249941885,-0.08483749628067,0.03244999796152,-0.51195001602173,-1.17300009727478,-2.21399998664856,11.90505027771,10.0120506286621,9.24195003509522,-5.48212480545044,-7.20348739624023,-9.32194995880127,20.6290512084961,23.9080505371094,26.2810516357422,-0.05609999969602,0.14918750524521,0.18095000088215,1.32866251468658,1.61576247215271,2.29872488975525,-12.5179510116577,-17.2170009613037,-23.0389518737793,9.77805042266846,7.94295024871826,5.29605007171631,-17.1969871520996,-17.6173248291016,-16.6252632141113,27.5070018768311,18.564001083374,10.570050239563,1.27792501449585,1.62621247768402,1.83383750915527,1.43371248245239,-0.29493749141693,-0.86666250228882,-31.8310508728027,-24.127950668335,-16.4470500946045,8.5290002822876,11.002950668335,10.4890508651733,-7.55411243438721,-7.06048727035522,-6.40694999694824,-5.1340503692627,1.90995013713837,-0.9300000667572,0.45814999938011,1.38916254043579,2.8503749370575,-1.20642495155334,-1.2442375421524,-0.31941249966621,-22.4839515686035,-16.9110012054443,-10.5289506912231,10.2559509277344,14.5609502792358,14.9659509658813,1.65522503852844,1.97889995574951,1.58922493457794,-11.8870506286621,-5.05995035171509,-0.50894999504089,SWING_RIGHT
0.33109998703003,0.04771250113845,-0.12333749979734,-0.01278750039637,0.49059998989105,0.61888748407364,2.12100005149841,1.73400008678436,1.73805010318756,8.28194999694824,7.52895021438599,7.59795045852661,1.9569000005722,2.06937503814697,2.15723752975464,3.43395018577576,3.94605016708374,5.14995002746582,-0.80506247282028,-0.54229998588562,-0.02186249941587,1.45694994926453,0.7264124751091,-0.21559999883175,0.48900002241135,0.51105004549026,0.68595004081726,8.67495059967041,10.7449502944946,12.0180006027222,0.82678747177124,-1.20120000839233,-3.95738744735718,15.2449502944946,22.465051651001,26.6260509490967,-1.01516246795654,-1.85693752765656,-2.64866256713867,-0.94118750095367,0.26702499389648,1.7355250120163,1.41105008125305,-1.93095004558563,-6.02100038528442,6.50400018692017,6.21000051498413,4.15904998779297,-12.4397621154785,-13.75426197052,-13.8263120651245,26.6040019989014,19.6909503936768,12.3949508666992,-1.05916249752045,0.89196246862411,2.09646248817444,2.42330002784729,2.572350025177,2.19972491264343,-17.4780006408691,-17.2030506134033,-18.4780502319336,11.7619504928589,10.7230501174927,7.9980001449585,-11.4294128417969,-10.3653001785278,-8.69522476196289,3.61095023155212,-1.21395003795624,-3.88995027542114,0.32010000944138,-0.64006251096725,-1.08844995498657,-0.98642498254776,-1.12447500228882,-0.89966249465942,-10.8979501724243,-9.91200065612793,-9.68895053863525,3.46305012702942,4.39095020294189,6.63105010986328,-3.88409996032715,-2.68798756599426,-1.60682499408722,-6.86895036697388,-8.02500057220459,-7.63695049285889,SWING_RIGHT
-0.07562500238419,0.09295000135899,0.29699999094009,-1.67543745040894,-0.87656247615814,-0.23512500524521,1.09995007514954,0.69795000553131,0.19995000958443,9.74205017089844,10.0339508056641,10.5270004272461,2.49576258659363,1.77251243591309,0.64487498998642,9.31605052947998,11.5549507141113,14.0730009078979,0.65986251831055,0.13928750157356,-0.31391251087189,-0.73603749275208,-1.37376248836517,-1.65467500686646,0.45300000905991,-0.03900000080466,-0.86895006895065,9.78495025634766,9.18000030517578,9.4980001449585,-6.40818738937378,-8.66580009460449,-11.0933628082275,27.3580513000488,31.2799510955811,31.6800022125244,-1.0616375207901,-0.67306250333786,0.02818750031292,1.05256247520447,0.71293747425079,0.08373750001192,-17.941951751709,-23.4480018615723,-27.9250507354736,7.69395017623901,8.58105087280273,8.9239501953125,-15.7529621124268,-15.6967248916626,-14.6315126419067,17.5110015869141,13.5919504165649,7.96905040740967,0.53886252641678,-0.20762500166893,-1.12516248226166,-1.75243747234344,-1.30776250362396,-0.94613748788834,-25.3530006408691,-20.7850513458252,-18.1819515228271,6.42495012283325,4.61205005645752,4.36800003051758,-8.65246200561523,-7.64816236495972,-6.23713731765747,-2.7439501285553,-4.86795043945313,-8.18295001983643,-0.40067499876022,0.4643374979496,0.99825000762939,-1.66567504405975,-0.74208748340607,-0.05678749829531,-15.4200010299683,-12.8089504241943,-11.1270008087158,14.848051071167,14.521050453186,13.2280502319336,-0.03932499885559,0.35406249761581,0.512875020504,-6.62700033187866,-4.53795003890991,-3.74400019645691,SWING_RIGHT
-0.36148750782013,-0.340725004673,-0.27967500686646,-0.42322498559952,-0.63222497701645,-0.6540874838829,-1.45500004291534,-1.54605007171631,-1.6800000667572,7.95195055007935,8.71995067596436,9.1200008392334,-0.28613749146461,-0.10284999758005,0.1024374961853,-0.0679500028491,-0.11400000751019,-0.00600000005215,0.01594999991357,-0.01333750039339,-0.07328750193119,-0.27541249990463,-0.29136249423027,-0.31336250901222,-0.11295000463724,0.31005001068115,0.85500001907349,9.70800018310547,9.3880500793457,9.30600070953369,0.74373751878738,0.98078751564026,1.17865002155304,1.42200005054474,1.94595015048981,3.34305024147034,-0.39820000529289,-0.56924998760223,-0.83063751459122,-0.74951249361038,-0.66756248474121,0.04221250116825,2.62395024299622,2.90100002288818,3.51900005340576,10.2919502258301,11.0719509124756,11.4670505523682,-5.00431251525879,-6.84543752670288,-8.49969959259033,25.2670516967773,22.5700511932373,21.42405128479,1.03853750228882,1.93283748626709,2.93466258049011,1.89804995059967,1.72823750972748,1.13203752040863,-5.30805015563965,-9.20805072784424,-13.2499504089355,14.6929502487183,13.2880506515503,13.0270509719849,-12.9980125427246,-13.2631120681763,-12.9491996765137,14.1090002059937,12.0079507827759,7.50405025482178,4.73536252975464,3.65420007705688,2.43003749847412,-1.41652500629425,-2.40487504005432,-3.23193740844727,-19.6200008392334,-17.8609504699707,-15.5400009155273,3.82695007324219,2.05605006217957,3.67605018615723,-7.86321258544922,-5.82779979705811,-3.68004989624023,-11.2290000915527,-13.2150001525879,-13.3800010681152,SWING_RIGHT
-1.39754998683929,-1.98398745059967,-2.79152488708496,-0.02983750030398,0.92675000429153,1.89433753490448,1.48695003986359,1.42695009708405,0.8320500254631,7.92600059509277,6.37500047683716,5.6569504737854,0.5543999671936,0.85002499818802,1.04183745384216,1.12005007266998,0.62505000829697,1.75695013999939,-1.01516246795654,0.34952500462532,1.43563747406006,-2.51239991188049,-3.32969999313354,-2.51968741416931,-0.25095000863075,-0.70905005931854,-0.90495002269745,19.4280014038086,19.0429515838623,17.5860004425049,-2.03568744659424,-3.58104991912842,-4.46077489852905,18.9180011749268,18.375,16.7700004577637,0.86872500181198,0.87848746776581,1.1643500328064,1.2639000415802,2.10319995880127,1.30542504787445,-3.18795013427734,-4.61100006103516,-11.9359502792358,12.7090501785278,11.5819501876831,9.30195045471191,-12.1990003585815,-13.130012512207,-13.0542497634888,21.1270503997803,17.1790504455566,11.8830003738403,2.15393757820129,1.24134993553162,0.46557500958443,0.71898752450943,0.92675000429153,0.68846249580383,-18.8230514526367,-18.6769504547119,-21.1129512786865,2.06805014610291,-1.34100008010864,-1.17599999904633,-13.130012512207,-12.0694751739502,-10.2540626525879,7.97295045852661,0.97200006246567,-5.11995029449463,0.82967501878738,0.7929624915123,0.49857500195503,-1.67433750629425,-1.89048743247986,-1.66209995746613,-14.8290004730225,-14.0509510040283,-13.5630006790161,9.96900081634522,10.47705078125,9.61305046081543,-3.62257504463196,-2.30683755874634,-1.06191253662109,-5.56695032119751,-5.13600015640259,-5.61300039291382,SWING_RIGHT
-0.74634999036789,-0.77811247110367,-0.71953749656677,-0.02378750033677,-0.1055999994278,-0.33646249771118,3.04005002975464,2.84895014762878,2.50905013084412,8.46195030212402,8.95200061798096,9.76800060272217,1.0920250415802,0.8622624874115,0.1560624986887,4.389000415802,5.92695045471191,8.38005065917969,0.1357125043869,0.22123749554157,0.23581250011921,-0.47574999928474,-0.30965000391006,-0.59922498464584,3.21495008468628,3.68400025367737,4.08105039596558,10.8310508728027,10.9720506668091,11.8020009994507,-3.52247500419617,-5.11555004119873,-8.22841262817383,19.0360507965088,21.541051864624,23.1250514984131,0.49362498521805,0.68667501211166,0.60967499017715,-0.89966249465942,-0.96318751573563,-0.70179998874664,-4.63305044174194,-7.38195037841797,-10.6750507354736,11.6869506835938,10.4910001754761,7.8870005607605,-13.6712121963501,-13.6309251785278,-13.0932998657227,19.1119518280029,13.7140502929688,9.04095077514648,0.21628749370575,0.10999999940395,-0.17586250603199,-0.66151249408722,-1.13300001621246,-1.51786243915558,-18.9229507446289,-16.8340511322021,-16.0399513244629,7.67505025863647,6.95400047302246,7.05195045471191,-6.02937507629395,-4.71363735198975,-3.29147505760193,-4.40700006484985,-6.24900007247925,-8.14395046234131,-0.01704999990761,0.55233746767044,0.99206250905991,-0.49046251177788,-0.37798750400543,-0.14464999735355,-13.2160511016846,-11.2279500961304,-9.16695022583008,12.8170509338379,13.1299505233765,12.1680002212524,1.30693745613098,1.71627497673035,1.97766244411469,-7.98405027389526,-6.46395015716553,-5.3710503578186,SWING_RIGHT
-0.53377497196198,-0.68653750419617,-0.91382497549057,0.04716249927878,0.01773750036955,0.03849999979138,2.99895024299622,3.33195018768311,3.43305015563965,7.64295053482056,7.60500049591064,7.34400033950806,1.23364996910095,0.91231250762939,0.54958748817444,4.82400035858154,5.11905002593994,4.66605043411255,-2.32732510566711,-2.13303756713867,-1.59431254863739,1.18456244468689,0.54436248540878,-0.38417500257492,2.53005003929138,2.64795017242432,2.79795002937317,7.73700046539307,10.53600025177,12.9700508117676,0.31735000014305,-0.49500000476837,-1.62139999866486,7.02300024032593,11.6440505981445,15.0780010223389,-0.47643750905991,-0.63524997234344,-0.67058748006821,-1.91991245746613,-0.94985002279282,0.71170002222061,1.82205009460449,1.6519501209259,0.90300005674362,13.992000579834,14.202000617981,14.0539503097534,-7.79349994659424,-9.820387840271,-10.6364498138428,28.7920513153076,27.2460021972656,20.7589511871338,0.89677500724792,1.21206247806549,1.05806255340576,2.00062489509583,2.07019996643066,2.56382489204407,-9.42795085906982,-11.6629505157471,-13.5300006866455,11.9959506988525,8.33700084686279,3.71205019950867,-12.769624710083,-12.7133874893188,-12.1734247207642,20.1580505371094,15.622950553894,12.2760009765625,0.91148751974106,1.37692499160767,1.54426252841949,1.87604999542236,1.15403747558594,0.53707498311996,-16.9110012054443,-16.8820514678955,-15.6670503616333,5.07105016708374,5.15505027770996,4.26705026626587,-8.679274559021,-7.79844999313354,-6.93096256256104,2.83095002174377,1.37400007247925,0.40005001425743,SWING_RIGHT
-0.67306250333786,-0.2894375026226,0.14052499830723,-1.19295001029968,-1.29799997806549,-1.05490005016327,2.11695003509521,0.86295002698898,-0.01200000010431,10.3210506439209,10.8550500869751,10.6350002288818,1.81637501716614,0.6766374707222,-0.64157497882843,12.4170007705688,14.038950920105,17.0040016174316,-0.1538625061512,-0.36891248822212,-0.47396248579025,-1.81472504138947,-1.77938747406006,-1.45309996604919,1.18305003643036,0.71205002069473,-0.29205000400543,10.19700050354,10.5409507751465,10.6440000534058,-5.14236259460449,-8.15760040283203,-9.8008623123169,21.9310512542725,25.678050994873,25.2859516143799,-0.89787501096725,-0.72434997558594,-0.66948747634888,1.53147494792938,1.76109993457794,1.2418999671936,-12.6079502105713,-16.5850505828857,-22.302001953125,6.48495054244995,4.84605026245117,4.04700040817261,-14.6558494567871,-14.5605621337891,-14.2417001724243,18.1979999542236,12.5130004882813,11.0149507522583,-0.05981250107288,-0.62672501802444,-1.28754997253418,-0.55398750305176,-0.49527499079704,-0.72751247882843,-24.7309513092041,-22.666051864624,-23.1900005340576,3.43200016021729,2.15205001831055,3.03195023536682,-9.46000003814697,-7.51011228561401,-5.1313624382019,-5.46705007553101,-11.2189502716064,-14.542950630188,0.00742499995977,0.66838747262955,0.81496250629425,-1.19171249866486,-0.52827501296997,-0.21807499229908,-13.4560508728027,-11.6419506072998,-10.5240001678467,13.2640504837036,11.5579509735107,9.56700038909912,0.73149996995926,1.02849996089935,1.18483746051788,-4.88295030593872,-3.74400019645691,-3.35805010795593,SWING_RIGHT
-2.3724250793457,-2.82699990272522,-2.96862506866455,-1.2809499502182,-2.16177487373352,-3.04865002632141,3.67695021629334,3.73695015907288,2.22900009155273,7.74900054931641,8.61495018005371,10.8139505386353,3.5158748626709,1.81032502651215,-0.50723749399185,8.46405029296875,17.0350513458252,22.302001953125,0.8124874830246,1.37444996833801,1.07277500629425,0.16321249306202,0.34031251072884,-0.21436250209808,1.33605003356934,-0.59805005788803,-1.77600014209747,17.1379508972168,13.9009504318237,10.8120002746582,-5.66898727416992,-6.61086225509644,-7.95107507705688,18.3780002593994,21.3139514923096,23.7070503234863,-0.88687497377396,-0.45801249146461,0.21752500534058,1.95057499408722,2.06291246414185,1.87357497215271,-11.9670009613037,-15.65505027771,-17.695951461792,9.27795028686523,10.44105052948,10.0410003662109,-11.7445621490479,-12.295524597168,-12.9332494735718,20.5150508880615,18.7890014648438,18.9690017700195,1.17163753509521,1.04830002784729,1.06782495975494,1.06603753566742,0.02021249942482,-0.87408751249313,-24.1570510864258,-26.017951965332,-24.5059509277344,1.04895007610321,2.49105000495911,4.3289999961853,-11.4599370956421,-9.72743701934814,-7.93155002593994,0.4120500087738,-3.11400008201599,-5.01900005340576,-2.04256248474121,-1.91674995422363,-1.3474999666214,-0.68598747253418,-0.53198748826981,-0.42570000886917,-17.5260009765625,-17.7649517059326,-17.1529502868652,6.40095043182373,9.66495037078857,12.1519508361816,-2.41917490959167,-1.04596245288849,0.04991250112653,-7.43805027008057,-8.87895011901855,-7.68195056915283,SWING_RIGHT
-0.29191249608994,-0.39448750019073,-0.50943750143051,-0.52222502231598,-0.51246249675751,-0.44041249155998,2.38905000686646,2.29800009727478,2.18400001525879,9.44505023956299,9.14100074768066,9.08595085144043,0.24653749167919,0.38582500815392,0.521399974823,-0.70695000886917,-0.80805003643036,-0.92295002937317,-0.93692499399185,-0.92963749170303,-0.82706248760223,-1.07566249370575,-1.41033744812012,-1.58028745651245,2.02995014190674,2.26500010490417,2.64300012588501,9.41205024719238,9.68895053863525,10.0650005340576,2.1976625919342,2.81586241722107,3.49635004997253,-1.9369500875473,-1.11900007724762,-0.02295000106096,0.08071249723434,0.28352499008179,0.08318749815226,-1.99443745613098,-1.92719995975494,-1.9210125207901,1.07295000553131,0.36705002188683,2.30100011825562,11.2759504318237,10.2160501480103,9.48405075073242,-4.1504373550415,-6.63286256790161,-9.78738784790039,33.8359527587891,30.5890522003174,26.7739505767822,-1.87398743629456,-1.49160003662109,-0.58877497911453,4.24366235733032,4.54547500610352,3.8197500705719,-10.4089508056641,-13.7880010604858,-18.1789512634277,6.92805051803589,7.11705017089844,8.65799999237061,-13.3901624679565,-13.1958751678467,-12.8159627914429,20.4979515075684,15.5899505615234,14.4700508117676,3.94253754615784,3.76653742790222,2.98347496986389,1.79533743858337,-0.02378750033677,-1.56557500362396,-22.6320018768311,-21.7060508728027,-19.4260501861572,3.86295008659363,2.0269501209259,0.92895007133484,-9.84843730926514,-8.06231212615967,-6.10761260986328,-2.82000017166138,-6.73695039749146,-8.35004997253418,SWING_RIGHT
0.21271249651909,0.00123749999329,-0.17710000276566,0.06792499870062,0.46007499098778,0.4295499920845,1.85595011711121,3.11400008201599,3.42795014381409,8.24895000457764,7.81305027008057,7.56705045700073,1.29359996318817,1.05655002593994,1.00154995918274,1.09095001220703,2.33595013618469,1.93605005741119,-0.71582502126694,-0.76106250286102,-1.31202495098114,-0.80561250448227,-0.86680001020432,-0.55646252632141,3.55695009231567,3.32505011558533,3.01605010032654,8.48295021057129,8.37600040435791,7.55505037307739,0.71321249008179,0.94297498464584,1.57451248168945,4.10895013809204,2.79000020027161,1.8469500541687,-2.36389994621277,-2.18184995651245,-1.5576000213623,0.5516499876976,-0.5295125246048,-1.26128745079041,2.44200015068054,-0.73695003986359,-0.43305000662804,9.51195049285889,13.0510501861572,16.6069507598877,-3.02390003204346,-5.53451251983643,-7.26701259613037,29.0430011749268,28.3920021057129,26.6689510345459,0.93596249818802,0.94325000047684,1.08006250858307,1.5217125415802,2.88763737678528,3.34564995765686,-7.01100015640259,-11.577000617981,-15.8770503997803,13.7530508041382,9.40005016326904,7.09305047988892,-13.0957746505737,-13.3523502349854,-13.3266372680664,23.2189502716064,18.3780002593994,15.1540508270264,3.79101252555847,3.16428756713867,1.85583746433258,0.11068750172853,-1.52762496471405,-2.54416251182556,-26.7220516204834,-26.9250011444092,-24.0180015563965,2.90805006027222,-0.15195000171661,-1.23105001449585,-11.7616128921509,-10.1770620346069,-8.39822483062744,1.60800004005432,-1.95900011062622,-5.04300022125244,SWING_RIGHT
-3.42801237106323,-3.52206254005432,-3.04438757896423,-1.10989999771118,-1.7268625497818,-2.40116238594055,2.14800000190735,0.40305000543594,-0.63405001163483,6.66900014877319,8.66295051574707,11.9839506149292,3.46582508087158,2.72538757324219,1.6747499704361,6.61395025253296,8.7940502166748,12.1819505691528,0.76848751306534,0.62919998168945,-0.42515000700951,-2.51239991188049,-2.28263759613037,-2.25458741188049,-0.4240500330925,0.50805002450943,0.81705003976822,15.0880508422852,11.2180509567261,7.91895055770874,-6.07089996337891,-7.06048727035522,-8.17107486724854,25.3549518585205,26.6479511260986,27.9760513305664,-1.37926244735718,-1.27049994468689,-0.92234998941422,3.29436254501343,3.9395124912262,3.28336238861084,-8.66700077056885,-11.943000793457,-17.2290000915527,7.25595045089722,4.76205015182495,4.26900005340576,-14.1011753082275,-14.1084623336792,-14.0071249008179,23.7280502319336,17.1259517669678,16.4899501800537,0.75515002012253,0.62067496776581,0.26633748412132,1.04761254787445,0.22055000066757,-0.49651250243187,-26.5140018463135,-26.2290019989014,-24.5950508117676,1.45995008945465,1.80705010890961,1.61805009841919,-11.6370372772217,-9.9376745223999,-8.36522483825684,2.21805000305176,-2.18595004081726,-5.64105033874512,-2.7720000743866,-2.1379873752594,-0.99687498807907,-0.72874999046326,-0.54793751239777,-0.37317499518394,-18.6389999389648,-17.6689510345459,-16.4629516601563,8.2339506149292,12.2400007247925,14.3029508590698,-0.19208750128746,0.57282501459122,1.10660004615784,-8.00100040435791,-6.3070502281189,-5.12400007247925,SWING_RIGHT
0.54738748073578,1.21811246871948,1.5859249830246,-1.11099994182587,-0.47574999928474,-0.19965000450611,1.37205004692078,1.26705002784729,1.20000004768372,13.4010009765625,12.0990009307861,10.5439500808716,1.05297493934631,0.61311250925064,0.13296249508858,7.76295042037964,8.49705028533936,9.44295024871826,0.52910000085831,0.84301251173019,1.39287495613098,-1.93696248531342,-2.2728750705719,-1.96501243114471,1.41795003414154,1.57305002212524,1.54005002975464,10.0170001983643,11.94105052948,12.0940504074097,-3.96096253395081,-6.00118732452393,-7.12648725509644,25.5130519866943,24.4939517974854,23.0100002288818,-2.2893750667572,-3.17019987106323,-3.34991240501404,0.73988747596741,1.97862493991852,3.20897507667542,-7.57395029067993,-11.97705078125,-20.3730010986328,0.06705000251532,1.42905008792877,1.90500009059906,-16.99169921875,-15.8910121917725,-13.805549621582,17.8540515899658,10.0140008926392,0.38100001215935,1.77883744239807,1.54426252841949,0.70620000362396,-1.04018747806549,-1.2282874584198,-1.08418750762939,-20.6989517211914,-16.6549510955811,-13.4389505386353,9.0,5.88000011444092,4.42500019073486,-5.67751264572144,-4.42406225204468,-3.37452507019043,-5.61705017089844,-4.36094999313354,-3.68400025367737,-0.43972501158714,-0.35914999246597,-0.11357499659061,-0.83132499456406,-0.65532499551773,-0.36093750596046,-11.7229509353638,-10.9140005111694,-10.0309505462646,9.33495044708252,10.0939502716064,10.9260005950928,-0.30566251277924,0.08043749630451,0.28077501058578,-4.12695026397705,-3.41595005989075,-2.5900502204895,SWING_RIGHT
-1.68217504024506,-0.69877499341965,0.23100000619888,-2.53316259384155,-2.32787489891052,-1.94301247596741,0.10395000129938,0.67605000734329,0.8479500412941,12.3790502548218,13.8870010375977,13.9150505065918,2.45423746109009,2.11584997177124,1.61493754386902,6.21495008468628,6.99195051193237,8.65305042266846,0.64515000581741,0.28833749890327,-0.07204999774694,-2.07130002975464,-2.9363124370575,-3.26122498512268,0.33105000853539,0.3120000064373,0.22905001044273,10.5510005950928,11.4600009918213,10.9960508346558,-4.16858768463135,-5.08736228942871,-5.98537492752075,20.8810501098633,21.060001373291,22.9980010986328,-1.7323625087738,-1.75917494297028,-1.89241254329681,2.07886242866516,2.79839992523193,2.63106250762939,-4.8120002746582,-7.83495044708252,-14.121000289917,7.1650505065918,5.96805047988892,3.98205018043518,-14.0364122390747,-14.7144250869751,-14.8464250564575,27.1210517883301,22.2490501403809,14.7259502410889,1.25482499599457,1.94988751411438,2.394700050354,2.30243754386902,1.27008748054504,-0.21917499601841,-25.5160503387451,-24.9079513549805,-19.1670017242432,6.30105018615723,5.53500032424927,5.33700037002563,-8.1966495513916,-6.3090500831604,-3.39528751373291,-5.35905027389526,-6.7300500869751,-5.86395025253296,-1.54288744926453,-1.25826251506805,-0.71101248264313,-0.70661246776581,-0.64803749322891,-0.4794625043869,-12.457950592041,-12.070050239563,-10.6150503158569,7.62405014038086,9.72300052642822,10.8090009689331,-0.09913749992847,0.30277499556541,0.43230000138283,-5.88495016098022,-4.76595020294189,-3.7390501499176,SWING_RIGHT
-2.3394250869751,-2.70352506637573,-2.82081246376038,-2.30835008621216,-3.06088757514954,-3.80242490768433,4.04505014419556,3.10005021095276,1.96605014801025,6.47100019454956,6.97800016403198,7.73205041885376,2.77186250686646,2.52999997138977,2.10113739967346,0.50700002908707,3.42705011367798,5.03505039215088,0.05499999970198,0.5681499838829,0.69162499904633,-2.67973756790161,-1.71091246604919,-0.87642496824265,1.12800002098084,0.66600000858307,0.50805002450943,13.4059505462646,12.235050201416,10.2370500564575,0.38101249933243,-0.85043752193451,-2.13578748703003,14.8240509033203,17.1570014953613,19.5859508514404,0.45457500219345,0.68296247720718,0.60486251115799,-2.77873754501343,-2.18858742713928,-0.90337496995926,-0.69900006055832,-1.91205012798309,-4.72095012664795,13.1809501647949,12.5440502166748,10.0339508056641,-9.39881229400635,-10.993124961853,-11.9790000915527,30.9310512542725,26.2050018310547,22.9390506744385,-1.52583754062653,-1.17768752574921,-0.31391251087189,3.37260007858276,3.56564998626709,3.25902509689331,-21.4570503234863,-24.7549514770508,-26.3839511871338,4.19295024871826,4.40100002288818,5.28600025177002,-13.6723127365112,-13.2398748397827,-12.4383878707886,8.43495082855225,6.55695009231567,2.11304998397827,1.64450001716614,1.04953753948212,0.42405000329018,-1.04623746871948,-1.44333744049072,-1.65715003013611,-20.2060508728027,-18.0120010375977,-16.1760005950928,4.23405027389526,3.43200016021729,4.66695022583008,-7.36587476730347,-5.7030873298645,-3.99396252632141,-8.36205005645752,-9.46305084228516,-10.2450008392334,SWING_RIGHT
-0.95163750648499,-0.96263748407364,-1.05187499523163,-1.65962493419647,-1.46286249160767,-1.2002375125885,1.20495009422302,1.05405008792877,0.47700002789497,9.69900035858154,9.69705009460449,9.6340503692627,1.82256245613098,2.47747492790222,2.89643740653992,1.06005001068115,1.95795011520386,3.4789502620697,-0.17091250419617,0.38376250863075,0.94929999113083,-0.6846125125885,-0.94985002279282,-1.21247494220734,-2.33595013618469,-3.46005010604858,-4.11405038833618,12.7590007781982,13.3699502944946,13.6759510040283,2.15242505073547,-1.73016250133514,-3.62738752365112,11.5050001144409,21.0910511016846,22.3429508209229,1.25482499599457,0.02571249939501,-0.55825001001358,-1.06342494487762,-0.07631249725819,1.34089994430542,-2.67795014381409,-3.7260000705719,-8.01900005340576,6.10500049591064,5.03805017471313,6.57405042648315,-11.429274559021,-13.0944004058838,-14.1072244644165,27.9490509033203,23.6520004272461,19.8280506134033,0.33852499723434,0.91519999504089,1.46492505073547,2.98897504806519,2.11667490005493,0.92193746566772,-24.0370502471924,-23.6779518127441,-23.0509510040283,3.72405028343201,5.29395008087158,5.83395004272461,-13.4341621398926,-12.2368125915527,-10.9161252975464,4.23795032501221,0.55800002813339,-1.70505011081696,0.54009997844696,-0.23691250383854,-0.90282499790192,-1.6718624830246,-1.6241500377655,-1.61933743953705,-15.693000793457,-13.9200010299683,-13.360050201416,3.26400017738342,4.22205018997192,5.85405015945435,-4.65616226196289,-2.97742509841919,-1.59816253185272,-10.360050201416,-10.5850505828857,-9.07800006866455,SWING_RIGHT
-1.84841251373291,-1.45860004425049,-0.58025002479553,-1.55691254138947,-2.01753759384155,-2.40611243247986,0.29295000433922,-0.68205004930496,-0.95295006036758,9.796950340271,11.2060508728027,13.2379503250122,4.24765014648438,3.99231243133545,3.34482502937317,4.87005043029785,6.40800046920776,10.1269502639771,1.21563744544983,0.57667499780655,0.08318749815226,-0.39393749833107,-0.34622499346733,-0.41222500801086,2.65695023536682,2.16405010223389,1.17405009269714,8.00205039978027,7.6360502243042,7.77000045776367,-2.910325050354,-6.33104991912842,-8.54356288909912,16.9630508422852,25.3200016021729,28.1340007781982,-0.13557499647141,-1.64559996128082,-2.60342502593994,-1.4970999956131,0.70564997196198,2.4429624080658,-7.2529501914978,-11.1820507049561,-16.1809501647949,4.39095020294189,-0.48000001907349,0.27300000190735,-14.4615621566772,-15.405912399292,-15.4242000579834,26.7840003967285,20.2750511169434,14.7739505767822,-1.37073743343353,-0.14657500386238,1.14358747005463,3.4238874912262,2.45272493362427,1.18937504291534,-27.1620006561279,-26.4319515228271,-23.2860012054443,4.17405033111572,8.32800006866455,10.47705078125,-10.6889753341675,-9.21676254272461,-7.79707479476929,-5.58405017852783,-5.83995008468628,-6.92205047607422,0.51933747529984,0.19923749566078,0.18205000460148,0.12044999748468,0.63236248493195,0.4991250038147,-16.6669502258301,-14.9250011444092,-13.9129505157471,4.03695011138916,5.67405033111572,7.39695024490356,-1.06796252727509,-0.20913749933243,0.2404875010252,-11.0040006637573,-8.72805023193359,-6.84000015258789,SWING_RIGHT
-1.21549999713898,-0.97734999656677,-0.53377497196198,-0.91918748617172,-1.23571252822876,-1.64133751392365,1.19805002212524,0.40095001459122,-0.04605000093579,9.53400039672852,10.6300506591797,11.7570009231567,2.27342510223389,0.97116249799728,-0.34718748927116,10.5310506820679,13.6399507522583,14.2879505157471,-0.04138749837875,-0.49843749403954,-0.76835000514984,-2.03830003738403,-2.23629999160767,-2.24729990959167,0.34095001220703,-0.87600004673004,-1.64205002784729,9.99600028991699,10.6800003051758,12.1039505004883,-4.86626243591309,-5.80690002441406,-6.83443737030029,20.6869506835938,19.045051574707,22.113000869751,-0.12938749790192,-0.84658747911453,-1.80798745155334,0.81551247835159,2.17896246910095,3.46912503242493,-7.5949501991272,-12.3379507064819,-19.5499515533447,7.35900020599365,2.76195001602173,-2.29605007171631,-14.7291374206543,-14.6753749847412,-14.2648000717163,21.8520011901855,15.046950340271,10.4719505310059,-0.22838750481606,0.82472497224808,1.17534995079041,1.8796249628067,0.61283749341965,-0.66151249408722,-24.9559516906738,-23.1250514984131,-21.4500007629395,5.97105026245117,6.29595041275024,5.58795022964478,-10.7658376693726,-9.08599948883057,-7.08234977722168,-3.1600501537323,-5.07405042648315,-7.00995016098022,-1.5636500120163,-1.68217504024506,-1.31807494163513,-0.37798750400543,-0.04455000162125,-0.03712499886751,-13.360050201416,-13.1520004272461,-13.312050819397,6.07605028152466,8.83005046844482,10.6630506515503,-1.23653745651245,-0.40700000524521,0.26001250743866,-5.63205003738403,-5.4810004234314,-4.83495044708252,SWING_RIGHT
-0.42019999027252,-0.33219999074936,-0.31143748760223,-0.11288750171661,-0.38417500257492,-0.63098752498627,0.16905000805855,0.51105004549026,0.76005005836487,10.0390501022339,10.1560506820679,10.1200504302979,2.30037498474121,2.3394250869751,2.44694995880127,-0.93195003271103,0.4240500330925,0.81105005741119,-0.52525001764297,-0.29191249608994,0.0599500015378,-1.4360499382019,-2.18487501144409,-2.51968741416931,0.81195002794266,0.7140000462532,0.24795001745224,11.1040506362915,12.0460510253906,12.3450002670288,1.33155000209808,-0.28242498636246,-1.14853751659393,13.4670009613037,15.8340005874634,14.5420503616333,-1.09216248989105,-1.22897493839264,-1.17026245594025,-0.5820375084877,0.08497499674559,0.99151247739792,1.34400010108948,1.23600006103516,0.34800001978874,11.5249509811401,12.7909507751465,13.8100509643555,-3.86319994926453,-4.73921251296997,-5.05188751220703,22.0909519195557,19.066951751709,16.6720504760742,1.84002494812012,2.61937499046326,3.27305006980896,2.79235005378723,2.69582509994507,2.34396243095398,-5.10000038146973,-7.32300043106079,-10.8349504470825,15.282000541687,12.8550004959106,10.7160005569458,-8.37003707885742,-8.54975032806396,-8.44827461242676,16.1119499206543,12.5890502929688,9.99795055389404,3.46609997749329,2.65732502937317,1.73126244544983,0.00192499998957,-0.5515124797821,-0.87532502412796,-12.5340003967285,-12.631950378418,-13.0390510559082,3.63105010986328,2.27400016784668,1.74000012874603,-8.5790376663208,-8.35903739929199,-8.39698791503906,7.15500020980835,5.02005004882813,6.56100034713745,SWING_RIGHT
0.13076250255108,-0.13914999365807,-0.14286249876022,-1.19295001029968,-1.71943747997284,-1.82819998264313,-0.35895001888275,-0.6889500617981,-0.58905005455017,9.23205089569092,8.97105026245117,9.23895072937012,-2.32388758659363,-3.48933744430542,-4.32135009765625,18.985050201416,21.1990509033203,22.0440006256104,-0.74387496709824,-1.46231245994568,-1.86051249504089,-1.12090003490448,0.14368750154972,1.21261250972748,-2.26395010948181,-3.85500025749207,-5.8840503692627,4.51605033874512,3.30495023727417,4.02495002746582,-8.69384956359863,-9.94853782653809,-10.547212600708,26.0470504760742,24.4200019836426,21.2370014190674,-1.37073743343353,-1.55636250972748,-1.70788753032684,0.75941246747971,1.04403746128082,1.48389995098114,-16.5139503479004,-18.6030006408691,-21.1939506530762,6.3270001411438,4.85595035552979,4.59705018997192,-12.5104370117188,-12.6412000656128,-12.1463375091553,20.170051574707,15.8149509429932,9.53805065155029,0.25299999117851,0.19552500545979,-0.32120001316071,0.05197500064969,-0.27169999480247,-0.40493750572205,-20.449951171875,-20.0340003967285,-20.2560005187988,7.02600049972534,4.97805023193359,3.48705005645752,-10.8171253204346,-9.95224952697754,-8.36646270751953,5.38905048370361,-0.52305001020432,-5.21295022964478,-0.04262499883771,0.40328750014305,0.70015001296997,-1.39699995517731,-0.75308752059937,-0.03588749840856,-16.231050491333,-14.3029508590698,-12.3600006103516,12.6250505447388,12.3120002746582,11.8090505599976,-1.49668753147125,-0.98367500305176,-0.77233749628067,-5.01405000686646,-2.61900019645691,-1.77900004386902,SWING_RIGHT
-0.87339997291565,-1.02121245861053,-0.86858749389648,-1.12199997901917,-1.45309996604919,-1.80620002746582,2.68395018577576,1.96800005435944,1.14705002307892,8.17199993133545,9.01905059814453,10.4359502792358,2.67052507400513,2.25142502784729,0.67911249399185,5.83905029296875,13.0440006256104,21.2659511566162,1.46368753910065,1.33539998531342,0.48633748292923,-0.5820375084877,-1.27847504615784,-2.46963739395142,-0.10800000280142,0.18495000898838,0.37395000457764,13.4080505371094,10.2349500656128,6.8730001449585,-6.37876224517822,-7.85936260223389,-8.96142482757568,27.105001449585,29.5480518341064,27.8010005950928,-3.50130009651184,-3.00038743019104,-2.23313736915588,4.37071228027344,5.01091241836548,4.58699989318848,-10.6249504089355,-12.8209505081177,-17.1739501953125,3.19695019721985,4.588050365448,5.26500034332275,-12.1574745178223,-12.4871997833252,-12.354100227356,24.166051864624,19.8730506896973,15.7309503555298,0.97748750448227,0.8369625210762,0.66096252202988,2.27301239967346,1.84428751468658,1.4276624917984,-22.1269512176514,-22.3930511474609,-20.8639507293701,3.61605024337769,1.78095006942749,2.30205011367798,-10.8807878494263,-10.117112159729,-9.17771244049072,7.58595037460327,5.23800039291382,2.5530002117157,0.16747500002384,0.0844250023365,0.09295000135899,-0.05678749829531,-0.52703750133514,-0.85084998607635,-18.6769504547119,-18.3439502716064,-19.4899501800537,5.76300048828125,7.44000053405762,8.89005088806152,-4.87726259231567,-3.14242506027222,-1.00196254253387,-6.12900018692017,-9.3550500869751,-10.710000038147,SWING_RIGHT
0.81991249322891,0.79048746824265,0.87848746776581,-1.7158625125885,-1.18799996376038,-1.11347496509552,-1.182000041008,-1.92705011367798,-2.48205018043518,9.42105007171631,9.28005027770996,9.89505004882812,2.21361255645752,1.09326255321503,-0.06008749827743,11.2800006866455,12.2640008926392,13.9440002441406,-0.00109999999404,-0.73411250114441,-1.23749995231628,-2.85202503204346,-3.1073625087738,-2.36816239356995,-1.03905010223389,-2.00505018234253,-3.25500011444092,5.38695049285889,5.86800050735474,6.48495054244995,-4.11496257781982,-5.79837512969971,-7.91931247711182,25.4749507904053,28.7580013275146,32.4100532531738,-2.45794987678528,-2.5288999080658,-2.59599995613098,2.77640008926392,3.30907487869263,3.5399374961853,-14.437050819397,-20.0170516967773,-25.0399513244629,3.1519501209259,2.92695021629334,1.13700008392334,-15.4731502532959,-15.5476751327515,-15.1995248794556,26.9110507965088,20.5909519195557,18.4420509338379,-0.7732999920845,0.2895750105381,0.79667496681213,2.60658740997314,1.16503751277924,0.1717374920845,-29.1820507049561,-26.0569515228271,-24.3960018157959,4.37895011901855,6.99705028533936,5.44695043563843,-11.7871875762939,-10.5520248413086,-8.81608772277832,3.67995023727417,-0.00795000046492,-4.46595001220703,-1.28397500514984,-0.91258752346039,-0.29438748955727,-0.63098752498627,-0.62851250171661,-0.35722500085831,-19.242000579834,-17.5139999389648,-15.6160507202148,7.48095035552979,9.79500007629394,10.7920503616333,-1.24382495880127,-0.46323749423027,-0.13584999740124,-8.03894996643066,-4.36605024337769,-2.90595006942749,SWING_RIGHT
-2.17703747749329,-1.63707494735718,-0.62658751010895,-0.17641249299049,-0.94613748788834,-2.04448747634888,-1.25595009326935,-1.96500015258789,-2.15100002288818,10.3740005493164,13.5679502487183,16.1530513763428,2.10237503051758,1.128737449646,-0.15771250426769,8.93805027008057,12.8170509338379,15.9780006408691,2.14665007591248,1.47716248035431,0.35804998874664,-3.06817507743835,-1.88443744182587,-0.72984999418259,-1.07205009460449,-1.01700007915497,-1.81200003623962,10.9860000610352,7.78905057907104,5.08995008468628,-6.14047479629517,-7.7433123588562,-9.22528743743896,25.2379512786865,25.7620506286621,24.4630508422852,-1.9265124797821,-2.10732507705688,-2.64742493629456,2.54553747177124,2.50029993057251,2.34025001525879,-13.3720502853394,-15.6739511489868,-19.8690013885498,4.05194997787476,2.83095002174377,0.44805002212524,-15.2568626403809,-15.2910995483398,-14.8451871871948,26.5180511474609,21.9550514221191,16.3800010681152,-1.73593747615814,0.12594999372959,1.78983747959137,4.86310005187988,3.7097499370575,1.85405004024506,-24.8509502410889,-23.9359512329102,-22.5060005187988,5.3580002784729,9.00300025939941,10.078950881958,-10.539924621582,-9.55762481689453,-8.00607490539551,2.9239501953125,1.53600001335144,-2.19300007820129,1.09353744983673,0.4325749874115,-0.16967499256134,-0.0323125012219,0.09597499668598,0.05321250110865,-18.8159999847412,-18.1669502258301,-16.8270015716553,3.13305020332336,3.86295008659363,5.57400035858154,-1.4528249502182,-0.16637499630451,0.57034999132156,-9.20700073242188,-9.09705066680908,-6.08400011062622,SWING_RIGHT
1.28287494182587,1.18387496471405,1.08006250858307,-3.02788758277893,-1.95153748989105,-1.20752501487732,0.13995000720024,0.02295000106096,-0.0409500002861,10.032000541687,8.1870002746582,7.99005031585693,1.2471250295639,0.70235002040863,-0.74057501554489,9.925950050354,12.4890003204346,19.8250503540039,-0.94063746929169,-1.10316252708435,-0.9345874786377,-2.46592497825623,-0.52222502231598,0.28297498822212,0.76500004529953,0.37695002555847,-0.90000003576279,5.53305006027222,7.48095035552979,8.92800045013428,-5.35122489929199,-7.21806240081787,-11.0126495361328,23.8720512390137,28.806001663208,27.8970012664795,-1.14592504501343,-1.0616375207901,-1.23144996166229,2.14967489242554,2.84240007400513,3.41783738136292,-16.6549510955811,-18.6600017547607,-21.6010513305664,6.21705007553101,4.44900035858154,1.59705007076263,-13.418212890625,-13.5294494628906,-12.7854375839233,22.9819507598877,16.828950881958,11.3280000686646,0.97253751754761,1.57121253013611,1.51373744010925,2.15820002555847,1.04156243801117,-0.03355000168085,-23.8429508209229,-21.5340003967285,-19.1320514678955,5.50695037841797,5.36505031585693,3.6540002822876,-8.88937473297119,-8.0438871383667,-7.1105375289917,-2.7439501285553,-3.25605010986328,-5.10300016403198,-0.69506251811981,-0.56924998760223,-0.02186249941587,-1.00113749504089,-1.08666253089905,-0.93018752336502,-18.8830509185791,-16.9639511108398,-14.8080005645752,7.45395040512085,10.5600004196167,12.7330503463745,-0.15166249871254,0.70592498779297,1.06026244163513,-11.9869508743286,-8.17500019073486,-4.97400045394897,SWING_RIGHT
-0.98711252212524,-1.12997496128082,-1.13973748683929,-0.18259999155998,-0.24969999492168,-0.36093750596046,4.70595026016235,5.33505010604858,5.43105030059814,7.61205053329468,8.19600009918213,9.41205024719238,1.9265124797821,2.50799989700317,3.02967500686646,-1.57305002212524,-2.2219500541687,-1.94895005226135,-0.58025002479553,-0.44096249341965,-0.47396248579025,-2.16534996032715,-2.83607506752014,-3.22093749046326,3.05505013465881,2.03805017471313,0.63300001621246,9.83100032806396,8.67495059967041,7.47600030899048,4.40536260604858,4.27336263656616,3.63934993743896,2.99595022201538,5.9389500617981,9.46605014801025,-1.11897504329681,-0.44220000505447,0.47533750534058,-0.01759999990463,1.1308000087738,0.55783748626709,-0.36900001764297,0.02295000106096,-0.78300005197525,10.1299505233765,11.90505027771,15.8800506591797,-3.14847493171692,-4.83202505111694,-5.51746225357056,26.3680515289307,23.0010013580322,19.1749515533447,-0.70853751897812,-1.05421245098114,-0.83558750152588,0.76298749446869,1.58771252632141,1.75147497653961,-4.82895040512085,-6.30795049667358,-7.91100025177002,6.62895011901855,7.44195032119751,9.82800006866455,-9.04818725585938,-10.3065872192383,-11.2056999206543,21.5989513397217,21.3349514007568,19.9020004272461,0.36781248450279,0.16252499818802,-0.11357499659061,0.13021250069141,0.80217498540878,1.27366244792938,-17.9730014801025,-19.324951171875,-21.574951171875,8.20604991912842,6.0930004119873,5.05695009231567,-12.2808122634888,-11.5978498458862,-10.7975997924805,11.296950340271,7.07595014572144,3.84795022010803,SWING_RIGHT
-0.71101248264313,-0.72806251049042,-0.93692499399185,-0.43669998645782,-0.45017498731613,-0.79832500219345,3.27900004386902,2.61900019645691,1.23405003547668,7.09800052642822,6.55200052261353,6.34200048446655,3.29353737831116,3.18724989891052,2.82562494277954,2.40000009536743,3.93600010871887,6.09000015258789,-1.02011251449585,-0.72930002212524,-0.37867498397827,-1.49105000495911,-1.25647497177124,-0.88989996910095,-1.33995008468628,-1.90005004405975,-1.95795011520386,10.1869506835938,11.1010503768921,11.4460506439209,0.40424999594688,-0.67938750982285,-1.76192498207092,14.7859506607056,16.9440002441406,19.3350009918213,-0.38225001096725,-0.76958751678467,-1.15568745136261,-1.38709998130798,-1.26004993915558,-0.61627501249313,-2.8000500202179,-3.05595016479492,-5.42295026779175,10.8259506225586,10.0840501785278,9.66105079650879,-9.29500007629394,-11.0516996383667,-12.0511875152588,31.1650524139404,28.9330520629883,24.8910007476807,-1.41102504730225,-1.51731252670288,-1.50136244297028,3.64746236801147,4.53200006484985,4.57105016708374,-16.8199501037598,-17.5759506225586,-20.1169509887695,2.82195019721985,0.33105000853539,0.01500000059605,-14.0034122467041,-13.6625499725342,-12.8587245941162,18.7030506134033,11.8330507278442,8.52600002288818,2.33598756790161,2.4507999420166,2.19917488098145,1.35437500476837,0.66536247730255,0.02021249942482,-17.8780517578125,-16.2049503326416,-16.0180511474609,6.8230504989624,4.60395002365112,4.01295042037964,-9.58086204528809,-8.77690029144287,-7.62726259231567,5.85795021057129,3.37200021743774,0.69195002317429,SWING_RIGHT
3.20333743095398,2.9884250164032,0.76491248607635,-2.91431260108948,-3.11712503433228,-3.11093759536743,-3.36195015907288,-2.93595004081726,-1.73505008220673,14.0209503173828,8.425950050354,5.2150502204895,1.48788750171661,0.52882498502731,-0.45952498912811,9.6409502029419,12.4549503326416,13.8619508743286,-0.07328750193119,-0.47753748297691,-0.96263748407364,-1.3199999332428,-1.20147502422333,-0.56003749370575,-0.87795001268387,-1.24695003032684,-2.25,7.46895027160645,6.06195020675659,5.21205043792725,-3.85715007781982,-4.70002508163452,-5.97313737869263,18.9090003967285,19.8469505310059,23.2860012054443,-0.90516251325607,-0.64748752117157,-0.79530000686646,0.61036247014999,0.71665000915527,0.76188749074936,-7.5400505065918,-10.3090505599976,-16.2100505828857,8.95695018768311,7.213050365448,5.47305011749268,-14.4663753509521,-15.3008623123169,-15.475625038147,32.449951171875,28.5310516357422,22.6900501251221,-0.53872501850128,-0.19167499244213,-0.11962500214577,3.02926254272461,1.76976251602173,0.52359998226166,-30.7080020904541,-31.7800521850586,-30.1939506530762,1.77105009555817,2.14500021934509,2.68095016479492,-12.3296251296997,-10.5619249343872,-8.76108741760254,1.72995007038116,-2.61900019645691,-5.5620002746582,-1.22897493839264,-1.00787496566772,-0.26496249437332,-1.07566249370575,-1.23571252822876,-1.5251499414444,-19.8250503540039,-19.8420009613037,-19.1080513000488,7.21695041656494,9.9790506362915,13.4800510406494,-3.83638739585876,-2.52793741226196,-1.15225005149841,-7.63500022888184,-8.86200046539307,-8.32905006408691,SWING_RIGHT
-2.83552503585815,-1.87769997119904,-0.67801249027252,-0.67484998703003,-1.82091248035431,-2.89107489585876,-1.06005001068115,-1.51005005836487,-1.19895005226135,11.0269508361816,12.8430004119873,14.1829509735107,3.24706244468689,2.89286255836487,2.2257125377655,4.45800018310547,5.81505012512207,9.17505073547363,-0.18933749198914,-0.66206252574921,-0.70482498407364,-1.558149933815,-1.26376247406006,-1.54838752746582,0.37200000882149,0.56400001049042,0.82395005226135,6.81300020217896,7.50705051422119,9.11700057983398,-3.08261251449585,-4.05501270294189,-4.49844980239868,18.9760513305664,19.1550006866455,20.1199512481689,-1.2227874994278,-2.0963249206543,-2.75852489471436,-1.53986251354218,-0.05059999972582,0.9560375213623,-1.37100005149841,-2.50305008888245,-4.40805006027222,4.6210503578186,2.55405020713806,3.29100012779236,-8.47027492523193,-9.33652496337891,-10.1928749084473,27.0379505157471,23.9599514007568,24.6829509735107,-2.48118758201599,-2.35166239738464,-1.97051250934601,2.94868755340576,3.57170009613037,3.72075009346008,-13.4239501953125,-16.2240009307861,-16.0849514007568,4.20000028610229,4.50195026397705,3.98700022697449,-11.3339872360229,-11.6626119613647,-11.4427499771118,19.2750015258789,16.3939514160156,12.01305103302,0.9590625166893,1.4441624879837,1.52240002155304,1.66100001335144,0.77165001630783,0.10216250270605,-19.5070514678955,-17.8350009918213,-17.1190509796143,4.98495006561279,4.78905010223389,4.02300024032593,-8.28575038909912,-7.44644975662232,-6.24195003509521,1.182000041008,-1.43700003623962,-4.77495002746582,SWING_RIGHT
-0.67430001497269,-0.80011248588562,-0.95644998550415,-1.22223746776581,-1.69138753414154,-2.3706374168396,0.26205000281334,-0.2080500125885,-0.64905005693436,9.3850507736206,9.36405086517334,9.46905040740967,2.45671248435974,2.82686257362366,2.63505005836487,2.11500000953674,4.14195013046265,8.29395008087158,0.30552500486374,0.4325749874115,0.29081249237061,-2.76031255722046,-1.63391244411469,-0.84961247444153,-2.98395013809204,-2.39100003242493,-2.050950050354,10.5340509414673,9.76395034790039,9.10305023193359,-1.91949999332428,-3.27442502975464,-4.18330001831055,17.4990005493164,18.44700050354,19.8370513916016,-0.33219999074936,-0.16967499256134,0.06723749637604,0.88770002126694,1.1588499546051,1.34089994430542,-3.62100028991699,-5.1589503288269,-7.72500038146973,8.12400054931641,7.89495038986206,7.13595056533813,-10.0194873809814,-11.1909875869751,-11.8239002227783,24.3499507904053,21.0120010375977,18.0979499816895,-2.1012749671936,-1.96322500705719,-1.45860004425049,2.59929990768433,1.96157503128052,1.39342498779297,-20.3500518798828,-22.3570518493652,-21.9649505615234,0.69705003499985,4.14000034332275,6.70305013656616,-11.83118724823,-11.165412902832,-10.588737487793,7.99500036239624,7.55505037307739,6.95205020904541,-0.58877497911453,-0.4959625005722,-0.34319999814034,0.93046247959137,0.77398747205734,0.62988752126694,-17.7390003204346,-16.2289505004883,-16.1430015563965,6.22395038604736,6.26700019836426,6.29100036621094,-6.11847496032715,-5.36222505569458,-4.26758766174316,-2.26005005836487,-2.88495016098022,-6.77295017242432,SWING_RIGHT
-0.41772499680519,-0.33096250891685,-0.04262499883771,-2.00530004501343,-2.55268740653992,-3.06088757514954,5.04795026779175,5.5339503288269,5.89005041122437,11.0149507522583,10.9480504989624,11.5560007095337,-1.06301248073578,-3.39281249046326,-5.01902484893799,21.1560001373291,24.5940017700195,23.1679515838623,-1.26802504062653,-1.32302498817444,-1.42807495594025,-1.13671255111694,-1.09023749828339,-0.72984999418259,2.41095018386841,1.29105007648468,-0.67995005846024,8.46705055236816,8.43795013427734,7.08795022964478,-7.92302513122559,-8.35051250457764,-9.09218788146973,20.320951461792,21.5629501342773,24.2209510803223,-3.0908625125885,-3.17267489433289,-2.84033751487732,2.63353753089905,3.37754988670349,3.49717497825623,-11.6940002441406,-14.4940509796143,-17.3059501647949,-0.17595000565052,0.47700002789497,1.43595004081726,-10.3504495620728,-10.416449546814,-10.403112411499,18.44700050354,16.4869499206543,14.0179510116577,-0.88316249847412,-0.62782502174377,-0.34567499160767,1.53147494792938,1.47895002365112,1.16503751277924,-19.0140018463135,-18.0979499816895,-18.5569515228271,3.45105028152466,4.02300024032593,4.79595041275024,-8.33841228485107,-7.57968759536743,-6.51557493209839,1.27605009078979,-0.73800003528595,-3.6739501953125,0.47162500023842,0.48262500762939,0.61943751573563,-1.01571249961853,-0.60651248693466,-0.10312499850988,-16.420051574707,-14.8050003051758,-12.5490007400513,8.91405010223389,9.25395011901856,10.0360507965088,-1.05820000171661,-0.29342499375343,-0.00879999995232,-6.95700025558472,-4.95000028610229,-3.01905012130737,SWING_RIGHT
-0.83916246891022,-1.25345003604889,-1.55031251907349,-0.14712500572205,-0.14712500572205,-0.58451247215271,3.2749502658844,2.40795016288757,1.38705003261566,6.95700025558472,6.76800012588501,7.78905057907104,4.65327501296997,4.68256235122681,3.14572501182556,1.28295004367828,4.75695037841797,14.6179504394531,0.07823749631643,-0.12815000116825,-0.92716246843338,-2.69444990158081,-2.56244993209839,-2.06524991989136,2.24805021286011,3.67200016975403,1.43205010890961,13.5199508666992,9.97605037689209,7.46400022506714,-3.37823748588562,-4.24324989318848,-6.81367492675781,17.0830516815186,21.961950302124,31.8499507904053,-2.03775000572205,-1.51855003833771,-1.59307503700256,-0.1104125007987,0.84617501497269,1.50947499275208,-9.62895011901856,-18.1260013580322,-25.8049507141113,15.0019502639771,12.5850009918213,8.10000038146973,-16.5384998321533,-16.6985492706299,-16.0375881195068,27.6139507293701,19.0570507049561,13.7830505371094,1.56021249294281,1.94754993915558,1.34035003185272,-0.3755125105381,-1.38104999065399,-1.85872495174408,-32.7019500732422,-31.1530513763428,-28.7269515991211,9.61005020141602,6.88695049285889,3.74505019187927,-12.2808122634888,-10.795262336731,-8.75256252288818,1.08405005931854,-2.27505016326904,-7.69695043563843,-1.19473743438721,0.17723749577999,1.85226249694824,-1.76715004444122,-1.00966250896454,0.31102499365807,-23.6490020751953,-20.2939510345459,-16.0519504547119,16.6770000457764,19.2750015258789,17.7180004119873,1.10302495956421,1.87508749961853,2.01079988479614,-9.79995059967041,-5.48295021057129,-2.14800000190735,SWING_RIGHT
-0.14038750529289,0.55591249465942,1.18263745307922,-2.29006242752075,-2.67245006561279,-2.27040004730225,4.24905014038086,1.98705005645752,-0.00495000043884,10.7610006332397,10.2949504852295,9.04800033569336,6.10720014572144,5.89820003509521,5.20190000534058,4.53705024719238,7.15305042266846,10.8760509490967,0.43738749623299,0.24805000424385,-0.30662500858307,1.04032504558563,0.3647874891758,-0.9424250125885,2.04000020027161,3.99000024795532,4.25594997406006,8.9239501953125,9.41895008087158,8.84700012207031,-1.97697496414185,-2.80774998664856,-3.68362498283386,16.0489501953125,16.0519504547119,18.7800006866455,-1.54783749580383,-1.26197504997253,-1.27421247959137,-1.96748745441437,-0.6210874915123,0.73493748903275,-2.23305010795593,-4.88700008392334,-8.73705005645752,13.6999502182007,12.7069501876831,9.92895030975342,-12.4921503067017,-14.3504619598389,-15.1237621307373,30.7560005187988,26.7430515289307,20.4979515075684,-2.88186240196228,-1.91427493095398,-0.4959625005722,3.73175001144409,3.16744995117188,2.09109997749329,-27.351001739502,-25.3170013427734,-24.5080509185791,-0.68805003166199,3.24495005607605,5.800950050354,-13.0810623168945,-12.0852870941162,-10.6302623748779,2.0220000743866,-0.35805001854897,-4.69605016708374,0.79543751478195,-0.0536249987781,-0.77453750371933,-1.9100124835968,-1.71696245670319,-1.5691499710083,-13.7359504699707,-11.9190006256104,-11.1270008087158,3.84795022010803,4.31505012512207,5.71500015258789,-3.27071237564087,-1.67887496948242,-0.45952498912811,-9.68295001983643,-9.32895088195801,-7.93095016479492,SWING_RIGHT
-0.00728749996051,-0.30043751001358,-0.59125000238419,1.34337496757507,1.82105004787445,1.84305000305176,2.17905020713806,0.90105003118515,0.24000000953674,7.87095022201538,7.23405027389526,8.27505016326904,3.55011248588562,3.14806246757507,2.73762488365173,5.94405031204224,6.15705013275146,6.33900022506714,1.09958744049072,1.44168746471405,1.31216251850128,-1.26499998569489,-2.09096240997314,-2.63450002670288,0.38205000758171,0.58995002508163,1.32195007801056,13.4269504547119,11.9820003509521,10.0150508880615,0.18053749203682,-1.47111248970032,-3.17171239852905,15.3910503387451,18.9589500427246,21.3190517425537,-1.22168743610382,-1.96803748607636,-3.04314994812012,-2.52711248397827,-2.75797510147095,-2.08601260185242,1.57800006866455,0.17295001447201,-2.79795002937317,7.21500015258789,6.30795049667358,3.27405023574829,-12.3700494766235,-13.5244998931885,-13.2594003677368,34.5109519958496,25.381950378418,15.6670503616333,-4.68036270141602,-3.31319999694824,-1.8935124874115,4.10561227798462,3.63646245002747,1.86986243724823,-19.1119518280029,-21.8020515441895,-24.1450519561768,1.6560001373291,2.83095002174377,6.046950340271,-14.1939878463745,-11.3634128570557,-8.91742515563965,8.17199993133545,-1.49895012378693,-6.39495038986206,-0.41772499680519,-0.97968751192093,-1.38283753395081,-0.81661248207092,-0.80079996585846,-0.64556246995926,-11.9959506988525,-10.7440509796143,-10.2900009155273,6.24795007705688,6.71295022964478,7.32300043106079,-1.98302495479584,-1.07896244525909,-0.35089999437332,-5.97900009155273,-5.01195001602173,-4.50705003738403,SWING_RIGHT
0.04771250113845,0.16128750145435,0.19676250219345,-0.28270000219345,-0.01649999991059,0.51136249303818,2.92095017433167,2.64105010032654,2.17905020713806,8.85900020599365,9.28305053710938,8.93100070953369,2.76815009117126,3.68321251869202,4.63251256942749,0.82095003128052,0.01695000007749,-0.11400000751019,-1.51002502441406,-0.70358747243881,0.89429998397827,4.59057474136353,3.06844997406006,0.20226250588894,-1.66095006465912,-3.30495023727417,-3.97200012207031,10.6729507446289,16.1530513763428,19.1820011138916,4.3173623085022,3.19082498550415,1.83232498168945,7.62600040435791,10.8930006027222,14.9560508728027,-0.24062499403954,-2.01946258544922,-2.97838759422302,-4.05047512054443,-2.22035002708435,-1.70967495441437,3.70305013656616,4.62195014953613,3.34200024604797,-1.04205000400543,-0.54900002479553,4.12800025939941,-8.47893714904785,-10.8758373260498,-11.9094247817993,37.324951171875,34.9150505065918,26.3269519805908,-2.46289992332459,-2.66571259498596,-2.7867124080658,1.41295003890991,2.05920004844666,2.54911255836487,-14.9890508651733,-19.2199516296387,-25.1689510345459,6.10995006561279,2.25495004653931,1.71900010108948,-15.4866247177124,-14.9331874847412,-13.9435997009277,15.7890005111694,9.11700057983398,4.87695026397705,-0.256437510252,0.2419999986887,0.31900000572205,1.75257503986359,0.92303746938705,0.23031249642372,-23.2690505981445,-20.2849502563477,-18.6670513153076,6.74805021286011,5.79600048065186,4.37700033187866,-8.67432498931885,-7.29011249542236,-5.48817491531372,-3.95700025558472,-6.86205053329468,-11.2669506072998,SWING_RIGHT
1.11553752422333,1.34763753414154,1.40497493743896,-1.69633746147156,-1.75615000724792,-1.40181243419647,3.86295008659363,3.76500010490417,3.13800024986267,10.5820503234863,9.40904998779297,7.82805013656616,3.52811241149902,3.94707489013672,4.20488739013672,2.27595019340515,3.66105008125305,5.23305034637451,0.35557499527931,0.16252499818802,-0.16238750517368,-1.06589996814728,-1.60586249828339,-2.06029987335205,-0.14595000445843,0.9700500369072,3.44700026512146,6.56400012969971,7.14600038528442,7.34895038604736,-1.16943752765656,-2.53041243553162,-3.3439998626709,22.7970008850098,22.1110515594482,22.6969509124756,-1.72370004653931,-1.33402502536774,-0.97487497329712,-1.14647495746613,-0.6542249917984,-0.19607499241829,-5.53500032424927,-5.21400022506714,-6.65700054168701,9.12195014953613,9.99105072021484,9.00495052337646,-13.1555871963501,-15.2862873077393,-16.1145877838135,40.9000511169434,31.5000019073486,25.4700012207031,-2.96133756637573,-2.02069997787476,-0.8123499751091,3.4519374370575,3.4935998916626,2.13743758201599,-36.8320503234863,-36.3049507141113,-32.6490020751953,0.8929500579834,1.95300006866455,4.84800004959106,-13.6186876296997,-12.1440000534058,-10.5069246292114,0.74700003862381,-3.84705018997192,-6.54600048065186,-3.5795373916626,-4.03644990921021,-3.12991237640381,-2.31206250190735,-1.93819999694824,-1.20518743991852,-24.7840518951416,-23.3530502319336,-20.3160018920898,2.0269501209259,8.35200023651123,14.439001083374,-1.10096251964569,1.2838374376297,2.54457497596741,-19.2139511108398,-15.8730010986328,-9.53505039215088,SWING_RIGHT
0.75019997358322,0.45704999566078,0.27004998922348,-0.9620875120163,-0.87532502412796,-1.32728743553162,-1.46700012683868,-0.80205005407333,-0.30195000767708,8.23905086517334,7.77495050430298,8.53605079650879,1.1921249628067,0.23072500526905,-0.78828752040863,13.3879508972168,15.5710506439209,17.3059501647949,-0.6682500243187,-0.85511249303818,-0.98339998722076,-1.05613744258881,-1.29305005073547,-1.01337504386902,-0.80895006656647,-2.18295001983643,-3.55605006217957,6.89400053024292,7.91100025177002,7.48800039291382,-6.88091230392456,-8.38846206665039,-9.8044376373291,24.3619518280029,25.2690010070801,24.3310508728027,-1.32302498817444,-1.21921253204346,-1.19968748092651,1.68904995918274,2.09220004081726,2.68716239929199,-15.5539503097534,-18.8640003204346,-23.3190002441406,5.32905006408691,5.14005041122437,2.87700009346008,-15.6088628768921,-15.5904378890991,-15.3558626174927,22.8480014801025,15.8269510269165,12.3810005187988,-1.76646244525909,-0.90763747692108,-0.59606248140335,2.89739990234375,2.02743744850159,1.60352504253387,-30.8040008544922,-26.3080520629883,-24.8980503082275,4.34805011749268,6.39000034332275,3.94905018806458,-9.67367458343506,-8.25660037994385,-5.96832513809204,-7.16100025177002,-12.1999502182007,-18.7660503387451,2.06841254234314,2.95295000076294,2.91623759269714,-1.13671255111694,-0.90090000629425,-0.51246249675751,-18.8280010223389,-15.3460502624512,-12.622950553894,14.3940010070801,11.5650005340576,7.33500051498413,1.28012502193451,1.51469993591309,1.56117498874664,-6.18900012969971,-4.27500009536743,-3.11205005645752,SWING_RIGHT
-0.74277502298355,-0.31996250152588,0.11728750169277,-1.22223746776581,-1.11223745346069,-0.7958499789238,1.32705008983612,1.11105000972748,0.9700500369072,10.8880500793457,11.5440006256104,11.4390001296997,2.50181245803833,2.39304995536804,2.18666243553162,4.59705018997192,5.58795022964478,6.85605049133301,0.90653747320175,1.26335000991821,1.20711255073547,-1.19666254520416,-2.2045373916626,-2.95102500915527,-0.19200000166893,1.25505006313324,1.06605005264282,12.4680004119873,14.2810506820679,13.5420007705688,-5.98537492752075,-6.68057489395142,-8.25536251068115,22.2780017852783,21.4090518951416,28.1410522460938,-1.96570003032684,-2.31879997253418,-2.1513249874115,2.11296248435974,3.47160005569458,4.24489974975586,-10.8540000915527,-18.5209503173828,-27.0900020599365,6.8710503578186,4.03005027770996,3.22605013847351,-16.5849742889404,-15.9410619735718,-14.9417123794556,19.3680000305176,9.16499996185303,5.0590500831604,4.31997489929199,4.10987520217896,3.08976244926453,-0.18507499992847,-1.26995003223419,-1.73167502880096,-28.6789512634277,-27.9799518585205,-22.3189506530762,10.771050453186,6.61200046539307,4.93005037307739,-8.99689960479736,-6.63409996032715,-4.90778732299805,-11.5849504470825,-10.993950843811,-8.21805000305176,0.70248746871948,0.56086248159409,0.28476250171661,-0.88866251707077,-0.91066247224808,-0.78856247663498,-9.34695053100586,-9.84195041656494,-9.20100021362305,7.91100025177002,8.24895000457764,7.69800043106079,-1.74611246585846,-1.0729124546051,-0.53899997472763,-5.17500019073486,-5.98800039291382,-6.12195014953613,SWING_RIGHT
1.50644993782043,1.71531248092651,1.8240749835968,-2.59049987792969,-2.45987486839294,-1.70362496376038,-1.8600001335144,-0.04995000362396,2.25795006752014,8.59605026245117,8.87100028991699,8.0310001373291,0.4433000087738,-0.36918750405312,-1.0448625087738,16.2460498809814,14.7859506607056,14.2930507659912,-0.69506251811981,-0.47877499461174,-0.2223374992609,-0.50146251916885,-1.30776250362396,-2.45863747596741,0.65700000524521,0.64200001955032,0.94905006885529,7.93995046615601,9.52905082702637,9.81900024414062,-7.51382493972778,-9.22900009155273,-10.5899753570557,27.0690021514893,24.6040515899658,25.1190013885498,-3.14338755607605,-4.43354988098145,-5.10551261901855,-2.48311257362366,-2.36582493782043,-1.15499997138977,-13.6830005645752,-21.1320018768311,-28.9399509429932,2.06295013427734,2.51100015640259,4.17600011825562,-17.5672740936279,-16.6887874603271,-15.0211877822876,23.8909511566162,14.1109504699707,2.5530002117157,-4.36878728866577,-3.15686249732971,-1.98769998550415,1.0867999792099,-0.39765000343323,-0.1385999917984,-24.1350002288818,-19.4140510559082,-14.9920511245728,13.8390007019043,12.7950010299683,9.16800022125244,-4.30306243896484,-3.22437500953674,-2.20783758163452,-6.80400037765503,-5.6650505065918,-5.73900032043457,0.2419999986887,0.89072501659393,1.25839996337891,-0.16060000658035,-0.3768875002861,-0.3964124917984,-13.9459505081177,-11.7730503082275,-9.45900058746338,11.5030508041382,11.1870002746582,9.72795009613037,0.9453125,1.02478754520416,0.84878748655319,-3.81300020217896,-1.53705012798309,-0.8479500412941,SWING_RIGHT
-1.16544997692108,-1.45254993438721,-1.50631248950958,-1.1452374458313,-0.89608746767044,-0.51727497577667,3.71295022964478,2.02995014190674,1.86795008182526,7.07400035858154,7.014000415802,8.77995014190674,3.20553755760193,2.92091250419617,2.69238758087158,6.19995021820068,6.25995016098022,6.51600027084351,0.35928750038147,0.3091000020504,-0.07081250101328,-0.42198750376701,-0.91066247224808,-1.56805002689362,0.72900003194809,1.03005003929138,1.52100002765656,10.6969509124756,9.98805046081543,9.22800064086914,-1.05338752269745,-2.27878737449646,-3.13389992713928,13.4530506134033,15.1330509185791,15.6979503631592,-1.14345002174377,-0.81853747367859,-0.50448751449585,-1.5888124704361,-1.6241500377655,-1.22842502593994,-2.16600012779236,-2.87595009803772,-4.17300033569336,10.9930505752563,11.6440505981445,10.4790000915527,-11.9851875305176,-12.3199996948242,-12.6315746307373,30.5149517059326,22.7730007171631,21.6340503692627,-1.5025999546051,-1.69564998149872,-1.60283744335175,0.62865000963211,0.2230249941349,-0.49527499079704,-21.5629501342773,-25.6789512634277,-28.8750019073486,0.48600003123283,0.6319500207901,2.86995005607605,-13.7152128219604,-12.1562376022339,-10.6279249191284,4.25205039978027,-0.38205000758171,-3.51405024528503,-3.3706750869751,-3.46348738670349,-2.87209987640381,-1.69015002250671,-0.89608746767044,-0.33522498607635,-18.9349517822266,-17.2960510253906,-15.6640510559082,6.72900009155273,9.71595001220703,13.5559511184692,-3.61047506332397,-2.04655003547669,-0.89333748817444,-11.5849504470825,-10.4560508728027,-7.95000028610229,SWING_RIGHT
0.78691250085831,2.18941259384155,2.62308740615845,-1.85748744010925,-2.16177487373352,-2.59668755531311,-5.05605030059814,-4.68795013427734,-3.4939501285553,18.1290016174316,17.3230514526367,13.2190504074097,0.67044997215271,-0.28366249799728,-1.638587474823,12.1680002212524,14.9820003509521,18.6820507049561,-1.06040000915527,-1.83493745326996,-2.20756244659424,-1.30900001525879,-0.28888750076294,0.17297500371933,-1.14900004863739,-3.19995021820068,-7.35105037689209,3.86700010299683,4.34100008010864,5.7529501914978,-7.66039991378784,-9.76167488098144,-12.356575012207,24.0150012969971,27.0139503479004,28.3270511627197,-2.42261242866516,-2.74504995346069,-3.63934993743896,2.42453742027283,3.19178748130798,3.27854990959167,-21.1579513549805,-27.3150005340576,-30.3810005187988,-0.02505000121891,-3.88005018234253,-5.0310001373291,-15.589337348938,-15.4182872772217,-14.5080375671387,15.0540008544922,9.41595077514648,3.43605017662048,-1.81665003299713,-1.55883753299713,-1.71393752098084,0.94627499580383,0.07521250098944,-0.1385999917984,-25.8030014038086,-23.3239517211914,-20.4690017700195,5.97795009613037,5.11200046539307,4.875,-6.98472499847412,-5.15226268768311,-3.36366248130798,-10.5900001525879,-11.7790508270264,-11.9389505386353,0.47533750534058,0.81620001792908,0.96882498264313,-0.34264999628067,-0.37317499518394,-0.20336249470711,-15.1500005722046,-13.8430509567261,-10.0000505447388,10.2280502319336,8.77305030822754,8.09295082092285,0.93431252241135,1.10536253452301,1.21783745288849,-4.36800003051758,-3.46395015716553,-3.14100003242493,SWING_RIGHT
0.82472497224808,1.42697501182556,2.08917498588562,-2.77626252174377,-3.71703743934631,-4.04318761825562,-4.26900005340576,-4.51995038986206,-5.84595012664795,11.998950958252,13.1230506896973,12.6900005340576,2.28923749923706,0.92207497358322,-0.46942499279976,13.4100008010864,16.8199501037598,18.4489517211914,0.52538752555847,-0.21615000069141,-0.61572498083115,0.35254999995232,0.33783748745918,0.00068749999627,-1.66995012760162,-2.96700024604797,-3.22800016403198,3.73605012893677,4.42500019073486,6.06195020675659,-5.14249992370605,-8.11978721618652,-10.205249786377,17.8780517578125,24.7740020751953,26.1949520111084,-2.24427509307861,-2.58747506141663,-2.50071239471436,0.07892499864101,0.65546250343323,1.57918751239777,-14.2210502624512,-18.7320003509521,-23.7859516143799,3.72405028343201,4.0639500617981,4.27395009994507,-14.9539499282837,-15.707724571228,-15.7957248687744,19.8900012969971,16.7650508880615,11.1700506210327,-2.72552490234375,-2.06579995155334,-1.29621243476868,3.24059987068176,1.99086248874664,0.07768750190735,-33.0700531005859,-30.3229522705078,-24.7519512176514,1.03905010223389,4.22205018997192,8.296950340271,-10.0060129165649,-8.10507488250732,-5.8290376663208,-6.81105041503906,-9.15705013275146,-12.4060506820679,-0.29067498445511,0.23347499966621,0.71719998121262,-0.03478749841452,0.24255000054836,0.07892499864101,-17.1450004577637,-15.7770004272461,-13.6020002365112,9.9529504776001,10.4670009613037,10.6699504852295,1.05531251430511,1.61122500896454,1.6770875453949,-7.7590503692627,-5.04300022125244,-1.94895005226135,SWING_RIGHT
0.09047500044107,-0.14038750529289,-0.32615000009537,-2.68097496032715,-2.47211241722107,-1.65233743190765,0.60900002717972,0.91005003452301,1.43205010890961,8.49300003051758,7.34700012207031,7.36800050735474,-0.01979999989271,-0.72105002403259,-1.59829998016357,12.187050819397,14.2999505996704,17.8060512542725,-0.48620000481606,-0.88934999704361,-1.09216248989105,-0.12031249701977,-0.4989874958992,-0.95837497711182,-1.00499999523163,-1.19400000572205,-2.28495001792908,7.39005041122437,7.02105045318604,8.53395080566406,-6.2199501991272,-7.90597486495972,-9.37928771972656,22.606050491333,26.1690006256104,26.5639514923096,-0.90763747692108,-1.14716243743896,-1.53078746795654,-0.89732497930527,-0.09088750183582,1.40071249008179,-13.5060005187988,-18.1500015258789,-24.3840007781982,9.52905082702637,8.28495025634766,5.14305019378662,-13.8580751419067,-13.4744501113892,-12.6339120864868,19.2250499725342,10.7490005493164,4.39394998550415,-1.90575003623962,-1.07387495040894,-0.40548750758171,2.07391238212585,1.21632504463196,0.94146251678467,-22.9819507598877,-18.0949516296387,-16.0710010528564,7.01895046234131,8.08800029754639,6.69300031661987,-8.70498752593994,-8.36164951324463,-7.37935018539429,-0.82005006074905,-1.68795013427734,-4.17405033111572,-1.26802504062653,-0.85140001773834,-0.15262499451637,-0.27541249990463,-0.35365000367165,-0.52222502231598,-15.7459506988525,-13.7500505447388,-11.9119501113892,6.65295028686523,9.20805072784424,11.1130504608154,-1.79492497444153,0.28929999470711,0.72668749094009,-12.5569505691528,-7.35495042800903,-5.67705011367798,SWING_RIGHT
-1.09697496891022,-0.74153751134872,-0.43243750929832,-1.81719994544983,-1.87591254711151,-2.23134994506836,-2.35005021095276,-2.56500005722046,-2.32605004310608,8.83695030212402,9.6409502029419,10.0990505218506,0.19648750126362,-1.42601251602173,-2.87374997138977,19.0720500946045,22.1560516357422,23.8740005493164,-1.42078745365143,-1.45378744602203,-1.12997496128082,-0.8068500161171,0.3255999982357,1.05503749847412,-3.63300013542175,-4.8600001335144,-6.74805021286011,6.65805053710938,7.43505048751831,8.10795021057129,-7.91449975967407,-10.2137746810913,-12.3065252304077,29.0550022125244,31.6219520568848,30.223051071167,-0.27486249804497,-0.71334999799728,-1.2754499912262,0.57736247777939,-0.17641249299049,-0.79337501525879,-21.7230014801025,-26.7889518737793,-31.1700019836426,1.65900003910065,0.37605002522469,-0.63000005483627,-17.730899810791,-16.7695007324219,-11.4097499847412,18.8350505828857,10.4089508056641,-3.85605025291443,-3.597825050354,-5.08708763122559,-5.05656242370605,-2.43292498588562,-2.15201258659363,-1.76715004444122,-21.340051651001,-23.9320507049561,-18.9660015106201,3.37005019187927,5.74095010757446,14.521050453186,-2.59270000457764,-0.49994999170303,0.22935000061989,-15.3589506149292,-11.0329504013062,-3.76995015144348,0.91025000810623,0.83448749780655,0.60610002279282,-0.64198750257492,-0.55274999141693,-0.25959998369217,-7.51605033874512,-6.33900022506714,-4.69305038452148,11.9029502868652,9.66105079650879,9.04605007171631,-1.4638249874115,-1.25619995594025,-0.96057498455048,0.81900006532669,-2.00205016136169,-3.24105024337769,SWING_RIGHT
-0.15138749778271,-0.61201250553131,-0.89787501096725,0.64569997787476,1.17480003833771,1.51923751831055,2.7529501914978,1.65705013275146,0.89895004034042,7.48995018005371,7.07895040512085,7.74900054931641,2.64715003967285,2.71562504768372,2.82191252708435,2.88405013084412,2.62800002098084,3.1230001449585,-0.41896250844002,0.05266249924898,0.44604998826981,-1.66814994812012,-2.480637550354,-2.68702507019043,-1.42905008792877,-1.87395012378693,-1.11300003528595,11.6749505996704,11.8669509887695,11.3569507598877,0.39063748717308,-0.88233751058578,-2.13331246376038,16.1040000915527,18.8830509185791,20.9119510650635,-0.92358750104904,-0.79887497425079,-0.24062499403954,-1.19652497768402,-0.91437500715256,-0.54670000076294,-3.16605019569397,-3.62100028991699,-4.5949501991272,8.25104999542236,10.0669507980347,10.6660509109497,-6.75757503509521,-8.42393779754639,-9.79962539672852,26.5690517425537,25.9510517120361,24.0820503234863,-0.856350004673,-1.41707503795624,-1.73717498779297,-1.37252497673035,-1.19900000095367,-0.51122498512268,-14.0680503845215,-13.9050006866455,-15.5110511779785,2.40795016288757,2.93400025367737,2.75205016136169,-12.1257123947144,-12.6853370666504,-12.7891502380371,17.2870502471924,16.0639514923096,10.6680002212524,-3.52701258659363,-3.78111243247986,-3.72006249427795,0.57365000247955,-0.25217500329018,-0.83613747358322,-23.8960514068604,-21.3109512329102,-18.9640502929688,1.02900004386902,4.39095020294189,6.33900022506714,-8.44717502593994,-7.7031626701355,-6.94196224212646,-2.5639500617981,-2.66700005531311,-3.83205008506775,SWING_RIGHT
3.25586247444153,3.35610008239746,2.51308751106262,-3.63151240348816,-2.62968754768372,-1.59981250762939,-2.71095013618469,-2.33295011520386,0.01995000056922,11.9080505371094,5.62905025482178,3.47505021095276,0.95754998922348,-0.18961249291897,-1.63006246089935,14.9629507064819,17.3819999694824,19.4950504302979,-1.76164996623993,-2.85257506370544,-3.60634994506836,-1.73662495613098,-1.68038749694824,-1.2282874584198,1.94700014591217,-0.53895002603531,-4.03905010223389,3.22605013847351,3.39795017242432,5.06895017623901,-7.55287504196167,-9.8008623123169,-12.5680503845215,23.719051361084,26.6640014648438,29.7460517883301,-3.10557508468628,-4.02173757553101,-4.45183753967285,-0.26812499761581,0.14245000481606,1.62923753261566,-22.0990505218506,-31.8829517364502,-37.8319511413574,4.58505010604858,1.4190000295639,1.2280501127243,-17.3692741394043,-15.3657627105713,-12.0536623001099,12.9430503845215,-2.45895004272461,-13.0330505371094,-2.14884996414185,-2.26256251335144,-2.06579995155334,-1.12447500228882,-0.71280002593994,0.08016250282526,-17.7340507507324,-16.5760517120361,-14.9130010604858,9.94800090789795,7.27995014190674,8.32095050811768,-4.33606243133545,-2.77351260185242,-1.88897502422333,-9.5779504776001,-8.46300029754639,-5.13195037841797,0.71472501754761,0.71472501754761,0.55715000629425,-0.76779997348785,-0.64803749322891,-0.5490375161171,-7.86600017547607,-6.89895009994507,-5.56905031204224,9.82800006866455,8.425950050354,7.95195055007935,-0.88481247425079,-0.49266248941422,-0.16403749585152,-2.81100010871887,-3.29400014877319,-3.13395023345947,SWING_RIGHT
-0.94916248321533,-0.98339998722076,-0.84039998054504,-1.45309996604919,-1.57533752918243,-0.95961248874664,-1.17000007629395,-2.29500007629395,-3.55800008773804,6.31800031661987,7.00695037841797,6.75300025939941,3.25806260108948,2.05218744277954,0.13282500207424,15.8410511016846,19.8850517272949,24.4270515441895,0.4130499958992,-0.12815000116825,-1.20449995994568,-0.54546248912811,-1.21852505207062,-1.707200050354,-0.07005000114441,-0.18705001473427,-1.49595010280609,8.29200077056885,5.20005035400391,2.56605005264282,-7.14120006561279,-8.77703762054443,-10.4153499603271,27.0280513763428,28.2240009307861,28.1719512939453,-3.43901252746582,-3.53801250457764,-4.1904501914978,0.66165000200272,1.01956248283386,1.54618752002716,-12.996000289917,-17.9809513092041,-24.8910007476807,5.71200037002563,3.71205019950867,0.55605000257492,-15.5428628921509,-15.9680128097534,-14.980899810791,28.3680019378662,23.9530506134033,14.7090005874634,-3.01510000228882,-1.27297496795654,-0.04152499884367,3.26754999160767,2.84363746643066,2.01891255378723,-23.5420513153076,-19.9860000610352,-20.3260517120361,9.2629508972168,8.47605037689209,6.57600021362305,-11.1593627929688,-10.6328744888306,-9.89367485046387,11.6029500961304,8.75100040435791,5.26005029678345,0.38486251235008,0.10395000129938,0.0954250022769,-0.99618750810623,-1.10494995117188,-0.84589999914169,-20.3689517974854,-18.8350505828857,-17.3369998931885,5.61195039749146,6.99000024795532,8.55300045013428,-3.17913746833801,-1.51030004024506,-0.35089999437332,-7.18200016021729,-6.52200031280518,-4.5600004196167,SWING_RIGHT
1.00182497501373,1.06053745746613,0.97982501983643,-0.29741248488426,-0.08112499862909,0.26949998736382,3.65805006027222,2.956050157547,2.44905018806458,9.14895057678223,8.82299995422363,8.26800060272217,3.86402487754822,3.96412491798401,3.91407489776611,5.27400016784668,4.51800012588501,6.01605033874512,0.17599999904633,0.0709500014782,-0.1538625061512,0.28654998540878,0.12773749232292,-0.14588749408722,1.83900010585785,2.02095007896423,2.85405015945435,8.41394996643066,8.17500019073486,8.05005073547363,2.32100009918213,2.1707124710083,1.49503743648529,8.65305042266846,10.85205078125,16.114049911499,-3.56001257896423,-4.65093755722046,-4.4420747756958,-1.46162497997284,-0.84589999914169,0.61888748407364,2.24100017547607,-0.99105006456375,-3.62805008888245,2.16600012779236,4.0489501953125,9.51195049285889,-8.20654964447021,-9.99748706817627,-11.5344619750977,31.7400016784668,29.4190521240234,25.9660511016846,-1.29250001907349,-1.4805999994278,-1.53683745861053,0.44054999947548,0.45155000686646,0.86570000648499,-15.3790502548218,-19.066951751709,-22.5370502471924,6.47100019454956,4.56900024414063,3.92205023765564,-13.7872619628906,-13.4415874481201,-12.6241502761841,18.610050201416,16.7580013275146,13.956000328064,-0.10504999756813,-0.16981250047684,-0.39214998483658,-0.32917499542236,-0.07259999960661,0.18521249294281,-20.484001159668,-16.5499515533447,-12.8290510177612,6.87495040893555,5.80995035171509,5.26005029678345,-6.53523731231689,-6.09537506103516,-5.85722494125366,2.26095008850098,4.42500019073486,3.99405026435852,SWING_RIGHT
-2.76718759536743,-2.11351251602173,-1.31216251850128,-0.05678749829531,-1.47510004043579,-3.27346253395081,2.47305011749268,2.27400016784668,1.76700007915497,11.3980503082275,13.5990009307861,14.6280002593994,2.95872497558594,2.92448759078979,1.8018000125885,3.12495017051697,7.59795045852661,14.5800008773804,1.47826254367828,0.21009999513626,-1.5552624464035,-5.23806238174438,-4.02600002288818,-2.50263738632202,0.75495004653931,3.38700008392334,2.69595003128052,7.69095039367676,3.66195011138916,0.67995005846024,-6.74286270141602,-7.8069748878479,-8.91866207122803,28.6669521331787,26.2309513092041,25.336051940918,-2.07074999809265,-1.84360003471375,-1.9571750164032,3.61693739891052,3.4568874835968,2.49177503585815,-13.2709503173828,-19.5570011138916,-24.3960018157959,3.40800023078919,1.14900004863739,-1.10205006599426,-15.5331001281738,-15.7139120101929,-15.0882873535156,21.28005027771,17.1019515991211,10.8210000991821,-1.46231245994568,-1.2474000453949,-1.2253999710083,0.17049999535084,-0.46846249699593,-0.70661246776581,-25.6069507598877,-20.6650505065918,-16.2049503326416,5.48505020141602,6.70800018310547,6.84705018997192,-8.62427520751953,-7.2450122833252,-5.84361267089844,-4.18395042419434,-4.73699998855591,-6.17700052261353,-1.32797503471375,-0.90158748626709,-0.33233749866486,-1.03894996643066,-0.83490002155304,-0.60280001163483,-14.331000328064,-14.0350503921509,-12.5989503860474,10.5390005111694,11.7019510269165,12.4120502471924,-0.259187489748,0.59235000610352,1.17012500762939,-5.67000007629395,-4.65300035476685,-3.33000016212463,SWING_RIGHT
-0.70248746871948,-0.93087500333786,-1.45626246929169,1.31284999847412,1.30666244029999,1.09284996986389,3.29595017433167,3.39195013046265,3.08295011520386,8.79705047607422,7.72500038146973,6.35400009155273,0.92097496986389,1.16283750534058,1.6747499704361,5.7480001449585,5.19000005722046,5.68995046615601,-2.81242489814758,-1.95469999313354,-1.47331249713898,-5.1683497428894,-4.99853754043579,-1.5081000328064,0.19695000350475,-1.72605013847351,-3.63495016098022,12.9679508209229,12.6109504699707,13.0590009689331,-5.4051251411438,-6.88091230392456,-8.20765018463135,29.7919521331787,25.3650016784668,24.9490509033203,1.05558753013611,0.65601247549057,-0.48743748664856,1.30308747291565,-0.1190750002861,-1.41652500629425,-11.4889507293701,-17.1859512329102,-24.2359504699707,8.80605030059814,4.33605003356934,-0.85800004005432,-16.4322128295898,-16.5617370605469,-16.076774597168,25.5589504241943,19.5880508422852,13.2349510192871,-2.50813746452332,-2.0622251033783,-2.05975008010864,0.62741249799728,-0.96085000038147,-2.72621250152588,-27.2029514312744,-25.1260509490967,-21.385950088501,0.02400000020862,2.38095021247864,3.94395017623901,-10.6730251312256,-8.26017475128174,-5.89008760452271,3.27105021476746,-0.13995000720024,-1.48500001430511,-4.98575019836426,-4.68641233444214,-3.4964873790741,-1.2112375497818,-0.28393748402596,0.00921249948442,-15.1690511703491,-16.2820510864258,-15.937050819397,7.93305015563965,12.0300006866455,15.4159507751465,-1.12915003299713,-0.52428752183914,-0.1199000030756,-0.91500002145767,-0.46305000782013,0.06705000251532,SWING_RIGHT
0.62067496776581,0.52415001392365,0.18081249296665,-0.23993749916553,0.00797499995679,0.35983750224113,0.85995006561279,1.49205005168915,1.24500000476837,9.89505004882812,8.54100036621094,7.66005039215088,2.67781257629395,2.54333758354187,1.21054995059967,4.51800012588501,6.66195011138916,14.7930011749268,-0.09281250089407,-0.37386250495911,-0.96387499570847,-1.49228751659393,-2.80926251411438,-3.28446245193481,1.59495007991791,3.55695009231567,3.19095015525818,10.7730007171631,8.30595016479492,7.34400033950806,-6.61705017089844,-7.93155002593994,-9.35976219177246,29.0329513549805,28.1719512939453,27.0070514678955,-2.61813759803772,-2.6449499130249,-2.62171244621277,-0.11164999753237,-0.25464999675751,0.26097500324249,-11.1850509643555,-15.0300006866455,-20.8189506530762,6.07095050811768,6.41595029830933,4.72200012207031,-13.49644947052,-13.452449798584,-12.8844375610352,22.0410003662109,16.9780502319336,12.6180009841919,-1.99498748779297,-1.57354998588562,-1.2277375459671,2.24867486953735,1.67571246623993,0.77275002002716,-20.0580005645752,-20.4640502929688,-22.3909511566162,4.11105012893677,3.85500025749207,3.57300019264221,-10.4176874160767,-9.50386238098144,-8.421462059021,9.4950008392334,5.6380500793457,2.51700019836426,-3.13981246948242,-2.17098760604858,1.627312541008,0.41854998469353,0.62260001897812,-0.16417500376701,-21.9600009918213,-21.9460506439209,-17.0740509033203,7.50900030136108,11.1559505462646,17.239049911499,-1.42958748340607,0.83050000667572,1.12131249904633,-11.3650503158569,-4.28700017929077,-1.4389500617981,SWING_RIGHT
0.18328750133514,0.27981248497963,0.20899999141693,-0.46970000863075,0.16073749959469,0.40631249547005,-0.69195002317429,0.3649500310421,1.15005004405975,9.77295017242432,9.16499996185303,8.45205020904541,1.83603751659393,1.63074994087219,1.09436249732971,6.44895029067993,7.37505054473877,9.35205078125,-1.26321244239807,-2.04517507553101,-1.97298753261566,-0.9619500041008,-2.11901259422302,-1.7549124956131,0.70500004291534,-0.29205000400543,-0.09105000644922,4.55700016021729,6.73905038833618,7.99995040893555,-3.34771251678467,-5.34270000457764,-7.29258728027344,20.4670505523682,25.2690010070801,27.4639511108398,-1.07016253471375,-1.2754499912262,-2.74394989013672,-0.1348875015974,0.29631251096725,1.53999996185303,-9.51900005340576,-12.9600009918213,-23.238000869751,6.21495008468628,3.42000007629395,-2.12805008888245,-14.3247499465942,-13.3779249191284,-10.0854873657227,19.6630516052246,11.4600009918213,0.42105001211166,-1.93641245365143,-2.18198752403259,-2.12698745727539,-0.23870000243187,-0.52346247434616,-0.56746250391006,-17.5570507049561,-18.7890014648438,-17.32200050354,4.49205017089844,4.99395036697388,7.4040002822876,-5.47222518920898,-3.52852487564087,-1.84745001792908,-7.63500022888184,-10.5349502563477,-9.99195003509522,0.52415001392365,0.52415001392365,0.49843749403954,-0.64198750257492,-0.60403752326965,-0.57722496986389,-10.4640007019043,-9.01200008392334,-7.42800045013428,10.8240003585815,9.66495037078857,9.46005058288574,1.13712501525879,1.31669998168945,1.21165001392365,-3.30105018615723,-1.92300009727478,0.02400000020862,SWING_RIGHT
-0.63524997234344,-0.56924998760223,-0.53872501850128,0.32326251268387,0.35859999060631,0.38554999232292,1.54695010185242,1.80300009250641,3.15495014190674,9.66495037078857,9.59805011749268,9.27795028686523,0.86721247434616,1.47798752784729,1.59527504444122,0.10500000417233,0.00495000043884,0.67005002498627,-0.41896250844002,-0.5741999745369,-1.17892503738403,-1.15995001792908,-1.30171251296997,-1.81719994544983,2.76300024986267,2.46795010566711,1.34805011749268,9.77505016326904,8.85900020599365,8.79195022583008,3.52811241149902,2.72662496566772,1.64546251296997,4.00605010986328,10.3060503005981,13.570050239563,1.06658744812012,1.19968748092651,0.72201251983643,-1.98453748226166,-2.31439995765686,-3.24169993400574,-0.61005002260208,-0.591000020504,0.14699999988079,11.7229509353638,9.83805084228516,6.88695049285889,-9.58815002441406,-10.9870748519897,-12.0951871871948,30.4860019683838,29.0719509124756,28.0000514984131,-3.40614986419678,-4.35421228408813,-4.90875005722046,0.78746247291565,1.71957504749298,1.91757500171661,-14.5560007095337,-17.5189514160156,-19.8799514770508,-2.03295016288757,-2.98995018005371,-2.05200004577637,-13.9081249237061,-13.7457370758057,-13.3779249191284,17.2939510345459,14.331000328064,9.7900505065918,-2.29432487487793,-1.62236249446869,-0.0622874982655,1.53766250610352,0.46983748674393,-1.63033747673035,-22.0510501861572,-23.310001373291,-16.4590511322021,6.89205026626587,8.83995056152344,12.8430004119873,-3.07408738136292,-0.28490000963211,0.06819999963045,-12.1740007400513,-2.46405005455017,0.01200000010431,SWING_RIGHT
-0.08057499676943,-0.05857500061393,-0.13928750157356,-0.24488750100136,-0.11536250263453,0.09473749995232,1.30305004119873,1.56405007839203,1.60005009174347,9.70095062255859,9.00495052337646,8.19600009918213,2.67409992218018,2.86838746070862,2.95624995231628,2.49600005149841,2.70900011062622,3.45300006866455,-1.73360002040863,-1.60654997825623,-1.14221251010895,-0.67127501964569,-1.19047498703003,-1.57162499427795,0.92700004577637,0.47505003213882,0.31695002317429,8.00505065917969,10.0030508041382,10.9150505065918,0.94421249628067,0.03272499889135,-2.60741257667542,10.7419500350952,13.2280502319336,17.3460006713867,-1.71283745765686,-1.81060004234314,-1.39273750782013,-1.13671255111694,-0.45993748307228,-0.11659999936819,-0.29205000400543,-3.1230001449585,-3.84795022010803,8.30100059509277,10.2090005874634,11.2830009460449,-11.1605997085571,-12.1232376098633,-12.4408626556396,26.5609512329102,21.0289516448975,18.8989505767822,-2.87100005149841,-3.33891248703003,-3.17886257171631,2.08367490768433,2.6701123714447,1.890625,-19.5570011138916,-21.1849517822266,-24.400951385498,1.18995010852814,0.54105001688004,5.61405038833618,-11.4684619903564,-8.59127521514893,-7.28653764724732,3.4699501991272,-2.31000018119812,-3.49995017051697,0.20281249284744,0.22605000436306,0.07081250101328,0.27197501063347,-0.07631249725819,-0.36574998497963,-13.5370502471924,-12.8070001602173,-12.2209501266479,7.25805044174194,6.94905042648315,6.75600051879883,-2.59998750686646,-1.53477501869202,-0.60252499580383,-6.21795034408569,-6.75195026397705,-6.63000011444092,SWING_RIGHT
1.02382504940033,0.42267498373985,-1.16421246528625,0.41483750939369,0.30855000019073,0.47231251001358,2.10495018959045,3.04305005073547,2.67195010185242,7.94295024871826,6.48000049591064,6.19095039367676,1.95566248893738,1.68079996109009,0.87449997663498,4.47495031356812,5.4060001373291,7.29105043411255,-0.16005000472069,-0.13557499647141,-0.29562500119209,-1.37733745574951,-2.01025009155273,-1.94301247596741,1.11900007724762,1.25295007228851,1.46100008487701,11.6470508575439,10.4670009613037,8.86395072937012,-2.01726245880127,-3.40876245498657,-4.32630014419556,17.7649517059326,19.045051574707,19.2370510101318,-1.9571750164032,-1.97422504425049,-1.90093743801117,-2.0847749710083,-1.77691245079041,-0.693274974823,-0.81105005741119,-1.83300006389618,-4.23105001449585,10.3980007171631,10.0200004577637,9.0100507736206,-10.0647249221802,-11.5869874954224,-12.4298620223999,27.0109519958496,24.8839511871338,22.1200504302979,-2.28703737258911,-2.12946248054504,-1.25468754768372,2.33901238441467,2.45877504348755,1.23708748817444,-19.0050010681152,-18.3709506988525,-18.3799514770508,1.83600008487701,3.78105020523071,6.06195020675659,-11.508749961853,-9.79962539672852,-9.17895030975342,7.82505035400391,4.46295022964478,5.28795003890991,-0.78801250457764,-0.7537750005722,-0.61325001716614,-0.56622499227524,-0.49774998426437,-0.41717499494553,-16.0039501190186,-16.605001449585,-16.6090507507324,6.21495008468628,7.40205049514771,8.64795017242432,-3.03256249427795,-1.65935003757477,-0.57323747873306,-6.70395040512085,-6.60105037689209,-5.66295003890991,SWING_RIGHT
-0.55701249837875,-0.66701251268387,-0.99563747644424,0.40755000710487,0.47107499837875,0.30126249790192,4.20105028152466,4.0639500617981,3.15300011634827,7.95705032348633,7.87305021286011,7.74900054931641,2.04118752479553,2.72167491912842,2.75110006332397,1.57695007324219,3.43605017662048,6.14505052566528,-0.32986250519753,-0.44343748688698,-1.14716243743896,-0.89113748073578,-0.51727497577667,-0.49527499079704,2.13300013542175,2.36100006103516,2.23605012893677,8.65799999237061,8.2369499206543,9.90000057220459,-1.6935875415802,-5.13754987716675,-6.38852500915527,16.3439998626709,22.6080017089844,22.0480518341064,-0.95411247014999,-1.57231247425079,-2.09769988059998,1.42271244525909,1.69881248474121,3.12702488899231,-5.28405046463013,-15.2430009841919,-20.4120006561279,8.34195041656494,5.51100015640259,2.03700017929077,-15.854437828064,-16.2331123352051,-14.8758497238159,27.3649520874023,19.3900508880615,8.53800010681152,2.3957998752594,3.22038745880127,2.72813749313354,1.31161248683929,-0.89237499237061,-1.59238743782043,-23.0680503845215,-22.6900501251221,-20.7520503997803,8.39505004882813,7.89705038070679,3.60405015945435,-9.02508735656738,-6.64881229400635,-4.2371997833252,-5.54595041275024,-8.66805076599121,-9.64695072174072,-1.90822494029999,-1.89846253395081,-0.98711252212524,-0.88742500543594,-0.60403752326965,-0.40741249918938,-10.8450002670288,-11.002950668335,-9.32505035400391,6.92595052719116,8.28705024719238,11.7930002212524,-0.75886249542236,-0.28613749146461,-0.2396624982357,-2.89200019836426,-2.39205002784729,-1.9039500951767,SWING_RIGHT
-0.73301249742508,-0.50338751077652,-0.31157499551773,0.24626250565052,0.49788749217987,0.49678748846054,4.02405023574829,3.85905027389526,3.70095014572144,8.14800071716309,8.8279504776001,9.07905006408691,1.78585004806519,1.86037504673004,1.53174996376038,3.24300026893616,4.05600023269653,5.77905035018921,-0.10999999940395,-0.31157499551773,-0.81001251935959,0.3770250082016,0.1032624989748,-0.47822499275208,5.30895042419434,5.02095031738281,4.39695024490356,7.31100034713745,6.29595041275024,5.61705017089844,-0.49623748660088,-0.33989998698235,-0.33371248841286,7.03995037078857,7.71000051498413,10.771050453186,-2.88323760032654,-3.43543744087219,-3.30110001564026,-1.74020004272461,-0.32670000195503,1.50823748111725,3.03105020523071,-0.92895007133484,-2.98695015907288,7.81605052947998,9.63195037841797,9.40005016326904,-11.7860870361328,-13.3058748245239,-13.5111627578735,33.5340003967285,26.6640014648438,21.8140506744385,-3.15315008163452,-0.3103374838829,1.01406252384186,3.30054998397827,5.04019975662231,3.20402503013611,-15.6139507293701,-20.0190010070801,-19.3830013275146,5.58600044250488,4.81005001068115,6.11895036697388,-10.34206199646,-9.06661224365234,-6.30189990997314,4.36005020141602,1.68495011329651,0.54105001688004,-1.18497502803802,-1.75917494297028,-2.1929874420166,-0.39022499322891,-0.53074997663498,-0.7873250246048,-7.95705032348633,-9.15495014190674,-11.5390501022339,2.24295020103455,3.86700010299683,6.80100011825562,-3.20842504501343,-2.47788739204407,-1.61163747310638,1.34505009651184,-0.86295002698898,-2.68395018577576,SWING_RIGHT
-1.28149998188019,-1.13011252880096,-0.69877499341965,0.49788749217987,0.20102499425411,-0.50146251916885,0.99195003509521,0.4870500266552,0.4609500169754,8.86605072021484,9.39705085754394,9.32805061340332,1.79327499866486,2.02537488937378,1.0700249671936,4.25205039978027,5.36295032501221,15.1039505004883,-0.59001249074936,-1.24368751049042,-1.40002501010895,-1.3639999628067,-1.82214999198914,-1.25771248340607,2.83695006370544,0.3979500234127,-0.44505003094673,7.50705051422119,8.25104999542236,7.68900012969971,-8.57174968719482,-10.7269248962402,-11.9363746643066,27.1639518737793,27.9559516906738,23.9509506225586,-2.95528745651245,-3.76901245117188,-4.21121263504028,0.74470001459122,0.96098750829697,1.36290001869202,-16.2840003967285,-19.3900508880615,-21.5650501251221,2.19495010375977,2.02995014190674,3.38895010948181,-14.449462890625,-14.3027496337891,-13.3938751220703,18.306001663208,11.9220008850098,7.57095050811768,-1.86436247825623,-0.69629997014999,1.20711255073547,1.73181247711182,1.26279997825623,0.84122496843338,-19.8349514007568,-18.3610515594482,-10.9530000686646,9.8899507522583,12.4530010223389,11.3839502334595,-5.19378757476807,-4.07096242904663,-3.64223742485046,-3.47595024108887,-0.32700002193451,-1.00604999065399,0.12099999934435,-0.40920001268387,-0.44838750362396,-1.08790004253387,-0.78361248970032,-0.40851250290871,-8.34195041656494,-7.17705011367798,-6.10695028305054,5.38200044631958,6.90405035018921,9.76095008850098,0.81702500581741,0.85373747348785,0.78649997711182,-2.32200002670288,-1.03305006027222,-0.82395005226135,SWING_RIGHT
-1.87164998054504,-1.69812500476837,-1.35368752479553,-1.0451375246048,-1.66209995746613,-1.89048743247986,1.98300004005432,1.52505004405975,1.24995005130768,9.28305053710938,10.1850004196167,10.5199508666992,0.85497498512268,0.14396250247955,-0.66728746891022,11.0100002288818,13.0819501876831,16.2360000610352,-0.55948752164841,-0.63401252031326,-0.88811248540878,-0.99494999647141,-0.38651248812675,-0.20336249470711,0.86505001783371,0.03195000067353,-0.72300004959106,10.2349500656128,9.89505004882812,9.39000034332275,-5.29636240005493,-6.30795001983643,-7.67992496490479,19.5070514678955,21.3640518188477,24.0300006866455,-1.36221253871918,-1.21068751811981,-1.5552624464035,-0.09583749622107,0.62260001897812,1.33237504959106,-6.63300037384033,-11.9550008773804,-21.3040504455566,8.91600036621094,7.26795053482056,3.35805010795593,-14.0585498809814,-13.8544998168945,-12.697437286377,20.7559509277344,11.4450006484985,7.28205013275146,-0.02681249938905,0.0757625028491,-0.30786249041557,0.66041249036789,-0.30841249227524,-1.1672375202179,-19.2730503082275,-18.189001083374,-15.7810506820679,6.17400026321411,6.2440505027771,7.0620002746582,-6.39842510223389,-3.65928745269775,-2.24454998970032,-4.50705003738403,-6.58395051956177,-7.48395013809204,0.9285374879837,1.13740003108978,1.20945000648499,-0.07864999771118,0.08249999582767,0.09968750178814,-8.9640007019043,-7.61400032043457,-6.36105012893677,11.6749505996704,10.8120002746582,10.1779508590698,1.44869995117188,1.62456250190735,1.68808746337891,-2.95395016670227,-2.55000019073486,-1.80300009250641,SWING_RIGHT
-0.24805000424385,-0.87353748083115,-1.5552624464035,-1.7939624786377,-1.39205002784729,-0.99494999647141,4.07595014572144,3.66000008583069,3.22695016860962,6.84195041656494,6.37800025939941,6.42495012283325,-1.65439999103546,-1.78763747215271,-1.83287501335144,9.08595085144043,7.99995040893555,7.60995054244995,-2.29927492141724,-2.01698756217957,-1.66636252403259,-0.59427499771118,-1.04266250133514,-1.60586249828339,-0.02700000070035,-0.91200006008148,-1.46895003318787,10.47705078125,11.5099506378174,12.0769510269165,-3.12290000915527,-4.42406225204468,-5.77651262283325,16.159049987793,20.0689506530762,21.6250514984131,-0.10504999756813,-0.62548750638962,-1.07758748531342,0.79117500782013,3.03792500495911,3.96522498130798,-3.56595015525818,-8.03999996185303,-12.2040004730225,7.75305032730103,2.99400019645691,0.96000003814697,-14.23317527771,-15.0602378845215,-13.882550239563,30.9720020294189,12.2610006332397,5.91795015335083,1.97188746929169,1.44649994373322,-0.38362500071526,-0.15936249494553,-1.10494995117188,-1.17700004577637,-19.7200508117676,-18.0139503479004,-14.5230007171631,5.22405004501343,3.11805009841919,3.58500027656555,-6.20413732528687,-2.86522507667542,-1.44553744792938,-5.20800018310547,-7.96200037002563,-7.68000030517578,-0.21862499415874,-0.0109999999404,0.23704999685287,-0.1861750036478,-0.18741250038147,-0.4281750023365,-9.5310001373291,-8.33700084686279,-7.23900032043457,9.71595001220703,9.90000057220459,10.2589502334595,0.97707498073578,0.85978752374649,0.71692502498627,-0.42195001244545,-0.03495000302792,-0.15195000171661,SWING_RIGHT
-2.09893751144409,-2.44584989547729,-2.06717491149902,1.67076253890991,1.17727494239807,-1.82819998264313,1.73805010318756,1.31205010414124,-0.55995005369186,5.95905017852783,7.63095045089722,11.3740501403809,4.0631251335144,4.07907485961914,3.87750005722046,1.43595004081726,3.27405023574829,6.80295038223267,0.24310000240803,-0.6377249956131,-1.71654999256134,-5.36621236801147,-4.13723754882813,-2.68221259117126,-0.39495003223419,1.28100001811981,2.12805008888245,7.44705057144165,5.53800010681152,5.53800010681152,-3.47242498397827,-6.02208757400513,-8.49364948272705,29.3470516204834,32.7210006713867,33.3000030517578,-0.88082498311996,-0.64377498626709,-0.3994374871254,1.03922498226166,1.45089995861053,2.30243754386902,-8.14800071716309,-10.653000831604,-15.2260503768921,8.74695014953613,7.27305030822754,5.74095010757446,-15.5160503387451,-15.1335248947144,-14.2491245269775,29.8489513397217,15.0229511260986,10.8259506225586,-1.15816247463226,-2.00364995002747,-2.06593751907349,1.31766247749329,0.45031249523163,0.13516250252724,-24.4440002441406,-18.1120510101318,-13.6300506591797,1.58505010604858,3.76200008392334,5.97105026245117,-4.32272481918335,-3.16566252708435,-1.70816254615784,-8.89305019378662,-6.77295017242432,-3.98505020141602,0.65243750810623,0.44233748316765,0.39214998483658,-0.59798747301102,-0.50503748655319,-0.28764998912811,-11.1700506210327,-8.99505043029785,-7.87005043029785,8.29905033111572,7.40205049514771,8.00505065917969,0.12925000488758,0.11096250265837,0.04372499883175,-2.40105009078979,-2.42295002937317,-2.55195021629334,SWING_RIGHT
-1.53807497024536,-2.92723751068115,-3.12386250495911,-0.92537498474121,-1.80867493152618,-1.93324995040894,3.40605020523071,0.78600001335144,-0.13695000112057,5.78205013275146,6.66195011138916,8.71305084228516,0.41758748888969,-4.0136251449585,-4.64034986495972,20.7280502319336,18.7650012969971,15.2620506286621,0.11123749613762,0.07452499866486,0.09776250272989,-1.9100124835968,-1.48004996776581,-0.84108752012253,-2.68005013465881,-2.03205013275146,-2.4100501537323,9.09105014801025,8.04795074462891,6.21495008468628,-7.88149976730347,-9.10085010528564,-9.73486232757568,23.3599510192871,21.3040504455566,19.1700000762939,-1.80193746089935,-2.42632508277893,-3.41096258163452,-0.6650875210762,-0.77385002374649,-0.90694999694824,-10.3950004577637,-16.3009510040283,-20.4450016021729,-0.08205000311136,-1.10400009155273,-1.42005002498627,-13.8177871704102,-13.4451627731323,-12.0036125183105,18.6150016784668,14.1810007095337,6.69300031661987,-5.14827489852905,-3.33396244049072,-2.19656252861023,0.44536250829697,0.03244999796152,-0.40369999408722,-17.7010517120361,-13.1800508499146,-10.2850503921509,7.95405054092407,12.2520008087158,13.3459510803223,-4.86516237258911,-3.63123750686646,-3.1498498916626,-3.86100029945374,0.78300005197525,0.34005001187325,-0.05252499878407,-0.39586248993874,-0.26510000228882,-1.10247504711151,-0.73837500810623,-0.3962749838829,-8.0710506439209,-6.63600015640259,-6.18600034713745,8.1670503616333,9.88095092773438,10.2400503158569,0.08153750002384,0.18782499432564,0.41511249542236,0.01200000010431,0.07200000435114,0.73995006084442,SWING_RIGHT
-1.48307502269745,-1.35368752479553,-1.09958744049072,0.20473749935627,0.03739999979734,0.00439999997616,4.01205015182495,3.99705028533936,3.80400013923645,7.95195055007935,8.87595081329346,9.29700088500977,0.2953499853611,0.19758750498295,0.25877499580383,5.81505012512207,5.74305009841919,5.16405010223389,-1.27421247959137,-1.66512501239777,-1.79588747024536,-0.81784999370575,-2.01148748397827,-2.45863747596741,3.81495022773743,3.42795014381409,3.11400008201599,7.87605047225952,8.00505065917969,9.04995059967041,0.73026251792908,0.22068749368191,-4.05033731460571,14.731050491333,19.8799514770508,26.2600517272949,-1.1446875333786,-0.91135001182556,-0.72682499885559,1.45337498188019,1.47895002365112,1.94438743591309,-4.80795001983643,-9.77295017242432,-13.5660009384155,7.05000019073486,5.93505048751831,4.38705015182495,-13.8692121505737,-14.0122127532959,-14.0182628631592,19.2769508361816,14.0539503097534,8.78205013275146,-1.7323625087738,-2.04874992370605,-1.69441246986389,0.174212500453,-0.0945999994874,-0.06159999966621,-24.8839511871338,-18.0190505981445,-14.8390502929688,2.79795002937317,6.70095014572144,8.30400085449219,-6.06374979019165,-4.24709987640381,-2.71012496948242,-11.3410501480103,-10.6540508270264,-9.09705066680908,-0.49224999547005,-0.13557499647141,0.22357499599457,-0.37193748354912,-0.19717499613762,-0.38541248440742,-12.01305103302,-11.3590507507324,-10.2900009155273,9.76095008850098,10.113000869751,10.3999500274658,0.58726251125336,0.87807500362396,0.96717500686646,-4.00200033187866,-2.40900015830994,-1.2190500497818,SWING_RIGHT
-0.28462499380112,-0.59977501630783,-0.71706247329712,0.09473749995232,0.24750000238419,0.3647874891758,4.50705003738403,4.58400011062622,4.2460503578186,7.42305040359497,7.46400022506714,8.25795078277588,0.72036248445511,0.79131251573563,1.12846255302429,2.99400019645691,2.40705013275146,1.64205002784729,-0.69506251811981,-0.80258750915527,-0.89306247234344,-0.30222499370575,-0.3634124994278,-0.94489997625351,4.92795038223267,4.27305030822754,3.89400029182434,8.75895023345947,8.21805000305176,8.3730001449585,2.11433744430542,1.99347496032715,1.80166244506836,5.64705038070679,7.38495016098022,9.02895069122314,-1.9461749792099,-3.02128744125366,-3.76158738136292,-4.48181247711182,-3.63879990577698,-0.98642498254776,2.31495022773743,0.73305004835129,-1.36905002593994,4.01805019378662,3.62595009803772,4.18095016479492,-3.09375,-4.94711256027222,-6.10774993896484,24.775951385498,20.5030517578125,16.5469512939453,1.08377504348755,0.88453751802444,-0.53872501850128,0.06668750196695,-0.29617500305176,-0.17393749952316,-7.36305046081543,-10.2250509262085,-14.7169504165649,8.46900081634521,5.46795034408569,0.97200006246567,-12.5362873077393,-12.5472869873047,-11.4148378372192,14.1589508056641,12.6079502105713,6.71700048446655,-3.03710007667542,-2.02303743362427,-1.23749995231628,0.26826250553131,-0.14217500388622,-0.36574998497963,-14.5870504379272,-11.2009506225586,-11.2249507904053,5.98305034637451,10.0000505447388,10.7850008010864,-6.62076234817505,-6.00146245956421,-5.02768754959106,-1.6189501285553,-2.51100015640259,-4.39695024490356,SWING_RIGHT
-1.52707493305206,-1.95951247215271,-2.20756244659424,0.66536247730255,0.80698752403259,0.21449999511242,4.48995018005371,3.74805021286011,2.41305017471313,7.27995014190674,8.04104995727539,9.8830509185791,3.68788743019104,4.31832504272461,4.51261234283447,2.76195001602173,4.49400043487549,8.11905002593994,-2.39442491531372,-1.93022501468658,-1.02135002613068,-5.00829982757568,-4.83848762512207,-3.58503746986389,-5.53995037078857,-7.23900032043457,-5.71695041656494,12.8599510192871,13.2499504089355,15.9870004653931,-4.74182510375977,-7.02033758163452,-9.17661285400391,29.8540515899658,29.5480518341064,28.5210018157959,-2.42261242866516,-2.44584989547729,-1.89474999904633,2.32567501068115,2.85092496871948,1.04156243801117,-23.1300010681152,-27.7410011291504,-31.1530513763428,-1.07295000553131,0.21600000560284,2.14695000648499,-15.3987627029419,-12.2101373672485,-9.88652515411377,7.29105043411255,-5.03595018386841,-10.4440507888794,-1.69441246986389,-0.79777497053146,0.11495000123978,-0.75913751125336,-0.56856250762939,-0.61008751392365,-11.3860502243042,-9.21300029754639,-8.19795036315918,10.3950004577637,11.8860006332397,11.6010007858276,0.10835000127554,0.22068749368191,-0.00522499997169,-4.62900018692017,-0.74295002222061,0.90000003576279,1.48568749427795,1.38916254043579,1.15706253051758,-1.05847501754761,-1.17094993591309,-1.20271253585815,-3.82200026512146,-2.59395003318787,-1.5529500246048,8.57400035858154,8.1870002746582,8.27505016326904,-0.81166249513626,-0.54642498493195,-0.29975000023842,-0.99705004692078,-2.2390501499176,-1.86795008182526,SWING_RIGHT
-0.66577500104904,-0.80753749608994,-1.31449997425079,-0.26317501068115,0.05568749830127,-0.11783749610186,1.31505000591278,1.27395009994507,1.12604999542236,8.53605079650879,8.21505069732666,8.4859504699707,0.47973749041557,-1.19281244277954,-2.38521242141724,8.52105045318604,13.4890508651733,15.6190509796143,-1.40978753566742,-0.73782497644424,-0.04757500067353,-2.69444990158081,-2.64797496795654,-1.88925004005432,-2.80200004577637,-2.53200006484985,-2.13195013999939,12.8599510192871,12.2550001144409,10.0650005340576,-6.25680017471313,-7.64830017089844,-9.45037460327148,24.3720016479492,25.6500015258789,27.1330509185791,-1.23268747329712,-2.10856246948242,-3.16043758392334,-0.16912500560284,-0.4672249853611,-0.19470000267029,-15.0349502563477,-20.3640003204346,-24.9319515228271,2.31405019760132,0.14595000445843,-1.33095002174377,-14.8820371627808,-14.6401748657227,-14.037787437439,18.8230514526367,13.1800508499146,8.13794994354248,-4.28078746795654,-3.689537525177,-3.19467496871948,-0.47698751091957,-0.63827496767044,-0.56856250762939,-26.4420013427734,-22.6200008392334,-20.9089508056641,8.20305061340332,8.61495018005371,8.61300086975098,-8.43507480621338,-6.49989986419678,-4.46572494506836,-4.09800004959106,-7.86195039749146,-9.07500076293945,-0.10504999756813,0.60720002651215,1.15582501888275,-0.00288749998435,-0.00054999999702,-0.1190750002861,-13.5850505828857,-12.6610507965088,-10.4380502700806,14.2140007019043,12.9409503936768,10.3519506454468,0.90117502212524,2.05699992179871,2.30010008811951,-2.90895009040833,-2.4300000667572,-0.95805007219315,SWING_RIGHT
-0.30291250348091,-0.49348750710487,-0.86858749389648,-1.24176251888275,-1.48238754272461,-1.82943749427795,2.17200016975403,2.01104998588562,1.60905003547668,8.75100040435791,7.76100015640259,7.34400033950806,3.38373756408691,3.2847375869751,2.92311239242554,2.29695010185242,3.84105014801025,5.9370002746582,0.03918749839067,-0.06586249917746,-0.61572498083115,-1.03523755073547,-1.1061874628067,-2.59544992446899,-0.24000000953674,-0.18705001473427,-0.36900001764297,9.71100044250488,8.70105075836182,9.22305011749268,0.29892501235008,-3.7571873664856,-5.69841241836548,15.1930503845215,25.068000793457,27.2029514312744,-1.93022501468658,-1.96198749542236,-2.49466252326965,0.60060000419617,1.38008749485016,1.39218747615814,-7.18395042419434,-9.43800067901611,-14.5080003738403,4.77000045776367,3.82695007324219,1.81905007362366,-13.4110622406006,-13.6236371994019,-13.2730121612549,25.7500514984131,19.8130512237549,16.3459510803223,-1.60407495498657,-0.55096250772476,0.19552500545979,2.47348737716675,1.31532502174377,0.06792499870062,-19.9549503326416,-20.6179504394531,-19.2199516296387,7.28400039672852,7.74900054931641,7.43295049667358,-10.6536378860474,-9.1387996673584,-7.68006229400635,1.03095006942749,-2.38905000686646,-4.36094999313354,-0.30291250348091,-0.73658752441406,-0.79887497425079,-1.44086253643036,-1.21605002880096,-0.78113746643066,-12.9150009155273,-10.9410009384155,-9.62400054931641,6.45405054092407,8.14095020294189,9.65295028686523,-1.56543743610382,-0.6931374669075,-0.23003749549389,-6.25605010986328,-4.30395030975342,-2.65695023536682,SWING_RIGHT
-0.30538749694824,-0.52772498130798,-0.77934998273849,0.428312510252,0.96951252222061,0.99756246805191,3.38505005836487,3.18900012969971,3.29400014877319,7.94295024871826,7.50195026397705,7.27005052566528,0.25740000605583,0.66178750991821,0.90364998579025,3.24300026893616,3.03405022621155,3.1039502620697,-1.75670003890991,-1.2974499464035,0.17971250414848,-1.73167502880096,-2.42921257019043,-2.74573755264282,-0.05295000225306,-1.73505008220673,-4.7310004234314,11.3500509262085,12.2520008087158,12.6400508880615,-0.60761249065399,-2.26545000076294,-5.00211238861084,15.7720508575439,19.1389503479004,18.1720504760742,1.04101252555847,-0.64982497692108,-1.76164996623993,-0.36822500824928,-1.26004993915558,-1.07071244716644,-3.02505016326904,-6.77505016326904,-15.1549510955811,5.8609504699707,3.3840000629425,1.18995010852814,-16.3872489929199,-16.3542499542236,-15.2717123031616,20.8690509796143,11.6850004196167,2.62995004653931,-0.16486249864101,-0.32615000009537,-1.21316254138947,-2.81778740882874,-3.36627507209778,-2.77626252174377,-22.5010509490967,-22.7590503692627,-23.2159519195557,15.4540510177612,11.5249509811401,8.97105026245117,-7.90363740921021,-4.90311241149902,-2.44254994392395,-12.9130506515503,-16.314001083374,-14.146050453186,1.35368752479553,1.31463754177094,1.06053745746613,0.30250000953674,0.12526249885559,-0.07988750189543,-6.80295038223267,-5.09700012207031,-3.02205014228821,11.1660003662109,8.77995014190674,7.48995018005371,0.34168750047684,0.14863750338554,0.08139999955893,-1.3050000667572,-1.46805012226105,-1.35600006580353,SWING_RIGHT
-0.37496250867844,-0.2246749997139,-0.15262499451637,0.23402500152588,0.13997499644756,0.0629749968648,2.85105013847351,2.89200019836426,3.39405012130737,10.4809503555298,10.0030508041382,10.0050001144409,1.65137493610382,2.15957498550415,2.83634996414185,-0.16605000197887,-1.34400010108948,0.25905001163483,0.73315000534058,0.83572500944138,0.63414996862411,-0.47327500581741,-1.27957499027252,-1.92472493648529,3.09000015258789,2.82195019721985,2.63295006752014,9.66495037078857,8.24400043487549,7.89900016784668,3.79307508468628,3.59507489204407,1.95305001735687,4.40100002288818,7.10205030441284,13.0630502700806,-1.60407495498657,-4.23678731918335,-5.30708742141724,-3.01565003395081,-3.50308752059937,-2.05782508850098,4.76100015640259,2.2390501499176,-2.49105000495911,4.92705011367798,1.47405004501343,3.34095025062561,-6.4644250869751,-7.54572486877441,-8.28355026245117,27.1380004882813,21.189001083374,18.7729511260986,-1.81788754463196,-1.34255003929138,-0.97487497329712,1.85405004024506,1.6854749917984,2.4122998714447,-9.13199996948242,-11.5579509735107,-13.7520008087158,8.09805011749268,6.81795024871826,4.75500011444092,-12.2908496856689,-12.6194753646851,-13.5663003921509,18.3820514678955,17.1450004577637,15.4680004119873,0.2895750105381,0.12828749418259,-0.45319998264313,-1.39452505111694,-1.48733747005463,-1.43233752250671,-18.7680015563965,-17.0830516815186,-10.5150003433228,3.00795006752014,3.54705023765564,4.6210503578186,-5.88046264648438,-2.89712500572205,-1.94287502765656,-4.72005033493042,-2.09295010566711,-0.80805003643036,SWING_RIGHT
