gyro_x_0,gyro_y_0,gyro_z_0,acc_x_0,acc_y_0,acc_z_0,gyro_x_1,gyro_y_1,gyro_z_1,acc_x_1,acc_y_1,acc_z_1,gyro_x_2,gyro_y_2,gyro_z_2,acc_x_2,acc_y_2,acc_z_2,gyro_x_3,gyro_y_3,gyro_z_3,acc_x_3,acc_y_3,acc_z_3,gyro_x_4,gyro_y_4,gyro_z_4,acc_x_4,acc_y_4,acc_z_4,gyro_x_5,gyro_y_5,gyro_z_5,acc_x_5,acc_y_5,acc_z_5,gyro_x_6,gyro_y_6,gyro_z_6,acc_x_6,acc_y_6,acc_z_6,gyro_x_7,gyro_y_7,gyro_z_7,acc_x_7,acc_y_7,acc_z_7,gyro_x_8,gyro_y_8,gyro_z_8,acc_x_8,acc_y_8,acc_z_8,gyro_x_9,gyro_y_9,gyro_z_9,acc_x_9,acc_y_9,acc_z_9,gyro_x_10,gyro_y_10,gyro_z_10,acc_x_10,acc_y_10,acc_z_10,gyro_x_11,gyro_y_11,gyro_z_11,acc_x_11,acc_y_11,acc_z_11,gyro_x_12,gyro_y_12,gyro_z_12,acc_x_12,acc_y_12,acc_z_12,gyro_x_13,gyro_y_13,gyro_z_13,acc_x_13,acc_y_13,acc_z_13,gyro_x_14,gyro_y_14,gyro_z_14,acc_x_14,acc_y_14,acc_z_14,motion_type
-6.3627724647522,-5.71158981323242,-3.15817332267761,-5.96635055541992,-25.9986362457275,-39.281665802002,-0.10201449692249,-0.75625115633011,-0.60781091451645,2.09710049629211,-0.02565634064376,-2.76477599143982,-19.4696483612061,-16.4146461486816,-7.5776481628418,-4.40533113479614,0.74699091911316,3.49792861938477,6.88445138931274,5.86369562149048,3.29867243766785,14.1090307235718,28.2084846496582,33.40869140625,0.08368854224682,-0.46364670991898,-1.46180057525635,-1.00426244735718,0.15821409225464,1.21378922462463,30.0592021942139,20.8175830841064,9.68694019317627,8.14028549194336,4.37420654296875,4.77403831481934,-5.86980390548706,-5.87713432312012,-5.45197248458862,3.40694904327393,-7.11317348480225,-30.6888771057129,-1.02075576782227,-0.69088858366013,0.15943582355976,1.84053695201874,-0.24068090319633,-2.86373615264893,-26.9299812316895,-22.6706962585449,-16.8982753753662,-0.50757074356079,4.03422975540161,2.95444488525391,8.20819664001465,7.30411577224732,5.72808361053467,11.4227361679077,20.9971485137939,34.0982208251953,-0.79901176691055,0.42271876335144,1.11543989181519,-0.63896507024765,-0.3158173263073,-0.21502456068993,28.0791969299316,23.8270950317383,14.3292970657349,20.0011615753174,15.8065195083618,7.4770917892456,-5.60713195800781,-5.55154323577881,-6.02313137054443,6.95276165008545,7.22091245651245,-2.70065951347351,-0.71593403816223,-0.65179324150085,-0.25350907444954,2.378098487854,2.65420937538147,0.77091193199158,-22.9723644256592,-20.9636306762695,-19.8814506530762,2.32237553596497,4.53461790084839,7.28555583953857,SHAKE
-6.2625904083252,-5.57414531707764,-2.22293853759766,-12.540828704834,-34.5291786193848,-35.5299530029297,0.87720251083374,1.58214104175568,1.70431399345398,-0.22235494852066,-1.45630276203156,-1.9779816865921,-17.1329078674316,-11.4682264328003,-1.95366859436035,7.89847135543823,5.71974802017212,4.8410758972168,5.72014236450195,3.85822486877441,0.90469145774841,19.4097938537598,27.6578178405762,28.5795860290527,0.78190749883652,0.58643060922623,-0.31520646810532,-0.18509216606617,-0.45998153090477,-0.15393804013729,26.6307048797607,17.8056774139404,8.40125370025635,3.71101260185242,1.20188927650452,-1.13245737552643,-5.84292602539063,-6.08238506317139,-4.77146863937378,3.67270541191101,-11.1952867507935,-32.5180473327637,-0.59986966848373,0.4025602042675,1.13987457752228,1.01098203659058,-0.37751471996307,-1.0677924156189,-22.2277679443359,-20.9756011962891,-15.7682123184204,12.8113737106323,11.7483472824097,9.30626201629639,6.49594116210938,6.55458402633667,5.25160837173462,3.004723072052,15.6437139511108,31.2898216247559,2.09526777267456,1.45324838161469,-0.26755899190903,-1.05313169956207,-1.06534898281097,-0.63102382421494,31.8165454864502,29.4462871551514,20.1950912475586,-2.31998133659363,-8.36773490905762,-8.04212379455566,-5.17647218704224,-5.85025644302368,-6.03779220581055,10.6063137054443,2.87304210662842,-13.3500690460205,-3.10136294364929,-1.22173047065735,0.45998153090477,2.59434461593628,1.92727982997894,-0.32253685593605,-21.5310554504395,-21.1695308685303,-19.081787109375,18.1791744232178,16.4673194885254,13.2423295974731,SHAKE
-5.85025644302368,-6.03779220581055,-4.6523494720459,2.87304210662842,-13.3500690460205,-35.3695411682129,-1.22173047065735,0.45998153090477,1.63223195075989,1.92727982997894,-0.32253685593605,-1.89918005466461,-21.1695308685303,-19.081787109375,-13.445837020874,16.4673194885254,13.2423295974731,8.44434928894043,6.53137111663818,6.54358863830566,4.96938896179199,2.62643933296204,16.0818519592285,33.0016746520996,0.91202181577682,0.67928212881088,0.20402899384499,-0.62491512298584,0.59131753444672,1.40926611423492,27.8685073852539,23.0274314880371,14.1162128448486,2.79163908958435,1.04626619815826,1.66636443138123,-5.49351119995117,-6.18134546279907,-6.42202615737915,7.43399620056152,-0.29448682069778,-17.1831855773926,-2.3591616153717,-1.21623265743256,0.10384709388018,2.35060954093933,1.314581990242,-0.79351395368576,-19.1727676391602,-18.0283393859863,-16.0028438568115,11.7914438247681,12.5743474960327,10.9295310974121,6.17706918716431,6.13675212860107,5.57658863067627,1.3407529592514,8.4132251739502,19.249382019043,2.24187541007996,2.09221339225769,0.94500851631165,-0.87170469760895,-0.71654492616653,-0.11972958594561,25.3474140167236,26.0225791931152,20.3674736022949,2.68868851661682,-3.2585084438324,-7.13472127914429,-4.74031448364258,-5.70670318603516,-6.09582424163818,9.64623832702637,3.94085597991943,-6.35421133041382,-2.72751331329346,-1.0012081861496,0.57665681838989,1.24127817153931,1.70370316505432,0.54977869987488,-16.620548248291,-17.7841300964355,-17.1281185150146,16.8384208679199,14.867992401123,11.2623243331909,SHAKE
-6.07566595077515,-5.9339451789856,-3.43733882904053,-9.45709705352783,-30.0448379516602,-38.280891418457,1.19301986694336,2.16918253898621,1.79960906505585,-0.06169738993049,-1.28709304332733,-1.06412720680237,-16.9293994903564,-12.7251815795898,-3.90494298934936,10.3716821670532,4.10605573654175,4.19464159011841,5.78978061676025,4.90585899353027,3.37014365196228,10.4291429519653,17.4609127044678,24.8206882476807,1.66705119609833,0.93584555387497,-0.71471232175827,-0.75075340270996,-0.17715092003345,0.41355577111244,25.8478012084961,20.6930847167969,12.1984577178955,-2.8658595085144,-7.46990919113159,-5.35343503952026,-5.72014236450195,-6.06222677230835,-5.16303300857544,2.96881008148193,-9.0836009979248,-32.4964981079102,0.90530228614807,2.80081725120544,3.08364772796631,1.00792765617371,-0.71654492616653,-1.40071403980255,-19.3068428039551,-19.0530567169189,-14.125789642334,20.8223724365234,11.8872117996216,7.42202520370483,5.99625301361084,5.93455600738525,4.88997650146484,0.88585460186005,10.6278610229492,24.559720993042,3.26324224472046,3.10502815246582,0.4673119187355,-0.9767735004425,-1.59924519062042,-1.33046448230743,25.0074367523193,24.667459487915,19.2541694641113,-3.54102420806885,-18.3802871704102,-24.667459487915,-5.1703634262085,-6.31878995895386,-6.79282140731812,11.2910556793213,2.8969841003418,-15.7753953933716,-3.83379030227661,0.49907690286636,3.09647583961487,1.88696277141571,0.31093040108681,-1.48134827613831,-17.7242755889893,-18.6029472351074,-17.1568489074707,31.0695552825928,23.1040458679199,8.72447109222412,SHAKE
-5.3328537940979,-5.76412439346313,-5.27665376663208,2.06619596481323,-9.12669658660889,-28.5173358917236,-0.15638150274754,1.88879537582397,2.22965812683105,0.24801129102707,-0.88636547327042,-0.88514375686646,-20.8511028289795,-19.0554504394531,-14.2574710845947,19.2374114990234,10.1131076812744,5.02542924880981,5.65600109100342,5.61201906204224,5.08300971984863,-0.67516487836838,6.93839645385742,16.452953338623,0.25045475363731,0.93156951665878,0.99021255970001,0.40011674165726,-0.25228735804558,-0.55588740110397,24.0569381713867,26.3721313476563,22.3786029815674,4.69502973556519,-0.7972691655159,-6.5553240776062,-3.59188771247864,-4.88692188262939,-5.61690616607666,10.6518030166626,5.01345825195313,-2.31040453910828,-2.18323230743408,1.00548422336578,2.54547548294067,1.23822391033173,-0.07269296050072,-1.17163956165314,-23.0346145629883,-22.7066097259521,-18.5574569702148,25.0122261047363,14.6189956665039,6.45716190338135,5.19601964950562,5.68776607513428,5.23633670806885,-4.66151094436646,3.06218385696411,13.1944456100464,1.45874619483948,1.36284041404724,0.68416905403137,-0.03176499158144,0.21746802330017,0.20280726253986,21.5190849304199,26.0896167755127,24.0306034088135,2.34871196746826,-2.51151752471924,-5.90888977050781,-3.49720358848572,-4.70549488067627,-5.2125129699707,13.1896572113037,6.39491271972656,-0.55066639184952,-3.21864891052246,-1.65361225605011,1.0567969083786,0.92240649461746,0.48808133602142,-0.87964594364166,-10.5943422317505,-17.2789535522461,-20.0634098052979,15.2414884567261,24.1958026885986,19.333179473877,SHAKE
-5.21556758880615,-4.29377174377441,-1.32435584068298,-9.9981861114502,-28.718448638916,-36.0542831420898,2.46728467941284,1.93094503879547,0.98593652248383,-1.50700461864471,-0.90346968173981,-0.17409659922123,-19.4050045013428,-15.0116443634033,-7.82185697555542,9.31344413757324,6.18661737442017,7.24964284896851,5.5784215927124,5.23816967010498,3.68779349327087,3.97437477111816,15.1888151168823,25.6083812713623,2.36282682418823,1.84603476524353,-0.17287486791611,-0.47219884395599,-0.37262779474258,-0.11606439948082,26.2643928527832,23.0896816253662,15.3492269515991,-0.9911994934082,-10.2639427185059,-11.3078145980835,-5.31758213043213,-6.09093713760376,-5.87102603912354,7.06768321990967,-3.86663579940796,-22.9484233856201,-1.31336033344269,1.67377078533173,2.7458393573761,0.77702057361603,-0.89369583129883,-1.79594385623932,-22.7904052734375,-21.6938610076904,-17.3651447296143,23.9515933990479,14.3771810531616,5.21217727661133,6.09154844284058,5.91012144088745,5.2057933807373,-1.97521638870239,6.58166027069092,17.2190990447998,0.88636547327042,0.70738196372986,-0.01588249579072,0.11178833991289,0.19303341209888,0.15332718193531,21.7225914001465,24.6171817779541,21.7968120574951,1.77170920372009,-2.37744235992432,-4.12999773025513,-3.08486938476563,-4.33958673477173,-4.99932098388672,11.1545858383179,5.37019443511963,-2.58813214302063,-2.15635442733765,-0.56810468435287,0.83993971347809,0.85215699672699,0.26083946228027,-0.09040805697441,-10.0029745101929,-15.9166526794434,-17.1400890350342,18.1695976257324,17.7913131713867,13.0699472427368,SHAKE
-4.97122144699097,-3.86372256278992,-1.14292883872986,-15.1959981918335,-28.610710144043,-32.4342498779297,1.35489916801453,1.1966849565506,0.86865037679672,-0.32803463935852,-0.32742378115654,-0.21807889640331,-15.2007865905762,-10.1107139587402,-1.66157603263855,9.35893440246582,7.46033239364624,8.16662216186523,5.24794340133667,4.32309341430664,2.49171924591064,10.5775833129883,19.0339031219482,24.6195755004883,1.84786736965179,0.73914694786072,-1.33107531070709,-0.52595496177673,-0.46792277693748,-0.05803219974041,22.8646259307861,17.4537296295166,9.24640655517578,-5.84424638748169,-9.5624418258667,-5.18584108352661,-5.32369041442871,-5.92905807495117,-5.58758449554443,3.42849683761597,-8.79150867462158,-28.0313129425049,-0.90285885334015,1.56442594528198,2.55463838577271,0.27733281254768,-0.73609262704849,-1.04824471473694,-18.1863555908203,-17.1376953125,-13.0555820465088,22.1679134368896,13.8289089202881,6.74446630477905,4.83438777923584,5.09095096588135,4.79101610183716,-4.18985319137573,3.94564437866211,13.0100917816162,0.37568211555481,0.13805554807186,0.10018189996481,0.35857790708542,0.43737950921059,0.13255776464939,20.2357921600342,24.5980281829834,23.0561618804932,1.84592950344086,1.20667767524719,-1.26174426078796,-2.39886784553528,-4.06652975082397,-4.91868686676025,12.6222314834595,4.98951625823975,-3.25372004508972,-3.24125099182129,-2.00363802909851,0.33536502718925,1.28770399093628,0.88453286886215,0.03420845419168,-14.1210012435913,-19.0219326019287,-19.5366859436035,18.614917755127,22.0793285369873,15.2414884567261,SHAKE
-4.91868686676025,-5.08423137664795,-4.20030927658081,-3.25372004508972,-16.7378635406494,-30.8852024078369,0.33536502718925,1.80999374389648,1.84053695201874,0.03420845419168,-0.83932882547379,-0.88819807767868,-19.5366859436035,-16.9485530853271,-10.6877164840698,15.2414884567261,8.16422748565674,4.50588750839233,5.30353212356567,5.24977588653564,4.31759548187256,2.13323378562927,11.3413333892822,18.9620780944824,1.08978354930878,1.90223431587219,0.86193084716797,-0.14233160018921,-0.6023131608963,-0.56016343832016,24.9715232849121,23.8199119567871,18.7250518798828,5.53778839111328,-2.22660756111145,-8.99740982055664,-5.1324896812439,-6.44096326828003,-6.92049217224121,11.374852180481,3.60087943077087,-19.3834571838379,-2.57479691505432,0.75808376073837,2.71835041046143,1.54609990119934,-0.54916787147522,-1.62490153312683,-22.3379020690918,-21.9524345397949,-18.564640045166,25.6610546112061,20.8702564239502,9.5815954208374,5.08972930908203,5.48923492431641,5.13126802444458,-9.25119495391846,0.87627780437469,10.9319248199463,1.51372408866882,1.05862951278687,0.39889499545097,-0.36957347393036,0.07941248267889,0.20036379992962,19.1009407043457,24.6459121704102,23.3578319549561,0.63446342945099,-1.73819041252136,-2.8467059135437,-2.78065848350525,-4.11356639862061,-4.71954488754272,12.7706718444824,5.82509279251099,-0.78050976991653,-2.9669725894928,-2.13436317443848,-0.27794370055199,0.65118235349655,0.29932397603989,-0.17165313661098,-9.3828763961792,-18.2486057281494,-21.1312236785889,12.6509618759155,20.065803527832,18.2222690582275,SHAKE
-4.71954488754272,-4.75741863250732,-3.86494445800781,-0.78050976991653,-10.8074264526367,-25.51979637146,-0.27794370055199,1.15331363677979,1.48867857456207,-0.17165313661098,-0.93767815828323,-1.03602743148804,-21.1312236785889,-19.6133003234863,-14.7339172363281,18.2222690582275,11.9015769958496,6.47870969772339,5.58941698074341,5.65416860580444,4.72443199157715,-1.95127439498901,9.47385597229004,20.9684181213379,0.87720251083374,0.92607170343399,-0.14599679410458,-0.71104717254639,-0.58032196760178,-0.17654006183147,26.503812789917,25.6035938262939,17.6141414642334,3.30639243125916,-2.51630592346191,-5.20738887786865,-5.02619934082031,-5.73663568496704,-5.84292602539063,6.58644866943359,-0.76853877305984,-13.8408803939819,-2.10870671272278,0.879035115242,2.58823609352112,1.83748269081116,0.30543261766434,-1.33046448230743,-20.4680309295654,-21.5837287902832,-19.3092365264893,24.6147880554199,17.2957134246826,7.65186882019043,4.42632961273193,5.05124473571777,5.03536224365234,-9.49540424346924,-2.52348852157593,3.33751726150513,1.01220369338989,0.79107052087784,0.27733281254768,-0.75136423110962,-0.59376102685928,-0.15210545063019,13.4578075408936,21.3179721832275,22.4576110839844,2.20505976676941,2.19308876991272,-1.1372457742691,-2.77516078948975,-4.06225395202637,-4.72870779037476,10.8624935150146,4.67108774185181,-2.58094954490662,-2.60778379440308,-0.96699970960617,0.9639453291893,1.73180294036865,1.28831481933594,0.463035851717,-9.4235782623291,-18.1073474884033,-20.3243789672852,19.3595142364502,18.8830680847168,10.7475709915161,SHAKE
-5.20945882797241,-5.47457408905029,-3.61815476417542,5.20020627975464,-17.25022315979,-38.640022277832,1.97248387336731,1.97859251499176,1.2345587015152,-0.54672437906265,-1.01953411102295,-0.66462141275406,-24.9284286499023,-20.4871845245361,-11.32457447052,9.0644474029541,4.04380655288696,3.4117374420166,6.15385627746582,5.65539026260376,4.13983392715454,5.67904663085938,15.9310178756714,30.5380420684814,1.70614659786224,1.3335188627243,0.22724187374115,-0.29077184200287,0.02932153269649,0.04581489413977,29.6138801574707,24.8901214599609,16.2302932739258,0.13886369764805,-3.54341840744019,-4.29998636245728,-5.14776134490967,-5.7170877456665,-5.77145481109619,7.07965421676636,0.01675941236317,-16.3571853637695,-0.9083566069603,1.15942227840424,2.11603713035584,0.66401052474976,-0.24068090319633,-0.62308257818222,-24.6818256378174,-23.9204692840576,-20.065803527832,20.3938102722168,13.771448135376,6.90008926391602,6.33650541305542,6.52892780303955,6.13736295700073,-3.62242722511292,5.48272180557251,17.9445419311523,0.62186080217361,1.84542393684387,2.16551733016968,0.46486845612526,-0.33231070637703,-0.74953162670135,25.3545951843262,28.9123802185059,26.149471282959,8.32703304290771,1.70706582069397,-5.51863479614258,-3.21498370170593,-4.43243837356567,-5.11782884597778,12.7084226608276,6.75164890289307,-2.63362193107605,-2.22049522399902,-0.70554935932159,0.69455379247665,0.74159038066864,0.39217549562454,0.27366763353348,-15.468936920166,-20.4321174621582,-19.0698165893555,19.5366859436035,17.4010581970215,9.91199493408203,SHAKE
-5.54360198974609,-5.12332677841187,-3.52102732658386,-5.655104637146,-19.7138576507568,-34.308910369873,1.83565008640289,1.24555420875549,0.7000515460968,0.07941248267889,0.07635815441608,-0.01649336144328,-19.2996597290039,-15.0762882232666,-6.40688371658325,5.31991624832153,4.32392835617065,3.44286203384399,5.45808076858521,5.13798761367798,3.72444534301758,6.14352178573608,17.9852428436279,27.3920612335205,1.61085164546967,1.58091926574707,0.35552358627319,-0.64751714468002,-0.76663589477539,-0.57421332597733,28.2443981170654,24.2436866760254,16.2638130187988,-1.33117616176605,-5.49229860305786,-5.07810163497925,-4.77513360977173,-5.51244783401489,-5.24794340133667,4.85544109344482,-7.89128875732422,-28.6490173339844,-0.39095374941826,1.23578035831451,2.30112934112549,0.37507125735283,-0.40317106246948,-1.06534898281097,-19.6133003234863,-18.2845191955566,-13.3907699584961,19.4169750213623,14.0539636611938,7.65426301956177,5.38111209869385,5.35484457015991,4.39456462860107,-0.24420857429504,8.93276691436768,19.1248836517334,0.43554693460464,0.13377949595451,-0.43371433019638,0.34636059403419,-0.11362093687057,-0.66950833797455,25.4096622467041,27.8565368652344,24.155101776123,-2.96402168273926,-4.41011953353882,-4.23534297943115,-3.44039297103882,-4.544837474823,-4.95411729812622,14.1784620285034,5.8825535774231,-2.72699570655823,-1.19729590415955,0.68233644962311,1.44469630718231,-0.26328292489052,-0.62308257818222,-0.16554448008537,-13.0148801803589,-18.2486057281494,-18.480842590332,23.4176864624023,18.531120300293,11.6286373138428,SHAKE
-4.6627345085144,-2.88939261436462,0.11972958594561,-16.5152034759521,-28.7998523712158,-29.4798049926758,1.24494338035584,0.66278880834579,-0.32681289315224,0.32803463935852,0.70860368013382,1.16858518123627,-15.6532907485962,-10.2998561859131,-0.96007490158081,7.33343982696533,2.32716393470764,3.56017804145813,5.03841638565063,4.32614755630493,2.5802948474884,10.8816471099854,20.5733757019043,30.3369293212891,2.23637771606445,1.04335784912109,-1.03908181190491,-1.45141577720642,-1.39277279376984,-0.48808133602142,29.5755729675293,22.6754837036133,13.254301071167,-5.7628436088562,-8.84896945953369,-1.78128612041473,-5.07873344421387,-5.30719709396362,-5.14348554611206,3.35667085647583,-3.36145925521851,-19.8144130706787,0.01343903504312,1.35001218318939,1.38666415214539,0.03115412779152,-0.19120082259178,0.00916297826916,-21.1264362335205,-18.6987152099609,-14.0946655273438,19.3451499938965,10.8265800476074,4.88895988464355,4.94006729125977,4.89608478546143,4.46359252929688,-1.30005156993866,5.73411321640015,14.6525144577026,-0.33231070637703,0.54672437906265,0.71226888895035,0.90408056974411,0.24556782841682,-0.38728857040405,27.5500793457031,29.7240142822266,25.5796508789063,5.79396820068359,1.15161097049713,-2.03746557235718,-3.31516575813293,-4.22535467147827,-4.68167114257813,11.6382141113281,6.39491271972656,1.67833542823792,-0.80634212493896,0.09162978827953,0.43737950921059,-0.24190263450146,-0.34697145223618,0.09285151958466,-12.8496809005737,-20.1903038024902,-20.508731842041,16.1081886291504,13.9462251663208,9.55047035217285,SHAKE
1.85275423526764,4.33531045913696,5.17586135864258,-21.6986503601074,-7.79073238372803,2.04225397109985,0.86376345157623,0.69944071769714,0.96577793359756,-0.05253441259265,0.01954768784344,-0.23457226157188,12.7970085144043,23.9372291564941,28.3545303344727,2.02549457550049,2.68868851661682,0.6224924325943,-0.4331034719944,-2.56441235542297,-3.77881240844727,19.6540012359619,12.6892690658569,7.09401941299438,-1.45813536643982,-1.35978603363037,-0.46120324730873,-0.37446039915085,-0.49296826124191,-0.60536748170853,1.28329205513,-9.49061584472656,-16.9413719177246,10.9917802810669,16.816873550415,20.4321174621582,1.51555669307709,4.26567220687866,5.2503867149353,-22.6970329284668,-6.15549278259277,4.95360326766968,0.68966686725616,-0.39828413724899,-0.98776912689209,-0.1814269721508,-0.38117989897728,-0.24984388053417,27.7057018280029,23.7456932067871,15.2845840454102,-0.61291563510895,3.76129078865051,8.08282470703125,-4.66395616531372,-3.69878911972046,-1.20645880699158,-7.19697046279907,-23.6116180419922,-26.5756397247314,0.83138757944107,0.97860610485077,1.4379768371582,-0.37140607833862,-0.44654250144958,-0.84177231788635,-14.1473379135132,-9.33978080749512,11.417947769165,7.74284839630127,5.39174222946167,1.24737906455994,3.34387636184692,1.13254415988922,-2.2724187374115,22.2756519317627,20.3100128173828,11.9734029769897,-1.99630761146545,-1.71714222431183,-0.78007489442825,0.93706727027893,0.54611355066299,0.02199114859104,11.7938375473022,4.99430465698242,-2.50433492660522,6.68939971923828,11.9063653945923,10.1777515411377,SHAKE
5.95593595504761,6.34688997268677,4.60103702545166,4.37899494171143,20.0681991577148,26.1518650054932,-0.39095374941826,-0.29749137163162,0.1991420686245,0.29382619261742,1.48684597015381,1.46852004528046,33.724723815918,29.3433361053467,20.3698673248291,11.2479591369629,11.9087591171265,10.2854900360107,-3.77636885643005,-4.2339072227478,-4.53384208679199,7.10599040985107,4.39096593856812,-16.3404273986816,-0.46120324730873,0.52656584978104,0.7489207983017,0.44348818063736,-0.25595253705978,0.43066000938416,-18.8974342346191,-16.816873550415,-13.8073616027832,8.97586250305176,7.45075559616089,-2.71023631095886,6.15019130706787,5.85453271865845,4.93212604522705,2.0326771736145,9.60793113708496,23.8390655517578,-0.2315179258585,0.31093040108681,0.38362336158752,0.16371189057827,0.59681534767151,0.62613689899445,30.4279098510742,21.4855651855469,12.7826433181763,10.9199542999268,7.78115558624268,6.66306352615356,-4.42144250869751,-4.55461120605469,-2.90588593482971,4.12999773025513,-15.799337387085,-31.2563037872314,-0.59864795207977,-0.4324925839901,-0.41966441273689,0.65790188312531,0.43004912137985,-0.34880405664444,-17.9158115386963,-15.0260095596313,-6.49546909332275,4.32632255554199,1.96803379058838,3.60806202888489,6.00480556488037,5.50145244598389,3.49231672286987,8.70531749725342,23.1806602478027,31.6800765991211,-0.71410149335861,-0.30298915505409,0.33353242278099,0.84360492229462,0.91568702459335,0.32803463935852,25.1175708770752,15.3827457427979,6.41885471343994,10.8505220413208,10.3716821670532,9.27753162384033,SHAKE
5.6547794342041,6.00480556488037,5.50145244598389,-2.22660756111145,8.70531749725342,23.1806602478027,-0.18875735998154,-0.71410149335861,-0.30298915505409,-0.23090706765652,0.84360492229462,0.91568702459335,32.0344200134277,25.1175708770752,15.3827457427979,7.52976417541504,10.8505220413208,10.3716821670532,-4.96144771575928,-5.25771713256836,-5.2436671257019,4.94402647018433,-0.02873042039573,-10.1705684661865,0.57910025119781,0.21502456068993,0.24740041792393,0.01588249579072,0.60536748170853,0.3286454975605,-16.512809753418,-17.029956817627,-16.0531215667725,3.61763882637024,3.90254878997803,1.85071790218353,5.21129131317139,5.69815111160278,5.31452751159668,-5.05415964126587,1.59693253040314,27.492618560791,-0.00549778714776,0.13744467496872,0.27000242471695,-0.99326688051224,-0.49907690286636,0.58032196760178,29.6186695098877,27.739221572876,12.4809732437134,10.527304649353,10.1250791549683,6.41406631469727,-5.12088346481323,-5.18624591827393,-3.76048636436462,-1.21625447273254,-16.7642002105713,-36.0087928771973,-0.5400048494339,-0.14966198801994,0.15638150274754,0.78068578243256,0.36102136969566,-0.35796701908112,-17.9062347412109,-15.3157081604004,-5.52342319488525,5.73650741577148,4.08690214157104,5.25048446655273,6.32856416702271,5.94005346298218,-0.03420845419168,11.0157222747803,29.0656089782715,26.8820972442627,-0.97494095563889,-0.89491760730743,-0.31031954288483,1.42881381511688,1.42270517349243,0.66034531593323,22.0841159820557,12.5049152374268,3.85945320129395,6.34463453292847,7.67102241516113,6.90966606140137,SHAKE
6.12636756896973,5.80749607086182,4.60958909988403,8.51378154754639,20.5063381195068,34.3232765197754,-0.74281215667725,0.52962017059326,0.93889987468719,0.48258355259895,0.50518554449081,0.62552601099014,30.0232887268066,24.6818256378174,16.3907051086426,15.7897605895996,6.30393314361572,-1.59932672977448,-4.31270885467529,-4.86126565933228,-5.08972930908203,6.62954473495483,2.20266556739807,-27.0305366516113,-1.19607412815094,0.13988813757896,1.32924282550812,1.02381014823914,0.17470745742321,-0.99204516410828,-18.3778915405273,-17.7290630340576,-12.4354839324951,9.71088218688965,6.40927791595459,2.29125094413757,6.6327748298645,6.68103313446045,4.71771240234375,4.73812532424927,17.9373588562012,34.3400344848633,0.89308500289917,-0.60658919811249,-1.61818206310272,-1.43980944156647,0.09834930300713,1.39704883098602,33.0998382568359,26.9730758666992,16.2853603363037,-4.17788219451904,-2.20027136802673,2.02788877487183,-5.66272068023682,-5.75129652023315,-5.81788063049316,4.69024133682251,1.40539634227753,-8.59997272491455,-1.57664322853088,-0.81978118419647,0.37384954094887,0.8778133392334,1.37627935409546,0.2638937830925,-19.8694801330566,-18.9094047546387,-17.1089649200439,11.0971250534058,11.4849853515625,6.44279670715332,5.11294221878052,5.59186029434204,6.02618551254272,-3.52426481246948,1.28568625450134,16.2231101989746,-2.09343528747559,-1.60779738426209,-0.15515977144241,1.7989981174469,1.37505769729614,0.43127086758614,25.8047065734863,32.7502861022949,29.8245697021484,8.74123001098633,14.0419931411743,11.8584814071655,SHAKE
-5.27787590026855,-3.04149794578552,1.33962750434875,-21.1743202209473,-37.8499336242676,-29.6617641448975,1.1734721660614,1.32191240787506,0.56871557235718,-0.01710422709584,-0.57971113920212,-0.55405479669571,-15.6676559448242,-6.71813011169434,5.48032760620117,3.77565598487854,-0.72304892539978,0.33279404044151,6.08971548080444,4.44160127639771,1.01525807380676,20.6212596893311,32.2211647033691,29.3505191802979,0.58276546001434,0.50090950727463,-0.44959682226181,-0.49357911944389,-0.36529740691185,-0.16187928617001,26.1303176879883,16.8767280578613,7.9846625328064,4.77643251419067,0.46686932444572,1.99676418304443,-5.8447585105896,-6.14408254623413,-5.83742809295654,3.69904160499573,-5.85861158370972,-29.5875453948975,-1.36406207084656,0.31398472189903,1.64750361442566,1.07023596763611,0.24862214922905,-0.30848693847656,-21.7776584625244,-20.5278854370117,-14.6261777877808,16.069881439209,10.4315366744995,4.09887313842773,6.30351829528809,6.29679918289185,5.94371891021729,3.47159242630005,11.0181159973145,25.8118877410889,0.54305922985077,-0.65240406990051,-0.97860610485077,-0.32253685593605,0.04825835302472,-0.23457226157188,33.6121978759766,22.8694152832031,13.3883762359619,-1.01274728775024,2.34871196746826,4.72854852676392,-5.03108596801758,-5.55704116821289,-5.75068521499634,6.68221712112427,-1.08696758747101,-19.2757186889648,-2.02868342399597,-0.90713489055634,0.81367248296738,1.0567969083786,0.69516462087631,-0.34880405664444,-22.9556064605713,-21.6507663726807,-16.867151260376,16.5343570709229,16.2877540588379,8.31506252288818,SHAKE
5.72502899169922,6.30351829528809,6.29679918289185,-1.97042798995972,3.47159242630005,11.0181159973145,0.98349303007126,0.54305922985077,-0.65240406990051,-0.5711590051651,-0.32253685593605,0.04825835302472,24.2652339935303,33.6121978759766,22.8694152832031,0.4525041282177,-1.01274728775024,2.34871196746826,-4.35974502563477,-5.03108596801758,-5.55704116821289,9.07641887664795,6.68221712112427,-1.08696758747101,-2.07755279541016,-2.02868342399597,-0.90713489055634,0.6139195561409,1.0567969083786,0.69516462087631,-20.2549457550049,-22.9556064605713,-21.6507663726807,11.049241065979,16.5343570709229,16.2877540588379,3.69878911972046,5.37622499465942,5.08789682388306,-9.60314273834228,7.09162521362305,19.5271091461182,1.53327178955078,1.67926859855652,0.08307767659426,-0.79962259531021,-1.79838728904724,-1.27731919288635,34.9290084838867,34.0192108154297,24.6339416503906,-3.56017804145813,-10.512939453125,-5.58088397979736,-5.33407545089722,-5.84720230102539,-5.6859335899353,7.17063426971436,2.49715232849121,-1.51074123382568,-1.63284277915955,-0.35369098186493,1.16308736801147,0.81183993816376,1.09100532531738,0.26572638750076,-25.598804473877,-26.3936786651611,-23.3291015625,17.7314586639404,18.1049537658691,11.8872117996216,5.30903005599976,6.17218255996704,5.72197484970093,-8.5496940612793,3.8690299987793,9.9000244140625,1.49723076820374,2.05433988571167,1.17408299446106,-0.4972442984581,-0.45937067270279,-0.55466562509537,23.3314952850342,32.2115898132324,34.1532859802246,4.72615432739258,-4.16351652145386,-7.18499946594238,SHAKE
-5.25160837173462,-4.27483510971069,-0.97066485881805,-9.15303325653076,-27.5572624206543,-33.48291015625,0.58215457201004,1.08550751209259,0.83016586303711,0.40011674165726,0.73609262704849,0.39584067463875,-20.5063381195068,-12.6916627883911,1.03190088272095,9.84974575042725,3.77086758613586,3.64158082008362,6.33039665222168,4.79223775863647,1.80205249786377,17.6668148040771,26.9204044342041,26.2476329803467,0.39522981643677,-0.37507125735283,-0.97433006763458,0.2138028293848,0.28038713335991,0.10751228034496,29.2762985229492,18.8806743621826,9.41639518737793,-2.00155258178711,1.08936178684235,5.74847841262817,-5.54787826538086,-5.8380389213562,-5.78978061676025,4.54658889770508,-1.41018486022949,-24.200590133667,-2.29624247550964,-1.694540143013,-0.00488692196086,1.44836151599884,1.44103109836578,-0.07269296050072,-26.4990253448486,-24.4831066131592,-17.6069583892822,15.4378128051758,16.1081886291504,9.41878986358643,7.3792519569397,6.40980911254883,5.40432500839233,9.86171722412109,12.4498491287231,25.7185153961182,-0.09957103431225,-0.37995818257332,-0.80695301294327,-0.31215214729309,-0.48197266459465,-0.2858849465847,34.7135314941406,29.3624897003174,18.974048614502,1.90339040756226,2.47321033477783,6.36139392852783,-5.24488878250122,-5.89423894882202,-6.28946876525879,7.31428623199463,3.10767388343811,-13.7786312103271,-1.15575706958771,-0.43676865100861,1.04030346870422,0.05925392732024,0.67134088277817,0.23701570928097,-24.7153434753418,-22.620418548584,-19.5725994110107,16.7785663604736,18.6987152099609,11.7866554260254,SHAKE
-6.28946876525879,-5.26993465423584,-1.05801856517792,-13.7786312103271,-35.5538940429688,-36.2027244567871,1.04030346870422,2.00547051429749,2.13863921165466,0.23701570928097,-0.0598647929728,-0.44287729263306,-19.5725994110107,-11.2192287445068,3.04063606262207,11.7866554260254,6.35421133041382,4.81713390350342,5.96571016311646,5.05552053451538,1.92911243438721,13.9893207550049,29.1685600280762,24.7847766876221,0.99204516410828,-0.29016098380089,-1.70187056064606,-0.42516219615936,-0.4673119187355,-0.37751471996307,26.7288684844971,17.6332950592041,7.17302846908569,-7.60637903213501,-4.4723687171936,0.65840548276901,-5.81116104125977,-6.29679918289185,-5.93089056015015,5.08049583435059,-8.52575206756592,-36.3846817016602,-1.7757853269577,1.8857409954071,2.50882363319397,1.02808618545532,-0.33047810196877,-0.41905355453491,-25.1127815246582,-22.2708644866943,-13.5535755157471,24.368185043335,12.923900604248,3.52665901184082,6.63521814346313,6.45073699951172,4.99871015548706,5.2863974571228,13.5535755157471,31.6297988891602,1.5968017578125,0.68600165843964,-0.86681777238846,-0.1050688251853,-0.1276708394289,-0.05436700582504,32.2091941833496,28.3880500793457,19.2398052215576,-5.56651878356934,-7.25682544708252,-1.57777893543243,-4.97549724578857,-5.46602201461792,-5.88202142715454,7.12753868103027,4.73573112487793,-3.02627086639404,-2.25042748451233,-1.13559854030609,0.47647488117218,1.05252087116241,1.36833810806274,0.00427605677396,-27.2220726013184,-25.7424564361572,-22.8981456756592,16.812084197998,18.3539505004883,14.5663232803345,SHAKE
-6.19478464126587,-6.04451179504395,-3.61326789855957,-0.12928688526154,-17.5973815917969,-39.5378456115723,0.6750060915947,2.7012460231781,2.9669725894928,0.4459316432476,-0.73609262704849,-0.92057394981384,-24.2436866760254,-18.3371906280518,-8.73165321350098,19.5223197937012,7.94874954223633,-1.35751235485077,5.96265554428101,5.77573108673096,4.39334297180176,5.11880302429199,14.0539636611938,26.2476329803467,1.12460291385651,1.85580861568451,0.47219884395599,-0.67622780799866,-2.08549404144287,-2.18934106826782,32.7502861022949,28.2443981170654,19.2278347015381,1.67594122886658,-8.06845951080322,-9.09078407287598,-5.45013952255249,-6.38537454605103,-6.82397556304932,10.4267482757568,2.68868851661682,-23.6379528045654,-3.31455492973328,-0.19792033731937,2.56074714660645,1.8924605846405,0.79778999090195,-0.51801371574402,-27.5788097381592,-24.4974708557129,-17.7625827789307,29.1015224456787,23.3099479675293,10.9391078948975,6.50327157974243,6.59367942810059,6.07383298873901,1.73340201377869,10.2950668334961,20.8965930938721,3.10441708564758,3.06104564666748,1.2712105512619,0.12156218290329,-0.69211030006409,-1.05618596076965,28.12229347229,28.1486301422119,20.8894100189209,-5.79636240005493,-13.5894889831543,-14.1329727172852,-4.47214460372925,-5.45502662658691,-6.24609708786011,9.96227359771728,5.76044940948486,-5.14035081863403,-4.19664430618286,-2.46606302261353,-0.30482175946236,0.82772243022919,1.24860858917236,0.35857790708542,-24.9308223724365,-24.1143989562988,-22.285228729248,20.9875717163086,21.9093399047852,15.1433258056641,SHAKE
-6.38231992721558,-5.58452987670898,-2.26386666297913,-14.7171583175659,-34.4214363098145,-38.8171920776367,2.10504174232483,2.1911735534668,1.60291039943695,-0.2730567753315,-0.15027284622192,0.1600466966629,-22.6706962585449,-16.5894241333008,-5.72453641891479,9.0859956741333,6.13394498825073,5.15950489044189,6.23937749862671,6.16301965713501,2.10443067550659,8.67898082733154,27.2364387512207,36.6408615112305,3.14595603942871,1.51922190189362,-1.60352122783661,-0.71471232175827,-0.91568702459335,-0.68477994203568,28.2132720947266,20.946870803833,10.2543659210205,-9.33738708496094,-16.5104141235352,-9.27513694763184,-6.32306623458862,-6.9437050819397,-5.67188358306885,6.31350994110107,-9.23922443389893,-36.8276100158691,-1.29992127418518,1.67743599414825,3.01339817047119,0.77213364839554,-0.98349303007126,-1.26449108123779,-25.1582717895508,-22.6180229187012,-13.9055233001709,26.8366069793701,17.8822917938232,4.71897172927856,6.1660737991333,5.88018894195557,4.63524532318115,3.7349545955658,12.1697273254395,25.0601100921631,1.0622946023941,0.96577793359756,-0.35185837745667,-0.48808133602142,-0.8784242272377,-0.66401052474976,29.2164440155029,26.5277557373047,18.6939277648926,-0.53151279687881,-6.41885471343994,-6.27999114990234,-5.11416387557983,-5.77878522872925,-6.06833553314209,7.40766000747681,2.58094954490662,-8.94234371185303,-2.40925264358521,-0.42332962155342,1.85825204849243,0.82466810941696,0.33841934800148,-0.88453286886215,-24.1024284362793,-23.9635639190674,-21.7752647399902,22.4073333740234,23.7887878417969,16.7570171356201,SHAKE
-6.43790864944458,-6.0206880569458,-1.72997033596039,-5.832275390625,-36.1716003417969,-41.3550453186035,1.16614174842834,2.81853222846985,2.96086382865906,-0.21868975460529,-0.99815380573273,-0.73426002264023,-20.8487091064453,-11.8512983322144,-0.47405192255974,16.0818519592285,6.61517906188965,-0.15801730751991,5.76290273666382,4.59920454025269,1.98592293262482,13.4123182296753,23.9899005889893,22.0601749420166,2.12153506278992,1.84786736965179,0.41722095012665,-0.58276546001434,-1.13682019710541,-1.20768058300018,27.020959854126,21.380220413208,13.8648223876953,-3.42610263824463,-7.72130060195923,-7.33583402633667,-5.2436671257019,-5.96265554428101,-6.16240882873535,5.21217727661133,-3.24893164634705,-29.6857070922852,-4.71649074554443,-1.45752441883087,1.99875104427338,1.57664322853088,0.28283059597015,-1.18630027770996,-24.2963581085205,-22.6563301086426,-17.5686511993408,27.4183979034424,24.9882831573486,12.3588695526123,6.10010051727295,6.07749843597412,5.62118196487427,-1.27132105827332,6.45716190338135,19.7521648406982,0.12583823502064,0.41233405470848,-0.11789698898792,0.69821900129318,0.30054569244385,0.2119702398777,26.6594352722168,27.576416015625,21.9763774871826,2.09492659568787,-2.58094954490662,-1.92733240127563,-4.01888227462769,-5.11416387557983,-5.94921684265137,9.74440097808838,5.65031623840332,-5.832275390625,-2.95719861984253,-1.76845490932465,1.07512283325195,0.65790188312531,0.68966686725616,-0.47769662737846,-23.3841686248779,-23.1974201202393,-21.8782157897949,19.8934211730957,25.6682357788086,16.9892559051514,SHAKE
-5.94921684265137,-6.02374219894409,-2.79531931877136,-5.832275390625,-33.6098022460938,-41.9464149475098,1.07512283325195,3.04455232620239,3.27607035636902,-0.47769662737846,-0.90346968173981,-0.73303830623627,-21.8782157897949,-15.6221656799316,-3.06457805633545,16.9892559051514,7.58483076095581,1.0989385843277,6.36521577835083,5.33041000366211,3.00301361083984,13.4530191421509,22.4216995239258,24.6866130828857,1.56503677368164,1.38483154773712,-0.11667526513338,-0.5583308339119,-1.44225287437439,-1.19424152374268,24.8757553100586,19.6540012359619,12.3205623626709,-4.32153415679932,-8.7292594909668,-7.38611221313477,-5.39455080032349,-6.48311281204224,-6.23571252822876,6.29196214675903,-2.41814374923706,-26.5397262573242,-1.42820298671722,1.5845844745636,3.20948600769043,0.91446524858475,-0.12278391420841,-0.57299160957336,-22.6587257385254,-21.571756362915,-17.3268375396729,27.1526412963867,19.1847381591797,10.0436763763428,6.45928907394409,5.98037052154541,5.64561653137207,1.29765737056732,3.41652584075928,12.033257484436,1.80144155025482,1.31152772903442,0.47647488117218,0.07696902006865,0.05070181563497,-0.11728613078594,19.8287792205811,25.543737411499,25.1415119171143,-2.87064790725708,-6.34463453292847,-7.46033239364624,-2.573575258255,-3.81179904937744,-4.5204029083252,12.8281326293945,8.31266784667969,4.85304689407349,-3.76170825958252,-3.70795202255249,-2.61205983161926,0.020158553496,0.29260444641113,0.53633970022202,-4.72376012802124,-17.3531742095947,-22.7401275634766,9.543288230896,17.4321823120117,21.0498218536377,SHAKE
-5.65172529220581,-4.96205854415894,-1.03847086429596,-7.4770917892456,-31.2371501922607,-41.5633430480957,1.16247653961182,2.00485968589783,2.04945278167725,-0.08491026610136,-0.31764993071556,-0.42943826317787,-19.9389114379883,-12.6820859909058,-0.83078801631927,14.0994539260864,8.73165321350098,3.36145925521851,5.69387483596802,4.6248607635498,2.2534818649292,11.4682264328003,21.1982612609863,24.6890087127686,2.51554298400879,1.3078625202179,-1.50333940982819,-1.4611896276474,-1.80816113948822,-0.76907932758331,27.0161724090576,21.7728710174561,13.3596458435059,-7.80270338058472,-13.8672161102295,-7.508216381073,-5.45563745498657,-5.80077648162842,-5.96998596191406,4.31913995742798,-0.1723825186491,-17.4321823120117,-0.87048298120499,1.52838480472565,2.95047903060913,0.5155702829361,0.42699480056763,0.00610865233466,-25.4431819915771,-23.3578319549561,-18.1600208282471,25.6059875488281,18.5766105651855,9.38766479492188,5.90523433685303,5.73968982696533,5.34507083892822,0.58418524265289,5.93522596359253,16.9365825653076,1.1911872625351,0.92057394981384,0.23884831368923,0.54489177465439,-0.03176499158144,-0.68661254644394,25.1750316619873,27.3872737884521,23.1974201202393,-4.07493114471436,-7.07486581802368,-7.81228017807007,-3.36403489112854,-4.3304238319397,-4.95839309692383,9.23682975769043,5.87297677993774,2.70784211158752,-3.78492116928101,-2.53509068489075,-0.3805690407753,0.34574973583221,0.68600165843964,0.50396382808685,-18.1743850708008,-23.4990901947021,-22.9340572357178,20.7960357666016,24.3418483734131,21.710620880127,SHAKE
-5.83254146575928,-6.09582424163818,-3.59188771247864,-5.5832781791687,-29.1972904205322,-39.207447052002,1.89429306983948,3.10991501808167,2.80631494522095,-0.47891834378242,-0.89003068208694,-0.36163222789764,-20.2501583099365,-13.2040224075317,-2.78445649147034,18.2438163757324,8.98065090179443,1.64721071720123,5.70792484283447,4.43549251556396,2.01524448394775,10.5177278518677,19.7737121582031,23.166296005249,2.01952052116394,1.32924282550812,-0.73548173904419,-1.09405970573425,-1.28037357330322,-0.79717916250229,24.4615592956543,19.8335666656494,12.9981212615967,-3.54341840744019,-9.37329959869385,-8.92079544067383,-4.92357397079468,-5.6614990234375,-5.56070613861084,5.33906984329224,-2.89937829971313,-26.2835464477539,-1.934610247612,0.93706727027893,2.76538705825806,0.81183993816376,0.00977384392172,-0.74097955226898,-21.823148727417,-20.7696990966797,-15.842432975769,26.6618309020996,20.8846206665039,11.5783596038818,6.07016801834106,6.1037654876709,5.37866830825806,-0.40701428055763,7.78115558624268,18.2246627807617,2.05739402770996,1.58763873577118,0.1246165111661,-0.32314771413803,-0.81855940818787,-0.59559363126755,23.7552700042725,25.9890594482422,21.2700881958008,-3.58412003517151,-10.0508584976196,-12.0141038894653,-3.56378793716431,-4.76780319213867,-5.39882707595825,11.5352640151978,5.48990440368652,-1.20907187461853,-3.84784007072449,-2.05189633369446,0.07819075137377,0.79717916250229,1.37017071247101,0.74647730588913,-19.4433116912842,-21.1240425109863,-20.2956485748291,21.6986503601074,23.6211948394775,16.4745025634766,SHAKE
-5.9315013885498,-5.16242218017578,-1.84053695201874,-9.00938129425049,-29.6402168273926,-37.4429206848145,2.40619826316834,2.89672303199768,2.62549877166748,-0.53328537940979,-0.90346968173981,-0.62735861539841,-18.0211563110352,-10.6661682128906,-0.71347212791443,11.0468463897705,5.57370138168335,2.06140756607056,5.52161073684692,4.88203525543213,2.60717296600342,8.44913768768311,21.4592304229736,26.1758079528809,1.258993268013,0.12889257073402,-1.62429070472717,-0.45631635189056,-0.70799279212952,-0.49602258205414,25.6826019287109,19.32839012146,10.0939540863037,-8.23844814300537,-8.44434928894043,-3.71580100059509,-5.59857988357544,-6.27175331115723,-5.8447585105896,5.20499467849731,-7.13950967788696,-29.3768539428711,-1.1233811378479,1.91200816631317,3.30661368370056,0.26328292489052,-0.22785273194313,-0.55710911750793,-22.7904052734375,-20.4273281097412,-13.4075298309326,26.9682884216309,14.9134826660156,3.52905321121216,5.95227098464966,5.88690853118896,5.39271831512451,1.74537301063538,9.51695156097412,21.7632942199707,0.02443460933864,0.88270026445389,0.94439768791199,0.84238314628601,-0.28710666298866,-0.57482421398163,26.9227981567383,26.2859401702881,20.34592628479,4.10605573654175,-0.46208092570305,-4.19224739074707,-3.63037204742432,-4.71893405914307,-5.48618078231812,9.83777523040772,5.22893667221069,-5.32949304580688,-2.43796324729919,-0.80145519971848,2.37870931625366,1.60413217544556,1.46729826927185,-0.48319441080093,-18.210298538208,-18.8184261322021,-11.55202293396,21.4400768280029,19.6228771209717,6.32548093795776,SHAKE
-3.63037204742432,-4.71893405914307,-5.48618078231812,9.83777523040772,5.22893667221069,-5.32949304580688,-2.43796324729919,-0.80145519971848,2.37870931625366,1.60413217544556,1.46729826927185,-0.48319441080093,-18.210298538208,-18.8184261322021,-11.55202293396,21.4400768280029,19.6228771209717,6.32548093795776,5.31635999679565,5.56742572784424,5.10622262954712,-1.53947174549103,8.0924015045166,18.0570697784424,1.7256942987442,0.09651670604944,-2.02135300636292,-0.7177666425705,-1.14720487594604,-0.46975538134575,25.8334369659424,20.7122383117676,12.619836807251,-8.54490566253662,-10.6350440979004,-4.88895988464355,-5.29742336273193,-5.99686431884766,-5.73663568496704,5.91607236862183,-3.22498965263367,-23.874979019165,-0.43371433019638,1.95232534408569,3.44711256027222,1.43370068073273,0.06414084881544,-0.57971113920212,-22.064962387085,-21.2198104858398,-16.5606937408447,25.0505332946777,20.0059490203857,10.5560350418091,6.55336236953735,6.21127796173096,5.06101846694946,1.50834703445435,11.8967885971069,21.3610668182373,1.61268424987793,2.09038090705872,0.92362827062607,0.41233405470848,-0.7617489695549,-1.38849675655365,25.1486949920654,26.2356624603271,21.710620880127,-2.76769709587097,-11.374852180481,-16.8695449829102,-3.99200439453125,-5.16669845581055,-5.89118432998657,12.634202003479,6.95755004882813,-2.77009129524231,-3.31577658653259,-1.29931032657623,0.86987209320068,0.68416905403137,0.67928212881088,-0.01160643994808,-16.8886985778809,-21.1862907409668,-21.2006568908691,22.9508171081543,23.3267078399658,14.578293800354,SHAKE
-5.41532039642334,-6.18134546279907,-5.23816967010498,4.39096593856812,-13.6565265655518,-40.4260940551758,-0.03115412779152,1.85641944408417,2.55402755737305,0.50701814889908,-0.10079276561737,-0.59925878047943,-19.6779441833496,-16.6756153106689,-8.22647666931152,17.6979389190674,8.20732307434082,0.97444009780884,6.17218255996704,5.9760947227478,4.63096952438354,5.38934803009033,17.9804553985596,28.5939502716064,1.18996548652649,0.07391469180584,-1.3756685256958,-0.89797192811966,-1.0445796251297,-0.11911872029305,31.1940536499023,26.3864974975586,16.9772834777832,-7.22091245651245,-5.2672438621521,1.1180921792984,-5.2705454826355,-6.0658917427063,-6.31390333175659,8.03733539581299,-0.63925182819366,-21.9476470947266,-0.35613444447517,1.55220854282379,3.37747383117676,0.53450709581375,0.92240649461746,-0.24556782841682,-19.8192024230957,-19.0554504394531,-15.5958299636841,17.0155906677246,8.391676902771,-4.51785850524902,6.6217794418335,6.28458166122437,5.34079504013062,3.44525623321533,12.9765729904175,23.2429103851318,-1.64506006240845,-0.04031710699201,1.43614423274994,0.23029619455338,-0.06963863968849,-0.7061602473259,29.4127674102783,28.117504119873,21.5238723754883,19.0458736419678,13.3835878372192,3.33033466339111,-3.96512627601624,-4.99015808105469,-5.65966653823853,11.0372695922852,5.32949304580688,-6.09563732147217,-0.36590829491615,-0.68477994203568,0.46120324730873,-0.36713001132011,0.93279123306274,1.09467053413391,-16.0938243865967,-14.8320798873901,-13.8791875839233,6.28477954864502,10.0484647750854,6.14591598510742,SHAKE
5.66333150863647,6.43057823181152,5.97365140914917,-9.96227359771728,4.10605573654175,14.3197202682495,-1.37322509288788,-2.17284774780273,-1.07512283325195,-0.64324110746384,0.81794857978821,1.55770635604858,30.8014049530029,33.9138679504395,26.3984680175781,4.69024133682251,14.30774974823,20.0562267303467,-3.98284149169922,-4.69266700744629,-5.28459501266479,9.70848751068115,6.41885471343994,-3.76129078865051,-0.98593652248383,-1.32313406467438,0.36346483230591,0.64568454027176,1.62734496593475,0.27733281254768,-14.3101434707642,-13.7259578704834,-13.3117618560791,-1.70946002006531,6.32548093795776,2.96881008148193,5.02742099761963,5.46602201461792,5.52466535568237,-5.41089582443237,2.50672912597656,16.3164844512939,-1.54304563999176,-1.46363317966461,-0.7177666425705,-1.28709304332733,0.52534413337708,2.573575258255,32.4557991027832,31.6393756866455,22.3977565765381,14.7818012237549,14.8153200149536,13.4530191421509,-4.33347797393799,-4.70244073867798,-4.9492301940918,6.02141714096069,3.24893164634705,-5.44920301437378,0.23701570928097,-1.09833574295044,-0.34330627322197,-0.5589417219162,0.65362578630447,0.43799036741257,-13.6708917617798,-13.962984085083,-12.7850370407104,-5.99986934661865,2.71741890907288,3.38779544830322,4.37013006210327,5.65661239624023,5.72563982009888,-10.0245227813721,2.59531474113464,17.6237182617188,-1.06473815441132,-2.00363802909851,-0.97433006763458,-0.94684112071991,0.82039201259613,1.842369556427,32.3935508728027,32.8795738220215,24.7680168151855,7.05810642242432,16.0459403991699,15.631742477417,SHAKE
4.74214696884155,5.33041000366211,5.24855422973633,-2.92571449279785,6.72531270980835,29.1757411956787,-0.84177231788635,-0.601702272892,0.35735616087914,-0.54672437906265,0.96577793359756,1.5668693780899,36.0830154418945,29.1015224456787,17.0275630950928,8.91840171813965,8.08282470703125,4.2449197769165,-4.65967988967896,-4.79162693023682,-4.88631105422974,3.87621259689331,0.51954174041748,-11.3652753829956,-1.8112154006958,-2.47705864906311,-0.77702057361603,-0.10384709388018,1.9223929643631,0.8906415104866,-15.8687686920166,-15.10023021698,-12.7371530532837,1.24019646644592,8.85136413574219,5.58088397979736,5.79894399642944,6.37804412841797,5.98586845397949,-2.59052634239197,8.36773490905762,25.7544269561768,-1.04885566234589,-1.72874867916107,-0.41599923372269,-0.39400807023048,0.7061602473259,1.29136908054352,36.3798942565918,31.1270160675049,20.4225406646729,5.65031623840332,12.7706718444824,6.38533592224121,-4.52590036392212,-5.06285095214844,-5.04452514648438,5.54497098922729,0.19871874153614,-7.80270338058472,-0.00855211354792,-1.1301007270813,-0.0274889357388,-1.18996548652649,0.55161130428314,0.03420845419168,-12.8568630218506,-13.3069734573364,-11.2168350219727,-3.8690299987793,3.2968156337738,4.2760443687439,4.52406787872314,5.78306150436401,6.01030302047729,-13.3572511672974,-0.78529816865921,15.6413192749023,-0.22052235901356,-1.12215948104858,-1.03297317028046,-1.5045610666275,0.15699236094952,1.56503677368164,33.1501159667969,32.6473350524902,22.620418548584,1.90578460693359,4.25689077377319,7.27358484268188,SHAKE
3.59555292129517,4.96328020095825,5.32246875762939,-13.6158246994019,-0.59855043888092,17.1975517272949,-0.93523466587067,-1.09467053413391,-1.07329022884369,-0.59803706407547,-0.03604105114937,1.34817957878113,32.1086387634277,29.9754047393799,18.7753295898438,3.35427665710449,3.33751726150513,2.34392356872559,-4.41655588150024,-4.29193925857544,-3.72994327545166,-0.37110126018524,-5.79636240005493,-11.939884185791,0.48380526900291,0.40317106246948,0.50823986530304,-0.50029861927032,-0.30482175946236,-0.06352998316288,-10.1705684661865,-10.433931350708,-8.34139919281006,-2.51870012283325,-1.49158763885498,0.82121115922928,4.4550404548645,5.46785497665405,5.48373746871948,-9.86650562286377,5.04697704315186,27.7583751678467,-0.31276300549507,-0.54183745384216,-0.60720002651215,-0.84116142988205,0.46364670991898,1.41598558425903,35.7885284423828,27.7894992828369,14.8081378936768,2.1475989818573,0.91458505392075,0.86191260814667,-5.29620170593262,-4.81422901153564,-3.96390461921692,-3.50750541687012,-9.20091724395752,-17.0275630950928,1.02869701385498,1.11543989181519,1.30541908740997,-1.51005887985229,-1.42820298671722,-1.18813288211823,-10.9965686798096,-10.1035308837891,-6.13873338699341,-4.22337198257446,-3.42131423950195,-4.00071096420288,4.67861700057983,5.66699695587158,5.37744665145874,-5.37737703323364,11.7387704849243,36.4229888916016,-0.13072516024113,-0.53511798381805,-0.97616267204285,-2.14047193527222,-0.2461786866188,1.30419731140137,31.2323608398438,21.272481918335,9.2631664276123,1.17076468467712,0.59615623950958,1.65439331531525,SHAKE
2.15818691253662,4.40128421783447,5.57719945907593,-21.7776584625244,-9.39005947113037,5.7628436088562,0.65545839071274,-0.18753562867641,-0.85643309354782,-1.16736352443695,-1.1001683473587,0.71959924697876,27.1023635864258,32.1277923583984,23.2788238525391,-0.11252748221159,0.14125789701939,-0.59136784076691,-4.83805274963379,-5.73419189453125,-5.2772650718689,5.26006126403809,-7.07007741928101,-16.4122524261475,1.03541660308838,1.71958565711975,1.37872290611267,0.03665191307664,-0.43982297182083,-0.58215457201004,-10.1609916687012,-11.2431707382202,-9.7013053894043,-5.90649557113647,-10.7164468765259,-10.5991306304932,3.924809217453,5.58575201034546,6.74273061752319,-12.2487354278564,-2.59770894050598,24.229320526123,-1.48684597015381,0.01160643994808,0.6444628238678,-1.34268176555634,-0.60353487730026,1.54426729679108,30.0208950042725,26.2524223327637,14.9589719772339,17.5638637542725,8.27914905548096,1.25456166267395,-5.06651639938354,-4.86187648773193,-3.8814377784729,-5.06134223937988,-14.3029613494873,-19.3762741088867,0.81367248296738,1.17469382286072,0.96028017997742,0.43676865100861,-0.27366763353348,-1.01098203659058,-9.53610515594482,-8.06845951080322,-4.06056594848633,-8.80347919464111,-9.84495735168457,-10.4602670669556,5.47762870788574,6.09338092803955,3.97612190246582,-0.86430680751801,24.5716915130615,52.5287857055664,-1.63772976398468,-1.0134254693985,-0.14049901068211,0.92973691225052,3.22109246253967,3.10075187683105,25.1870021820068,14.6118125915527,4.79558610916138,10.6925048828125,7.68299341201782,3.74453139305115,SHAKE
-1.68782067298889,1.3567316532135,4.08668851852417,-30.3680534362793,-27.6458473205566,-13.3692226409912,-0.59498274326324,-1.94438409805298,-1.88085412979126,-0.85521131753922,-1.09772479534149,-1.67621421813965,3.11485648155212,19.4026107788086,28.6705646514893,-9.31823348999023,4.50109910964966,15.1768445968628,0.19303341209888,-4.06042146682739,-5.25344133377075,39.841911315918,13.239935874939,-1.61848032474518,1.03969264030457,1.04091441631317,0.86132001876831,1.6578882932663,0.98349303007126,0.63835418224335,-0.68474167585373,-6.8234748840332,-9.61990261077881,-4.71897172927856,-8.43716716766357,-11.9829797744751,0.64934974908829,6.06100511550903,7.47027111053467,-27.0161724090576,-5.18823528289795,23.1567192077637,-0.66706484556198,0.52656584978104,0.11667526513338,-1.1178834438324,0.34574973583221,2.70063519477844,27.0089893341064,25.4455757141113,15.7275114059448,14.0419931411743,2.09253239631653,-2.32955837249756,-5.48679161071777,-5.60407781600952,-4.91990852355957,-2.36068296432495,-10.7020816802979,-24.8182945251465,0.10140363126993,-0.41599923372269,-1.03663837909698,0.89797192811966,0.10934487730265,0.45387288928032,-9.69172859191894,-9.38048267364502,-6.89051246643066,-9.58877754211426,-6.44519090652466,-1.97521638870239,6.50204944610596,6.36338329315186,3.80813384056091,5.78917980194092,29.3720664978027,43.6558723449707,-0.01160643994808,-1.58336269855499,-2.52287340164185,0.71287971735001,3.02011775970459,3.51308608055115,28.3138294219971,16.7785663604736,6.04296493530273,-5.34385824203491,-5.31033945083618,-2.53785371780396,SHAKE
-4.55461120605469,-2.80631494522095,-0.13011430203915,-16.536750793457,-24.9547634124756,-29.2379913330078,-0.00061086524511,0.76297068595886,1.46607661247253,0.24862214922905,-0.77457714080811,-1.31702542304993,-9.59835433959961,-1.4484920501709,17.058687210083,2.35589456558228,3.76847338676453,6.86417627334595,5.28581714630127,1.65910995006561,-2.21805167198181,35.8435935974121,33.3272857666016,20.3052253723145,-0.69027775526047,-1.82770884037018,-4.00361061096191,0.00610865233466,-0.58887410163879,0.2944370508194,0.68953007459641,-9.7013053894043,-16.2781772613525,-7.53934097290039,-8.50181007385254,5.20260047912598,-1.89918005466461,6.36216163635254,6.45501327514648,-39.1356201171875,-3.74931979179382,29.7048606872559,-0.01404990069568,-1.52960658073425,-2.49294114112854,-0.3897320330143,1.27487576007843,0.82161372900009,34.5243873596191,18.2773361206055,-6.66306352615356,-1.47482824325562,-4.22337198257446,0.39504328370094,-6.19173002243042,-0.38728857040405,4.44343376159668,-21.0785522460938,-35.2761688232422,-13.2040224075317,3.48437547683716,2.83502554893494,1.62429070472717,-1.24494338035584,-1.07939887046814,-0.67011916637421,-2.41574954986572,13.7738428115845,28.4838180541992,-4.86501789093018,-3.7541081905365,-3.95522117614746,2.47339344024658,-2.81486701965332,-4.99932098388672,31.8380947113037,21.4305000305176,11.8991823196411,-1.42575943470001,-2.80570411682129,-3.97306752204895,0.4978551864624,0.47464230656624,1.6090190410614,2.10450339317322,-11.0420579910278,-17.3771152496338,-6.14112758636475,-5.03261184692383,6.05014753341675,SHAKE
-0.38728857040405,4.44343376159668,6.73234605789185,-35.2761688232422,-13.2040224075317,3.72058939933777,2.83502554893494,1.62429070472717,0.37507125735283,-1.07939887046814,-0.67011916637421,-0.28160887956619,13.7738428115845,28.4838180541992,33.650505065918,-3.7541081905365,-3.95522117614746,-2.63601613044739,-2.81486701965332,-4.99932098388672,-5.97120761871338,21.4305000305176,11.8991823196411,4.29040956497192,-2.80570411682129,-3.97306752204895,-2.58518171310425,0.47464230656624,1.6090190410614,2.06838965415955,-11.0420579910278,-17.3771152496338,-14.7889842987061,-5.03261184692383,6.05014753341675,15.5599164962769,3.65908288955688,7.13307332992554,5.89057350158691,-28.7040843963623,9.20809936523438,26.2931232452393,-0.41233405470848,-0.83932882547379,0.07819075137377,-0.13561208546162,0.69638639688492,-0.80389869213104,34.3783416748047,30.9666042327881,7.4770917892456,3.41413164138794,5.70298862457275,-11.4897737503052,-5.32735586166382,-4.76719236373901,-1.75135064125061,-4.3454761505127,-24.1335525512695,-37.5841789245605,0.36774086952209,2.71163082122803,3.26935076713562,-0.49602258205414,-1.64261662960052,-2.0702223777771,-14.2287406921387,-6.67742872238159,8.45392608642578,13.9318599700928,5.88494777679443,-0.69192427396774,4.74397945404053,2.21560835838318,-1.24311077594757,22.9101161956787,30.1094799041748,24.284387588501,-1.83687174320221,-1.63589715957642,-1.03419482707977,1.62062549591064,1.96087741851807,0.93279123306274,16.4361953735352,5.76523780822754,-4.56095409393311,2.0326771736145,4.43645572662354,1.5945383310318,SHAKE
-5.46968746185303,-5.8447585105896,-1.55953896045685,3.72537779808044,-11.4897737503052,-35.6137504577637,1.07634460926056,2.79776287078857,3.30539178848267,0.88514375686646,-0.05253441259265,-1.39949226379395,-13.0843124389648,-9.09317779541016,3.3925838470459,9.49540424346924,2.73896670341492,-0.09097966551781,3.83501195907593,-0.87170469760895,-4.29743719100952,40.9312705993652,28.8309764862061,12.4761848449707,-3.04088711738586,-4.98343849182129,-1.81549155712128,2.23821020126343,-0.52534413337708,-0.40500366687775,0.90740245580673,-10.5392761230469,-10.8481283187866,-12.6772975921631,19.278112411499,21.5741519927979,4.15571641921997,5.93577766418457,5.47457408905029,-13.283031463623,6.63193893432617,32.700008392334,2.07205486297607,-0.0250454749912,-1.55526292324066,-1.81610238552094,1.17835903167725,2.89061427116394,31.4167156219482,27.4136085510254,16.7594127655029,-5.09486103057861,-5.22893667221069,-1.5753847360611,-6.62422275543213,-5.2259521484375,-1.28464961051941,-2.09492659568787,-34.0407600402832,-33.9832992553711,1.49967420101166,3.90770506858826,4.64807367324829,-0.08613199740648,-1.00242984294891,-1.7678439617157,-14.9924907684326,-8.85615253448486,5.52821159362793,10.2471828460693,0.78050976991653,-4.60644388198853,6.08910465240479,3.26446390151978,-1.554652094841,27.655424118042,40.023868560791,22.4552173614502,-2.61755752563477,-3.91503524780273,-4.31759548187256,2.49782800674438,2.97124862670898,1.73974418640137,9.63426780700684,-2.54503631591797,-10.2950668334961,-9.97185039520264,-3.68946480751038,5.07570743560791,SHAKE
-1.28464961051941,3.13984727859497,5.7305269241333,-33.9832992553711,-19.4385242462158,-7.86016416549683,4.64807367324829,3.86372256278992,2.06594634056091,-1.7678439617157,-2.05861592292786,-1.60168862342834,5.52821159362793,22.9340572357178,29.9969539642334,-4.60644388198853,-6.55292987823486,-9.88805294036865,-1.554652094841,-4.99015808105469,-6.20516920089722,22.4552173614502,5.90649557113647,-6.48828649520874,-4.31759548187256,-3.30172657966614,-0.45387288928032,1.73974418640137,0.26206117868423,-0.8655960559845,-10.2950668334961,-11.3724584579468,-13.2806367874146,5.07570743560791,14.7865896224976,12.7275762557983,4.33958673477173,6.39087200164795,6.53014945983887,-14.7123699188232,1.57059633731842,23.0130672454834,2.16307377815247,-0.2730567753315,-2.92970967292786,-2.48622155189514,-0.77640974521637,2.34327912330627,32.4270668029785,28.4095973968506,14.9398183822632,-10.0293111801147,-11.6094837188721,-8.62391471862793,-6.69263982772827,-7.32855033874512,-5.68776607513428,-1.15879356861115,-19.5438690185547,-37.129280090332,-0.81794857978821,2.11909151077271,4.03171062469482,0.00977384392172,-1.55587375164032,-3.22170329093933,-12.9047470092773,-12.0667762756348,1.31441676616669,11.6166667938232,5.88734197616577,5.30555105209351,5.89362812042236,0.96150189638138,-3.70734119415283,34.1484985351563,38.0438652038574,25.239673614502,-1.87291288375854,-3.39091300964355,-3.21925973892212,3.67191100120544,3.14045810699463,1.43736588954926,10.4506902694702,-4.7213659286499,-13.9462251663208,-13.9725608825684,-6.22492456436157,4.03183555603027,SHAKE
-7.41468238830566,-5.68104696273804,-2.64382481575012,-11.7698955535889,-20.9803886413574,-28.91477394104,0.52717667818069,2.12153506278992,1.31641459465027,-0.74281215667725,-1.88635182380676,-2.06105923652649,-16.7163162231445,3.31836366653442,21.193473815918,6.04296493530273,-2.54743051528931,-0.76853877305984,5.01703643798828,-3.38175010681152,-5.79405689239502,37.8523292541504,20.8319492340088,8.50420475006104,-3.37503051757813,-3.11846709251404,0.77824234962463,3.24125099182129,2.11848068237305,-0.20219638943672,-8.02775859832764,-16.2135334014893,-15.2103633880615,-1.80043971538544,4.56095409393311,5.7628436088562,5.75862646102905,7.29556369781494,7.16667127609253,-13.1274080276489,2.10929179191589,26.0537033081055,0.51984632015228,-0.18081611394882,-0.61330872774124,-1.57847583293915,0.62796944379807,2.01768779754639,32.8245048522949,28.7423915863037,16.3978881835938,3.3925838470459,1.58256733417511,-4.33111095428467,-5.78367233276367,-5.84292602539063,-4.4690899848938,-0.22984336316586,-12.2200050354004,-26.2021427154541,-0.24495697021484,1.50395023822784,2.61205983161926,0.37446039915085,-0.58032196760178,-1.60168862342834,-13.4482307434082,-12.6102600097656,-5.3749828338623,6.50025749206543,3.98395156860352,-1.63763391971588,6.56313610076904,6.6217794418335,4.23207426071167,2.03985977172852,22.9532108306885,42.5569343566895,1.64444923400879,0.02687807008624,-2.06777882575989,-0.32375857234001,1.37444674968719,2.35977244377136,27.7775287628174,13.1250133514404,-2.34392356872559,-8.32463932037354,-10.9558668136597,-8.10916137695313,SHAKE
-0.88880890607834,3.59433102607727,6.08788299560547,-32.364818572998,-16.1081886291504,-4.18745899200439,0.43615779280663,0.07269296050072,0.77885317802429,-2.76844120025635,-3.06776523590088,-2.73423290252686,17.4992198944092,33.5236129760742,35.8411979675293,3.50750541687012,15.4018993377686,3.21301865577698,-2.20888876914978,-5.31697130203247,-6.50876903533936,22.7592811584473,6.56968927383423,-9.51216316223144,-0.02138028293848,1.15087008476257,0.99387776851654,2.40314388275146,0.32375857234001,-0.68355822563171,-14.1688852310181,-16.6181545257568,-14.8991174697876,-2.64559292793274,-7.26879644393921,-8.85136413574219,5.92539310455322,7.40124320983887,7.23325538635254,-13.6349782943726,4.17548799514771,33.3847503662109,0.7177666425705,1.03236222267151,0.25228735804558,-1.40621185302734,1.02747535705566,2.74034142494202,33.0208282470703,29.1829242706299,16.8264503479004,12.3708400726318,-0.33518823981285,-8.86094093322754,-6.43974161148071,-6.31573581695557,-4.36402130126953,1.66397023200989,-12.9981212615967,-29.0632152557373,-0.32925635576248,-0.09040805697441,0.0372627787292,-1.24188899993896,-2.38726139068604,-2.79348683357239,-11.9207305908203,-9.70609378814697,0.28251579403877,-7.02698183059692,-3.65355181694031,0.43095630407333,7.11474752426147,5.70853567123413,-0.18081611394882,12.1721210479736,48.9757881164551,41.9224700927734,-0.52900928258896,-1.68537724018097,-1.63223195075989,2.82280826568604,4.57110452651978,4.48497247695923,17.6524486541748,2.39659595489502,-5.96874475479126,-2.63841032981873,-3.38779544830322,-1.53947174549103,SHAKE
-0.41416662931442,3.60349416732788,5.94738388061523,-31.7255668640137,-20.7170276641846,-10.4602670669556,0.04337143152952,0.08063421398401,0.37323865294456,-3.43856048583984,-3.03844380378723,-0.43127086758614,15.6676559448242,29.0392723083496,29.9778003692627,8.08761310577393,16.2087459564209,6.49307489395142,-5.00298643112183,-6.59856653213501,-6.39270496368408,14.8057432174683,-1.53228902816772,-17.9876365661621,-0.2119702398777,1.26510190963745,1.57603228092194,2.20766711235046,-0.64201939105988,-1.78617000579834,-10.1250791549683,-12.3397159576416,-11.2000751495361,-2.10689759254456,-6.65109252929688,-5.35343503952026,5.82521104812622,7.12268877029419,7.00906801223755,-9.05965900421143,7.24485445022583,42.6814346313477,2.1569652557373,0.7189884185791,-1.44225287437439,-2.06411361694336,1.82954144477844,4.40006256103516,32.807746887207,23.3554382324219,9.63187313079834,-0.0981622710824,-11.5903301239014,-9.45709705352783,-6.93270969390869,-6.49655199050903,-4.19053554534912,-4.35984134674072,-18.485631942749,-32.2882041931152,0.81122905015945,0.79962259531021,0.47403141856194,-1.33779489994049,-2.71285247802734,-3.25896596908569,-14.5280160903931,-12.1481790542603,-2.69587111473084,-10.0125513076782,-6.29196214675903,-2.79403328895569,7.79280805587768,7.09153461456299,2.10076546669006,13.2159929275513,49.6629257202149,44.9008598327637,0.84421575069427,-0.75564032793045,-1.53327178955078,2.0323486328125,4.34508466720581,4.15082931518555,22.5509853363037,7.28795003890991,-4.25689077377319,-6.26802015304565,-7.66623401641846,-7.92241334915161,SHAKE
-0.1050688251853,4.13616847991943,6.68286561965942,-33.2602500915527,-20.0897464752197,-6.13873338699341,0.02932153269649,0.27611109614372,1.28831481933594,-3.78553199768066,-3.72994327545166,-1.51066970825195,12.9382658004761,28.4215679168701,34.0527305603027,7.02937602996826,16.7330760955811,6.53377628326416,-3.38785862922669,-5.82887601852417,-6.56863403320313,19.8694801330566,5.15711069107056,-9.74200630187988,-1.5778648853302,-0.81794857978821,0.37812557816505,2.8014280796051,0.84055060148239,-1.21195662021637,-10.3046445846558,-11.7387704849243,-12.0571994781494,-5.45159721374512,-3.74692559242249,-3.21541285514832,4.94312143325806,6.90888595581055,7.39574575424194,-13.4625959396362,4.2449197769165,34.9864692687988,0.79045963287354,-0.30237829685211,-1.46852004528046,-2.61328148841858,0.2767219543457,2.91260552406311,32.7095832824707,26.6426773071289,13.2806367874146,3.72777199745178,-1.36469495296478,-4.56095409393311,-6.52098655700684,-6.88384056091309,-5.74213314056396,0.7972691655159,-11.9973449707031,-32.6784591674805,1.99386417865753,1.7434093952179,1.03297317028046,-2.32617473602295,-3.43733882904053,-3.36953258514404,-11.3485164642334,-2.26012635231018,13.3668279647827,-9.2416181564331,-8.32703304290771,-1.85790050029755,6.1593542098999,3.7348301410675,-1.35184478759766,31.8859786987305,46.2631607055664,23.8725852966309,-1.08062064647675,-2.33350515365601,-1.86802589893341,2.85457324981689,3.83256864547729,3.43123006820679,12.167332649231,0.13646949827671,-7.87931776046753,-5.13556241989136,0.50996494293213,1.56580793857574,SHAKE
3.06226754188538,5.96387720108032,6.6706485748291,-18.9932022094727,-2.6623523235321,11.2790842056274,0.25473082065582,0.61147612333298,0.94439768791199,-3.29317450523376,-2.91443800926209,-0.47647488117218,27.7272491455078,32.7670440673828,26.2643928527832,9.56723022460938,5.75805521011353,-8.14507389068604,-4.76658153533936,-6.02618551254272,-6.15385627746582,6.91684865951538,-1.7980455160141,-12.8855934143066,-0.32192599773407,1.54487824440002,2.06838965415955,2.83380389213562,0.33292156457901,-2.16429567337036,-11.4610433578491,-12.5001268386841,-11.0803651809692,-1.41257905960083,-8.61194324493408,-8.54490566253662,5.39760541915894,6.97791385650635,7.37436532974243,-8.34618759155273,8.50181007385254,43.4188461303711,-0.20463985204697,-0.02871066704392,-0.56627207994461,-2.69147229194641,0.89797192811966,3.19299268722534,32.7359199523926,23.3698024749756,9.3637228012085,8.70531749725342,2.66714072227478,-4.1156325340271,-6.42874574661255,-5.46541118621826,-1.77395272254944,-5.77960300445557,-25.1510887145996,-36.5474891662598,0.57543504238129,0.04459316283464,-0.49357911944389,-0.86437433958054,-2.00241637229919,-2.5613579750061,-13.8815813064575,-6.61757326126099,27.4375514984131,-14.046781539917,-5.75326681137085,8.927978515625,3.56867480278015,-1.49478721618652,-4.75741863250732,43.828254699707,31.4622039794922,10.7403888702393,-0.75991636514664,-0.53023105859756,0.4324925839901,2.92604446411133,2.59434461593628,1.94132971763611,5.30315685272217,-5.88734197616577,-13.1872625350952,-0.95049810409546,-0.31364041566849,-3.35188245773315,SHAKE
1.46668744087219,4.62363910675049,6.0903263092041,-24.9212455749512,-11.6190605163574,-2.88261890411377,-0.36346483230591,-1.40193569660187,-1.05801856517792,-2.67192459106445,-2.83685827255249,-1.15209186077118,18.4904193878174,33.5810737609863,33.9617500305176,-2.44447994232178,12.4881563186646,12.6749038696289,-3.45322132110596,-5.36584043502808,-5.85331058502197,17.2885303497314,4.23773717880249,-1.20188927650452,-0.34208452701569,0.9944885969162,1.73607897758484,3.28095722198486,2.10992860794067,-0.33169981837273,-7.53455257415771,-10.5608234405518,-11.2599306106567,-1.19710087776184,-6.59363126754761,-11.3628816604614,2.54608631134033,4.56743955612183,5.8380389213562,-14.2431058883667,-7.75003099441528,-0.79008656740189,-0.32375857234001,0.39584067463875,-0.51495939493179,-2.85335159301758,0.40866884589195,3.12640833854675,35.0247764587402,29.2595386505127,15.3085260391235,13.9653787612915,0.29927521944046,-2.35828876495361,-6.1483588218689,-5.88018894195557,-4.64013242721558,-1.35751235485077,-8.46350288391113,-16.0267868041992,1.49661982059479,1.31641459465027,0.39278635382652,0.45814892649651,-0.86498516798019,-1.66033172607422,-15.8472213745117,-14.9039058685303,-10.9486846923828,-10.0508584976196,-11.2024698257446,-6.38773012161255,6.2039475440979,6.99196338653564,6.53564739227295,-1.721431016922,12.9047470092773,45.7891082763672,-0.66034531593323,0.097127571702,0.21685716509819,-1.44225287437439,1.47707211971283,2.77760434150696,36.6815643310547,24.0713043212891,11.295844078064,14.4130945205688,3.66312861442566,-2.04225397109985,SHAKE
0.92546087503433,4.39456462860107,6.2039475440979,-25.1678485870361,-11.5831480026245,-1.721431016922,-0.52351152896881,-1.314581990242,-0.66034531593323,-2.49721717834473,-2.68658542633057,-1.44225287437439,21.1527729034424,35.8148651123047,36.6815643310547,0.59136784076691,16.1512851715088,14.4130945205688,-3.6358699798584,-5.61568403244019,-5.76778984069824,15.1122007369995,1.77170920372009,-2.07577276229858,0.24007004499435,0.94806283712387,1.5412130355835,2.16796064376831,2.03173780441284,0.46792277693748,-9.34696388244629,-13.7906017303467,-13.7283525466919,-2.9161376953125,-7.28555583953857,-12.8736228942871,4.95106267929077,6.32306623458862,6.93820762634277,-7.24485445022583,2.50433492660522,26.3003063201904,-0.2425135076046,0.601702272892,-0.29871311783791,-3.4269540309906,-0.91935217380524,2.21744084358215,36.2242698669434,29.6761302947998,15.7897605895996,12.3421096801758,-0.11492168158293,-1.63284552097321,-5.94555139541626,-5.91134309768677,-5.25283002853394,-1.05105459690094,-5.26006126403809,-15.1816329956055,1.61512768268585,1.75929188728333,0.583376288414,1.65727746486664,-0.55100047588348,-1.88757359981537,-14.9086942672729,-14.3029613494873,-11.0612115859985,-12.5480108261108,-15.1026239395142,-9.78989028930664,5.99686431884766,6.98890924453735,7.10558462142944,-1.93930339813232,12.1577558517456,44.321460723877,-1.27854096889496,-0.29321530461311,-0.01343903504312,-2.7568347454071,0.64568454027176,2.61511421203613,34.8236656188965,24.3370609283447,12.4211187362671,15.0427694320679,6.25365495681763,-2.3511061668396,SHAKE
4.7348165512085,5.60285615921021,5.89729309082031,-7.92241334915161,0.43574470281601,4.53940629959106,-2.23882102966309,-1.22722828388214,-0.06597344577312,-2.56074714660645,-1.21073496341705,1.70187056064606,32.7861976623535,35.6903648376465,24.0928516387939,16.7809600830078,19.6563968658447,10.4961805343628,-5.51000452041626,-5.61629486083984,-5.22717380523682,2.63841032981873,-1.98239898681641,-8.27436065673828,1.8057177066803,1.91933858394623,0.85765480995178,1.83748269081116,0.72998398542404,-0.50885075330734,-12.4953384399414,-13.5870943069458,-12.9286890029907,-9.78510189056396,-16.3883113861084,-16.1584663391113,4.37074089050293,5.87530183792114,7.02250671386719,-10.1801452636719,-3.75650238990784,16.8647575378418,-1.39765965938568,-0.0274889357388,-0.54183745384216,-4.13922309875488,-1.351233959198,2.46545219421387,34.2083549499512,33.2195472717285,19.55344581604,20.1519966125488,7.01979923248291,4.25928497314453,-5.71464443206787,-5.59491491317749,-5.0115385055542,-0.05985504388809,-3.85227060317993,-11.8728466033936,3.27240514755249,2.95536613464355,1.22478485107422,1.62429070472717,-0.49052479863167,-1.53815865516663,-14.64772605896,-14.238317489624,-10.9175596237183,-13.962984085083,-19.5414733886719,-13.7139873504639,5.97914886474609,6.80564975738525,6.84596681594849,-3.2968156337738,8.04691219329834,39.6838912963867,-1.11177480220795,0.09773843735456,-0.27122417092323,-2.20278000831604,0.77091193199158,2.78615641593933,34.8954887390137,25.6442947387695,12.392388343811,16.3595809936523,3.74692559242249,-1.2641384601593,SHAKE
3.64381122589111,5.64439487457275,6.64315938949585,-10.2711248397827,-2.42532634735107,7.67341661453247,-2.31701183319092,-0.49113565683365,0.75991636514664,-3.00057005882263,-2.97185945510864,0.00549778714776,32.8269004821777,35.8340187072754,23.2046031951904,21.0354557037354,10.857705116272,-1.25456166267395,-5.57292366027832,-5.91012144088745,-5.65905570983887,0.76135611534119,-3.51468801498413,-10.0771951675415,0.51984632015228,1.92544722557068,1.83259570598602,2.62366628646851,1.14353978633881,-0.69760811328888,-13.869610786438,-14.853627204895,-13.3261270523071,-5.55694198608398,-15.2869777679443,-17.1520614624023,5.45746994018555,6.67492437362671,7.72133684158325,-8.13070869445801,-2.4205379486084,17.9182052612305,-1.2889256477356,-0.16615535318851,-1.39155101776123,-4.78307485580444,-1.42637038230896,2.80387139320374,37.3687019348145,36.8611297607422,19.4648590087891,18.4616889953613,1.36708915233612,3.00232887268066,-7.01762008666992,-5.27787590026855,-2.39947867393494,1.83395850658417,-19.4528884887695,-30.746337890625,1.64261662960052,0.30298915505409,-0.52228981256485,-0.35369098186493,-1.2156218290329,-1.68110120296478,-15.3803520202637,-9.8784761428833,1.29526317119598,-15.9525661468506,-10.1155023574829,-5.38216543197632,6.922935962677,1.52655220031738,-4.15632724761963,47.0843696594238,50.3859748840332,18.3922576904297,0.29260444641113,-0.27061331272125,-0.00794124789536,2.46423029899597,2.53631258010864,2.49294114112854,12.1338138580322,-0.48362874984741,-10.5895538330078,-4.90811347961426,-2.72460150718689,-3.36385345458984,SHAKE
4.14899682998657,5.99991846084595,7.47699069976807,-11.0947303771973,-4.49870491027832,14.7267351150513,-2.28952288627625,-0.67439520359039,-0.83688539266586,-4.38295793533325,-2.0512855052948,2.26142311096191,32.5036811828613,35.245044708252,22.783224105835,18.9070110321045,6.56250667572021,3.96479797363281,-5.57719945907593,-5.60346698760986,-5.10194635391235,-0.72544312477112,-3.41413164138794,-7.37414121627808,2.41963720321655,3.29317450523376,2.1569652557373,2.28952288627625,0.79045963287354,-0.86987209320068,-14.1138191223145,-15.7634239196777,-14.1784620285034,-9.2248592376709,-20.1759376525879,-19.357120513916,4.30049133300781,6.12881088256836,7.24363994598389,-9.79946708679199,-1.79565131664276,16.8240547180176,-2.26630997657776,0.1069014146924,1.00242984294891,-3.82768154144287,-1.95843398571014,1.60413217544556,34.4621391296387,34.4908714294434,20.7146339416504,22.7209739685059,9.38048267364502,-2.18830037117004,-5.87713432312012,-6.19844961166382,-6.13553047180176,1.85071790218353,-2.77727389335632,-14.0180511474609,1.7379115819931,2.18750834465027,1.03419482707977,2.68108749389648,0.06291911751032,-1.63650798797607,-17.1400890350342,-16.0124206542969,-13.0196685791016,-14.2311353683472,-18.9812316894531,-14.8703870773315,6.00541639328003,6.94675970077515,7.71583890914917,-2.69826531410217,2.00155258178711,38.6567802429199,-1.06718158721924,-0.46059238910675,-0.29260444641113,-2.02807259559631,2.07144403457642,3.73544096946716,35.2306785583496,27.3322067260742,3.10527968406677,15.6820211410522,3.73256039619446,1.3215993642807,SHAKE
3.09525418281555,5.04635763168335,6.30962705612183,-14.1617031097412,-6.22971296310425,-2.46842193603516,-2.79287600517273,-1.66338610649109,-0.3371976017952,-3.03233504295349,-3.25102472305298,0.16126842796803,25.6586589813232,34.2370834350586,29.1972904205322,13.2135992050171,19.0793933868408,4.10366153717041,-4.75802946090698,-5.95166015625,-6.18134546279907,8.37252330780029,0.28012159466743,-11.3820352554321,2.65909647941589,2.02318572998047,0.25350907444954,2.71529603004456,0.43554693460464,-1.10322260856628,-15.1840267181396,-14.0563583374023,-11.8536930084229,-16.4361953735352,-21.0115146636963,-13.6828622817993,5.56498241424561,6.52526235580444,7.2338662147522,-3.7541081905365,5.28160905838013,42.6167907714844,-0.90346968173981,1.12032687664032,0.78740531206131,-2.33717036247253,0.50823986530304,2.23821020126343,34.5986099243164,26.5636672973633,13.3979530334473,19.2062854766846,2.4205379486084,-4.77882671356201,-6.32612037658691,-6.30229663848877,-5.06101846694946,-1.06781399250031,-11.1809215545654,-23.6403484344482,0.527787566185,0.09285151958466,-0.33841934800148,0.22113321721554,-1.45630276203156,-2.10076546669006,-15.6628675460815,-13.2207813262939,-4.48912811279297,-14.2742309570313,-10.5775833129883,-6.37575912475586,6.29435539245605,7.18316459655762,4.89669561386108,2.71502470970154,32.9992828369141,52.8136940002441,-0.12705996632576,-0.88392198085785,-0.90530228614807,-0.15027284622192,2.9358184337616,3.48132109642029,27.7440090179443,13.9390420913696,1.47482824325562,2.71023631095886,3.30639243125916,4.10366153717041,SHAKE
-0.88880890607834,2.80631494522095,5.31330585479736,-27.5883865356445,-15.9405946731567,-6.18661737442017,-1.26265847682953,-1.75807023048401,-1.1233811378479,-2.07449841499329,-2.80081725120544,-1.36039686203003,17.580623626709,30.2531318664551,31.7447204589844,-1.77170920372009,11.2240171432495,8.64546203613281,-3.49292755126953,-5.82765436172485,-6.18501043319702,13.8336973190308,1.51552963256836,-2.72699570655823,0.23823744058609,1.2168436050415,0.97066485881805,3.27851366996765,1.7745635509491,-1.0134254693985,-12.9167184829712,-13.5009031295776,-12.2607069015503,-7.35738182067871,-15.0810766220093,-15.114595413208,3.70306515693665,5.79405689239502,6.85512971878052,-11.7555303573608,-0.41180267930031,21.935676574707,0.12095131725073,0.55344390869141,-1.39704883098602,-4.07996892929077,-2.16857171058655,1.73607897758484,33.5284004211426,30.0472316741943,15.0499515533447,7.54173517227173,-5.17147588729858,-1.18512988090515,-6.07505464553833,-5.77756357192993,-4.16915512084961,-2.66474652290344,-11.8752403259277,-23.2309398651123,2.68108749389648,2.43796324729919,1.2046263217926,-0.69577550888062,-1.42026174068451,-1.53938043117523,-12.5719528198242,-10.8912239074707,-3.69185900688171,-8.22647666931152,-12.0141038894653,-8.58081912994385,6.33467245101929,6.30596208572388,2.79593014717102,3.16513466835022,27.9068145751953,46.9574775695801,-0.74708819389343,-0.71104717254639,-0.54977869987488,0.71165800094604,2.37321138381958,2.63771605491638,26.7623863220215,14.8823575973511,3.91212558746338,3.57933163642883,0.60812723636627,-1.20667767524719,SHAKE
2.60289669036865,5.07934474945068,6.33467245101929,-21.02587890625,-10.0652236938477,3.16513466835022,-0.37262779474258,-0.47036623954773,-0.74708819389343,-2.23698854446411,-1.6157386302948,0.71165800094604,27.6290874481201,33.8923187255859,26.7623863220215,4.19703578948975,4.8099513053894,3.57933163642883,-4.98282766342163,-5.35240125656128,-5.06468391418457,3.28963303565979,-2.93050289154053,-9.37808799743652,0.81245076656342,1.44713973999023,1.10444438457489,1.80877196788788,0.14416420459747,-1.42087256908417,-11.7986259460449,-13.1345901489258,-10.8744640350342,-4.69502973556519,-8.26957225799561,-8.81545066833496,5.15264844894409,6.68286561965942,6.43118953704834,-11.3868236541748,4.49152231216431,34.3615837097168,0.58215457201004,-0.60903263092041,-1.91445171833038,-2.56868839263916,0.53511798381805,3.25407910346985,36.6384696960449,25.3929023742676,10.2687311172485,-1.06781399250031,-5.16189908981323,2.03985977172852,-6.41591787338257,-5.71220111846924,-3.84845113754272,-5.1379566192627,-13.687650680542,-27.0281429290771,2.52409529685974,1.5112806558609,0.23701570928097,-0.69394290447235,-1.3390166759491,-1.52655220031738,-16.6373081207275,-11.4275245666504,2.38701915740967,-11.2623243331909,-10.5344877243042,-4.96078586578369,7.08725833892822,5.54909992218018,0.66828656196594,20.070592880249,44.0078201293945,33.8300704956055,-1.36589467525482,-1.1001683473587,-0.61758476495743,1.75379407405853,2.2913556098938,2.21499729156494,19.9748249053955,6.15549278259277,-5.36301183700562,2.36307716369629,0.29927521944046,0.4955997467041,SHAKE
-0.25656339526176,3.97795438766479,6.43485450744629,-32.9705505371094,-18.1863555908203,-0.84275901317596,-0.30115658044815,-0.2852740585804,-0.68966686725616,-2.07449841499329,-2.41413950920105,-0.59376102685928,23.6499252319336,36.420597076416,32.7407073974609,2.36547136306763,2.41814374923706,-1.18512988090515,-3.79102969169617,-5.30903005599976,-5.38538789749146,9.64863300323486,-1.02471828460693,-8.10197830200195,0.46242499351501,1.33596229553223,1.31824719905853,1.82037842273712,0.33903020620346,-0.80023348331451,-12.0691709518433,-13.1178312301636,-11.5256872177124,-2.92571449279785,-7.70454120635986,-8.10197830200195,4.98466062545776,6.49288654327393,6.85879516601563,-9.25837802886963,4.03901815414429,30.4638233184814,0.10873401165009,-0.79534655809402,-2.2602014541626,-2.59373378753662,0.10629054903984,3.15878415107727,35.6520576477051,24.6171817779541,8.88248825073242,0.00239420169964,-2.8012158870697,3.70861840248108,-6.0762767791748,-5.45075035095215,-3.04516315460205,-7.34780502319336,-21.8853969573975,-31.8452758789063,2.2467622756958,1.25471723079681,-0.34574973583221,-1.02014493942261,-1.30053210258484,-2.24248623847961,-12.6126546859741,-6.11957931518555,29.4774112701416,-12.5671644210815,-10.5871601104736,4.00789356231689,4.06408643722534,-1.80327415466309,-5.05490970611572,49.9933242797851,19.8311729431152,0.5243301987648,-1.93705368041992,-0.45753806829453,1.70614659786224,2.74278497695923,2.69025063514709,1.42270517349243,-0.58897364139557,-9.84974575042725,-14.061146736145,5.59285497665405,2.88740730285645,-6.03099393844604,SHAKE
-5.45075035095215,-3.04516315460205,0.83871799707413,-21.8853969573975,-31.8452758789063,-25.4623355865479,1.25471723079681,-0.34574973583221,-0.13866640627384,-1.30053210258484,-2.24248623847961,-2.40497636795044,-6.11957931518555,29.4774112701416,34.2969398498535,-10.5871601104736,4.00789356231689,-1.25456166267395,-1.80327415466309,-5.05490970611572,-5.55093240737915,19.8311729431152,0.5243301987648,-5.91846656799316,-0.45753806829453,1.70614659786224,2.75316977500916,2.69025063514709,1.42270517349243,-0.60720002651215,-9.84974575042725,-14.061146736145,-13.3045787811279,2.88740730285645,-6.03099393844604,-14.484920501709,3.38969135284424,5.79650020599365,7.09825420379639,-15.5000619888306,-4.10126733779907,13.0891008377075,-1.08856189250946,-0.85276788473129,-1.50089585781097,-2.47522592544556,-1.36284041404724,1.78372657299042,35.0175933837891,33.6672630310059,19.632453918457,8.03494071960449,2.4899697303772,3.74453139305115,-5.47090911865234,-5.88751935958862,-5.32979917526245,1.36230075359344,-7.29273843765259,-20.9660243988037,1.80938291549683,1.79777646064758,0.80634212493896,0.89797192811966,-0.57299160957336,-1.06046211719513,-15.3971109390259,-12.5120983123779,-3.98873996734619,-9.70848751068115,-11.6190605163574,-8.24802494049072,6.2418212890625,6.68775272369385,1.45080494880676,8.04451751708984,36.6935348510742,46.5121574401855,-1.5778648853302,-0.4453207552433,1.59252572059631,3.12274312973022,3.11480188369751,1.91445171833038,8.99022769927979,-2.65995812416077,-10.0053691864014,2.75572609901428,3.91212558746338,-3.0550012588501,SHAKE
-5.32979917526245,-3.1746666431427,0.77213364839554,-20.9660243988037,-32.4462203979492,-23.5828876495361,0.80634212493896,-0.22418753802776,-0.57971113920212,-1.06046211719513,-1.70981180667877,-2.378098487854,-3.98873996734619,13.2016277313232,30.1406059265137,-8.24802494049072,-0.81881695985794,4.33829355239868,1.45080494880676,-5.46846580505371,-5.53199577331543,46.5121574401855,0.34715923666954,-8.69574069976807,1.59252572059631,2.63588356971741,1.81426978111267,1.91445171833038,-0.31520646810532,-1.18019163608551,-10.0053691864014,-11.6453971862793,-10.4363250732422,-3.0550012588501,-12.5312519073486,-14.7003984451294,5.3261342048645,6.81969976425171,6.65843105316162,-10.5847654342651,5.22175407409668,41.417293548584,-0.26145032048225,-0.64201939105988,-1.16186571121216,-1.69698369503021,0.90041536092758,2.26264476776123,32.8149299621582,21.4209232330322,5.88973617553711,4.22097778320313,1.94888019561768,2.26491475105286,-6.04084634780884,-4.94189977645874,-1.76478970050812,-8.16183376312256,-23.6283760070801,-32.6952171325684,0.97066485881805,0.67317348718643,0.26328292489052,-0.40927970409393,-0.78251838684082,-1.91017556190491,-11.226411819458,-4.05817174911499,13.2423295974731,-6.14112758636475,-5.54497098922729,-1.30962836742401,6.53381443023682,1.5112806558609,-4.08546686172485,45.1115493774414,47.4722328186035,15.2486705780029,-1.89551484584808,-1.04824471473694,0.59742623567581,3.1991012096405,3.08914566040039,2.2479841709137,8.59278964996338,-1.9632453918457,-10.2878847122192,1.24019646644592,2.33674097061157,-2.43011474609375,SHAKE
-1.76478970050812,2.36710286140442,5.34629249572754,-32.6952171325684,-23.6954135894775,-10.3812589645386,0.26328292489052,0.16798794269562,-0.42210787534714,-1.91017556190491,-2.78188037872314,-1.30664074420929,13.2423295974731,29.1853179931641,32.149341583252,-1.30962836742401,-0.70628952980042,-3.40934324264526,-4.08546686172485,-5.95715808868408,-5.9339451789856,15.2486705780029,-0.40940847992897,-6.57926607131958,0.59742623567581,1.75745928287506,1.21501100063324,2.2479841709137,0.13316862285137,-1.06473815441132,-10.2878847122192,-12.619836807251,-10.9558668136597,-2.43011474609375,-11.3078145980835,-12.9047470092773,4.87959146499634,7.16789293289185,7.72744512557983,-14.9685487747192,3.2776620388031,34.368766784668,0.56566119194031,0.09468411654234,-1.28953647613525,-2.99934840202332,0.06414084881544,2.31762266159058,31.3975620269775,25.8813209533691,12.4091472625732,3.52187061309814,-1.38624274730682,1.35032975673676,-5.29559087753296,-5.02986431121826,-3.40313029289246,-4.53222370147705,-14.8057432174683,-28.3760776519775,2.17590188980103,2.06472444534302,1.20768058300018,-0.06536258012056,-0.80206608772278,-1.26998889446259,-10.7379941940308,-8.04212379455566,3.68228220939636,-7.18260526657104,-9.56723022460938,-8.13789176940918,6.96447467803955,5.52038908004761,-0.08185594528913,24.5477504730225,51.5639228820801,30.4781875610352,-0.2767219543457,-0.8344419002533,-0.61758476495743,2.02868342399597,2.47400426864624,2.20216917991638,16.6564617156982,4.10366153717041,-6.82586908340454,-4.75967311859131,-2.31040453910828,-2.77487969398499,SHAKE
-3.40313029289246,0.08063421398401,3.83073592185974,-28.3760776519775,-27.6650009155273,-14.2574710845947,1.20768058300018,0.1991420686245,-0.1600466966629,-1.26998889446259,-2.14413690567017,-2.33655953407288,3.68228220939636,20.8080062866211,30.0592021942139,-8.13789176940918,-0.24660277366638,4.88656568527222,-0.08185594528913,-3.87899422645569,-5.16058969497681,30.4781875610352,11.4466781616211,4.11084413528442,-0.61758476495743,0.00916297826916,0.24007004499435,2.20216917991638,2.12703275680542,0.94561940431595,-6.82586908340454,-11.4107656478882,-9.87368774414062,-2.77487969398499,-7.72369480133057,-10.1250791549683,1.9223929643631,5.71036815643311,7.85389423370361,-25.7687931060791,-9.8593225479126,20.9564476013184,0.09040805697441,0.13561208546162,-2.04700946807861,-3.75132346153259,-2.12825441360474,2.09832215309143,27.7918930053711,29.0177249908447,14.5112562179565,2.49475812911987,-7.50582218170166,-5.01106405258179,-6.32612037658691,-6.96264219284058,-6.08788299560547,0.38307225704193,-12.2247934341431,-30.0687789916992,1.70553576946259,2.56991004943848,1.97920334339142,0.69027775526047,-1.26143670082092,-1.46668744087219,-10.6853218078613,-9.45230865478516,-3.94803857803345,-4.49870491027832,-8.77953720092773,-6.44279670715332,7.83556842803955,7.2448616027832,2.77943682670593,16.9413719177246,47.4746246337891,42.4180717468262,-0.04153883829713,-0.89247411489487,-1.61207342147827,0.59131753444672,1.87169110774994,1.90040183067322,23.1782665252686,11.6549739837646,0.35913026332855,-4.44124412536621,-5.41089582443237,-0.97922849655151,SHAKE
-2.713463306427,1.92483639717102,5.64744901657104,-36.6719856262207,-25.5365562438965,-11.1593742370605,1.21256756782532,1.13559854030609,0.85643309354782,-2.32312059402466,-3.06226754188538,-2.27302956581116,9.01177501678467,26.9826526641846,31.1964473724365,-3.22259545326233,0.75896191596985,-3.51708221435547,-2.55769276618958,-5.02314472198486,-5.70181608200073,16.1393127441406,2.92332029342651,-2.51870012283325,-1.39888143539429,-0.26267206668854,0.42821654677391,1.87963235378265,1.47462868690491,0.2425135076046,-6.63672733306885,-9.61990261077881,-9.67257499694824,-0.13886369764805,-4.50109910964966,-5.46835660934448,2.74828267097473,5.98403596878052,7.83434677124023,-21.0043315887451,-5.52821159362793,27.8541431427002,2.03540301322937,-0.1246165111661,-3.40740633010864,-4.17465305328369,-0.41355577111244,3.13862562179565,28.835765838623,26.9443454742432,10.8744640350342,-4.23055458068848,-15.0236158370972,-4.64714527130127,-6.68408727645874,-5.87469100952148,-2.19972586631775,-7.43399620056152,-26.9443454742432,-37.7182540893555,2.4245240688324,1.99630761146545,1.01709067821503,-0.95478236675262,-0.29871311783791,-1.15270268917084,-11.4083709716797,-7.09401941299438,6.63193893432617,-5.76523780822754,-8.39407157897949,-2.11886858940125,6.24731874465942,1.05557513237,-3.44650173187256,45.9471244812012,42.5904541015625,21.9117336273193,-1.02197754383087,-1.35856425762177,-0.85521131753922,2.21377563476563,1.72141826152802,1.40437924861908,10.3022499084473,-2.32716393470764,-10.7691192626953,-5.26484966278076,-1.98479318618774,-1.34314715862274,SHAKE
-2.19972586631775,2.54608631134033,6.12697839736938,-37.7182540893555,-28.8501300811768,-14.3388738632202,1.01709067821503,1.11299645900726,1.12704634666443,-1.15270268917084,-2.0256290435791,-1.22417390346527,6.63193893432617,25.6826019287109,33.133358001709,-2.11886858940125,4.00789356231689,-5.36780023574829,-3.44650173187256,-5.77878522872925,-6.31634664535522,21.9117336273193,4.54658889770508,-2.30801033973694,-0.85521131753922,0.13133603334427,0.60720002651215,1.40437924861908,0.67256265878677,-0.9523389339447,-10.7691192626953,-13.0938892364502,-11.9686145782471,-1.34314715862274,-4.07253694534302,-7.08923101425171,4.63280200958252,7.46782779693604,8.50141143798828,-21.3610668182373,-3.92888498306274,34.3017272949219,-0.02809980139136,-1.35001218318939,-2.68047666549683,-3.25041389465332,0.36774086952209,2.92421197891235,31.2754573822021,25.2133388519287,10.3764705657959,-2.22660756111145,-3.13401007652283,1.19710087776184,-6.42874574661255,-5.58636283874512,-2.71590685844421,-8.8872766494751,-23.4655704498291,-35.0966033935547,2.49721717834473,2.01280093193054,1.13865280151367,-0.54855698347092,-0.61514127254486,-1.96820783615112,-11.1521911621094,-4.04141235351563,11.3916120529175,-7.02698183059692,-7.32625722885132,-1.85311210155487,7.17949914932251,1.04213607311249,-4.52712249755859,55.1336784362793,46.4546966552734,14.9350299835205,-1.52288711071014,0.15577064454556,1.52044355869293,2.40131139755249,1.54365646839142,-0.59498274326324,-5.85861158370972,-11.7962322235107,-12.2319765090942,3.24653744697571,-0.25857377052307,-7.13950967788696,SHAKE
-5.45441579818726,-2.0146336555481,2.59862065315247,-27.3058700561523,-35.7310676574707,-25.3689613342285,0.66767573356628,0.11789698898792,0.68111473321915,-0.93584555387497,-1.8600846529007,-3.06532168388367,-2.64798712730408,11.8776350021362,28.2443981170654,-4.89374828338623,2.46602773666382,0.35913026332855,0.39706242084503,-4.19358968734741,-5.67188358306885,34.7039527893066,5.59524917602539,-5.85382318496704,-3.65297412872315,-1.09039449691772,1.6267341375351,2.57235360145569,1.77639615535736,-0.24801129102707,-6.36378812789917,-9.18655204772949,-9.78749656677246,10.6781396865845,8.25760173797607,-1.65918183326721,4.10867977142334,6.79037809371948,7.57900524139404,-18.1576251983643,1.02471828460693,30.5212841033936,1.43186807632446,0.19853121042252,-1.62612330913544,-2.48561072349548,-0.78740531206131,1.80327415466309,31.730354309082,28.5724029541016,15.5216093063354,-7.07007741928101,-9.82819843292236,-6.89530086517334,-6.41775035858154,-6.56619071960449,-5.81726980209351,-0.56503158807755,-7.97029733657837,-28.8501300811768,0.87109386920929,1.71103358268738,1.18752205371857,0.84665924310684,-1.00365161895752,-0.46609017252922,-14.2119808197021,-11.939884185791,-2.19069457054138,-2.9352912902832,-7.14908647537231,-4.00071096420288,8.12511825561523,6.55030822753906,1.38116633892059,23.8438549041748,47.6302490234375,35.0606880187988,-0.63957589864731,-2.72445893287659,-2.9046642780304,0.96699970960617,2.90588593482971,2.32373142242432,16.6181545257568,1.53947174549103,-7.50103378295898,-9.16739845275879,-0.30885201692581,5.564124584198,SHAKE
-5.85331058502197,-4.75375318527222,2.9358184337616,-7.21612405776978,-23.2788238525391,-26.7073192596436,1.21256756782532,0.61758476495743,1.14292883872986,-0.61819565296173,-1.03724920749664,-2.6523768901825,-8.20014095306396,0.38067805767059,18.9884128570557,-4.93923807144165,0.68234747648239,4.85304689407349,-2.95903134346008,-5.71953105926514,-6.7292914390564,26.7839336395264,8.2911205291748,-2.01112937927246,-2.34327912330627,-0.58032196760178,0.99326688051224,2.37993097305298,1.18019163608551,-0.12095131725073,-9.60553741455078,-10.9415016174316,-11.3317565917969,4.91529607772827,3.54341840744019,-0.9433154463768,4.93334770202637,7.83434677124023,7.9461350440979,-21.6579494476318,-0.53390699625015,36.4804496765137,0.95050632953644,-1.22295224666595,-3.58822250366211,-3.89732027053833,-0.54305922985077,2.84724283218384,32.2283477783203,26.7025318145752,12.717999458313,-11.7244052886963,-12.6437788009644,-1.12766897678375,-6.21127796173096,-6.15019130706787,-4.27422428131104,-2.51391172409058,-14.470555305481,-31.2754573822021,3.08548045158386,3.43489527702332,2.34877681732178,-0.52290064096451,-1.04030346870422,-0.4111123085022,-10.9941740036011,-9.22007083892822,-1.67833542823792,-3.85227060317993,-8.7675666809082,-7.32625722885132,5.12699222564697,0.064751714468,-4.15266180038452,45.6382713317871,35.2785606384277,13.6756801605225,-2.73850893974304,-0.66462141275406,1.47829389572144,2.09221339225769,1.22722828388214,0.68600165843964,3.05260705947876,-11.4969568252563,-11.9829797744751,1.73100781440735,6.49786329269409,-0.91458505392075,SHAKE
-5.89790391921997,-5.55154323577881,-2.82891702651978,2.48278713226318,-20.8463134765625,-34.3998908996582,2.3157901763916,1.55098688602448,0.8167268037796,-0.54367005825043,-0.35430184006691,-2.71529603004456,-10.8313684463501,-5.04697704315186,28.251579284668,-8.08761310577393,-6.55292987823486,2.94486808776855,2.49660634994507,-2.85946011543274,-5.53260660171509,45.3964576721191,21.1862907409668,3.79480957984924,-3.52957940101624,-1.97004044055939,0.63163465261459,2.7892107963562,2.5369234085083,2.27364039421082,-1.37906014919281,-10.3788642883301,-14.1664915084839,5.82030439376831,7.49385118484497,0.86430680751801,-0.88025683164597,3.9749002456665,8.7170467376709,-36.1213226318359,-21.9500408172607,27.5692329406738,0.2858849465847,-0.61941736936569,-2.27302956581116,-3.3457088470459,-1.39521622657776,2.11725902557373,32.3217239379883,30.3991794586182,16.2733898162842,-1.53947174549103,-5.54975938796997,1.58735573291779,-6.05306386947632,-6.24609708786011,-5.30658626556396,-0.3208230137825,-10.9008007049561,-26.5900039672852,1.53876960277557,1.554652094841,0.76785761117935,-0.11239920556545,-0.69516462087631,-0.66278880834579,-11.990161895752,-9.5217399597168,-0.72783732414246,-6.29435634613037,-7.80988597869873,-4.7213659286499,6.80626058578491,6.56924486160278,2.54181027412415,13.4745674133301,45.1833763122559,40.541015625,-1.35245561599731,-2.42574596405029,-2.18201065063477,0.94134336709976,2.72995686531067,2.53509068489075,20.0059490203857,7.96790313720703,-2.827552318573,-2.80361008644104,1.71664261817932,4.70700073242188,SHAKE
-2.20644521713257,1.89979088306427,5.03658390045166,-30.2770748138428,-20.9516582489014,-8.45632076263428,0.10812314599752,0.22846360504627,0.06291911751032,-1.6511687040329,-2.87167739868164,-2.39581346511841,14.8991174697876,30.150182723999,30.7295780181885,2.32716393470764,1.39581954479218,-5.4252610206604,-3.14045810699463,-5.35606670379639,-5.59124946594238,11.5568113327026,-1.47482824325562,-6.31111574172974,-0.80328780412674,1.21745443344116,2.52409529685974,2.35183119773865,1.8613064289093,0.17409659922123,-9.79467868804932,-11.5592060089111,-11.5256872177124,3.68707060813904,-2.90656089782715,-9.77552509307861,4.36035633087158,7.08359336853027,8.36274528503418,-16.5032329559326,0.02394201606512,30.38720703125,0.68355822563171,-1.04091441631317,-2.76416516304016,-3.5014796257019,0.39522981643677,2.7324001789093,32.8747825622559,28.5700092315674,12.1529674530029,-3.54102420806885,-7.45554399490356,2.43250894546509,-6.54908609390259,-6.38354158401489,-4.51918125152588,-0.80205756425858,-11.1689510345459,-28.0265254974365,2.2901337146759,1.22111964225769,0.01343903504312,-0.28344148397446,-0.38484510779381,-0.67195177078247,-12.3708400726318,-9.34217548370361,-0.16759411990643,-9.55525875091553,-10.0269165039063,-5.64073944091797,7.47882318496704,5.90156936645508,0.01282817032188,15.9860849380493,49.4474487304688,39.4372901916504,-0.68966686725616,-1.61879289150238,-1.77150917053223,1.38422060012817,2.16307377815247,2.39642429351807,19.9484882354736,7.53934097290039,-3.5769374370575,-4.97515106201172,-2.88022470474243,1.09415018558502,SHAKE
-2.84541034698486,1.64261662960052,5.50328493118286,-36.0399169921875,-27.7176723480225,-11.7124347686768,0.20097467303276,0.24190263450146,0.22113321721554,-1.5845844745636,-2.64626812934875,-2.84907555580139,5.16908168792725,24.5908451080322,34.5243873596191,-2.58334374427795,-0.63925182819366,-0.59615623950958,-0.5412266254425,-4.61936283111572,-5.99197721481323,32.7263412475586,9.6989107131958,-1.01753568649292,-1.16491997241974,0.47525316476822,1.31824719905853,2.9669725894928,1.74524199962616,-0.50701814889908,-12.2535238265991,-14.1904335021973,-12.7994022369385,2.29125094413757,-3.61285042762756,-8.18816947937012,4.04942560195923,6.89117097854614,8.06891918182373,-17.2861366271973,0.83318221569061,36.3583488464355,-0.47525316476822,-0.57238072156906,-0.96944314241409,-2.89427947998047,-0.34880405664444,2.20400190353394,31.981746673584,26.1662311553955,12.5120983123779,3.82832860946655,1.56101953983307,-1.48919343948364,-6.17218255996704,-6.23021459579468,-4.7904052734375,-5.39653062820435,-16.7665939331055,-36.0734367370605,2.3157901763916,2.12214589118958,1.35734260082245,-1.07756626605988,-1.97492730617523,-2.51859736442566,-8.48505115509033,6.74446630477905,23.0561618804932,-6.45955610275269,-7.6877818107605,-3.94803857803345,5.64134073257446,-0.50946164131165,-5.01398181915283,57.4153518676758,28.2611560821533,3.16513466835022,-1.74524199962616,-1.47157442569733,-0.23212879896164,2.08427214622498,1.95599055290222,2.22416043281555,0.89543145895004,-9.46906757354736,-14.5112562179565,1.52031803131104,2.46842193603516,-1.11090958118439,SHAKE
-3.28034639358521,0.4758640229702,4.01582813262939,-28.9626579284668,-27.3417835235596,-15.8615865707397,-0.14599679410458,-0.76052725315094,-0.53756141662598,-0.5894849896431,-1.84175872802734,-2.85884928703308,1.63763391971588,15.6030120849609,26.941951751709,-4.26646757125854,0.87388360500336,5.61200857162476,0.3720169365406,-6.07566595077515,-6.30535125732422,42.1211891174316,0.38067805767059,-4.07493114471436,-0.91141092777252,0.097127571702,0.69821900129318,2.19361710548401,1.64872527122498,-0.28893926739693,-10.2615480422974,-12.4043588638306,-11.4418897628784,-1.32878196239471,-4.65193367004395,-6.75883150100708,3.79408407211304,7.13979291915894,9.05729866027832,-22.8933563232422,-9.19612884521484,20.5637989044189,0.92973691225052,0.54916787147522,-1.16553092002869,-4.66456699371338,-2.09221339225769,2.02135300636292,31.1413822174072,32.2427139282227,20.2214279174805,0.90500825643539,-7.07486581802368,-1.06781399250031,-5.89057350158691,-6.16851711273193,-5.41409873962402,-0.50038814544678,-8.89685344696045,-22.3642387390137,1.90895390510559,2.15574336051941,1.47951567173004,0.45631635189056,-0.88086766004562,-0.53878313302994,-10.6230726242065,-9.77073669433594,-5.35343503952026,-3.98634576797485,-7.40287160873413,-7.07007741928101,6.83069515228271,7.80319261550903,4.67556238174438,0.96486330032349,35.2282829284668,58.6842765808105,-0.55771994590759,-2.05739402770996,-2.24248623847961,-0.00305432616733,2.84052348136902,2.81120181083679,22.862232208252,10.675745010376,-0.68234747648239,-6.90727186203003,-1.63284552097321,2.18830037117004,SHAKE
-4.45626211166382,-0.63407814502716,3.82707071304321,-32.1876487731934,-34.6321258544922,-16.9030647277832,0.47952923178673,-0.27977627515793,-0.65240406990051,-1.54854345321655,-2.70552206039429,-2.88878178596497,5.70777702331543,23.8127307891846,31.7662677764893,-6.86417627334595,-1.56101953983307,3.79480957984924,-1.04702305793762,-4.86798524856567,-5.65600109100342,30.8612594604492,4.72615432739258,-3.86663579940796,-1.05557513237,0.67317348718643,1.70248138904572,3.05982398986816,1.70797920227051,-0.36041048169136,-10.0652236938477,-13.3117618560791,-11.9853734970093,2.49475812911987,-3.56496644020081,-9.6989107131958,3.55767917633057,5.41654205322266,5.9339451789856,-12.294225692749,4.39096593856812,28.644229888916,-1.08856189250946,-2.45262384414673,-1.05374252796173,-1.69698369503021,3.28462243080139,2.59067940711975,37.1484336853027,9.53610515594482,-5.86100578308105,2.2361843585968,8.68376922607422,8.61433792114258,-4.57782411575317,-2.39581346511841,0.80206608772278,-19.3451499938965,-26.6642246246338,-21.0019378662109,0.78801614046097,-0.70493847131729,-1.35795342922211,-0.37995818257332,-0.74464476108551,-1.24372160434723,-3.49792861938477,14.2909898757935,34.1437110900879,-9.56483554840088,-1.05344879627228,10.2328176498413,4.25834178924561,-1.92666900157928,-4.83805274963379,49.394775390625,14.9972791671753,1.47961664199829,-0.85948741436005,0.25167647004128,1.63284277915955,2.77638244628906,2.22965812683105,0.7183775305748,-4.17309379577637,-14.3819694519043,-18.1073474884033,1.94648599624634,-2.59531474113464,-9.71327590942383,SHAKE
-2.39581346511841,0.80206608772278,3.84600758552551,-26.6642246246338,-21.0019378662109,-8.97586250305176,-0.70493847131729,-1.35795342922211,-0.87292641401291,-0.74464476108551,-1.24372160434723,-1.23394775390625,14.2909898757935,34.1437110900879,35.819652557373,-1.05344879627228,10.2328176498413,10.0795888900757,-1.92666900157928,-4.83805274963379,-5.27665376663208,14.9972791671753,1.47961664199829,-6.36378812789917,0.25167647004128,1.63284277915955,1.90589952468872,2.22965812683105,0.7183775305748,-0.62124997377396,-14.3819694519043,-18.1073474884033,-15.0499515533447,-2.59531474113464,-9.71327590942383,-15.0906534194946,3.71161723136902,5.76901149749756,6.81725597381592,-11.0851535797119,2.64559292793274,34.8116912841797,-1.22050881385803,-1.20096111297607,-1.25532805919647,-2.4990496635437,0.37323865294456,2.71285247802734,38.690299987793,26.2548160552979,9.70848751068115,7.82425117492676,7.508216381073,5.59285497665405,-5.71953105926514,-4.84843730926514,-2.90283155441284,-9.84735202789307,-18.2964897155762,-26.4439582824707,2.22477126121521,0.80756384134293,-0.46547931432724,-0.58276546001434,-0.89308500289917,-1.67071640491486,-13.7570829391479,-3.76607918739319,14.951789855957,-14.2167692184448,-8.08282470703125,0.54108959436417,6.0793309211731,1.67621421813965,-3.65541768074036,35.0511131286621,46.107536315918,16.9940433502197,-1.88207578659058,-1.0067058801651,1.05924034118652,2.91993594169617,2.86617970466614,1.65177965164185,7.91283655166626,-6.3087215423584,-15.2175464630127,3.03824186325073,4.86501789093018,-1.47243404388428,SHAKE
-1.23883473873138,2.04823112487793,4.40433835983276,-24.6937961578369,-18.7082920074463,-8.28393745422363,-0.72509706020355,-0.88697636127472,-0.63163465261459,-1.39155101776123,-2.15024566650391,-2.2968533039093,13.2088108062744,34.2083549499512,37.4740447998047,-0.49320554733276,6.09563732147217,5.59764337539673,-2.82586264610291,-5.39760541915894,-5.6370644569397,22.4815540313721,3.49553442001343,-6.30393314361572,1.67621421813965,2.68841791152954,1.53021740913391,0.77030110359192,-0.87536990642548,-0.70493847131729,-14.7937726974487,-17.5279502868652,-15.7466650009155,-0.79248076677322,-11.7507419586182,-13.1872625350952,4.53445291519165,6.04084634780884,6.71157646179199,-11.6980695724487,0.88106620311737,17.5925941467285,0.38362336158752,0.22357667982578,-2.08182883262634,-1.66094255447388,-1.17530477046967,1.42209434509277,42.7221336364746,37.8930320739746,18.5694274902344,2.4013843536377,-12.5001268386841,-7.85298156738281,-6.61933565139771,-6.30107498168945,-4.85149192810059,-1.36708915233612,-10.8936176300049,-23.5541572570801,1.22967171669006,1.77822875976563,1.40376830101013,-0.24007004499435,-0.77579885721207,-0.62980204820633,-19.5917530059814,-15.0403747558594,-3.48356342315674,-2.2553379535675,-4.94402647018433,-5.19062948226929,6.12086963653564,6.4629545211792,2.76905226707459,6.42603731155396,37.7421951293945,50.5439910888672,-1.90223431587219,-1.92056035995483,-0.94561940431595,1.52716314792633,2.91260552406311,1.78311562538147,23.1040458679199,7.09641361236572,-6.83305168151855,1.91775560379028,3.3925838470459,4.30956315994263,SHAKE
-4.85760021209717,-2.93215322494507,0.20097467303276,-18.5909767150879,-26.4822654724121,-18.0522804260254,1.71469879150391,1.11910510063171,-0.3158173263073,-0.72815138101578,-0.75319683551788,-0.59620445966721,-0.89064306020737,21.5597858428955,37.021541595459,-4.89614248275757,-6.41885471343994,-1.08936178684235,3.01950693130493,-2.14719128608704,-4.80262279510498,38.7956428527832,10.5057573318481,-6.1890115737915,-1.39888143539429,0.11789698898792,1.63039934635162,0.81367248296738,0.69333207607269,0.57910025119781,-8.97346782684326,-18.176778793335,-16.9916496276855,6.65109252929688,1.7788919210434,-5.55694198608398,2.36465930938721,5.0426926612854,5.92661476135254,-14.2407121658325,0.72783732414246,18.2581825256348,-0.69699722528458,-1.10505521297455,-1.63406455516815,-1.09222710132599,-0.18448130786419,1.94377315044403,38.4365158081055,27.9714584350586,12.4474544525146,2.87783050537109,1.60650932788849,3.00951147079468,-5.04147100448608,-3.95901775360107,-2.98774194717407,-10.3908357620239,-10.3716821670532,-22.3953628540039,1.16797435283661,1.39155101776123,1.30847334861755,0.09896016865969,-0.36346483230591,-0.9957103729248,-15.0762882232666,-8.71010589599609,11.2910556793213,-3.39497804641724,-4.70939493179321,-5.36301183700562,6.18073463439941,2.17956709861755,-3.05066108703613,27.3417835235596,44.4746894836426,17.1017818450928,-2.07694172859192,-1.16064393520355,0.55038958787918,1.63589715957642,1.1844676733017,0.94928461313248,10.1609916687012,-4.19464159011841,-15.4282360076904,6.33505773544312,7.52018737792969,4.76685571670532,SHAKE
-4.90646982192993,-4.14655351638794,-1.74402022361755,-6.62954473495483,-17.7027282714844,-31.5196647644043,2.19300627708435,1.32924282550812,0.83993971347809,-0.19181168079376,-1.12277030944824,-1.81182634830475,-14.2478942871094,17.0515041351318,36.4541168212891,-5.36780023574829,-2.00155258178711,1.59214413166046,0.84238314628601,-4.32187175750732,-5.77756357192993,43.2249183654785,11.8369331359863,-2.23857855796814,-2.39275908470154,-0.79045963287354,0.70249503850937,1.37872290611267,0.36713001132011,0.10140363126993,-6.36857652664185,-18.5981578826904,-21.222204208374,6.56729507446289,5.10204362869263,2.60249733924866,2.55463838577271,6.71768522262573,7.80685806274414,-32.798168182373,-7.12993288040161,14.8823575973511,0.51923543214798,-1.08367490768433,-2.35366368293762,-0.86132001876831,0.52290064096451,1.10627698898315,42.2121696472168,27.9068145751953,9.95269680023193,-10.4099893569946,-9.51216316223144,-5.3175220489502,-6.05795049667358,-5.41837453842163,-2.91565990447998,-5.16189908981323,-18.4545059204102,-33.9713287353516,1.92911243438721,1.97370564937592,1.61329507827759,-0.49174651503563,-0.14782938361168,-0.62552601099014,-15.7562417984009,-3.99831676483154,19.7761058807373,0.53869539499283,-0.7781155705452,-2.68868851661682,5.11049842834473,1.60352122783661,-3.07815003395081,33.1046257019043,34.6512794494629,9.94072532653809,-2.36832451820374,-1.28587138652802,0.23335053026676,1.61696028709412,0.5717698931694,-0.097127571702,7.60637903213501,-6.85699367523193,-16.3667621612549,4.95360326766968,5.89213037490845,2.63841032981873,SHAKE
-5.41837453842163,-2.91565990447998,1.52716314792633,-18.4545059204102,-33.9713287353516,-26.9227981567383,1.97370564937592,1.61329507827759,0.65484756231308,-0.14782938361168,-0.62552601099014,-0.7189884185791,-3.99831676483154,19.7761058807373,35.7310676574707,-0.7781155705452,-2.68868851661682,-2.86825370788574,1.60352122783661,-3.07815003395081,-4.82583522796631,34.6512794494629,9.94072532653809,-0.77093297243118,-1.28587138652802,0.23335053026676,1.16186571121216,0.5717698931694,-0.097127571702,-0.54367005825043,-6.85699367523193,-16.3667621612549,-17.1999454498291,5.89213037490845,2.63841032981873,2.50194072723389,2.57052087783813,6.0970458984375,6.83680391311646,-24.1359481811523,0.68953007459641,17.2334632873535,1.3322970867157,-0.63468897342682,-4.10318183898926,-1.38422060012817,-0.74586647748947,1.53693699836731,38.4245414733887,35.8435935974121,-1.49398183822632,-9.44033718109131,-11.0133275985718,12.9215068817139,-5.74152231216431,-3.19849038124084,1.1856894493103,-21.7178039550781,-32.9705505371094,-25.2348861694336,4.06652975082397,3.68229579925537,2.65054440498352,1.55709552764893,0.93279123306274,-0.24678955972195,-6.52419948577881,15.5503396987915,34.8332405090332,-6.37097072601318,-12.7730665206909,-22.1104526519775,2.77516078948975,-2.11053943634033,-4.93762397766113,41.0270385742188,17.7865238189697,2.57855534553528,-3.48437547683716,-3.15084290504456,-1.29992127418518,-0.47158795595169,-0.61330872774124,0.25350907444954,-7.97747993469238,-17.7817363739014,-17.6739978790283,6.56250667572021,13.8528509140015,17.1233310699463,SHAKE
-5.4024920463562,-5.03841638565063,-2.9236011505127,-3.96958637237549,-20.4345111846924,-34.2251129150391,1.65361225605011,3.45016694068909,3.47765588760376,0.48808133602142,-0.00061086524511,-0.72082096338272,-15.2869777679443,-4.76924991607666,17.767370223999,7.36695861816406,-2.89937829971313,-11.1210670471191,5.40554666519165,2.09343528747559,-2.97308111190796,37.2681427001953,35.4772796630859,11.1474027633667,-3.43061923980713,-1.91933858394623,-0.34147366881371,1.12704634666443,-0.34452798962593,-0.53878313302994,6.94797325134277,-6.89051246643066,-16.3356380462646,10.0293111801147,9.37329959869385,8.68855762481689,-2.45445656776428,5.36767292022705,6.89911222457886,-32.3815765380859,-0.92655605077744,23.4751472473145,1.42575943470001,-0.62308257818222,-2.42757844924927,-1.15025925636292,-0.48808133602142,1.37383592128754,39.6264305114746,33.3296813964844,18.1600208282471,-8.43477249145508,-7.32146883010864,0.37828385829926,-5.73846817016602,-5.34446001052856,-4.00727605819702,-2.86107110977173,-8.32703304290771,-25.70654296875,0.88636547327042,1.61146247386932,1.6523904800415,-0.08979719132185,-0.01832595653832,-0.81122905015945,-19.3475437164307,-13.7379293441772,4.80755710601807,3.66312861442566,-0.22266076505184,-1.67833542823792,6.52159738540649,3.64747643470764,-2.24370813369751,24.3370609283447,49.0667686462402,25.076868057251,-2.64260315895081,-2.02624011039734,-0.31887164711952,1.48379170894623,0.54428094625473,-0.01527163106948,14.0994539260864,-3.55538964271545,-17.7625827789307,3.16752886772156,9.50737476348877,10.6350440979004,SHAKE
-2.81792140007019,1.99447500705719,5.90218019485474,-36.0231590270996,-29.0296955108643,-5.26484966278076,2.31334662437439,1.88513016700745,-0.11850785464048,-0.75014251470566,-1.15331363677979,-0.97738438844681,8.63588523864746,37.5171394348145,43.4667320251465,-2.88261890411377,-9.30626201629639,-13.4434423446655,-2.97002673149109,-5.82154560089111,-6.10926342010498,20.4033870697021,1.92972660064697,-4.55616569519043,-1.80755031108856,1.56809103488922,3.48498630523682,1.52899575233459,1.0867292881012,-0.08674286305904,-18.8303966522217,-23.5445804595947,-21.4496536254883,14.1952219009399,5.24330186843872,-5.77960300445557,5.36645126342773,7.32855033874512,6.91316175460815,-10.5081510543823,12.3181676864624,35.1373023986816,0.08002334833145,-1.81365895271301,-2.68658542633057,-1.47157442569733,1.06046211719513,2.40497636795044,42.9902839660645,29.1709537506104,11.0300874710083,-9.57441234588623,-2.32237553596497,1.82198750972748,-5.79039144515991,-5.0634617805481,-3.04271984100342,-7.07486581802368,-16.7306823730469,-27.1478538513184,1.55709552764893,1.31702542304993,1.43370068073273,-0.28710666298866,0.21930062770844,-0.76052725315094,-16.4194355010986,-9.56723022460938,9.50258636474609,-3.08133769035339,-0.51714754104614,1.10851538181305,6.55030822753906,4.78735113143921,-1.03847086429596,26.1638355255127,49.1361999511719,22.4360637664795,-3.91564631462097,-4.22474384307861,-2.03540301322937,2.07144403457642,2.08366131782532,0.83688539266586,13.7546892166138,-1.31441676616669,-13.4123182296753,0.86909520626068,12.1146602630615,12.1266317367554,SHAKE
-5.00420808792114,-2.98957443237305,-0.48075094819069,-10.788272857666,-18.1695976257324,-27.813440322876,2.7947084903717,3.34387636184692,2.89183616638184,0.98837995529175,0.38240164518356,-0.805120408535,-13.6613149642944,-2.41096115112305,20.4991550445557,1.93451499938965,-4.44363832473755,-9.83777523040772,4.57660245895386,-0.40317106246948,-4.17343139648438,42.0709114074707,33.5020637512207,10.5464582443237,-3.13312792778015,-1.85397601127625,0.07696902006865,0.84482663869858,0.1795943826437,1.02381014823914,7.29273843765259,-18.013973236084,-19.0746040344238,3.74453139305115,12.1242370605469,13.883975982666,2.82219743728638,5.62057113647461,6.30046415328979,-23.3650150299072,-3.72537779808044,11.2551422119141,1.47829389572144,-2.16307377815247,-4.30782175064087,-1.89551484584808,-0.43921211361885,1.66644036769867,41.1922416687012,35.5586853027344,18.7873001098633,-18.7537822723389,-14.0491752624512,4.15872812271118,-5.93883180618286,-3.80507969856262,-0.69944071769714,-4.40533113479614,-24.1143989562988,-32.3456649780273,3.51614046096802,3.41107153892517,2.30662727355957,-0.14660765230656,-0.601702272892,-0.76969021558762,-16.34521484375,-3.8379054069519,18.9668655395508,-3.68228220939636,-8.01578712463379,-4.48194551467896,6.71157646179199,1.22600650787354,-3.95229816436768,49.227180480957,42.8322677612305,11.8656635284424,-1.8301522731781,-1.10749864578247,-0.29626965522766,2.39764618873596,0.94623029232025,0.08002334833145,10.582371711731,-2.827552318573,-14.5471696853638,1.9943699836731,1.80283391475677,-1.93451499938965,SHAKE
-3.24980306625366,0.11423180252314,4.16854429244995,-27.0233554840088,-30.7846450805664,-13.3524627685547,2.31212496757507,2.84296679496765,1.95415794849396,-0.81978118419647,-1.10810959339142,-1.93216681480408,1.76692080497742,25.3761444091797,38.4508781433105,2.74614930152893,-1.15879356861115,-10.4363250732422,-0.13988813757896,-4.20825052261353,-5.65539026260376,28.6729602813721,8.95670890808105,-1.53228902816772,-2.47339344024658,-0.99265605211258,1.06657075881958,0.98104959726334,0.64263021945953,0.46914452314377,-8.81784439086914,-18.4233818054199,-18.2126922607422,5.88015937805176,6.18661737442017,1.48201084136963,1.98042511940002,5.64622735977173,7.2515811920166,-25.5820446014404,-5.832275390625,13.4913263320923,1.21256756782532,-0.60414570569992,-2.11176109313965,-1.75257241725922,-0.99754291772842,1.64078402519226,38.6160774230957,36.8180351257324,22.9005393981934,-5.64792203903198,-4.26167917251587,2.25773215293884,-5.7928352355957,-5.6859335899353,-5.03169679641724,-2.14999318122864,-6.81868648529053,-17.6835746765137,2.37687659263611,1.75990271568298,1.10383355617523,-0.10140363126993,-0.53633970022202,-1.10200095176697,-17.1017818450928,-10.144232749939,7.7069354057312,-8.77235507965088,-6.25365495681763,-3.4308910369873,7.21187496185303,-0.41783183813095,-4.59004163742065,28.7854862213135,26.2667865753174,5.28400325775146,-3.04210901260376,-1.94316232204437,0.38912117481232,2.58823609352112,1.93949711322784,1.14048540592194,-0.84754741191864,-11.6262435913086,-18.1360778808594,6.10281991958618,7.47230339050293,0.29927521944046,SHAKE
-5.6859335899353,-5.03169679641724,0.60292398929596,-6.81868648529053,-17.6835746765137,-28.0600433349609,1.75990271568298,1.10383355617523,0.63835418224335,-0.53633970022202,-1.10200095176697,-1.5534303188324,-10.144232749939,7.7069354057312,30.7104244232178,-6.25365495681763,-3.4308910369873,0.15801730751991,-0.41783183813095,-4.59004163742065,-5.61751699447632,26.2667865753174,5.28400325775146,-3.06697249412537,-1.94316232204437,0.38912117481232,2.15268921852112,1.93949711322784,1.14048540592194,-0.04276056587696,-11.6262435913086,-18.1360778808594,-16.8096904754639,7.47230339050293,0.29927521944046,-6.77798509597778,2.88450574874878,6.03657054901123,7.51486444473267,-18.2198753356934,1.06302559375763,34.3400344848633,0.80939644575119,-0.85948741436005,-2.57113170623779,-2.68719625473022,-0.10262536257505,2.44468259811401,37.2394142150879,28.3856544494629,13.7929964065552,-8.42519569396973,-4.30716896057129,0.98162269592285,-5.46907663345337,-5.31269502639771,-4.12639474868774,-1.5945383310318,-8.32463932037354,-24.6483058929443,2.62305545806885,2.01035761833191,1.12582468986511,-0.43127086758614,-0.83138757944107,-1.07267940044403,-16.1848030090332,-14.2550773620605,-2.73657250404358,-7.5776481628418,-8.5903959274292,-4.62320327758789,6.28091621398926,-0.41050145030022,-5.36584043502808,57.520694732666,46.6031379699707,12.9310836791992,-3.21070766448975,0.78251838684082,2.70491123199463,3.249192237854,1.28953647613525,-0.24312436580658,2.73657250404358,-19.632453918457,-20.8056125640869,4.49152231216431,3.44765043258667,-7.9343843460083,SHAKE
