gyro_x_0,gyro_y_0,gyro_z_0,acc_x_0,acc_y_0,acc_z_0,gyro_x_1,gyro_y_1,gyro_z_1,acc_x_1,acc_y_1,acc_z_1,gyro_x_2,gyro_y_2,gyro_z_2,acc_x_2,acc_y_2,acc_z_2,gyro_x_3,gyro_y_3,gyro_z_3,acc_x_3,acc_y_3,acc_z_3,gyro_x_4,gyro_y_4,gyro_z_4,acc_x_4,acc_y_4,acc_z_4,gyro_x_5,gyro_y_5,gyro_z_5,acc_x_5,acc_y_5,acc_z_5,gyro_x_6,gyro_y_6,gyro_z_6,acc_x_6,acc_y_6,acc_z_6,gyro_x_7,gyro_y_7,gyro_z_7,acc_x_7,acc_y_7,acc_z_7,gyro_x_8,gyro_y_8,gyro_z_8,acc_x_8,acc_y_8,acc_z_8,gyro_x_9,gyro_y_9,gyro_z_9,acc_x_9,acc_y_9,acc_z_9,gyro_x_10,gyro_y_10,gyro_z_10,acc_x_10,acc_y_10,acc_z_10,gyro_x_11,gyro_y_11,gyro_z_11,acc_x_11,acc_y_11,acc_z_11,gyro_x_12,gyro_y_12,gyro_z_12,acc_x_12,acc_y_12,acc_z_12,gyro_x_13,gyro_y_13,gyro_z_13,acc_x_13,acc_y_13,acc_z_13,gyro_x_14,gyro_y_14,gyro_z_14,acc_x_14,acc_y_14,acc_z_14,motion_type
1.74543583393097,2.67914009094238,3.0993869304657,-4.70939493179321,-4.70939493179321,-2.73657250404358,1.29163312911987,-0.05645901709795,-1.07591712474823,-1.2197277545929,-0.30626353621483,0.29134982824326,0.4525041282177,0.90500825643539,0.90500825643539,4.0964789390564,4.58729028701782,4.58729028701782,2.17953109741211,0.81918835639954,-1.08071076869965,11.7842607498169,19.9389114379883,23.408109664917,1.31347107887268,1.17498672008514,0.33236250281334,-2.09910368919373,-4.59182262420654,-3.77050352096558,3.48356342315674,4.13957452774048,-2.24336695671082,13.1321964263916,10.4435081481934,4.66629934310913,-10.3176193237305,-13.5677404403687,-17.4527606964111,50.0052947998047,49.6174354553223,44.0150032043457,-2.94172787666321,-1.62399566173553,0.27164244651794,2.48952293395996,0.99282646179199,-0.46978163719177,-54.0036125183105,-53.2135276794434,-49.0978927612305,9.39724159240723,12.0787477493286,16.891092300415,-14.3672218322754,-12.1131219863892,-8.37404346466064,25.165454864502,3.93606758117676,-7.97029733657837,0.24394555389881,-1.8620822429657,0.43409526348114,-1.43171548843384,-0.1209075152874,-0.38988679647446,-27.4734649658203,-21.6196422576904,-11.0612115859985,-2.61925673484802,7.87213516235352,16.9437656402588,1.60269033908844,1.15101826190948,0.87671262025833,1.76452660560608,1.43173265457153,0.25139117240906,1.33264589309692,0.31052458286285,0.14114753901958,-0.5438175201416,-0.04101268202066,0.03302319720387,-2.17154097557068,-0.05746084079146,-0.97444009780884,8.09718990325928,7.98226833343506,9.4235782623291,SWING_RIGHT
0.7190535068512,1.31506896018982,1.65009462833405,-2.65756392478943,-4.90571928024292,-3.004723072052,-0.16831178963184,-0.11558119207621,-1.37206065654755,-0.96779274940491,-0.11078750342131,0.72757560014725,-0.90500825643539,-1.42694425582886,-3.49074602127075,9.19612884521484,8.64067363739014,6.50025749206543,4.58809423446655,4.60780143737793,7.00251579284668,1.45328044891357,0.70628952980042,-2.20745396614075,-0.39947417378426,2.34251642227173,1.56167769432068,-3.63574767112732,-2.65197587013245,-0.94062852859497,0.36631286144257,5.86579418182373,9.57920074462891,25.9244155883789,24.3777618408203,9.83777523040772,-6.13965177536011,-10.5061702728271,-14.108362197876,51.0324096679688,52.6054000854492,50.3356971740723,-0.2370213419199,-0.33289512991905,0.20399814844131,2.4703483581543,2.43412923812866,2.26049113273621,-29.1829242706299,-40.541015625,-42.6670684814453,1.99676418304443,2.50672912597656,4.66869354248047,-17.2476959228516,-15.7398147583008,-14.6367340087891,26.2859401702881,30.8444995880127,27.3417835235596,0.83623260259628,-1.09615707397461,-1.77845895290375,-1.28311109542847,-1.61707139015198,-1.66287779808044,-47.9798011779785,-41.9296531677246,-37.6057243347168,2.98796367645264,0.56024318933487,10.0269165039063,0.43356263637543,2.84585404396057,3.72043609619141,-18.3491611480713,-8.11873817443848,1.53228902816772,2.4058997631073,2.16834568977356,1.59576618671417,-0.52411013841629,-0.3850930929184,-0.01651159860194,-4.77882671356201,-0.18674772977829,0.72544312477112,9.2440128326416,7.58722496032715,7.71411800384521,SWING_RIGHT
1.00294649600983,1.49776184558868,1.34329843521118,-1.21146607398987,-1.66157603263855,-0.05506663769484,0.27430561184883,0.14114753901958,0.02503371424973,0.27110978960991,0.2418150305748,0.20932446420193,1.80762231349945,1.60172092914581,1.51313543319702,8.6095495223999,8.14268016815186,7.95114374160767,1.62133252620697,1.23570680618286,1.76141476631165,-1.05823719501495,-0.46926352381706,-3.34948825836182,-2.0980384349823,-2.08099412918091,0.25992453098297,-0.03781688958406,-1.81041693687439,-3.76943826675415,0.74699091911316,0.74699091911316,7.9846625328064,8.7292594909668,8.7292594909668,20.8223724365234,-4.67118453979492,-7.79720306396484,-16.3880290985107,51.1162071228027,45.1019706726074,59.5054893493652,-2.17367219924927,-2.87301826477051,-1.63518095016479,1.57446086406708,4.35693168640137,3.06103730201721,-45.0492973327637,-50.4194946289063,-53.4720993041992,0.93852704763412,1.7788919210434,9.07641887664795,-16.7198581695557,-9.99058246612549,-7.7050576210022,16.6732215881348,4.4340615272522,6.65109252929688,2.73772954940796,2.82188558578491,4.37291049957275,0.04793690145016,0.26312032341957,0.10705907642841,-29.8724536895752,-22.0505981445313,-9.64623832702637,4.40772533416748,10.6661682128906,7.13232707977295,2.3718113899231,1.50788187980652,1.27299106121063,1.50355863571167,-2.4013843536377,-2.54024791717529,-2.47514200210571,-2.30576491355896,-1.86634337902069,0.40852892398834,-0.2498045116663,-0.55553543567657,0.11492168158293,-0.428562104702,-0.99359369277954,8.10437297821045,10.1992988586426,11.4849853515625,SWING_RIGHT
1.03490436077118,0.2290318608284,1.54516613483429,0.53630119562149,-0.90740245580673,-8.91361331939697,-1.66554093360901,-0.78403460979462,-0.27803403139114,0.28122982382774,-1.05354654788971,-1.41839957237244,-1.09654438495636,0.3016694188118,0.79966336488724,9.49540424346924,12.5168867111206,10.0197343826294,1.67725884914398,2.16674780845642,2.09963631629944,-0.17956513166428,2.83234071731567,5.32949304580688,-0.1368864774704,1.82213485240936,1.79017686843872,-3.030677318573,-1.58298301696777,-0.17736652493477,1.18512988090515,6.87135887145996,-1.944091796875,15.9525661468506,19.2350158691406,18.4138050079346,-12.4444189071655,-17.4527606964111,-17.4527606964111,41.5729179382324,48.0492324829102,41.6375617980957,2.2173478603363,3.93828272819519,4.18435859680176,3.06796169281006,1.28364372253418,2.86343097686768,-53.7809524536133,-50.1920433044434,-47.7236213684082,17.9900321960449,19.716251373291,12.0524110794067,-10.8939266204834,-8.32770442962646,-5.05414724349976,26.2356624603271,-2.44447994232178,-15.8615865707397,2.91616153717041,1.35821223258972,0.12303804606199,0.95873802900314,0.6615292429924,0.82557994127274,-35.5227699279785,-35.5227699279785,-9.96706199645996,-3.37582445144653,-3.37582445144653,5.01106405258179,4.59235525131226,2.63439893722534,1.76301264762878,-0.45968672633171,3.79480957984924,3.79480957984924,-1.47858703136444,-1.44449865818024,-0.60507023334503,0.34780883789063,-0.09640643000603,-0.04474110901356,3.67988801002502,2.11168599128723,1.50116443634033,6.53138208389282,9.76594829559326,10.582371711731,SWING_RIGHT
0.76379460096359,0.63702815771103,0.78882831335068,0.33758243918419,-0.49081134796143,-2.06380176544189,-0.11185276508331,-0.14860439300537,-0.53050172328949,-0.07669904083014,0.12144014984369,0.30892670154572,2.10450339317322,1.8171991109848,1.78128612041473,10.8385515213013,8.58081912994385,7.71890640258789,0.97311908006668,1.63305044174194,2.51508927345276,-2.61925673484802,-0.63446342945099,11.6286373138428,0.05592638254166,0.19600865244865,0.524642765522,-4.19394636154175,-3.47063159942627,0.61305969953537,4.34068775177002,3.69664740562439,0.29688102006912,11.0755767822266,15.7394819259644,14.7147636413574,-14.0071620941162,-17.4527606964111,-17.4527606964111,50.4937133789063,49.6653213500977,39.2122344970703,1.45195543766022,3.54200434684753,4.635498046875,0.24927188456059,-1.50308811664581,-1.08870029449463,-56.2565574645996,-52.3779487609863,-43.9359970092773,18.2653656005859,20.5637989044189,15.3947172164917,-10.1343936920166,-7.19106769561768,-4.06824493408203,-1.98718738555908,-5.0182466506958,-9.92636013031006,1.78698110580444,1.6314525604248,1.69749891757965,-0.01917476020753,0.07190535217524,-0.02396845072508,-22.5677452087402,-15.8496150970459,-9.51695156097412,6.93600225448608,7.66623401641846,7.88650035858154,2.39151859283447,1.71880424022675,1.30015528202057,-1.38145434856415,1.81001651287079,0.56742578744888,-1.98512029647827,-2.42134618759155,-2.22533750534058,0.16298545897007,0.19547602534294,-0.3435477912426,2.41096115112305,0.7493851184845,-0.13407529890537,6.6463041305542,8.99022769927979,11.5592060089111,SWING_RIGHT
4.31645154953003,3.90685749053955,3.40778088569641,0.29448682069778,0.29448682069778,1.71185421943665,1.29056787490845,0.60027652978897,0.02769687585533,-1.35821223258972,-0.56991648674011,-0.13795174658298,-3.66791701316834,-3.66791701316834,-2.53545951843262,7.52018737792969,7.52018737792969,7.05571222305298,4.06451654434204,2.9108350276947,1.93452024459839,8.5496940612793,15.2558536529541,18.7705421447754,-2.89379096031189,-2.50496935844421,2.65250849723816,1.09083080291748,-0.5693838596344,-2.52041578292847,1.75734400749207,-1.56580793857574,-10.7954559326172,11.1689510345459,23.2668514251709,22.4600067138672,-16.0838947296143,-17.4527606964111,-17.4527606964111,56.6372337341309,52.8017234802246,46.8377685546875,-2.02826356887817,1.24742472171783,1.86634337902069,3.44293475151062,1.20055305957794,-0.4548679292202,-71.9816741943359,-53.7067337036133,-43.320686340332,-2.43729734420776,10.9055891036987,5.22654247283936,-11.75892162323,-6.43366479873657,-2.28712272644043,9.60314273834228,-8.13070869445801,-19.0674228668213,0.34514567255974,1.60854935646057,2.51029562950134,-0.07190535217524,-0.16937704384327,-0.27803403139114,-25.3330478668213,-18.9716548919678,-12.0452289581299,12.1577558517456,11.4394960403442,8.63588523864746,4.08475637435913,3.1638355255127,2.16728043556213,2.37504816055298,3.71580100059509,2.73896670341492,-1.48604393005371,-1.43917226791382,-1.44875967502594,0.38562572002411,0.3499393761158,0.51558798551559,-0.06464344263077,-1.24259066581726,-2.05422496795654,10.2783079147339,10.6063137054443,10.6518030166626,SWING_RIGHT
3.71990346908569,4.00699234008789,3.58621287345886,-4.05817174911499,-2.16196417808533,1.01753568649292,-0.4293015897274,-0.23595607280731,-0.19973708689213,-0.76912093162537,-0.61732077598572,-0.40959417819977,-2.21942496299744,-2.45166254043579,-2.13802218437195,12.0595941543579,11.417947769165,10.9343194961548,2.03145933151245,1.70389044284821,2.50923037528992,7.18739366531372,5.79396820068359,5.62158536911011,-0.37710362672806,-0.4868258535862,-0.83942836523056,-3.15584588050842,-3.50045895576477,-2.30896067619324,-4.32632255554199,-1.36948335170746,-2.58334374427795,10.7906675338745,10.979808807373,14.2071924209595,-7.75405979156494,-11.8771657943726,-15.8878870010376,51.3699913024902,51.3699913024902,53.2398643493652,-1.93185710906982,-2.40483450889587,-0.58003652095795,0.61838603019714,3.84453940391541,3.2112398147583,-72.2857360839844,-78.4508056640625,-75.3024291992188,0.39743748307228,1.2449848651886,6.87135887145996,-17.4527606964111,-12.3064680099487,-7.99800539016724,22.5581684112549,2.60010313987732,-3.2585084438324,-1.92759609222412,-1.73478317260742,1.95316243171692,-0.37284255027771,0.3850930929184,-0.52411013841629,-36.2960968017578,-29.9969539642334,-14.923059463501,0.28012159466743,10.3884410858154,12.5049152374268,2.9619677066803,2.41175866127014,2.01974129676819,3.29920983314514,3.24414324760437,2.06859016418457,-1.95795607566834,-1.8407769203186,-1.25115311145782,1.35395109653473,0.81492727994919,0.00479369005188,-3.04781866073608,-3.30160403251648,-3.19865345954895,8.97586250305176,11.7555303573608,12.4187240600586,SWING_RIGHT
1.55315554141998,1.36300587654114,1.16646456718445,-0.75896191596985,-0.05506663769484,-0.49081134796143,-0.12996226549149,-0.13635385036469,-0.29294773936272,0.71692299842834,0.98856544494629,0.91985583305359,-1.29526317119598,-0.80924016237259,-0.10773907601833,10.9750204086304,10.2878847122192,8.58081912994385,2.161954164505,3.51697063446045,4.97904586791992,-1.78607451915741,-2.22660756111145,2.3702597618103,-2.782470703125,-3.75612258911133,3.22189235687256,-1.96807610988617,-1.18563938140869,1.84823381900787,-1.05823719501495,-1.13006317615509,-5.71495962142944,5.39892482757568,13.6708917617798,34.1389236450195,-14.1440486907959,-17.4527606964111,-17.4527606964111,58.047420501709,49.7155990600586,42.3390617370605,-2.35316920280457,1.32998263835907,5.07705020904541,3.41843366622925,4.7090015411377,1.58617877960205,-60.7169532775879,-54.8583450317383,-47.4770202636719,-3.94085597991943,14.8655986785889,17.0706577301025,-9.52026844024658,-4.76439523696899,-1.81734120845795,9.76115989685059,-9.01177501678467,-11.1162786483765,0.36325517296791,0.82451468706131,0.94382429122925,-0.1272991001606,-0.61039650440216,-0.71852087974548,-12.7395467758179,-8.19774627685547,-4.62559747695923,7.88410615921021,7.93917274475098,7.2807674407959,2.31854820251465,1.53025233745575,0.38775625824928,1.57777893543243,-0.01436521019787,3.73256039619446,-1.51161026954651,-0.76752305030823,-0.32810145616531,-0.07616640627384,-0.08735168725252,-0.51558798551559,-1.5179238319397,-2.37504816055298,-2.68390011787415,10.498574256897,12.1386022567749,11.3772468566895,SWING_RIGHT
2.1102888584137,1.978196144104,2.5433189868927,2.83234071731567,-1.23780226707459,-4.41969633102417,-0.7962851524353,-0.17257283627987,0.41545313596725,1.07325398921967,-0.40000680088997,-0.35739621520042,-3.14598107337952,-1.88184249401093,-1.60172092914581,5.91367816925049,14.7195520401001,10.4746322631836,1.89723598957062,3.7076530456543,4.0421462059021,-3.85705900192261,1.08457338809967,5.77481460571289,0.06391586363316,2.05596041679382,3.36357259750366,-2.92787933349609,-4.55080986022949,-4.43576097488403,2.47321033477783,7.15148067474365,7.76918458938599,16.7258930206299,22.3618431091309,16.2470531463623,-12.2372255325317,-15.1134395599365,-17.4527606964111,48.3939971923828,49.9502296447754,49.7371444702149,-1.20641195774078,-0.18961706757545,1.54143762588501,2.76968765258789,2.81815719604492,1.45408594608307,-53.6109657287598,-56.2541618347168,-56.2541618347168,11.4634380340576,12.9382658004761,12.9382658004761,-16.8567447662354,-14.9339427947998,-10.6270780563354,26.1470775604248,22.8047714233398,6.39012432098389,4.99023151397705,2.59604954719543,0.38456046581268,-0.67324715852737,-0.524642765522,0.388288885355,-36.0471000671387,-28.7543621063232,-22.0721454620361,4.7022123336792,1.37906014919281,5.31273365020752,2.35902810096741,2.69618439674377,2.37713766098022,-5.10204362869263,-1.59932672977448,1.84832370281219,0.49801114201546,-0.340351998806,-1.1004182100296,-0.280164539814,-0.15126755833626,0.22690132260323,3.12203907966614,2.79882168769836,0.65601128339767,6.72531270980835,6.4164605140686,7.55131196975708,SWING_RIGHT
-1.09935295581818,-1.15900778770447,-0.71798825263977,2.26970314979553,2.26970314979553,-2.43250894546509,0.23808661103249,0.25353294610977,0.24714136123657,0.36432045698166,0.14487597346306,-0.16884441673756,1.81959331035614,1.8674772977829,1.53707754611969,9.96227359771728,9.33738708496094,9.47146224975586,0.18322548270226,1.43863964080811,2.49165368080139,-4.88895988464355,-6.72052431106567,-5.26245546340942,1.06366658210754,0.25513082742691,0.83516734838486,0.1416801661253,-2.27700281143188,-3.66610765457153,1.91296720504761,2.71981310844421,9.32541561126709,7.86016416549683,8.24563026428223,10.5799770355225,-5.81261539459229,-11.458517074585,-14.2090301513672,42.2265357971191,44.4148368835449,44.5704574584961,-3.58088636398315,-2.13425731658936,-0.61678814888,1.01093602180481,-0.65194183588028,-0.46818372607231,-34.0623092651367,-43.9431762695313,-43.9431762695313,8.63827991485596,16.8096904754639,16.8096904754639,-8.32610702514648,-5.34443187713623,-2.36382174491882,7.76200199127197,-7.8266453742981,-13.5152683258057,2.23652267456055,1.22132575511932,0.56672066450119,0.15659387409687,0.3914846777916,0.45753109455109,-9.0452938079834,-9.0452938079834,-1.55144274234772,4.97275686264038,4.97275686264038,6.78995609283447,0.65620291233063,-0.26258769631386,-0.32064458727837,1.98958158493042,-2.64559292793274,-3.85466480255127,-0.80960100889206,-1.11906027793884,-0.66632294654846,-0.3307646214962,-0.08522115647793,-0.1097222417593,-2.26970314979553,-2.40377855300903,-1.92014980316162,6.34463453292847,8.95431423187256,10.5105457305908,SWING_RIGHT
1.3102753162384,1.20055305957794,0.95021587610245,0.86191260814667,0.91937345266342,3.05260705947876,0.04420847445726,0.32490566372871,0.19920445978642,-0.124103307724,-0.21518342196941,-0.32224249839783,1.53707754611969,2.03028297424316,2.48039293289185,12.294225692749,11.2910556793213,9.92875480651856,1.39869225025177,1.41946494579315,0.4996090233326,2.77966809272766,8.77235507965088,15.5910415649414,-0.12144014984369,-0.93636745214462,-0.49055427312851,-1.19788992404938,-1.85142958164215,-1.10148346424103,7.89368295669556,7.60637903213501,7.00303983688354,8.59278964996338,11.8848171234131,17.5518932342529,-7.59107446670532,-12.6058073043823,-17.4527606964111,48.4514579772949,49.9047393798828,43.2823791503906,-1.18457412719727,0.41065946221352,3.66504240036011,1.95049917697906,2.52947044372559,0.55819857120514,-47.2208404541016,-47.292667388916,-47.0340919494629,7.70932960510254,18.485631942749,17.2574062347412,-12.9573440551758,-8.13755512237549,-1.68471574783325,-2.95683908462524,-27.380090713501,-35.4892501831055,0.69721555709839,1.053013920784,2.49005556106567,0.30200245976448,1.35501635074615,0.6551376581192,-27.0472965240479,-16.7785663604736,-0.56024318933487,12.9286890029907,11.8345394134521,8.38210010528564,2.70523905754089,1.29642689228058,0.05752427875996,10.5799770355225,7.42441940307617,-1.54665434360504,-0.80747044086456,-0.64288711547852,-0.61625546216965,-0.10759171098471,-0.448476344347,-0.54008907079697,3.16034626960754,1.90339040756226,1.38145434856415,8.12113189697266,9.07641887664795,8.5712423324585,SWING_RIGHT
-0.00639158673584,0.18216022849083,0.2673813700676,0.40701428055763,0.3208230137825,1.34314715862274,-0.14594122767448,-0.06338323652744,-0.09054747968912,0.15233281254768,-0.2338255494833,-0.19174760580063,1.57777893543243,1.12048637866974,1.22104287147522,10.2591543197632,10.187328338623,9.61990261077881,1.26127314567566,1.89297497272491,3.09086489677429,-2.40617275238037,-3.42849683761597,-1.65678763389587,-0.76752305030823,0.35153725743294,1.13663721084595,-4.4773063659668,-3.26024198532104,-0.9827064871788,0.46447512507439,3.08852028846741,5.95198535919189,12.9406604766846,17.7338523864746,14.5711116790771,-7.93728542327881,-11.4244289398193,-15.5427408218384,37.5410842895508,47.4219512939453,52.2342987060547,-2.87301826477051,1.24529409408569,3.76091623306274,4.8075385093689,2.65144324302673,-0.73609775304794,-42.7317123413086,-41.4292678833008,-39.3678588867188,2.30322194099426,7.58483076095581,10.8936176300049,-11.9639854431152,-8.85767364501953,-2.22160911560059,4.4532151222229,4.4532151222229,-14.1688852310181,0.73716300725937,1.20002043247223,1.65968203544617,-0.80533993244171,-0.67910611629486,-0.31318774819374,-22.014684677124,-22.014684677124,-6.53377628326416,11.5256872177124,11.5256872177124,8.7077112197876,1.7811222076416,1.53185033798218,1.47113025188446,0.73980832099915,0.73262572288513,0.41419690847397,-1.57499349117279,-1.61121249198914,-1.19948780536652,0.05379585549235,-0.15712650120258,-0.39521312713623,-0.16519992053509,-0.53151279687881,-0.6033388376236,8.18338108062744,10.4889974594116,11.1785278320313,SWING_RIGHT
0.70733559131622,0.53209960460663,0.42290997505188,-0.42137950658798,-0.33997663855553,-0.40701428055763,-0.01225054077804,-0.52304482460022,-0.63436496257782,0.42077946662903,0.47883638739586,0.2418150305748,1.78846871852875,2.27927994728088,2.41335535049438,7.58004236221313,7.6877818107605,8.33900451660156,1.64157247543335,3.4850127696991,4.19447898864746,-4.03422975540161,-2.60249733924866,0.27293899655342,-1.46101021766663,-1.53983974456787,-1.0402307510376,-2.00908875465393,-2.78087282180786,-2.56941795349121,2.13083958625793,2.83952331542969,5.34385824203491,6.86417627334595,9.68454551696777,13.5272397994995,-2.26848077774048,-6.24830865859985,-10.7889986038208,46.8736801147461,49.4187164306641,55.5167503356934,-0.3531351685524,-0.00585895450786,1.43650913238525,1.38324594497681,3.35931158065796,3.45625042915344,-26.2165088653564,-40.943244934082,-35.8507766723633,10.9462900161743,9.93833160400391,11.5711765289307,-17.1395721435547,-16.9685974121094,-16.2207813262939,30.3991794586182,29.9179439544678,22.8335018157959,0.49801114201546,0.13635385036469,-0.66845345497131,-0.3179814517498,-1.39176797866821,-0.3371562063694,-38.8411331176758,-28.8501300811768,-29.599515914917,6.17225217819214,5.90410137176514,5.92325496673584,-4.21631669998169,-0.80054622888565,3.2101743221283,-9.57680702209473,-18.6699848175049,-4.2257661819458,4.30153799057007,2.84958243370056,-1.05194866657257,-0.56139439344406,-1.07272136211395,-0.39041942358017,-6.88332986831665,-0.88106620311737,1.27850365638733,3.63679242134094,0.77093297243118,2.70544791221619,SWING_RIGHT
0.74621772766113,0.89002847671509,1.17764985561371,0.96725749969482,0.10773907601833,-0.18195933103561,0.39734363555908,0.27483823895454,0.00372842559591,-0.12623383104801,0.3307646214962,0.65407240390778,2.21463656425476,2.32716393470764,2.93050289154053,10.158597946167,8.79390239715576,8.63827991485596,2.72441387176514,5.22192621231079,6.41821813583374,-2.92092609405518,-2.70544791221619,1.07260239124298,-2.13425731658936,0.58483016490936,2.04211187362671,-2.94652152061462,-4.64242267608643,-4.34148550033569,-2.29843354225159,3.26090264320374,3.67270541191101,17.4058456420898,24.9595527648926,16.9701023101807,-7.03021287918091,-9.03823661804199,-16.6958904266357,36.0135803222656,39.6384048461914,55.0307273864746,-2.20030379295349,-0.4868258535862,0.28495824337006,0.85540735721588,0.15606124699116,-1.65382301807404,-42.6742515563965,-40.3686332702637,-39.8778228759766,11.7698955535889,13.4003467559814,10.4099893569946,-16.0556659698486,-14.3176870346069,-11.1831464767456,27.7751331329346,16.4481658935547,2.72938990592957,-0.97524958848953,-0.82504731416702,0.09054747968912,-1.42266070842743,-0.29987195134163,0.86925578117371,-29.9658279418945,-27.9427280426025,-23.1950263977051,11.2623243331909,11.8632698059082,14.4250650405884,0.04101268202066,1.68897676467896,3.38541054725647,-11.0516347885132,-8.75320148468018,-0.7972691655159,1.05780756473541,-0.37763625383377,-1.50308811664581,-0.95820540189743,-0.58056914806366,0.01597896590829,-2.45166254043579,-1.05344879627228,-0.38786068558693,2.75572609901428,3.22498965263367,5.40371322631836,SWING_RIGHT
0.83463472127914,1.00294649600983,1.18084561824799,-1.0223240852356,-1.20667767524719,-1.20667767524719,-0.2306297570467,-0.44101947546005,-0.47457531094551,0.20719394087791,0.20453077554703,0.07030745595694,-0.41180267930031,-0.14844051003456,-0.32321724295616,9.37329959869385,9.0476884841919,9.32062721252441,1.89084446430206,2.07939624786377,2.69352126121521,-1.12766897678375,-1.91057300567627,-1.91296720504761,-0.67644292116165,-0.33768883347511,1.03224122524261,-0.32650354504585,-1.07272136211395,-3.21283769607544,0.54587799310684,1.73100781440735,5.77720880508423,12.2750720977783,11.8584814071655,17.7362461090088,-0.92092114686966,-5.33164882659912,-9.41427421569824,32.532413482666,38.9081726074219,38.9081726074219,-2.68180322647095,-3.41364002227783,-1.72146737575531,3.85465931892395,5.62885761260986,4.17104291915894,-20.3698673248291,-22.615629196167,-26.1207408905029,2.69587111473084,9.19852256774902,20.1065063476563,-13.9496383666992,-11.2688999176025,-10.8497180938721,21.2006568908691,21.4568347930908,20.3363494873047,6.57055139541626,5.40515184402466,2.57634210586548,0.53050172328949,0.06924218684435,-0.03408846259117,-32.6760635375977,-31.189266204834,-22.9196929931641,4.26407337188721,1.90099620819092,4.76924991607666,-0.49055427312851,1.45461857318878,2.96782684326172,-11.4993505477905,-9.13148498535156,-2.04943656921387,0.51771855354309,0.62158179283142,0.26045715808868,0.40480050444603,-0.24074976146221,-0.73343455791473,-3.5960910320282,-0.86670100688934,0.97683429718018,6.88572406768799,5.44920301437378,4.46758031845093,SWING_RIGHT
0.23915186524391,0.50387006998062,0.59761333465576,-0.39025488495827,-0.36152446269989,-0.49320554733276,-0.10546118021011,-0.01331580616534,-0.01225054077804,0.08948221802711,0.15073491632938,-0.12942963838577,0.23463176190853,0.23463176190853,-0.19153612852097,10.6302556991577,10.6302556991577,9.54568195343018,1.24050045013428,1.30707943439484,1.36247324943542,-0.1963245421648,0.24420857429504,0.7493851184845,0.3946804702282,0.28282770514488,-0.16831178963184,-1.74010944366455,-1.16539931297302,-0.41438788175583,-0.12449848651886,0.61052143573761,2.42532634735107,8.97346782684326,9.41400146484375,9.12669658660889,3.01576375961304,1.61174511909485,-5.75455856323242,11.1545858383179,26.6498584747314,49.9741706848145,-1.24476146697998,-1.63198518753052,0.2833603322506,-0.01544633507729,3.44293475151062,4.47943687438965,-1.82198750972748,-18.5766105651855,-36.1069564819336,20.0921401977539,8.86812305450439,16.266206741333,-15.4521932601929,-15.0793514251709,-14.2644233703613,32.7646484375,31.5100879669189,19.5558395385742,5.23364448547363,3.54200434684753,1.60482084751129,-1.99843609333038,-2.85863709449768,-3.09672379493713,-38.9512672424316,-34.6584625244141,-34.6584625244141,0.58179098367691,1.92014980316162,1.92014980316162,-5.16067361831665,-1.98032665252686,2.4314661026001,-9.39724159240723,-9.39724159240723,-10.3525285720825,0.41864892840385,1.8450380563736,2.77767705917358,1.95689082145691,1.61440825462341,1.27352368831635,-15.2845840454102,-15.2845840454102,-7.88410615921021,15.9118642807007,15.9118642807007,8.63109683990479,SWING_RIGHT
2.23385953903198,2.09430980682373,1.22239100933075,-1.38624274730682,0.30645781755447,0.18914192914963,1.75608849525452,1.48923969268799,0.32543829083443,-2.99499106407166,-2.21521735191345,-0.21145498752594,-3.7349545955658,-3.7349545955658,-3.94085597991943,10.8672819137573,10.8672819137573,6.75164890289307,4.90927124023438,2.94226050376892,0.87831056118011,6.12436771392822,29.3050289154053,44.8601570129395,0.32011196017265,-0.82824313640594,-1.70389044284821,-0.3946804702282,0.55926382541656,0.54967647790909,11.0803651809692,8.93037223815918,-3.3231520652771,2.68868851661682,2.61207413673401,5.216965675354,-13.61194896698,-15.6679096221924,-16.2548694610596,44.6351013183594,45.0253562927246,42.3175163269043,3.16969442367554,4.2844934463501,3.8269624710083,1.91428017616272,2.52254629135132,0.54914385080338,-47.2016868591309,-49.2678833007813,-41.2113952636719,16.0674877166748,12.6174430847168,6.02381134033203,-10.3522396087646,-7.81158447265625,-5.08131122589111,9.29668521881104,-1.29765737056732,-9.41160678863525,2.96143507957459,3.80246138572693,4.08369112014771,0.67324715852737,0.99921804666519,0.95394432544708,-24.5764808654785,-18.7465991973877,-12.816162109375,14.1664915084839,10.8624935150146,6.35899972915649,2.94705414772034,1.97766351699829,1.46207547187805,0.07422025501728,0.99359369277954,-1.22104287147522,-1.00347912311554,-1.87220227718353,-2.01068663597107,-0.11664646118879,-0.15606124699116,-0.15020228922367,2.50672912597656,1.10851538181305,-0.69192427396774,3.56496644020081,6.50983428955078,10.9582614898682,SWING_RIGHT
2.31268906593323,2.26848077774048,1.89084446430206,1.98718738555908,3.4117374420166,4.67827033996582,0.58110177516937,0.76485985517502,0.76752305030823,-0.43356263637543,-0.68603032827377,-0.74408721923828,-0.26336219906807,-0.02394201606512,0.64404028654099,11.0803651809692,10.4291429519653,10.704475402832,0.99921804666519,-0.21411815285683,-1.34170055389404,7.57046556472778,12.4163303375244,12.0356521606445,0.46445530653,0.14807176589966,-0.53582799434662,-0.15499597787857,-0.40852892398834,0.23276028037071,3.79480957984924,4.46758031845093,0.65361708402634,9.23204135894775,10.4578733444214,11.7363767623901,-5.72632884979248,-7.25338554382324,-9.46114635467529,21.1264362335205,27.0329322814941,27.0329322814941,1.39869225025177,1.43384599685669,2.12733316421509,-0.18801917135715,1.23623943328857,1.65808415412903,-14.2790193557739,-23.9084987640381,-24.9403991699219,20.9851779937744,15.389928817749,17.0993881225586,-13.7973051071167,-12.6596031188965,-11.8366861343384,24.8996982574463,26.6187343597412,17.4106349945068,5.03497266769409,4.44268560409546,2.37447452545166,0.12676647305489,-0.70413982868195,-0.77178412675858,-34.6153678894043,-34.6153678894043,-22.1367893218994,6.0788779258728,6.0788779258728,5.97832155227661,0.03941478580236,1.35981011390686,2.21947860717773,-8.83699893951416,-7.36695861816406,-5.44920301437378,0.3850930929184,0.16990968585014,-0.32224249839783,0.2210423797369,-0.15765914320946,-0.46498793363571,-3.5769374370575,-1.56101953983307,-1.32638776302338,9.31105041503906,8.32224464416504,7.48906278610229,SWING_RIGHT
1.71933686733246,2.69831490516663,3.20165228843689,-5.94240856170654,-5.21935987472534,-2.14520478248596,0.62531024217606,0.54275226593018,0.44794371724129,-1.53185033798218,-1.08017814159393,0.15233281254768,-1.05584299564362,-0.97444009780884,-1.05105459690094,9.32302188873291,10.4219598770142,9.93593692779541,0.33182987570763,1.91001915931702,3.06583118438721,0.53151279687881,-1.53947174549103,8.37970638275146,0.23116238415241,1.87646329402924,2.7393274307251,-3.0695595741272,-1.74969685077667,-2.19284677505493,-2.95205068588257,2.46363353729248,2.36547136306763,19.5941467285156,18.6173114776611,16.2925434112549,-11.6539936065674,-16.2516746520996,-17.4527606964111,60.616397857666,57.9133453369141,48.568775177002,-3.97183847427368,2.23545742034912,9.471266746521,2.13745307922363,3.8104510307312,-1.93558549880981,-66.3888168334961,-62.0840454101563,-72.5850143432617,28.3210124969482,38.2904663085938,4.41969633102417,-16.7592735290527,-14.1935834884644,-9.42013359069824,20.5470390319824,-0.28969839215279,-22.3953628540039,-4.13003015518188,0.49801114201546,3.339604139328,0.37444046139717,0.81972098350525,0.95714008808136,-47.3237915039063,-38.3144111633301,-30.7367610931396,33.9737205505371,32.6545181274414,16.5391445159912,7.52609348297119,7.12608671188354,5.61234569549561,0.80205756425858,6.52419948577881,12.1625442504883,1.82852649688721,-0.73556512594223,-1.59043979644775,0.35473304986954,-0.01491370238364,-0.06285060197115,5.1068320274353,9.27753162384033,7.80030918121338,-2.96162748336792,2.71023631095886,5.41089582443237,SWING_RIGHT
0.03355583176017,0.2306297570467,0.33609092235565,1.0989385843277,-0.01197100803256,0.25857377052307,-0.12942963838577,-0.1065264493227,-0.05699164792895,0.10226538777351,-0.04314320906997,-0.03781688958406,-0.18674772977829,-0.01675941236317,-0.14604631066322,9.78031349182129,10.1346559524536,10.498574256897,1.00880539417267,1.3401026725769,1.29110050201416,0.10295066982508,1.22104287147522,7.66862821578979,1.0189254283905,1.36779952049255,1.10574448108673,-1.25221836566925,-2.04264450073242,-3.13454055786133,1.15161097049713,1.39342534542084,0.68953007459641,15.114595413208,13.8504571914673,11.417947769165,-3.63734555244446,-8.3761739730835,-16.1568660736084,28.8309764862061,42.5952415466309,53.6947631835938,-1.62719142436981,0.64714813232422,2.49857783317566,0.98217380046844,1.82586324214935,0.55393749475479,-46.8904418945313,-50.4051284790039,-51.2143669128418,9.35175228118896,15.468936920166,14.046781539917,-16.4024085998535,-12.1536026000977,-9.28644275665283,28.6370468139648,7.46512079238892,7.46512079238892,0.78936094045639,0.90813797712326,1.96541297435761,-0.79095888137817,-0.44261738657951,0.33502566814423,-40.6511497497559,-32.9705505371094,-25.2229156494141,10.9534730911255,15.907075881958,17.3555679321289,3.6554548740387,4.18915224075317,2.94865202903748,-10.8672819137573,-3.1387984752655,6.04775333404541,-0.12783172726631,-0.96193379163742,-1.33477640151978,0.29454562067986,0.19600865244865,0.15126755833626,0.38067805767059,2.15956997871399,0.81402856111526,2.36307716369629,6.13394498825073,8.78432559967041,SWING_RIGHT
1.0231865644455,1.17658460140228,0.95341169834137,0.52672439813614,2.28885674476624,4.23294878005981,1.13184344768524,1.04395914077759,0.57737332582474,-1.37632167339325,-1.09668970108032,-0.9353021979332,1.53947174549103,1.98718738555908,2.49954652786255,10.2040872573853,8.51378154754639,7.6375036239624,2.10016894340515,1.84557068347931,-0.57630807161331,5.59046077728271,10.8146095275879,15.8208847045898,-0.19547602534294,0.4420847594738,0.29987195134163,-1.37312591075897,-2.76436138153076,-2.95291304588318,1.46046304702759,1.71424841880798,-0.4764461517334,16.0004501342773,16.8479976654053,14.4514017105103,-10.1706123352051,-13.2162036895752,-15.1581802368164,34.0790672302246,39.2553329467773,39.2553329467773,0.36964675784111,2.81655931472778,3.54253697395325,2.00216460227966,1.54729664325714,0.50600063800812,-37.5315055847168,-35.4198188781738,-33.576286315918,12.9023532867432,10.3429517745972,8.29830265045166,-12.7165946960449,-11.1288175582886,-7.51437568664551,19.1799507141113,-4.46518611907959,-20.2884654998779,2.30363440513611,2.69618439674377,2.87727928161621,-1.64796411991119,-0.23276028037071,0.70254188776016,-22.9292697906494,-17.659631729126,-12.8257389068604,15.799337387085,13.3045787811279,10.2854900360107,2.63706207275391,2.74891495704651,2.45064091682434,-2.37265396118164,0.36152446269989,1.98000478744507,0.23435817658901,-0.83569997549057,-1.6010924577713,0.38136467337608,0.3627225458622,-0.44101947546005,1.43891525268555,1.23540806770325,1.30005156993866,3.76368498802185,4.54898309707642,9.41400146484375,SWING_RIGHT
0.70999878644943,0.95234644412994,1.17338883876801,-3.45243883132935,-4.3837833404541,-4.44363832473755,-1.6996294260025,-1.5409049987793,-1.23304355144501,-2.61842012405396,-1.88498544692993,-0.57417756319046,-2.17393517494202,-2.87783050537109,-3.81156921386719,6.94557905197144,9.39005947113037,9.94312000274658,1.6953684091568,1.68791151046753,1.00880539417267,-0.35434186458588,6.2201361656189,12.6030778884888,1.6650083065033,2.286057472229,1.91161704063416,-1.66713881492615,-0.32650354504585,0.54861122369766,0.95049810409546,1.00556468963623,1.00556468963623,18.4473247528076,19.4648590087891,19.4648590087891,-10.1317300796509,-11.941614151001,-13.3360452651978,33.1692695617676,33.2746162414551,29.6306400299072,3.26876401901245,6.79905033111572,8.89655590057373,3.16969442367554,2.41229128837585,1.20268356800079,-34.2729988098145,-36.7390251159668,-37.538688659668,14.7267351150513,17.4369716644287,17.1879749298096,-11.3040533065796,-10.710168838501,-8.36126041412354,9.13866806030273,2.17393517494202,-6.66785192489624,-3.0993869304657,-2.00429511070251,0.10918960720301,0.87884318828583,1.90202963352203,1.85995173454285,-19.5438690185547,-16.1393127441406,-12.5504055023193,13.5200567245483,19.9365177154541,18.6867446899414,2.42827033996582,2.67221593856812,1.98512029647827,-4.97036266326904,-4.97036266326904,0.04788403213024,1.83704853057861,1.25967526435852,0.08096009492874,1.20907521247864,0.60453760623932,-0.30040457844734,1.39342534542084,2.74375510215759,2.15717577934265,2.76769709587097,2.26970314979553,3.26808524131775,SWING_RIGHT
0.54488277435303,0.45912897586823,0.80374205112457,0.99598789215088,1.01753568649292,-0.89782565832138,0.73876088857651,1.85089695453644,1.51480603218079,-1.22132575511932,-0.36325517296791,0.2418150305748,1.3718775510788,0.15322890877724,0.29209262132645,13.8241205215454,10.8098211288452,8.31745624542236,1.24476146697998,1.60428822040558,1.83704853057861,0.70150107145309,0.83078801631927,2.6934769153595,-0.13315805792809,-0.77977359294891,-1.68524837493896,-1.52386081218719,-3.68581509590149,-4.35267066955566,3.16513466835022,2.98078107833862,0.16519992053509,7.28316164016724,5.94959115982056,7.1419038772583,-4.73030662536621,-10.6973857879639,-14.5307397842407,30.937873840332,43.2919540405273,50.2111968994141,-1.85462546348572,1.13503932952881,3.32362508773804,0.94009590148926,2.66529178619385,1.28524160385132,-43.3230781555176,-51.1640892028809,-49.6677131652832,9.96466732025146,15.907075881958,14.3723926544189,-16.2516746520996,-14.952052116394,-13.2156705856323,19.6707611083984,17.1281185150146,11.9781913757324,-0.84475469589233,-0.60720074176788,0.03355583176017,-0.53369748592377,-1.32146060466766,-1.15527927875519,-31.9985065460205,-28.177360534668,-28.177360534668,9.18655204772949,14.8320798873901,14.8320798873901,1.44982492923737,2.77607917785645,3.42535781860352,-9.0668420791626,-6.60799646377563,-2.84191751480103,2.49484944343567,0.92464953660965,-0.80587255954742,0.804807305336,0.264185577631,-0.04793690145016,-2.10210919380188,3.23217225074768,2.87783050537109,6.01184034347534,4.02225875854492,6.01902294158936,SWING_RIGHT
-0.37284255027771,0.15233281254768,0.41065946221352,-1.92254400253296,-1.58256733417511,-0.91219085454941,0.00532632227987,-0.26791399717331,-0.324373036623,0.15712650120258,0.19547602534294,0.2705771625042,1.0989385843277,0.641646027565,0.641646027565,8.67419242858887,9.40681838989258,9.40681838989258,1.34809219837189,2.55610203742981,4.4773063659668,-3.3734302520752,-5.44920301437378,-0.86909520626068,0.73982614278793,1.07538449764252,0.63756078481674,-3.65598750114441,-4.22963237762451,-2.9411952495575,4.01028776168823,4.97515106201172,1.89620769023895,13.8265151977539,13.3883762359619,10.5416698455811,-8.61372852325439,-12.0310964584351,-17.4527606964111,47.101131439209,48.2934417724609,49.2104225158691,-2.87621402740479,-0.20506340265274,1.03224122524261,4.22696924209595,1.53398084640503,1.32785212993622,-64.8206176757813,-59.1224174499512,-52.1169815063477,4.2449197769165,7.56328296661377,7.12753868103027,-13.2598791122437,-8.60680389404297,-5.36413908004761,12.4474544525146,6.19140577316284,-13.0675525665283,1.87220227718353,1.97393500804901,1.63677883148193,0.45859634876251,0.47510793805122,-0.18855181336403,-21.143196105957,-21.143196105957,-4.56095409393311,9.77073669433594,9.77073669433594,6.16506958007813,1.18404150009155,0.40852892398834,-0.22690132260323,4.41490793228149,2.35350036621094,0.13407529890537,-1.49030494689941,-1.7555558681488,-1.76674115657806,-0.85487473011017,-0.86712527275085,-0.65567028522491,-2.559401512146,-3.17949986457825,-3.54581260681152,8.63349151611328,9.41160678863525,11.0085391998291,SWING_RIGHT
1.68151998519897,2.32973337173462,2.66156315803528,-1.04387199878693,-1.97042798995972,5.06613063812256,0.42077946662903,-0.01491370238364,-0.67271453142166,0.06444849818945,0.78829568624496,1.12651717662811,2.77966809272766,2.77966809272766,3.65115761756897,9.2057056427002,9.2057056427002,6.21295356750488,-0.2226402759552,-0.58163440227509,-1.60002720355988,5.20020627975464,5.20020627975464,16.0267868041992,-1.23464155197144,-1.51267552375793,-1.82213485240936,-3.78701519966125,-4.39687919616699,-3.05358052253723,0.54587799310684,-2.8012158870697,-9.27753162384033,7.79073238372803,8.6095495223999,10.1107139587402,-9.43451499938965,-13.6502990722656,-17.4527606964111,53.7306747436523,61.969123840332,59.5916786193848,-3.56597280502319,-1.95476031303406,1.04928553104401,4.76439523696899,6.25736331939697,3.86424684524536,-78.4508056640625,-78.4508056640625,-72.4174194335938,9.25837802886963,13.318943977356,21.4233169555664,-16.4817714691162,-13.2454986572266,-9.7056245803833,38.965633392334,7.1227502822876,-6.73967790603638,2.80058026313782,0.50227218866348,1.10361397266388,-0.86126631498337,-0.08415589481592,-0.04633900523186,-41.7189636230469,-26.2667865753174,-19.5749931335449,0.1268926858902,8.27436065673828,10.8098211288452,4.18968486785889,2.92308568954468,2.67221593856812,-4.16112232208252,-0.59376204013824,-3.03824186325073,0.70893347263336,0.47830373048782,0.24554345011711,0.16405072808266,-0.16884441673756,0.00532632227987,-0.12449848651886,0.11731588095427,0.10055647045374,5.93283176422119,6.68939971923828,6.40209531784058,SWING_RIGHT
-1.18723726272583,-0.24394555389881,0.6743124127388,-8.12113189697266,-9.41639518737793,-8.4706859588623,-0.59761333465576,-1.21919512748718,-2.07513523101807,0.32277512550354,0.53529536724091,1.14196348190308,-2.17872357368469,-2.31279873847961,-2.70544791221619,8.20014095306396,7.20894145965576,5.00148725509644,2.82880973815918,3.78541731834412,4.43149995803833,-2.33913516998291,-2.33913516998291,13.4075298309326,1.28257834911346,3.09086489677429,2.94385838508606,-6.59984588623047,-4.92738056182861,-1.92706334590912,-0.75656771659851,4.3143515586853,4.18506479263306,24.3035411834717,20.3483200073242,12.8736228942871,-9.40522003173828,-13.6487007141113,-17.1518230438232,51.2119750976563,54.4202041625977,51.4777297973633,-1.32838475704193,1.17285621166229,2.84159302711487,2.12147426605225,3.74014353752136,1.18510675430298,-57.063404083252,-56.2397994995117,-56.2565574645996,14.6405429840088,15.4856967926025,11.3724584579468,-15.3669719696045,-13.8329916000366,-10.4997787475586,20.6475963592529,6.95036745071411,-13.6517381668091,2.67381381988525,2.91722679138184,2.99605631828308,-0.4836300611496,0.2514024078846,0.68336713314056,-30.5667724609375,-22.6299953460693,-14.7291288375854,15.0379810333252,11.7531356811523,9.66539192199707,3.33694100379944,3.48767590522766,2.00908875465393,-7.23767185211182,-1.78368031978607,-0.11731588095427,1.4295848608017,0.52890378236771,-0.34621095657349,-0.20240025222301,-0.15073491632938,0.32543829083443,4.01268196105957,3.61285042762756,3.2968156337738,4.03183555603027,3.73256039619446,4.87220048904419,SWING_RIGHT
1.18191087245941,1.12438666820526,1.20481407642365,-0.73262572288513,-0.9911994934082,-1.42455005645752,-0.03515372797847,0.19281286001205,0.23276028037071,-0.36645096540451,-0.3371562063694,-0.85540735721588,2.8012158870697,3.1890766620636,4.4340615272522,10.0173397064209,10.582371711731,9.19612884521484,1.26659941673279,0.91879057884216,-0.3850930929184,0.65361708402634,9.46427917480469,13.1034660339355,-1.61813676357269,-2.61256098747253,-0.89215898513794,-2.79898238182068,-2.84585404396057,-2.15662789344788,5.20020627975464,3.71101260185242,-5.31033945083618,2.67432332038879,6.62954473495483,18.974048614502,-11.4744958877563,-13.3914394378662,-17.4527606964111,43.1985816955566,44.8769149780273,50.0148735046387,-1.1430287361145,-2.0724720954895,-2.2386531829834,-2.38139867782593,-0.74994617700577,-0.68762820959091,-59.8215255737305,-57.1879005432129,-58.4687995910645,12.56955909729,12.5982894897461,13.7379293441772,-14.7326078414917,-11.5448036193848,-8.19401454925537,11.7746839523315,-1.01035308837891,-6.44997930526733,3.98728489875793,2.21841311454773,2.25995850563049,-0.49215218424797,0.5629922747612,0.96832537651062,-35.9393615722656,-27.6266937255859,-14.2526826858521,9.08838939666748,6.41406631469727,9.50498104095459,4.0975399017334,4.06504917144775,2.22693538665771,-5.93043756484985,-0.61291563510895,1.39581954479218,-0.05006742849946,-1.30814480781555,-2.08525514602661,-0.01917476020753,0.43462789058685,0.52517539262772,3.65115761756897,2.6934769153595,2.6934769153595,2.53306531906128,4.63517427444458,4.63517427444458,SWING_RIGHT
1.16380143165588,1.23410892486572,1.66873681545258,0.40462008118629,-0.01675941236317,-0.33758243918419,-0.5374259352684,-0.43782368302345,0.42397525906563,-0.01970739290118,-0.62637549638748,-1.9393138885498,0.99359369277954,1.97282218933105,5.96395635604858,9.71088218688965,12.265495300293,17.3507804870605,-1.4599449634552,-4.13961744308472,-5.64803218841553,26.6833782196045,23.9611701965332,24.7368927001953,-1.4295848608017,-2.33026599884033,-2.90284562110901,-1.42425858974457,-0.21198762953281,2.30842804908752,1.08936178684235,-8.83699893951416,-24.5716915130615,10.7954559326172,14.30774974823,13.8241205215454,-16.9915008544922,-17.0458297729492,-16.2591304779053,39.2673034667969,30.8037986755371,32.0942726135254,7.66617584228516,8.68137264251709,7.85206413269043,3.01949214935303,0.82664519548416,-1.37578904628754,-48.4155464172363,-52.1505012512207,-53.5558967590332,14.6573028564453,10.936713218689,3.97198057174683,-9.28431224822998,-4.96945858001709,-1.25594675540924,-7.5776481628418,-13.8600339889526,-16.2638130187988,-0.4420847594738,1.92972660064697,3.93189120292664,1.03064334392548,1.16593194007874,1.62293040752411,-23.879768371582,-17.9948196411133,-7.09162521362305,20.1998805999756,17.4848556518555,7.02219343185425,2.99392580986023,1.98938131332397,1.11852765083313,6.24407815933228,2.83712911605835,-3.45004463195801,-0.232227653265,-0.76539248228073,-0.96033591032028,0.14753912389278,0.14860439300537,-0.07989483326674,4.28083276748657,3.82593441009521,2.84910011291504,4.15393972396851,5.57130718231201,7.40526580810547,SWING_RIGHT
0.95980328321457,1.12385404109955,1.23357629776001,-0.55306059122086,0.02873042039573,0.72783732414246,0.30040457844734,0.57364493608475,0.40906155109406,-0.54221957921982,-0.88310420513153,-0.74248933792114,0.07661445438862,0.20590133965015,0.32800564169884,10.5919485092163,10.350133895874,8.76277828216553,1.74437057971954,1.18936777114868,0.71319454908371,5.71256542205811,7.95832633972168,12.167332649231,-0.73556512594223,-0.4261057972908,0.09534116834402,-2.13372468948364,-2.1832594871521,-0.99229383468628,-0.81402856111526,-1.85311210155487,-5.4946928024292,12.1122665405273,13.6684970855713,12.8448925018311,-8.2307653427124,-11.8824920654297,-15.6306257247925,37.696704864502,43.6127777099609,45.3413925170898,-1.57978713512421,-0.85434210300446,0.07190535217524,3.61817073822021,3.99314379692078,1.77473056316376,-55.7609558105469,-54.2574005126953,-50.1178245544434,8.82742214202881,5.99986934661865,10.6446208953857,-15.4037237167358,-13.7983703613281,-10.2521047592163,18.9333477020264,14.9350299835205,5.77481460571289,1.6223977804184,1.40455114841461,1.80615592002869,0.36005938053131,-0.39681100845337,0.40426784753799,-33.7175407409668,-31.2946109771729,-21.3778266906738,6.05014753341675,7.29752683639526,13.0220632553101,2.50816512107849,3.44826102256775,3.37209463119507,-14.3939409255981,-5.23611927032471,-0.06224924325943,-0.21571604907513,-1.47911965847015,-2.18965101242065,0.19281286001205,0.34194988012314,0.39041942358017,0.33997663855553,1.24019646644592,-0.50517654418945,1.86268889904022,3.41892004013062,6.13394498825073,SWING_RIGHT
1.00294649600983,0.88363689184189,0.87298423051834,3.11246228218079,2.61925673484802,2.61925673484802,0.41598576307297,0.34301516413689,0.29241508245468,0.56245964765549,0.49055427312851,0.24288029968739,0.65840548276901,0.92895025014877,1.10133278369904,9.33499240875244,8.67898082733154,8.78193187713623,1.12651717662811,1.68471574783325,1.78644847869873,-0.5243301987648,0.74220252037048,11.417947769165,-0.3914846777916,0.216248691082,0.95767277479172,-1.10201609134674,-1.99364244937897,-2.77661180496216,1.2449848651886,2.70544791221619,5.33906984329224,12.4163303375244,15.3971109390259,17.6835746765137,-11.0542488098145,-14.9840097427368,-17.4527606964111,52.1241645812988,53.2231025695801,46.9766311645508,1.50362074375153,4.25253582000732,4.71645832061768,2.13905096054077,1.88232231140137,-0.46498793363571,-53.8599624633789,-49.9095268249512,-51.3675956726074,21.02587890625,17.2286758422852,0.63685762882233,-6.37827110290527,-2.59498429298401,0.44687843322754,-18.0043964385986,-20.3267726898193,-16.6516723632813,2.02773094177246,2.21148896217346,1.63518095016479,-0.55713331699371,-0.0042610578239,0.23915186524391,-18.0834045410156,-6.45476770401001,-2.26491475105286,10.7930612564087,6.01662874221802,5.20499467849731,1.50894713401794,1.15368139743805,1.22665202617645,0.59376204013824,-2.67432332038879,-3.20344185829163,-1.24848997592926,-0.97897803783417,-0.97524958848953,-0.44954159855843,-0.69401979446411,-0.3211772441864,0.17477671802044,-0.04309562966228,-0.11013327538967,9.86171722412109,10.2543659210205,9.57441234588623,SWING_RIGHT
2.86343097686768,2.45170617103577,1.69217264652252,-0.90021985769272,2.40617275238037,2.26012635231018,-0.52517539262772,-0.65886604785919,-1.16060566902161,0.67697554826736,0.896952688694,1.25062048435211,1.3407529592514,1.38624274730682,1.68072962760925,8.86333465576172,7.89368295669556,6.28238534927368,0.5629922747612,0.56991648674011,1.10201609134674,0.50996494293213,-1.60411512851715,-4.40054273605347,-3.08766913414001,-2.75796961784363,-0.71532505750656,1.06526446342468,-0.2705771625042,-3.0439932346344,-1.65918183326721,-2.11168599128723,-1.90339040756226,9.7013053894043,12.0643825531006,15.5192155838013,2.40536713600159,2.48899030685425,-3.26716613769531,2.98078107833862,11.3317565917969,45.7962913513184,1.72892415523529,1.17978036403656,1.11533188819885,0.42663842439651,3.2320122718811,4.60567092895508,1.49398183822632,-7.67820501327515,-14.2359237670898,16.8839111328125,15.128960609436,10.3740758895874,-17.3989639282227,-16.7656650543213,-14.8396663665771,31.9745635986328,26.750415802002,17.2645893096924,2.84052777290344,2.47301149368286,1.35501635074615,1.1941614151001,1.00667488574982,-0.67005133628845,-36.0542831420898,-35.2043418884277,-37.6200904846191,1.53707754611969,-0.40222588181496,3.82593441009521,-3.78754782676697,0.60080915689468,2.95344567298889,-26.4463520050049,-22.5438022613525,-11.9590377807617,1.33850479125977,1.09775507450104,0.59654808044434,-0.43729105591774,-0.60879862308502,-0.10279802232981,-15.5838584899902,-8.83460426330566,-4.43645572662354,6.43321990966797,5.43962621688843,5.05415964126587,SWING_RIGHT
0.08202536404133,0.68816083669662,0.83250415325165,-3.55299520492554,-3.95522117614746,-1.55144274234772,-1.89297497272491,-1.15048563480377,0.11078750342131,0.88044106960297,0.62104916572571,-0.03941478580236,-0.05027823522687,-0.73741412162781,1.09654438495636,11.8058090209961,14.3340854644775,12.392388343811,1.85728859901428,2.80910229682922,4.16465139389038,0.24420857429504,-0.70868372917175,2.70544791221619,0.3467435836792,0.04048004746437,-0.78509992361069,-3.02002477645874,-2.7095000743866,-2.09963631629944,0.18435353040695,1.07020819187164,-1.95366859436035,12.5360403060913,8.1139497756958,9.29668521881104,-4.62963914871216,-8.14501190185547,-17.2833824157715,39.0087280273438,46.3158302307129,54.2550048828125,-1.86368012428284,-1.74117469787598,0.00745685119182,0.480434268713,4.70474052429199,5.14948844909668,-53.675609588623,-57.1855087280273,-63.5828132629395,11.729193687439,4.70700073242188,8.48026275634766,-15.6540613174438,-13.6582880020142,-11.0973920822144,13.3979530334473,6.80910968780518,-2.782062292099,3.21177244186401,2.8213529586792,2.47301149368286,0.98483699560165,0.24554345011711,-0.18748654425144,-37.5961494445801,-33.2123641967773,-26.5947933197021,2.33913516998291,1.83635270595551,2.9161376953125,0.01864212751389,2.47620725631714,3.33001661300659,-19.9676418304443,-12.4402723312378,-0.70389527082443,1.17019295692444,0.87831056118011,0.05645901709795,-0.61199444532394,-0.59068912267685,-0.4261057972908,-1.80762231349945,-0.44771572947502,1.2258312702179,4.30956315994263,4.66390514373779,6.01184034347534,SWING_RIGHT
0.23755396902561,0.33928671479225,0.39574575424194,-1.33357036113739,-1.1372457742691,-0.74459671974182,-0.08894958347082,-0.29880666732788,-0.40959417819977,0.54861122369766,0.82557994127274,0.68230187892914,0.43335050344467,0.43335050344467,1.36469495296478,9.62708473205566,9.62708473205566,10.350133895874,2.15929102897644,2.56196093559265,2.32866811752319,-0.43335050344467,3.82832860946655,10.9869918823242,1.33797216415405,0.61305969953537,-0.38402783870697,-6.12899923324585,-5.72366571426392,-3.06849431991577,3.50750541687012,2.61207413673401,-0.90740245580673,10.2328176498413,10.0412817001343,9.39724159240723,-7.17615413665771,-14.4678888320923,-17.4527606964111,49.7778472900391,53.4529457092285,51.1880340576172,-1.73425054550171,0.08202536404133,2.71429371833801,3.9254994392395,4.6147255897522,3.30924391746521,-58.164737701416,-54.2406387329102,-52.7777824401855,4.07014274597168,11.77707862854,13.4985094070435,-14.4433879852295,-13.7259321212769,-10.5024423599243,26.7815399169922,20.2286109924316,-5.33906984329224,0.9353021979332,1.26926255226135,2.63599681854248,-0.11504855751991,0.30040457844734,0.95341169834137,-38.7453651428223,-30.5117073059082,-23.2189674377441,5.72932481765747,12.801796913147,13.2662715911865,4.39528131484985,4.06771230697632,2.97155523300171,-2.17154097557068,-2.17154097557068,4.71897172927856,0.75846827030182,-1.40774703025818,-1.84237492084503,-0.26525086164474,-0.00159789668396,-0.01704423129559,-1.92014980316162,0.17717093229294,-1.34314715862274,-1.38384854793549,4.37181234359741,6.5361704826355,SWING_RIGHT
1.81521058082581,1.96115183830261,2.19977116584778,0.59615623950958,1.20667767524719,2.18351197242737,-0.96299904584885,-1.82959175109863,-2.91190028190613,0.11877698451281,0.54168695211411,-0.78509992361069,-1.31441676616669,-2.22181916236877,-4.39096593856812,7.80509757995605,6.72052431106567,12.801796913147,1.01999068260193,-0.48149952292442,-2.53799247741699,13.2040224075317,20.9779949188232,23.8390655517578,1.9989687204361,0.97045594453812,-0.29614353179932,-0.73822826147079,-0.79788309335709,-1.2245215177536,-7.35977602005005,-10.5177278518677,-10.5177278518677,14.1233959197998,8.52814674377441,8.52814674377441,-13.9933137893677,-16.0466117858887,-17.4527606964111,38.3120155334473,35.3719367980957,35.0846328735352,0.46658584475517,3.14732384681702,3.31670093536377,2.13638782501221,2.07087421417236,1.11479926109314,-63.8701171875,-48.0181083679199,-44.5106048583984,7.37892961502075,9.76355457305908,4.12760353088379,-13.8303279876709,-13.1070137023926,-11.6795597076416,22.7856178283691,15.7610301971436,7.19936466217041,0.07669904083014,0.89642006158829,2.53905773162842,-0.59974390268326,-1.23410892486572,-1.40561640262604,-33.1070213317871,-30.4686107635498,-27.459098815918,13.0938892364502,18.6675910949707,20.1017169952393,0.62531024217606,2.07460260391235,2.53532934188843,-13.9366483688354,-13.9366483688354,-4.86262369155884,2.50283885002136,-1.16699719429016,-2.72920751571655,0.40693101286888,0.13102753460407,0.71159666776657,-1.50595283508301,0.67516487836838,-1.05105459690094,-0.68234747648239,-0.51954174041748,2.93768548965454,SWING_RIGHT
2.5944516658783,2.15023636817932,1.70016205310822,1.43652105331421,3.45722723007202,2.47560453414917,-0.84368944168091,-1.27725207805634,-1.57339560985565,1.50362074375153,1.30175316333771,0.69401979446411,-1.80043971538544,-1.50355863571167,-2.43729734420776,7.40526580810547,7.88650035858154,11.1114902496338,3.62616014480591,4.11511659622192,6.24671077728271,2.05661916732788,2.16435837745667,5.52821159362793,0.54541540145874,0.01438106968999,-1.48231554031372,-4.0709080696106,-3.91111850738525,-1.89883387088776,-2.68150591850281,-0.53390699625015,-3.13161587715149,5.80115079879761,5.0685248374939,9.50976943969727,-8.50347328186035,-12.6526784896851,-16.8343734741211,55.5454788208008,55.5454788208008,59.3762016296387,-3.95852279663086,-2.76436138153076,-0.78190410137177,1.71827161312103,3.8914110660553,2.84851717948914,-78.4508056640625,-78.1299819946289,-67.1214447021484,11.0276927947998,11.7267999649048,13.2040224075317,-14.82102394104,-14.1813335418701,-12.7837057113647,30.858865737915,16.7426528930664,16.7426528930664,1.34542906284332,1.3912353515625,2.20935845375061,-1.33264589309692,-0.98856544494629,-0.48149952292442,-39.8802185058594,-29.958646774292,-24.2125625610352,8.20253467559814,12.8233442306519,14.2814130783081,2.42986822128296,3.78275418281555,3.38487792015076,-10.7858781814575,-1.78607451915741,0.21308395266533,0.78456729650497,-0.38562572002411,-1.34170055389404,-0.62264704704285,-1.04182863235474,-1.00241386890411,-1.57299053668976,-0.62728083133698,-1.74776721000671,2.72220730781555,3.71101260185242,5.70298862457275,SWING_RIGHT
1.26127314567566,1.27938258647919,1.15794241428375,-0.53869539499283,-0.07422025501728,0.97922849655151,-0.20612867176533,-0.38669100403786,-0.30146983265877,-1.03543710708618,-0.87831056118011,-0.58962386846542,0.38067805767059,0.85473001003265,1.33596456050873,8.19774627685547,10.2064819335938,10.4315366744995,1.48710918426514,1.17764985561371,-0.43942159414291,5.45159721374512,10.3740758895874,23.3482551574707,-1.03916549682617,-0.27909928560257,0.27004453539848,-0.23595607280731,0.79788309335709,0.04900216311216,4.22097778320313,-0.6033388376236,-12.4857616424561,11.5041389465332,18.6221008300781,13.6134309768677,-12.6979522705078,-15.3078498840332,-16.6127986907959,46.2871017456055,46.5097618103027,37.9169731140137,5.47226333618164,6.22753620147705,7.02701711654663,1.47166287899017,2.15662789344788,2.82241821289063,-58.0569953918457,-59.2612800598145,-60.1208000183105,22.4576110839844,21.5933055877686,19.5606269836426,-15.6242341995239,-14.0135536193848,-10.8081731796265,29.846118927002,5.94959115982056,-11.0827598571777,3.01363325119019,3.03760170936584,3.71564245223999,1.85888648033142,1.73052215576172,0.69455242156982,-41.7453002929688,-32.7861976623535,-18.3659210205078,10.6278610229492,11.0252990722656,5.08528423309326,2.59072303771973,2.3371901512146,1.23677206039429,-4.42448472976685,-0.70389527082443,1.70946002006531,3.21496820449829,1.85089695453644,0.52837115526199,-1.45834708213806,-1.63731145858765,-1.29642689228058,2.68150591850281,4.19224739074707,4.40533113479614,-2.2864625453949,-2.25054955482483,0.6033388376236,SWING_RIGHT
1.32199323177338,1.38803958892822,1.41467118263245,-1.80283391475677,-1.25456166267395,-1.86508309841156,-0.32224249839783,-0.48629322648048,-0.83996105194092,0.40266996622086,0.32597091794014,0.26365295052528,-1.19231247901917,-1.63045132160187,-1.83156430721283,7.96311473846436,6.17704057693481,5.17387008666992,3.18301010131836,3.70339179039001,3.52709054946899,-0.61530983448029,2.9161376953125,10.2998561859131,0.81332939863205,1.35981011390686,1.11479926109314,-2.58805990219116,-3.01096987724304,-2.36541962623596,4.93684387207031,4.85783529281616,4.53701210021973,18.9022216796875,16.5630874633789,14.5615348815918,-9.44250392913818,-12.6137962341309,-15.1730947494507,47.5512390136719,50.453010559082,47.017333984375,-2.48153352737427,-3.44719576835632,-1.77313268184662,-0.23116238415241,1.51959979534149,2.87994241714478,-52.5503349304199,-52.5503349304199,-48.8488960266113,0.34955343604088,0.34955343604088,16.6420955657959,-14.6654958724976,-13.5602836608887,-12.6931581497192,30.2579212188721,27.8804779052734,18.1025581359863,0.81705784797668,0.356330960989,1.62612617015839,-1.56167769432068,-1.19735729694366,-0.51771855354309,-37.4381332397461,-37.8068389892578,-37.8068389892578,10.251971244812,16.3476085662842,16.3476085662842,-2.75530648231506,-0.38722363114357,0.92411690950394,-11.5831480026245,-7.5273699760437,-3.49792861938477,4.79848384857178,3.89886784553528,2.68926000595093,2.6328010559082,2.28978586196899,1.48391342163086,-10.9869918823242,-5.24569606781006,-0.59855043888092,4.97754526138306,1.94648599624634,0.25857377052307,SWING_RIGHT
0.56352490186691,-0.0042610578239,-0.3946804702282,7.11317348480225,8.36773490905762,8.66701030731201,1.47592389583588,0.70094400644302,-0.08788431435823,-1.50095760822296,-1.15368139743805,-0.70094400644302,5.79875659942627,4.53461790084839,4.53461790084839,12.8401041030884,10.0029745101929,10.0029745101929,-5.57825756072998,-6.89172840118408,-8.35593414306641,23.1519298553467,23.1519298553467,29.2954521179199,0.90600740909576,1.15474665164948,0.28495824337006,-2.89272570610046,-4.06078815460205,-4.73190450668335,-17.4585189819336,-23.1782665252686,-30.7439441680908,19.0961532592773,15.030797958374,13.4482307434082,-13.9176797866821,-16.8956260681152,-15.9826955795288,46.3397750854492,30.5069179534912,30.391996383667,2.60670208930969,2.12200689315796,2.24344682693481,1.20800983905792,-0.15606124699116,-1.38537645339966,-52.4497756958008,-47.7379875183105,-42.2456893920898,7.7955207824707,8.15704536437988,11.580753326416,-8.32610702514648,-5.43178367614746,1.19842255115509,-10.8074264526367,-14.6357545852661,-17.6189308166504,2.53213357925415,2.60031056404114,2.33452701568604,1.67246520519257,1.88551807403564,1.6570188999176,-18.126501083374,-11.374852180481,-5.48272180557251,12.1529674530029,7.81467437744141,4.89853668212891,3.61710548400879,2.63652944564819,2.15982365608215,3.16513466835022,2.42532634735107,-0.09576806426048,-2.03785085678101,-2.83626651763916,-1.63677883148193,0.91239899396896,0.67484503984451,-0.26205506920815,1.64002811908722,-0.40222588181496,-1.12527477741241,2.59052634239197,7.19457626342773,12.1721210479736,SWING_RIGHT
2.51349139213562,2.57048320770264,2.25516486167908,-1.48201084136963,2.52109432220459,4.21140098571777,0.36538571119308,0.17310547828674,0.1272991001606,-0.37444046139717,-0.52197957038879,-0.39041942358017,0.91458505392075,1.1180921792984,1.10612118244171,8.57842445373535,9.69172859191894,10.3022499084473,1.75715374946594,0.8303736448288,-0.35206991434097,8.01099872589111,10.7092638015747,11.6190605163574,0.2737729549408,0.20080235600471,-0.19387812912464,-1.82426536083221,-1.68844413757324,-1.54942715167999,2.92332029342651,2.69587111473084,2.71023631095886,8.62630844116211,7.88650035858154,6.6463041305542,-2.1102888584137,-3.7795581817627,-7.61610841751099,21.5214786529541,28.5532493591309,30.7918281555176,0.81545996665955,1.84983170032501,2.80963492393494,0.42290997505188,2.0889835357666,2.06767821311951,-16.9365825653076,-37.7062835693359,-41.6495323181152,18.2797298431396,15.016432762146,13.673285484314,-16.7427616119385,-15.4937391281128,-14.5120973587036,28.0313129425049,20.1376304626465,20.1376304626465,1.92440021038055,0.48149952292442,-0.4580637216568,-2.48046827316284,-2.1145498752594,-1.31666684150696,-42.0373916625977,-41.7117805480957,-39.0015449523926,8.87051773071289,10.1801452636719,15.4952735900879,0.94595485925674,3.30817866325378,4.35160541534424,-18.7537822723389,-11.3126029968262,-5.83706378936768,1.7124125957489,1.5627429485321,0.89908319711685,1.9989687204361,1.2117383480072,0.62264704704285,-0.98401689529419,3.16513466835022,4.51307010650635,3.4620156288147,1.43891525268555,0.04070143029094,SWING_RIGHT
1.94144451618195,1.8279937505722,1.94464027881622,-0.18435353040695,-0.29688102006912,-0.41180267930031,0.07510114461184,0.19494339823723,0.6721818447113,-0.42237734794617,-0.52411013841629,-1.01359915733337,-1.49158763885498,-1.37666594982147,0.80924016237259,10.3932294845581,11.0707883834839,11.3078145980835,3.60698533058167,3.24373030662537,1.77792632579803,11.21204662323,18.7705421447754,18.7705421447754,-1.1259845495224,-1.37632167339325,-0.49854376912117,-1.84184229373932,-1.07751500606537,-0.36165729165077,-1.28329205513,-7.67820501327515,-14.6142072677612,7.90325975418091,14.6429376602173,17.9876365661621,-13.8841247558594,-17.4527606964111,-17.4527606964111,59.3163452148438,57.1424102783203,40.3351173400879,0.72118401527405,2.9795446395874,4.58383274078369,3.05730891227722,1.60641884803772,1.40295326709747,-67.231575012207,-67.0520095825195,-67.0520095825195,14.8105316162109,15.6892032623291,15.6892032623291,-14.0742740631104,-12.4891605377197,-10.3900566101074,18.6939277648926,13.0675525665283,-0.41180267930031,-0.84688526391983,-0.4676510989666,2.26262164115906,-0.57257962226868,-0.20772656798363,0.24128240346909,-38.9943618774414,-32.656909942627,-19.1871318817139,8.56405925750732,16.867151260376,12.0164985656738,4.35906219482422,4.36758422851563,4.07570171356201,-5.82988119125366,-1.51313543319702,-2.36547136306763,0.08362326025963,-1.11906027793884,-2.90124773979187,-0.14274543523788,0.51026165485382,0.62584286928177,1.20907187461853,1.20907187461853,-0.78769236803055,3.60087943077087,3.60087943077087,7.93917274475098,SWING_RIGHT
0.51718586683273,1.11799502372742,1.77046954631805,0.00718260509893,0.29688102006912,1.99676418304443,-1.28896999359131,-0.65194183588028,-0.06178534030914,0.19813919067383,0.74195671081543,0.43143209815025,5.03500604629517,6.25604915618896,7.48906278610229,9.33738708496094,13.6325845718384,13.85524559021,-1.69430315494537,-3.16223764419556,-7.68481779098511,21.0546092987061,23.5421848297119,40.074146270752,-0.32863408327103,-0.73769563436508,-0.59175437688828,0.27270770072937,0.67537766695023,0.50173956155777,-1.46046304702759,-13.8289089202881,-24.9068794250488,5.24330186843872,6.88572406768799,10.5153341293335,-13.8995704650879,-12.4673223495483,-11.4180374145508,32.5755081176758,31.1725063323975,33.8803482055664,5.52020025253296,6.97961282730103,6.79372406005859,3.13454055786133,1.77579581737518,0.19973708689213,-36.9952049255371,-39.7988166809082,-38.5610122680664,21.3155784606934,12.9741792678833,7.13711547851563,-9.74770259857178,-5.14842319488525,-2.86023497581482,6.31350994110107,-5.26963806152344,-3.4117374420166,0.25672873854637,0.15552860498428,0.72011876106262,-1.09189605712891,-0.71479243040085,-0.50067430734634,-16.6851921081543,-16.6851921081543,-10.4794206619263,8.56166553497314,8.56166553497314,13.2207813262939,-0.72065138816833,-1.14356136322021,-0.96193379163742,2.16914677619934,-1.52750062942505,-6.01423454284668,0.15819177031517,-0.59122174978256,-1.65169250965118,-0.02183792181313,-0.03781688958406,-0.14647386968136,-3.99352836608887,-4.3143515586853,-3.51468801498413,5.94240856170654,6.21055936813354,8.79629707336426,SWING_RIGHT
0.70946609973907,-0.01118527725339,-1.07698237895966,6.83065748214722,11.0803651809692,14.0204448699951,1.56327557563782,2.11987638473511,2.17367219924927,-1.37525641918182,-2.3249397277832,-2.35157132148743,5.00388145446777,3.15795207023621,0.97444009780884,17.6572380065918,16.5391445159912,14.563928604126,-5.93725156784058,-7.15484857559204,-9.94264602661133,24.5262031555176,27.5572624206543,36.8946495056152,1.27139317989349,-0.84954839944839,-2.00322985649109,-2.14863848686218,-0.37816888093948,2.91456365585327,-20.4273281097412,-30.2411613464355,-43.804313659668,12.3253507614136,10.4435081481934,22.5797157287598,-13.1746578216553,-11.3253593444824,-10.8326740264893,21.3323364257813,25.6538715362549,34.2131423950195,7.52715873718262,6.4736123085022,4.62164974212646,2.83839702606201,-1.31719946861267,-1.03703498840332,-51.1832427978516,-45.1761932373047,-33.5523414611816,12.1912746429443,3.14598107337952,3.28005623817444,-2.92361831665039,-0.15286545455456,0.72118401527405,-16.8384208679199,-6.14591598510742,-6.14591598510742,1.53983974456787,0.92305165529251,0.37337517738342,-1.04768764972687,-0.75420725345612,-0.50067430734634,-9.49300956726074,-6.33026933670044,-5.05894804000854,6.02620553970337,5.38455963134766,6.42843151092529,-0.14274543523788,0.39840891957283,1.07751500606537,-5.99268674850464,-5.99268674850464,-7.91044235229492,-0.86339682340622,-1.09509181976318,-1.03011071681976,-0.66685557365417,-0.41332259774208,-0.2434129267931,-1.77410340309143,-1.33357036113739,-0.29688102006912,9.5217399597168,10.4842090606689,11.8393278121948,SWING_RIGHT
1.70495581626892,1.94464027881622,2.00269722938538,-2.52109432220459,-0.64643448591232,3.48835182189941,-0.48842376470566,-0.06391586363316,0.50173956155777,-0.41492050886154,-0.07989483326674,-0.55180698633194,1.55623114109039,3.00951147079468,4.64714527130127,10.6661682128906,13.6996221542358,13.5966711044312,-1.87699592113495,-4.77504777908325,-6.5210165977478,19.1368541717529,28.014554977417,33.2650375366211,3.15637850761414,-1.61227774620056,-1.95156443119049,-2.9795446395874,0.75101143121719,-0.65140920877457,-3.91930818557739,-9.63905620574951,-9.63905620574951,7.15387487411499,7.53215837478638,7.53215837478638,-11.4009923934937,-10.8433265686035,-9.73278903961182,25.0241966247559,25.0241966247559,14.7937726974487,5.46001291275024,5.47652435302734,3.95319628715515,-1.96008658409119,-1.90629076957703,-0.67644292116165,-29.9370975494385,-29.9370975494385,-34.9721031188965,30.5787448883057,30.5787448883057,9.81383323669434,-12.4417562484741,-11.6657114028931,-11.1085777282715,26.0560970306396,24.7249202728271,24.0832748413086,-1.22718465328217,-1.21067309379578,-0.75740301609039,0.69401979446411,0.03834952041507,-0.69721555709839,-34.3328514099121,-34.3328514099121,-28.3617134094238,1.13485157489777,1.13485157489777,7.92959594726563,-2.58912515640259,-1.36513638496399,-0.52996909618378,-7.98705673217773,-5.95198535919189,-5.97353315353394,3.16010689735413,1.15474665164948,0.64341974258423,-1.26393628120422,-0.41385525465012,-0.54328489303589,-12.2966203689575,-6.9431848526001,-4.89374828338623,6.01423454284668,3.79480957984924,6.55292987823486,SWING_RIGHT
-2.05809092521667,-1.85728859901428,-1.34329843521118,7.17063426971436,5.15471649169922,7.2304892539978,-0.54701328277588,-0.10492854565382,0.48895639181137,0.05326322466135,-0.6785734295845,-1.60535359382629,0.83078801631927,1.58256733417511,1.68551802635193,11.911153793335,12.4091472625732,14.4298534393311,-4.54228782653809,-5.12711763381958,-5.49090576171875,20.3674736022949,20.4201469421387,19.5366859436035,-0.33182987570763,0.00692421896383,0.01065264455974,-3.70179390907288,-5.27252626419067,-6.34844350814819,-3.3734302520752,-4.30956315994263,-8.22168827056885,11.5615997314453,14.8225030899048,13.8600339889526,-11.064902305603,-13.4020919799805,-15.1400709152222,47.8912162780762,47.8912162780762,43.9048690795898,-5.95269775390625,-3.54093909263611,-0.62371236085892,4.36598634719849,4.19128322601318,3.61444234848022,-57.9708061218262,-57.9708061218262,-38.3742637634277,6.71334171295166,6.71334171295166,11.8201742172241,-10.53493309021,-10.9296131134033,-9.38231658935547,21.4759883880615,4.49870491027832,-10.5512466430664,1.01306653022766,0.64288711547852,0.32597091794014,-1.50149023532867,-2.19817328453064,-1.44982492923737,-28.4598751068115,-23.5900688171387,-12.210428237915,0.90740245580673,5.22175407409668,6.35899972915649,3.33481049537659,2.40696501731873,1.16007304191589,2.02549457550049,9.05726528167725,9.05726528167725,0.85008102655411,2.19444489479065,2.30256915092468,0.60453760623932,-0.17683389782906,-0.9076052904129,-5.19541788101196,-4.75249052047729,-3.89776039123535,16.0100269317627,13.283031463623,6.11239671707153,SWING_RIGHT
1.7981663942337,1.45461857318878,1.07431924343109,1.30483996868134,2.09253239631653,2.66953492164612,-0.2418150305748,0.57897120714188,1.96168446540833,-0.98483699560165,-1.48444604873657,-2.29457974433899,1.80043971538544,6.38773012161255,6.84741687774658,11.5903301239014,18.6508312225342,19.1679782867432,-2.0293288230896,-5.00354719161987,-5.62353086471558,19.3978214263916,22.0003185272217,22.0003185272217,-0.86179894208908,0.15765914320946,1.57872188091278,-2.19071626663208,-2.19710803031921,-4.267982006073,-0.57939678430557,-10.2735195159912,-13.6780738830566,12.8903818130493,17.4896430969238,17.9732723236084,-11.6870164871216,-13.6955728530884,-15.4900102615356,40.8642349243164,48.8728408813477,45.7292518615723,-3.85412669181824,2.41815042495728,3.1079089641571,2.84478878974915,1.06419920921326,1.29323101043701,-54.7290573120117,-47.6613731384277,-49.4402656555176,17.1783981323242,19.2757186889648,7.21612405776978,-12.99462890625,-7.47389554977417,-3.54360222816467,20.0753803253174,-16.2829666137695,-17.9110221862793,0.63969129323959,0.77870833873749,0.81599259376526,-0.44315001368523,-0.43409526348114,-0.97258645296097,-20.238187789917,-15.8711633682251,-11.4251308441162,8.12831497192383,8.08521938323975,7.72130060195923,0.2386192381382,0.78456729650497,1.32572162151337,-3.49553442001343,-6.24886655807495,-4.79319190979004,-0.00319579336792,-0.08841694891453,-0.1432780623436,-0.67591029405594,-0.87404948472977,-0.89801794290543,-2.92810869216919,-2.44926834106445,-1.38384854793549,8.1115550994873,9.33978080749512,9.70369911193848,SWING_RIGHT
1.60482084751129,1.63358306884766,1.53983974456787,-0.94810384511948,-0.94810384511948,0.21547815203667,-0.68816083669662,-0.52837115526199,0.06764429062605,-0.06870955973864,-0.56352490186691,-1.35554897785187,2.51151752471924,2.67911171913147,3.58890843391419,11.1761331558228,11.6980695724487,13.6014595031738,-0.26205506920815,-1.3358416557312,-3.41470527648926,16.4218292236328,19.1727676391602,23.7648468017578,0.40533313155174,0.81173151731491,1.3656690120697,-2.88686656951904,-3.79340672492981,-4.77238464355469,-0.53390699625015,-3.83311700820923,-3.83311700820923,13.1321964263916,13.5535755157471,13.5535755157471,-7.73381996154785,-13.0191297531128,-15.7541961669922,40.9743690490723,55.5957565307617,54.4704818725586,-5.66720676422119,1.12438666820526,2.66635704040527,3.61870336532593,2.29457974433899,1.39336585998535,-64.5069732666016,-51.1616973876953,-54.3292236328125,11.3964004516602,15.6508960723877,5.75566101074219,-10.0992393493652,-6.76442909240723,-3.93561959266663,0.52911859750748,-9.54807662963867,-11.9470663070679,0.10546118021011,1.92972660064697,1.17285621166229,-0.38083204627037,-1.1430287361145,-0.96726012229919,-23.2836112976074,-16.0794582366943,-9.12909126281738,12.7443351745605,8.59278964996338,5.57370138168335,1.53025233745575,1.01306653022766,0.58536279201508,-1.0486603975296,0.01915361359715,-0.96246910095215,0.42717105150223,-0.11717908829451,-0.74675035476685,-0.66099661588669,-0.34780883789063,-0.06178534030914,-2.62883353233337,-1.721431016922,-1.85071790218353,7.26879644393921,7.30710363388062,7.90086555480957,SWING_RIGHT
1.8876485824585,2.01920866966248,1.94410765171051,2.87783050537109,2.02549457550049,5.1978120803833,1.00827276706696,1.20854246616364,1.08177602291107,-1.48764181137085,-1.83172225952148,-1.49403345584869,1.77649760246277,2.90416669845581,4.45800352096558,13.9845323562622,11.3964004516602,9.89523601531982,-2.50763249397278,-3.88661742210388,-4.08528900146484,18.9812316894531,16.9054584503174,13.9246768951416,-0.55233961343765,-0.01438106968999,0.09108011424541,-3.03227519989014,-4.39954233169556,-3.97876262664795,-3.58412003517151,-7.79073238372803,-12.4211187362671,18.0905876159668,17.7027282714844,17.9038410186768,-9.51174640655518,-13.4958353042603,-15.1741600036621,38.9297180175781,44.4148368835449,47.5727882385254,-1.28364372253418,0.00639158673584,0.28868666291237,1.8492990732193,1.15474665164948,1.56380820274353,-57.6475868225098,-57.8271522521973,-46.8114318847656,13.496114730835,10.3573169708252,5.14513921737671,-12.5173902511597,-11.3072500228882,-10.0241384506226,19.9796123504639,19.9796123504639,11.0061454772949,-1.36034274101257,-0.27590349316597,2.98007726669312,0.40586575865746,0.19387812912464,-1.46740174293518,-28.9219570159912,-28.9219570159912,-18.8495502471924,6.10521411895752,6.10521411895752,10.7308120727539,-0.35526570677757,0.12463594228029,0.63809341192245,-0.33279404044151,-2.56418991088867,-3.42849683761597,1.76248002052307,0.97578221559525,-0.08522115647793,-0.19228023290634,-0.94488954544067,-0.54594802856445,-8.49223327636719,-4.46279191970825,-3.35427665710449,6.78995609283447,4.13718032836914,4.04380655288696,SWING_RIGHT
1.01626229286194,0.98164117336273,0.92145377397537,-1.43652105331421,0.18674772977829,0.81881695985794,-1.02425181865692,-0.49215218424797,0.54008907079697,-1.48497867584229,-1.65329039096832,-1.77526319026947,-0.05027823522687,0.40940847992897,0.40940847992897,13.8049669265747,16.9413719177246,16.9413719177246,-1.25115311145782,-2.97368574142456,-4.13269329071045,23.7504806518555,29.1230697631836,30.5787448883057,2.37980079650879,2.49591469764709,0.73023879528046,-3.28953671455383,-5.53032064437866,-7.40678358078003,-4.16112232208252,-5.99508094787598,-15.2965545654297,12.540828704834,7.0317702293396,1.65918183326721,-11.1192302703857,-13.2939682006836,-15.526762008667,48.5256805419922,51.0802917480469,48.1785202026367,-6.7734842300415,-3.1680965423584,0.75314199924469,5.97506856918335,5.39769506454468,3.37635564804077,-66.1398239135742,-62.3905029296875,-50.6397590637207,17.5135860443115,22.2780475616455,21.385009765625,-12.2153873443604,-12.1930170059204,-12.2777051925659,27.109546661377,27.7894992828369,20.6236534118652,2.73293590545654,1.77419793605804,0.76432722806931,1.7507621049881,0.91719269752502,0.58589547872543,-44.0461273193359,-36.5427017211914,-30.7319736480713,-1.63763391971588,-0.80205756425858,0.02154781483114,-2.28392696380615,-0.92784535884857,0.40373522043228,-10.9199542999268,-10.527304649353,-10.0269165039063,0.4996090233326,0.70147663354874,1.22984778881073,-0.52570801973343,-0.41651839017868,-1.34223318099976,-9.15542697906494,-9.15542697906494,-5.71974802017212,6.20098257064819,6.20098257064819,8.5496940612793,SWING_RIGHT
1.34170055389404,1.00774013996124,0.85061365365982,1.54665434360504,1.51313543319702,1.76931500434875,-0.45699843764305,-0.4740426838398,-0.37976679205894,0.20186761021614,0.2354234457016,0.3914846777916,0.71586632728577,0.4525041282177,0.20590133965015,10.1681747436523,10.0197343826294,10.512939453125,1.48444604873657,1.97606551647186,1.87593066692352,2.31040453910828,3.3423056602478,7.62792682647705,0.78509992361069,0.40906155109406,0.16245283186436,-3.94307637214661,-4.66745615005493,-5.17984819412231,2.33674097061157,0.28012159466743,-0.66558808088303,14.6094188690186,11.0947303771973,14.0252332687378,-9.03291034698486,-10.568489074707,-12.2212467193604,39.2050514221191,35.4700965881348,35.4700965881348,-5.76095008850098,-0.8175904750824,2.5598304271698,3.9643816947937,2.99179530143738,2.41282391548157,-52.2678184509277,-52.7825698852539,-47.2687225341797,12.9741792678833,23.0346145629883,18.4904193878174,-12.1482763290405,-10.6201543807983,-7.62782621383667,8.80587387084961,-7.91762495040894,-17.2789535522461,0.24234765768051,-0.99442434310913,-0.90068107843399,-0.30040457844734,0.2545982003212,-0.40426784753799,-22.7688579559326,-19.0578460693359,-16.2757835388184,-0.90979665517807,3.36624765396118,7.48188018798828,0.33555829524994,0.76166409254074,1.00081598758698,-8.22408294677734,-6.51941108703613,-5.56173038482666,0.17523600161076,-0.02024002373219,-0.1384843736887,-0.60027652978897,-0.48629322648048,-0.50813114643097,-6.77559089660645,-5.11640882492065,-4.62559747695923,7.59919595718384,7.62553262710571,7.99423933029175,SWING_RIGHT
1.11000561714172,1.1430287361145,0.36325517296791,-1.66397023200989,1.08457338809967,2.28167414665222,-0.17949706315994,-0.59974390268326,-0.22956448793411,0.44581317901611,-0.13422332704067,-0.4676510989666,1.2449848651886,1.76692080497742,1.32638776302338,9.08120727539062,9.07402420043945,9.7180643081665,0.54008907079697,0.8905611038208,-0.13475595414639,1.2449848651886,1.2449848651886,16.0818519592285,0.4676510989666,-0.68123662471771,-2.14384460449219,-3.37795352935791,-3.57076644897461,-2.53799247741699,5.23133087158203,2.84910011291504,-1.11569797992706,7.34062242507935,4.31913995742798,5.09964942932129,-6.15616321563721,-12.1333618164063,-14.3469820022583,39.2696952819824,45.0445098876953,45.8274154663086,-3.31883144378662,-5.42858743667603,-4.34095287322998,-1.63464832305908,1.177117228508,2.51189351081848,-54.4704818725586,-54.4704818725586,-58.5813255310059,1.52271223068237,1.52271223068237,19.3475437164307,-14.4247455596924,-13.6891813278198,-14.4982490539551,26.1566543579102,29.3289699554443,23.7361164093018,1.50788187980652,-0.89215898513794,-1.01999068260193,-2.34411454200745,-0.248206615448,0.57950389385223,-36.6576232910156,-25.795129776001,-25.795129776001,3.51468801498413,6.61278486251831,6.61278486251831,1.97127187252045,1.73744630813599,1.20374882221222,-2.2361843585968,1.28808057308197,2.66714072227478,-0.76912093162537,-0.53902381658554,-0.23968450725079,0.23595607280731,-0.20719394087791,-0.29241508245468,-2.2170307636261,-2.90416669845581,-1.78368031978607,7.41005420684814,10.75954246521,10.7691192626953,SWING_RIGHT
2.1145498752594,2.07353734970093,1.64583361148834,-0.6224924325943,4.21858358383179,4.75727891921997,-0.25885927677155,0.41438788175583,0.25246766209602,-1.91641080379486,-1.42905223369598,-1.43331336975098,3.08133769035339,4.04380655288696,3.55778384208679,14.3508453369141,13.9941091537476,11.0659999847412,-2.11348462104797,-2.9619677066803,-3.54413485527039,17.4297885894775,18.4257755279541,21.7345638275146,-0.58589547872543,0.58429753780365,1.80935168266296,-0.43409526348114,-0.46924898028374,-1.18191087245941,-4.7907977104187,-7.70214700698853,-10.8337631225586,18.3563442230225,18.1336841583252,17.7458229064941,-8.78363800048828,-10.1210775375366,-13.6044921875,34.718318939209,37.7014923095703,44.8457908630371,-2.50177359580994,-3.56650543212891,-1.87646329402924,-0.44368264079094,1.43118274211884,0.90867060422897,-47.5081443786621,-55.3300018310547,-53.4577369689941,3.35188245773315,11.827356338501,21.4496536254883,-14.9531173706055,-11.8894166946411,-8.9013500213623,28.2635517120361,3.40694904327393,3.40694904327393,0.36218991875648,2.48739242553711,2.63812732696533,0.38136467337608,-0.54168695211411,-0.58376491069794,-30.99294090271,-19.2086811065674,-14.5471696853638,9.43794345855713,10.6781396865845,7.51539897918701,2.60563683509827,2.226402759552,1.66447567939758,-2.42772054672241,1.75494980812073,0.38546648621559,0.25353294610977,0.27324032783508,0.04633900523186,-0.47990164160728,-0.39894154667854,0.03036003746092,-2.32237553596497,-0.73262572288513,-0.73262572288513,9.28232002258301,8.85375785827637,8.85375785827637,SWING_RIGHT
1.09296131134033,0.78456729650497,0.73236930370331,0.04070143029094,0.04070143029094,-1.20907187461853,-0.2450108230114,-0.2705771625042,-0.31212249398232,-0.10599381476641,-0.29081720113754,-0.61945128440857,0.69671267271042,0.7493851184845,1.4867992401123,9.91199493408203,9.39724159240723,10.0269165039063,1.93611812591553,2.70470643043518,2.84585404396057,1.83395850658417,1.83395850658417,14.1353664398193,1.50202286243439,-0.87404948472977,-2.16621518135071,-4.88530302047729,-1.74010944366455,-1.08017814159393,1.51074123382568,-1.40300214290619,-3.45004463195801,8.23605346679688,4.19703578948975,5.85861158370972,-7.16283798217773,-9.92027568817139,-15.1358098983765,39.4468688964844,45.1091537475586,46.3565330505371,-4.06611442565918,-4.1060619354248,0.72651034593582,1.55315554141998,3.68421721458435,2.40643239021301,-60.2931823730469,-61.9547576904297,-42.1331596374512,3.10527968406677,8.74362468719482,15.0260095596313,-12.7602701187134,-13.2838478088379,-13.099024772644,34.7039527893066,35.4772796630859,21.0761566162109,-0.61625546216965,-0.55127435922623,1.55528604984283,-0.45859634876251,-0.71852087974548,-0.95873802900314,-36.2458190917969,-30.2387676239014,-22.7090034484863,4.02225875854492,11.3509101867676,12.7634897232056,2.23652267456055,2.91190028190613,2.07779836654663,-5.7819972038269,4.72376012802124,5.97353315353394,0.82451468706131,1.33957004547119,1.3784521818161,0.52144694328308,-0.18375812470913,-0.68336713314056,-5.77481460571289,-4.53701210021973,-4.25210237503052,9.40921306610107,9.02853488922119,6.6056022644043,SWING_RIGHT
0.82344943284988,1.0700581073761,1.32199323177338,1.37906014919281,1.49398183822632,3.76607918739319,-1.3784521818161,-0.63915866613388,-0.30892670154572,-0.29241508245468,-1.07591712474823,-0.16564862430096,4.5226469039917,4.5226469039917,4.35265874862671,13.3021850585938,13.3021850585938,12.0356521606445,-3.37582302093506,-4.51352548599243,-5.51221084594727,21.3083953857422,21.7369575500488,27.3848781585693,-0.63702815771103,0.95234644412994,2.55343890190125,-1.65169250965118,-2.01974129676819,-2.5598304271698,-2.43490314483643,-5.64552783966064,-11.0252990722656,25.2372798919678,26.1973552703857,24.0808811187744,-12.1466779708862,-13.526195526123,-14.8833427429199,40.500316619873,41.8650093078613,42.8753623962402,-0.81812310218811,-3.29006934165955,-3.69540238380432,-1.14888775348663,-0.52517539262772,0.95021587610245,-41.8243103027344,-41.1371726989746,-38.0965385437012,0.53151279687881,-0.91219085454941,9.58877754211426,-8.14128398895264,-7.20385074615479,-5.53404903411865,14.6261777877808,6.24886655807495,-4.33111095428467,-1.33051526546478,-2.19391202926636,-1.44183540344238,-1.68844413757324,-0.97258645296097,-0.67591029405594,-17.0419273376465,-14.0491752624512,-11.6597623825073,1.80283391475677,10.3621053695679,16.4505596160889,-1.09296131134033,-1.10361397266388,-0.324373036623,4.06774854660034,-3.84508800506592,-8.71968269348145,1.08550453186035,-0.39041942358017,-1.55794930458069,-0.06924218684435,0.01171790901572,-0.06657902896404,-4.27843856811523,-3.74692559242249,-3.77086758613586,3.14119267463684,2.15956997871399,4.36941814422607,SWING_RIGHT
2.31215643882751,2.32973337173462,2.36648488044739,3.07176089286804,3.07176089286804,4.42209053039551,-1.7811222076416,-0.98164117336273,0.28229507803917,-0.54967647790909,-1.14942038059235,-2.49005556106567,0.58418524265289,1.98958158493042,4.71657752990723,11.6166667938232,14.5998420715332,15.1720561981201,-2.31535220146179,-3.57822322845459,-4.35693168640137,19.4050045013428,20.7984294891357,22.9412403106689,-0.43036684393883,1.42425858974457,2.16728043556213,-1.55635142326355,-2.25037121772766,-2.77554655075073,-0.88346040248871,-6.34942293167114,-6.34942293167114,16.9437656402588,19.682731628418,19.682731628418,-8.89868640899658,-10.7032442092896,-12.3538722991943,36.9018325805664,37.8283882141113,42.4779281616211,-4.07463645935059,-4.38782405853271,-0.20453077554703,1.5755261182785,3.49779582023621,1.38590908050537,-56.9173583984375,-60.8558197021484,-42.1187973022461,3.39018964767456,8.19774627685547,15.5718879699707,-10.1775369644165,-9.30828094482422,-7.14739179611206,10.8122148513794,-0.01436521019787,-0.01436521019787,-0.17097494006157,-0.6077333688736,-0.14594122767448,-1.53717660903931,-1.13663721084595,-0.92784535884857,-21.8375129699707,-19.2350158691406,-16.2853603363037,3.28484463691711,6.41167211532593,9.54568195343018,0.93476957082748,0.62424498796463,0.84688526391983,-1.29765737056732,-4.17788219451904,-6.82586908340454,-0.64555025100708,-1.47326076030731,-1.4040185213089,-0.72757560014725,-0.81013363599777,-0.71958613395691,-3.77086758613586,-2.8012158870697,-3.28005623817444,6.65109252929688,10.6446208953857,12.471396446228,SWING_RIGHT
2.85703921318054,2.95451092720032,0.73130404949188,0.38067805767059,3.87621259689331,6.03817653656006,-0.52197957038879,-0.87032103538513,-0.70786821842194,-1.61600613594055,-1.67779147624969,-1.72413051128387,0.61530983448029,0.4955997467041,1.17315888404846,8.88488292694092,11.128249168396,13.7690544128418,-0.61305969953537,-1.81787383556366,-2.62055063247681,17.1185417175293,18.0570697784424,21.2509346008301,0.93317168951035,0.40320259332657,-3.75665521621704,-2.48259878158569,-3.23147964477539,-2.7915256023407,4.07971954345703,0.38546648621559,-12.6653270721436,7.28555583953857,3.07176089286804,-0.105344876647,-11.5442705154419,-14.2862615585327,-16.0439472198486,39.8874015808105,54.4489364624023,54.4489364624023,-3.28580832481384,1.10947299003601,3.15265011787415,4.04853773117065,4.05759239196777,3.38327980041504,-62.5341529846191,-53.675609588623,-46.466667175293,13.6349782943726,13.0986776351929,7.55849456787109,-13.1027526855469,-8.58283615112305,-3.43760848045349,25.790340423584,-12.7371530532837,-26.503812789917,-0.23648871481419,0.72651034593582,1.17072558403015,-1.33051526546478,0.62584286928177,0.83410209417343,-23.4488105773926,-11.1234607696533,-7.44117879867554,13.6684970855713,11.1904983520508,10.4650554656982,1.1345067024231,-0.09960222989321,-0.05699164792895,9.72524738311768,-2.72220730781555,-3.76607918739319,-0.17843179404736,-1.1259845495224,-2.27913331985474,-0.81013363599777,-0.62477761507034,-0.17044231295586,-3.50989961624146,-3.50989961624146,-2.44687414169312,4.61841487884521,4.61841487884521,6.93360805511475,SWING_RIGHT
1.17232358455658,1.44023752212524,1.59576618671417,0.98880529403687,0.58897364139557,1.14682257175446,-0.34461304545403,-0.00905474834144,0.36538571119308,-0.15819177031517,-0.59867864847183,-1.93718338012695,0.22744916379452,0.33518823981285,1.02711248397827,10.1609916687012,9.51216316223144,9.91678333282471,1.53185033798218,-0.36378780007362,-1.69483578205109,10.2400007247925,16.1417083740234,20.7361812591553,-1.41946494579315,-1.19575929641724,-0.82877576351166,-2.86822462081909,-2.78566646575928,-1.76514315605164,-0.80445176362991,-3.02627086639404,-10.8457336425781,11.3700637817383,13.9965028762817,11.4299192428589,-11.7546606063843,-14.457236289978,-17.4527606964111,49.1601448059082,49.1601448059082,49.660530090332,-2.27806806564331,-1.91214966773987,-0.90813797712326,3.04452586174011,3.47862100601196,4.00432920455933,-68.3185424804688,-69.9106903076172,-59.0051002502441,8.07085418701172,8.14507389068604,13.057975769043,-12.5823707580566,-11.1011209487915,-7.96658039093018,25.9387817382813,8.82502746582031,-13.7594776153564,4.3888897895813,0.88576740026474,0.03195793181658,-0.61572283506393,-0.46179214119911,-1.29376363754272,-31.1749000549316,-16.3667621612549,-10.4554786682129,-4.1659107208252,0.98401689529419,2.98078107833862,0.63809341192245,0.01917476020753,-0.18695391714573,4.02465295791626,1.63763391971588,-0.98162269592285,0.15819177031517,1.17445409297943,1.51800179481506,-0.1145159304142,-0.70573770999908,-0.93903064727783,-7.78115558624268,-6.47870969772339,-5.35343503952026,12.4354839324951,11.3126029968262,8.15704536437988,SWING_RIGHT
-1.33530902862549,-1.39656174182892,-1.52865445613861,-0.72544312477112,-0.17956513166428,-0.85712420940399,-0.72651034593582,-0.63809341192245,-0.55287224054337,-0.28442561626434,-0.45060685276985,-1.17764985561371,0.10295066982508,-0.35913026332855,-0.80684596300125,9.720458984375,9.97185039520264,10.9438962936401,-0.19654129445553,-0.90867060422897,-2.24557757377625,1.63763391971588,15.3851404190063,20.8295555114746,0.97897803783417,-0.16298545897007,-2.62694215774536,-3.07914686203003,-4.03309106826782,-2.80217814445496,1.15879356861115,-0.88824880123138,-10.0173397064209,6.60081386566162,4.93684387207031,7.86974096298218,-10.304835319519,-12.3283052444458,-14.7619018554688,43.2464637756348,46.457088470459,51.0539588928223,-3.52655792236328,-1.55581879615784,1.27139317989349,3.03440570831299,3.42322731018066,3.2368061542511,-59.2876167297363,-59.2876167297363,-52.1816253662109,10.9008007049561,10.9008007049561,15.9094705581665,-14.8844079971313,-15.099591255188,-13.4596166610718,36.303279876709,39.2242050170898,19.4313411712646,0.68336713314056,-0.05113269388676,0.71532505750656,-0.57151436805725,-0.58429753780365,-1.5409049987793,-39.240966796875,-38.2497673034668,-31.5603675842285,4.29998636245728,8.00621032714844,15.6748380661011,-0.3499393761158,2.15929102897644,2.6418559551239,-18.3204307556152,-11.0564231872559,1.48919343948364,1.45728182792664,0.09587380290031,-0.65567028522491,-0.48203217983246,-0.35260254144669,-0.35846149921417,0.0,0.62967503070831,1.08696758747101,4.15633392333984,5.70298862457275,8.69813442230225,SWING_RIGHT
1.71187996864319,0.63276708126068,0.64395236968994,6.43561410903931,1.25695586204529,1.78368031978607,-0.75580513477325,-0.44954159855843,0.4420847594738,0.01012001186609,-0.98483699560165,-2.165682554245,1.49877023696899,1.89860188961029,1.80283391475677,9.47385597229004,11.6813097000122,10.6470146179199,-1.86953914165497,-2.6839337348938,-3.50258946418762,12.8233442306519,16.5247802734375,19.9676418304443,-1.18297612667084,-2.54491686820984,-2.83307075500488,-5.02485227584839,-4.13375854492188,-3.16436815261841,-0.76614451408386,-7.66862821578979,-17.6380844116211,10.0628299713135,11.5592060089111,13.3907699584961,-12.1115245819092,-14.3688192367554,-17.4527606964111,42.6886177062988,46.8617095947266,39.2481498718262,-3.44027161598206,-1.54942715167999,0.51132690906525,1.78378534317017,1.5201324224472,1.6314525604248,-57.4799957275391,-55.0714263916016,-49.8760108947754,10.4866037368774,12.1601505279541,4.23294878005981,-13.7802610397339,-12.3458824157715,-9.11067390441894,21.3179721832275,4.66869354248047,-13.318943977356,1.52492606639862,1.81574320793152,2.45330405235291,-0.85114628076553,-0.10226538777351,-0.19973708689213,-26.8126640319824,-26.8126640319824,-13.5176630020142,12.8329210281372,12.8329210281372,11.7698955535889,3.95053315162659,2.96729421615601,2.18858575820923,-0.71586632728577,5.42765522003174,3.67509961128235,0.69188928604126,-0.5949501991272,-1.30228579044342,-0.90068107843399,-0.90707266330719,-0.75207668542862,2.28406834602356,3.02148246765137,2.24336695671082,5.39413642883301,6.20816516876221,8.97586250305176,SWING_RIGHT
-0.69242191314697,-0.75260931253433,-1.27671945095062,-0.22505496442318,0.2777273952961,-0.71107792854309,-0.19228023290634,0.27217507362366,0.58003652095795,-0.70786821842194,-1.08497190475464,-1.90416026115417,1.41018486022949,1.73100781440735,2.61207413673401,11.142614364624,11.240777015686,10.0149459838867,-1.5201324224472,-2.17686796188354,-2.46022820472717,11.21204662323,12.9502372741699,13.4051351547241,-1.70868420600891,-3.09778904914856,-3.63414978981018,-3.03706908226013,-2.50816512107849,0.19441075623035,-3.66073441505432,-7.73327159881592,-11.678915977478,4.15154552459717,4.92008447647095,9.68454551696777,-7.17508888244629,-13.1549510955811,-16.5882987976074,39.2529373168945,41.0892906188965,53.400276184082,-0.57897120714188,-2.82401609420776,-3.09672379493713,-1.6223977804184,1.43544387817383,0.74515247344971,-59.7377281188965,-65.5676040649414,-53.4577369689941,-1.86029469966888,-5.99986934661865,10.9343194961548,-15.4138441085815,-13.6103515625,-12.1781034469604,26.5014190673828,26.5014190673828,21.6292190551758,-0.36378780007362,0.4580637216568,1.53877449035645,1.02425181865692,1.22026038169861,0.91985583305359,-43.5217971801758,-41.3550453186035,-41.3550453186035,10.9055891036987,11.3820352554321,11.3820352554321,-2.81655931472778,-0.04740426689386,2.00855612754822,-11.8872117996216,-11.8872117996216,-8.48265647888184,1.5110776424408,1.26393628120422,0.71479243040085,0.32650354504585,0.06764429062605,-0.12516857683659,-11.3317565917969,-7.51539897918701,-3.59369683265686,4.8602294921875,4.35505294799805,3.67270541191101,SWING_RIGHT
0.76326197385788,0.2577939927578,-0.39254996180534,0.28730419278145,4.39096593856812,3.45004463195801,-0.57204699516296,-1.17551934719086,-1.38803958892822,0.06817692518234,1.12651717662811,0.58909124135971,1.85790050029755,0.6703764796257,1.34554135799408,8.99262142181396,8.68137550354004,8.70052909851074,0.5821670293808,0.50333744287491,-0.45593318343163,3.90494298934936,11.7100400924683,20.8894100189209,1.04129600524902,1.12704980373383,0.1304948925972,-3.05571103096008,-2.73506641387939,-3.02588367462158,2.58573794364929,-1.41497325897217,-8.96389102935791,13.7929964065552,8.9064302444458,4.17788219451904,-13.2279214859009,-17.4527606964111,-17.4527606964111,51.0108604431152,53.1057891845703,43.837833404541,-7.88402223587036,-4.69035959243774,2.68499898910522,1.75821900367737,1.60908198356628,3.3694314956665,-64.9427185058594,-50.8145370483398,-40.6296043395996,10.9869918823242,27.89723777771,10.9965686798096,-11.4558544158936,-10.3570337295532,-7.36150979995728,26.7935104370117,7.06528902053833,-9.37808799743652,-0.41918155550957,0.2370213419199,0.97684752941132,0.22796659171581,-0.35366779565811,-0.9480853676796,-22.8742027282715,-17.9229946136475,-12.6868743896484,7.13950967788696,8.80108547210693,7.90565395355225,4.63176965713501,4.37930202484131,3.04985213279724,-3.03345346450806,4.0964789390564,8.53293514251709,-2.68766212463379,-2.75903487205505,-2.21681523323059,-0.42344263195992,-0.70200926065445,-0.53689330816269,-1.83156430721283,-2.35589456558228,-3.41892004013062,7.3885064125061,10.4459018707275,12.9837560653687,SWING_RIGHT
2.10336470603943,2.13638782501221,2.48632717132568,0.83557641506195,0.58179098367691,1.35751235485077,0.06018744036555,0.12996226549149,0.15712650120258,-0.7920241355896,-1.053013920784,-1.19629204273224,-1.60890352725983,-1.80283391475677,-1.82198750972748,9.61511421203613,10.0580415725708,9.14345645904541,3.07914686203003,1.42585647106171,-0.69295454025269,8.69095230102539,22.0505981445313,28.8764667510986,-1.90202963352203,-1.56114506721497,-1.35608160495758,-1.26659941673279,0.19121496379375,-0.51878380775452,-7.56807136535645,-12.0571994781494,-19.9844017028809,7.89847135543823,8.5903959274292,7.93199014663696,-14.1525707244873,-17.4527606964111,-17.4527606964111,45.7915000915527,45.6909446716309,39.2912445068359,-5.75668907165527,-5.6634783744812,-2.7403929233551,2.31481957435608,3.4205641746521,3.12069225311279,-76.1404037475586,-67.9546279907227,-46.1865463256836,-4.2449197769165,2.56418991088867,8.03015232086182,-8.98870182037354,-6.30530023574829,0.69242191314697,-2.24815535545349,-2.24815535545349,-22.4264869689941,2.34944081306458,1.73744630813599,1.2117383480072,-0.17363810539246,0.11824435740709,0.14434333145618,-14.3580274581909,-9.53610515594482,-6.12197351455688,3.65834021568298,4.68545293807983,5.10922622680664,2.00269722938538,1.24848997592926,0.97578221559525,7.20654726028442,1.35511815547943,-0.15322890877724,-0.93849796056747,-1.00880539417267,-0.94009590148926,0.15339808166027,-0.02876213937998,-0.3147856593132,-1.69988322257996,-3.04542446136475,-3.7038300037384,7.92480754852295,8.85854625701904,8.80826759338379,SWING_RIGHT
3.6091160774231,3.02055740356445,2.4490430355072,4.46518611907959,4.84586429595947,4.13239192962646,-0.03568635880947,-0.24074976146221,-0.16405072808266,-0.22210763394833,0.08575379103422,0.27164244651794,0.08858546614647,-0.1963245421648,0.32321724295616,6.87135887145996,8.60476112365723,9.30386734008789,1.7427726984024,1.34596168994904,0.74515247344971,6.0788779258728,8.65503883361816,14.5567464828491,-0.11185276508331,-1.19203090667725,-1.96008658409119,-0.96992325782776,-2.83733177185059,-2.17633533477783,2.87543630599976,0.6703764796257,-2.63841032981873,8.56405925750732,8.44195556640625,6.62954473495483,-8.40600204467773,-10.8161630630493,-15.596004486084,39.473201751709,42.3582153320313,46.6055297851563,-3.57556009292603,-2.64505171775818,-1.11692976951599,3.44666314125061,3.33800625801086,3.50099158287048,-56.0410804748535,-59.9939079284668,-57.9492568969727,6.3973069190979,6.6056022644043,7.4579381942749,-16.610668182373,-13.2747926712036,-12.4944868087769,27.5141658782959,27.2484092712402,22.1655197143555,1.19842255115509,-2.17580270767212,1.47858703136444,-2.38512706756592,-3.32841873168945,0.98536962270737,-43.9096603393555,-37.9840087890625,-27.492618560791,-3.32075786590576,13.4721727371216,23.6858367919922,5.86481332778931,6.68240404129028,5.80143022537231,-7.17542266845703,6.41167211532593,9.7396125793457,1.71081471443176,0.41864892840385,-1.16380143165588,0.57311224937439,0.40586575865746,0.50014168024063,3.63918662071228,6.03578233718872,5.20260047912598,1.41976165771484,2.20984816551209,7.27358484268188,SWING_RIGHT
-0.18535602092743,-0.22690132260323,-0.22050973773003,0.8451532125473,0.67277067899704,0.37349545955658,-0.03781688958406,-0.16564862430096,-0.12836436927319,-0.01331580616534,-0.08841694891453,-0.15819177031517,0.78769236803055,0.78769236803055,0.54827219247818,8.88248825073242,8.88248825073242,10.0700120925903,0.08841694891453,0.2210423797369,0.232227653265,2.07816696166992,3.38061285018921,5.51624059677124,-1.64103984832764,-0.36005938053131,-0.91452956199646,-5.36520433425903,-3.91431427001953,-2.0889835357666,-4.75009632110596,-4.75009632110596,-10.2950668334961,13.4075298309326,13.4075298309326,8.59278964996338,-12.2382907867432,-15.6844215393066,-17.4527606964111,46.5456733703613,51.5950469970703,49.1218376159668,-5.67306566238403,-4.45866441726685,-2.49857783317566,3.2410671710968,4.01817750930786,3.36357259750366,-78.3622207641602,-73.8826675415039,-73.8826675415039,1.47003984451294,4.83868169784546,4.83868169784546,-14.0854597091675,-7.07016038894653,-2.27647018432617,30.5667724609375,-21.7345638275146,-23.767240524292,1.99364244937897,2.01015400886536,1.69323790073395,0.29827404022217,0.1193096190691,0.22796659171581,-19.4097938537598,-12.8209505081177,-7.22570085525513,5.55454778671265,4.98951625823975,3.42849683761597,5.23364448547363,3.65811824798584,2.61788749694824,0.12210428714752,3.13640427589417,1.98958158493042,-1.485511302948,-1.03810024261475,-0.42290997505188,-0.33342778682709,-0.16085493564606,-0.54541540145874,2.17154097557068,1.63523972034454,1.81959331035614,9.31823348999023,12.7084226608276,13.1369848251343,SWING_RIGHT
2.26262164115906,1.60375559329987,1.30494892597198,-0.16041150689125,2.166752576828,1.34554135799408,0.37497308850288,-0.20080235600471,-0.23648871481419,-1.33903741836548,0.21411815285683,0.44368264079094,1.00556468963623,1.15879356861115,1.53228902816772,9.3637228012085,9.02135181427002,9.60314273834228,1.33530902862549,1.19203090667725,-0.06551376730204,4.87459468841553,7.89368295669556,12.8568630218506,-0.5182511806488,-1.43970489501953,-3.58248448371887,-3.402987241745,-4.64881420135498,-2.68712949752808,3.31357526779175,3.31357526779175,-15.6078004837036,4.9296612739563,4.9296612739563,2.38462495803833,-11.9554634094238,-15.4900102615356,-17.4527606964111,51.7458801269531,51.7458801269531,51.4442100524902,-5.41260862350464,-2.87355089187622,-1.5329155921936,0.33875408768654,2.64345383644104,1.31666684150696,-62.368953704834,-56.3475379943848,-50.6182136535645,9.19373416900635,14.9158763885498,13.6445550918579,-14.5531101226807,-12.9126033782959,-12.2691831588745,24.4495868682861,23.9061031341553,21.5142955780029,2.08578777313232,1.44503128528595,0.95927065610886,0.60507023334503,-0.10066749155521,-0.20719394087791,-41.9368362426758,-37.2226524353027,-32.0463905334473,5.45877981185913,5.16668748855591,8.00142192840576,-3.47382736206055,-0.47564056515694,1.65169250965118,-16.8360271453857,-16.3212738037109,-11.417947769165,2.77980756759644,2.78353595733643,2.29990601539612,0.83729785680771,1.00134861469269,1.05514442920685,-11.4658317565918,-7.14669227600098,-3.75650238990784,8.29351425170898,5.31033945083618,3.58172583580017,SWING_RIGHT
0.46978163719177,0.42397525906563,0.60826599597931,0.69910687208176,0.02394201606512,-0.84754741191864,0.19014970958233,0.10226538777351,0.32384037971497,0.02609897963703,-0.00745685119182,0.26045715808868,1.73579621315002,1.21386027336121,1.7405846118927,7.51779317855835,8.22168827056885,7.40287160873413,1.13663721084595,1.1345067024231,1.02212119102478,1.14682257175446,3.14358687400818,5.4061074256897,-3.4594464302063,-3.9686427116394,-2.99499106407166,-1.31187319755554,-5.32259368896484,-0.93476957082748,2.87304210662842,3.7038300037384,0.13646949827671,3.74931979179382,11.6238489151001,17.4058456420898,-6.45283937454224,-11.4846162796021,-15.0809488296509,38.0845680236816,45.4060363769531,45.9279708862305,-1.98405504226685,-4.96839332580566,-2.82827711105347,0.1368864774704,3.87862777709961,4.75587320327759,-43.3518104553223,-49.5360336303711,-40.0717544555664,-2.94247388839722,-3.88818359375,2.22660756111145,-13.2044858932495,-9.21879863739014,-3.17981433868408,29.7455615997314,-12.2080345153809,-7.37174701690674,2.31641745567322,1.93718338012695,1.59416830539703,-0.86286419630051,-0.68017137050629,-0.5028048157692,-21.3083953857422,-11.6190605163574,-7.4196310043335,6.53377628326416,8.56405925750732,7.68538761138916,1.18776988983154,0.2226402759552,-0.28868666291237,4.68066453933716,4.65911674499512,-0.78290396928787,0.22690132260323,-0.21145498752594,-0.35473304986954,-0.05539375171065,0.0042610578239,-0.27324032783508,-4.13957452774048,-4.5418004989624,-4.72376012802124,6.8043212890625,7.08683681488037,8.66222190856934,SWING_RIGHT
1.57179772853851,1.39656174182892,1.36353850364685,-0.20350714027882,0.38786068558693,0.38786068558693,-0.85487473011017,-1.11479926109314,-0.77444726228714,0.53050172328949,-0.88949584960938,-1.42212808132172,0.3687070608139,0.13886369764805,-0.39983168244362,7.75003099441528,9.34696388244629,11.5831480026245,2.00056672096252,2.82614660263062,2.8256139755249,2.6240451335907,1.83874690532684,11.113883972168,0.81066626310349,-0.12942963838577,-1.03117597103119,-2.76063275337219,-3.39819359779358,-3.56277704238892,5.26245546340942,5.63595056533813,5.00627565383911,6.86896467208862,5.64073944091797,6.38533592224121,-11.2704982757568,-12.8220558166504,-14.3933210372925,52.2845764160156,49.8975563049316,57.5135116577149,-3.3177661895752,1.32998263835907,3.79660248756409,2.24078369140625,3.05145001411438,2.82721185684204,-42.9112777709961,-52.2630271911621,-47.884033203125,15.0762882232666,24.4878940582275,16.0603046417236,-13.1251230239868,-11.4654417037964,-8.10879325866699,23.6714725494385,5.38455963134766,-10.6996870040894,-0.22636869549751,1.75182735919952,2.91722679138184,0.32810145616531,0.1177117228508,-0.63543027639389,-30.3417186737061,-21.4664115905762,-17.0084095001221,6.2895679473877,9.81143856048584,7.80509757995605,0.42450788617134,0.87032103538513,0.82557994127274,-6.57208347320557,-5.11401462554932,-4.35026454925537,0.04420847445726,-0.4356931746006,-0.79042625427246,-1.28417634963989,-1.1004182100296,-0.6231797337532,-2.03507137298584,-1.64960491657257,-1.90099620819092,6.27999114990234,7.2616138458252,9.09078407287598,SWING_RIGHT
2.44424939155579,2.62587690353394,1.46740174293518,-0.02633621916175,-0.32321724295616,15.5455513000488,2.32813549041748,2.34677767753601,0.8948221206665,-3.67622756958008,-4.28396081924438,-3.41470527648926,3.26808524131775,3.98634576797485,4.89135408401489,15.179238319397,7.95593214035034,2.60967993736267,-2.86289811134338,-3.40458512306213,-4.42084741592407,23.9899005889893,27.487829208374,35.5251655578613,-0.56672066450119,1.54623138904572,0.78403460979462,-0.56991648674011,-2.7569043636322,-2.1236047744751,-9.6989107131958,-23.0657386779785,-33.5116424560547,21.3874034881592,13.2471179962158,8.42519569396973,-12.6351013183594,-14.296914100647,-15.345666885376,43.9814834594727,38.9105644226074,33.6816291809082,-0.32543829083443,0.37976679205894,-0.32330775260925,1.76780641078949,1.94144451618195,-1.17019295692444,-58.5597801208496,-60.3482475280762,-48.7579193115234,3.42131423950195,1.84353530406952,1.5179238319397,-9.44197177886963,-6.47148180007935,-3.38221454620361,-9.39963626861572,-14.3628158569336,-20.070592880249,0.8905611038208,0.88523477315903,0.66046398878098,-0.70467245578766,-0.17683389782906,-0.13422332704067,-22.2780475616455,-10.7930612564087,-8.32463932037354,11.5400524139404,7.21851825714111,7.53455257415771,2.60190844535828,2.62640953063965,2.64398646354675,-0.71347212791443,-2.72699570655823,-1.66397023200989,0.83516734838486,0.44315001368523,-0.18162758648396,-0.4676510989666,-0.09267801046371,-0.87351685762405,-3.49074602127075,-2.97120428085327,-1.77649760246277,6.88332986831665,7.27358484268188,8.12113189697266,SWING_RIGHT
2.30416703224182,2.57847261428833,2.38779020309448,-4.21379518508911,-1.1947066783905,1.7597382068634,0.1225054115057,0.87671262025833,1.42479121685028,-1.08443915843964,-1.88977909088135,-2.79365611076355,-1.89860188961029,-1.26174426078796,0.10773907601833,15.0475578308105,14.3939409255981,13.7451124191284,0.9763149023056,-0.65087658166885,-0.62903863191605,12.2990140914917,16.508020401001,16.1441020965576,0.38669100403786,-0.67377978563309,-1.81041693687439,-3.50951385498047,-3.48767590522766,-2.58433151245117,0.73262572288513,-2.04943656921387,-5.2672438621521,5.80354499816895,3.84269380569458,4.18745899200439,-7.17295837402344,-10.6515789031982,-13.6875829696655,42.3965225219727,43.4810981750488,42.4372253417969,-3.20804381370544,-3.96757745742798,-3.96757745742798,3.1334753036499,4.2557315826416,4.15612936019897,-58.9045448303223,-63.8749084472656,-63.8749084472656,-0.02394201606512,-3.39018964767456,-3.39018964767456,-14.9137020111084,-12.9573440551758,-13.5704040527344,21.4065570831299,26.0944042205811,19.907787322998,2.25995850563049,2.23971843719482,1.57179772853851,0.95820540189743,-0.67005133628845,-1.24209833145142,-49.8736152648926,-40.2297706604004,-31.6944427490234,2.61925673484802,3.24174904823303,4.28322696685791,-3.3220272064209,-0.70573770999908,0.94222640991211,-18.1241073608398,-14.7722244262695,-11.9997386932373,1.0444917678833,1.15687716007233,1.06792759895325,-0.17789916694164,-0.34834146499634,-0.37763625383377,-13.5128746032715,-10.9055891036987,-8.31985092163086,7.85537576675415,6.52659368515015,5.34864664077759,SWING_RIGHT
2.14224672317505,2.534264087677,1.68950939178467,0.05027823522687,3.20104765892029,3.47398662567139,-1.40348589420319,-2.48153352737427,-3.93988060951233,-0.95554220676422,-1.99044668674469,-4.23762178421021,7.65665721893311,6.04775333404541,1.36708915233612,6.38773012161255,3.98873996734619,3.1890766620636,-2.35796284675598,-4.80807113647461,-4.94815349578857,43.3565979003906,24.9260330200195,17.384298324585,2.46235871315002,3.14838910102844,1.91907393932343,-0.5544701218605,-1.12864768505096,-0.98217380046844,-6.18661737442017,-14.5543518066406,-29.0392723083496,19.9532775878906,6.93600225448608,2.07337856292725,-17.4527606964111,-16.4572696685791,-14.7911968231201,47.692497253418,31.0480079650879,41.8386764526367,2.91349840164185,3.06316804885864,1.99524033069611,2.75850224494934,0.84049367904663,-0.08255799859762,-69.9585723876953,-69.9585723876953,-42.4803199768066,2.81797528266907,2.81797528266907,3.64876341819763,-2.12253952026367,1.74596846103668,3.86371421813965,-18.3467674255371,-14.1521263122559,-5.41807842254639,2.46502184867859,1.85356020927429,1.18990039825439,-0.03675162419677,-0.22317290306091,-0.6870955824852,-3.98873996734619,-0.07182604819536,1.68312382698059,3.68228220939636,3.76847338676453,4.46758031845093,2.00962138175964,1.63091993331909,1.34063529968262,-1.36469495296478,-1.2449848651886,-1.89620769023895,-1.36886477470398,-1.10574448108673,-0.496413230896,-0.27164244651794,-0.41385525465012,-0.98430436849594,1.79565131664276,0.61770403385162,-0.22744916379452,9.45230865478516,11.374852180481,11.9662199020386,SWING_RIGHT
1.79869902133942,1.47059762477875,1.97180449962616,8.17380428314209,5.84903478622437,4.25449657440186,0.10013485699892,-0.2178465873003,-0.98803275823593,-0.43729105591774,0.63862603902817,1.76993691921234,2.54024791717529,2.32955837249756,3.74692559242249,8.45392608642578,8.60236644744873,8.91840171813965,0.59228706359863,-1.47113025188446,-3.08394050598145,23.5852813720703,27.5524730682373,31.9194965362549,1.63411569595337,2.5688853263855,3.6091160774231,-1.61920201778412,-0.53156697750092,-0.7984157204628,-0.85712420940399,-11.8201742172241,-17.1688213348389,11.6334257125854,13.235146522522,12.8353157043457,-12.5413579940796,-16.2756423950195,-14.9866733551025,54.4058380126953,38.848316192627,26.8102703094482,-1.13557195663452,-0.23648871481419,1.45248806476593,-0.36059200763702,0.46658584475517,-1.00347912311554,-59.874195098877,-60.9276466369629,-36.6456527709961,19.3834571838379,13.4841442108154,13.283031463623,-6.28186464309692,-4.7910270690918,-0.60027652978897,-4.02944135665894,-7.45314979553223,-15.7682123184204,2.6285400390625,2.02773094177246,1.27245843410492,0.48096689581871,0.64927870035172,0.6013417840004,-14.0563583374023,-9.30147361755371,-5.26963806152344,7.66144561767578,5.3558292388916,4.56095409393311,1.54356825351715,1.18084561824799,0.98856544494629,-0.78529816865921,-1.49877023696899,-3.42849683761597,-0.65247446298599,-0.70467245578766,-0.77817571163177,-0.44687843322754,-0.38136467337608,-0.65300709009171,0.67516487836838,0.13886369764805,0.19153612852097,8.14507389068604,8.06127738952637,8.27675533294678,SWING_RIGHT
4.63336753845215,4.50660133361816,3.55958127975464,-2.07816696166992,4.46279191970825,8.1115550994873,-1.5329155921936,-2.73666429519653,-3.33694100379944,-2.77714443206787,-4.39900970458984,-2.60403895378113,-0.51714754104614,-1.16837048530579,-3.50989961624146,3.34469985961914,4.75727891921997,11.6286373138428,-3.52442741394043,-6.50450468063354,-10.8848724365234,33.6481094360352,46.2799186706543,53.2781715393066,3.73428463935852,3.15744376182556,2.19284677505493,1.22611939907074,2.87461614608765,3.55532002449036,-27.9930057525635,-33.6600799560547,-56.0793876647949,29.1996841430664,19.55344581604,8.07803630828857,-17.4527606964111,-16.4636631011963,-14.7038450241089,41.8674049377441,37.5458717346191,46.1985168457031,7.40838146209717,8.08216190338135,7.04352855682373,2.84585404396057,0.17150758206844,-0.47244477272034,-74.1795501708984,-72.21630859375,-56.4217567443848,11.66455078125,8.40364837646484,5.26006126403809,-7.05577898025513,-0.57630807161331,1.53185033798218,-15.5838584899902,-13.7403240203857,-10.2615480422974,3.95852279663086,3.75878572463989,3.51963376998901,0.89642006158829,0.88630002737045,-0.0042610578239,-11.3964004516602,-3.01429986953735,0.38307225704193,6.40688371658325,3.33033466339111,3.47638082504272,0.73130404949188,0.35792887210846,0.29401299357414,-2.1475989818573,-2.1475989818573,-5.78678560256958,-0.5480785369873,-1.0018812417984,-1.34223318099976,-0.57630807161331,-0.71425980329514,-0.80533993244171,3.44525623321533,3.20583605766296,2.54503631591797,4.3143515586853,5.26006126403809,5.46356821060181,SWING_RIGHT
3.07914686203003,3.09459328651428,3.28101444244385,-0.06703764945269,0.54827219247818,-0.33518823981285,0.59228706359863,0.09054747968912,-0.72118401527405,-0.04740426689386,-0.47936901450157,-1.43118274211884,-1.11330378055573,-1.34793555736542,-1.44370365142822,7.81467437744141,6.08366632461548,7.37414121627808,3.49087166786194,2.43892288208008,1.23943519592285,11.3628816604614,16.8312377929688,16.8312377929688,1.5840482711792,1.32678687572479,0.25406557321548,-2.21574997901917,-4.51725387573242,-4.25360107421875,3.84508800506592,1.17315888404846,-7.44117879867554,10.1514148712158,8.80826759338379,8.60476112365723,-12.9051465988159,-17.0069465637207,-17.4527606964111,54.5040016174316,47.3405494689941,47.0939483642578,-1.07644975185394,4.42936944961548,4.54974460601807,0.83463472127914,0.37071204185486,0.2737729549408,-63.0560913085938,-55.6675834655762,-55.0474853515625,29.7264080047607,19.8958168029785,9.72764110565186,-14.2974472045898,-12.9781169891357,-10.5796737670898,22.1056652069092,8.27914905548096,-5.75805521011353,2.7313380241394,2.02773094177246,2.04903626441956,-1.92653071880341,-0.83090627193451,-0.10120012611151,-36.2003288269043,-31.431079864502,-24.8637847900391,11.8704519271851,11.8752403259277,14.0659351348877,2.2642195224762,4.12683439254761,3.84081101417542,-13.3907699584961,-2.06380176544189,1.27610945701599,0.70733559131622,-0.00159789668396,-0.47244477272034,0.64395236968994,0.48629322648048,0.33342778682709,1.00556468963623,1.74537301063538,0.86191260814667,4.87698888778687,6.00465774536133,7.39090061187744,SWING_RIGHT
-0.1177117228508,0.2226402759552,0.44581317901611,0.28730419278145,-1.60650932788849,-1.30483996868134,-0.79681783914566,-0.60826599597931,-0.17736652493477,0.96086853742599,0.51345747709274,0.18269285559654,0.14365209639072,0.73741412162781,0.73741412162781,9.06923580169678,11.0037508010864,11.0037508010864,2.43199872970581,2.18858575820923,2.46395659446716,7.7069354057312,7.7069354057312,21.9213104248047,2.54278635978699,1.22718465328217,-1.24050045013428,-5.72579622268677,-4.03894996643066,-2.8687572479248,5.08528423309326,1.84832370281219,-5.89691877365112,12.3684463500977,4.03422975540161,1.78846871852875,-13.7179431915283,-17.051155090332,-17.4527606964111,54.3004951477051,54.3004951477051,55.1743774414063,1.07538449764252,9.09682559967041,6.89332628250122,1.69749891757965,-1.17338883876801,-2.94385838508606,-74.5721969604492,-78.4508056640625,-78.4508056640625,48.5663833618164,24.559720993042,4.68784713745117,-17.4527606964111,-14.7448577880859,-9.90376377105713,25.5174026489258,-2.827552318573,-20.6739311218262,1.39017009735107,2.25037121772766,3.38221454620361,0.06551376730204,0.67750817537308,0.63329970836639,-36.8683128356934,-30.2483444213867,-23.0729217529297,19.5797805786133,15.8879222869873,14.1305780410767,4.13109540939331,4.61419296264648,4.01178598403931,-8.76038360595703,-1.90339040756226,4.93205547332764,3.83761525154114,2.4399881362915,1.26020789146423,-0.16937704384327,-0.04793690145016,0.33289512991905,-0.15801730751991,3.92170238494873,5.23851346969604,-1.83874690532684,-1.91296720504761,1.14682257175446,SWING_RIGHT
3.78168892860413,3.46850109100342,3.02854681015015,2.67911171913147,5.79396820068359,5.79396820068359,-2.12307214736938,-2.35796284675598,-1.95049917697906,0.07350324839354,0.04633900523186,-0.2146507948637,-3.02866506576538,-2.94726228713989,-2.63362193107605,7.16345167160034,9.53610515594482,11.5879364013672,1.65648627281189,1.36726689338684,-0.54168695211411,8.10437297821045,8.10437297821045,26.1638355255127,-0.17683389782906,0.2418150305748,-0.16618125140667,-0.65833342075348,-0.96885800361633,-1.95955395698547,1.64960491657257,-2.23379015922546,-19.2924766540527,13.4482307434082,15.8998937606812,11.4849853515625,-13.6641473770142,-16.4082679748535,-17.4527606964111,48.0276870727539,49.2846412658691,50.3596382141113,7.39879417419434,7.52609348297119,5.18464231491089,-1.94517290592194,-3.05677628517151,-4.51299285888672,-72.0582885742188,-66.0177154541016,-57.4105644226074,28.6633834838867,17.0826282501221,6.91924285888672,-15.6348867416382,-13.0723924636841,-8.73516845703125,29.8197822570801,16.2709941864014,2.30322194099426,-0.7962851524353,0.79735046625137,2.16248679161072,-2.58113574981689,-1.9861855506897,-0.64661550521851,-31.2730617523193,-28.7040843963623,-25.8885021209717,25.5006427764893,25.0792636871338,24.3753681182861,-0.79468727111816,1.51267552375793,2.82614660263062,-13.268666267395,-10.1011371612549,-5.40850162506104,4.25626420974731,3.79660248756409,1.73957681655884,1.78591585159302,0.92571479082108,-0.3371562063694,-6.67982292175293,-1.62326872348785,4.57292509078979,6.10042572021484,2.87543630599976,-0.74699091911316,SWING_RIGHT
1.52332818508148,1.49935972690582,1.49882709980011,-0.37588965892792,0.64643448591232,0.4716577231884,-0.09267801046371,-0.15393070876598,-0.31531828641891,0.13795174658298,-0.07137271761894,-0.248206615448,-1.78607451915741,-1.52271223068237,-1.21386027336121,8.84418106079102,8.9471321105957,8.99980449676514,1.80455803871155,1.19256353378296,0.07723167538643,8.42040729522705,8.67419242858887,10.7810897827148,1.09935295581818,1.38537645339966,1.15687716007233,-0.19441075623035,-1.31560158729553,-1.94197714328766,2.83473491668701,3.36385345458984,2.38462495803833,14.7411003112793,13.8911581039429,12.6916627883911,-7.82063913345337,-13.9357900619507,-13.8542966842651,48.508918762207,30.0975093841553,31.9075260162354,6.00169992446899,7.01636457443237,6.11248731613159,-0.66099661588669,0.35473304986954,0.40480050444603,-43.0764770507813,-58.4424629211426,-53.8360176086426,41.8338851928711,20.508731842041,17.7553997039795,-14.2452487945557,-13.5512294769287,-12.9871711730957,33.9330215454102,35.1157569885254,28.8956203460693,2.8687572479248,1.55794930458069,0.54594802856445,-0.46072688698769,-0.00372842559591,0.52144694328308,-44.2520294189453,-44.2520294189453,-31.8356990814209,8.05888271331787,8.05888271331787,8.02297019958496,-0.90068107843399,0.90281164646149,2.22160911560059,-22.8263187408447,-15.5503396987915,-12.7084226608276,2.20563006401062,1.8668760061264,1.01572966575623,0.01438106968999,0.18162758648396,-0.28069719672203,-9.60793113708496,-9.60793113708496,1.34554135799408,6.34463453292847,6.34463453292847,4.83868169784546,SWING_RIGHT
