gyro_x_0,gyro_y_0,gyro_z_0,acc_x_0,acc_y_0,acc_z_0,gyro_x_1,gyro_y_1,gyro_z_1,acc_x_1,acc_y_1,acc_z_1,gyro_x_2,gyro_y_2,gyro_z_2,acc_x_2,acc_y_2,acc_z_2,gyro_x_3,gyro_y_3,gyro_z_3,acc_x_3,acc_y_3,acc_z_3,gyro_x_4,gyro_y_4,gyro_z_4,acc_x_4,acc_y_4,acc_z_4,gyro_x_5,gyro_y_5,gyro_z_5,acc_x_5,acc_y_5,acc_z_5,gyro_x_6,gyro_y_6,gyro_z_6,acc_x_6,acc_y_6,acc_z_6,gyro_x_7,gyro_y_7,gyro_z_7,acc_x_7,acc_y_7,acc_z_7,gyro_x_8,gyro_y_8,gyro_z_8,acc_x_8,acc_y_8,acc_z_8,gyro_x_9,gyro_y_9,gyro_z_9,acc_x_9,acc_y_9,acc_z_9,gyro_x_10,gyro_y_10,gyro_z_10,acc_x_10,acc_y_10,acc_z_10,gyro_x_11,gyro_y_11,gyro_z_11,acc_x_11,acc_y_11,acc_z_11,gyro_x_12,gyro_y_12,gyro_z_12,acc_x_12,acc_y_12,acc_z_12,gyro_x_13,gyro_y_13,gyro_z_13,acc_x_13,acc_y_13,acc_z_13,gyro_x_14,gyro_y_14,gyro_z_14,acc_x_14,acc_y_14,acc_z_14,motion_type
-0.11783749610186,0.26894998550415,0.64171248674393,-3.13128757476807,-3.90403747558594,-4.06944990158081,5.8279504776001,6.60405015945435,5.713050365448,12.6000003814697,10.5960006713867,10.0879507064819,1.86450004577637,0.75886249542236,-0.5546749830246,4.97805023193359,1.82100009918213,-0.58200001716614,-0.0749375000596,-1.08652496337891,-3.08948755264282,0.38747498393059,1.91014993190765,7.52015018463135,-0.97695004940033,-3.11100006103516,-2.88105010986328,0.98205006122589,0.41700002551079,1.89705014228821,-9.05258750915527,-8.78418731689453,-7.96661233901978,-20.5710010528564,-21.4650001525879,-18.2620506286621,-5.5668249130249,-2.18556237220764,0.24681249260902,15.6608371734619,4.67362499237061,-1.3058375120163,-5.30805015563965,-6.69705009460449,0.78900003433228,4.95105028152466,9.5149507522583,14.5380010604858,-4.70868730545044,0.89869999885559,6.78259992599487,34.9440002441406,24.8730010986328,19.5229511260986,17.0900115966797,13.1995878219604,8.17781257629395,-17.9537868499756,-5.33059978485107,-1.63611245155334,9.87795066833496,6.71400022506714,2.47500014305115,3.34095025062561,4.19595003128052,4.46700000762939,-1.46066248416901,-1.48596251010895,-0.8787624835968,0.33195000886917,-5.89695024490356,-11.1780004501343,-9.08847522735596,-12.9394378662109,-11.4307870864868,6.49632501602173,20.4807624816895,25.0734004974365,-4.42905044555664,-2.28299999237061,-6.34200048446655,3.32895016670227,4.21500015258789,3.31695008277893,-8.10700035095215,0.12017499655485,-1.19281244277954,-9.66000080108643,6.89595031738281,29.3160018920898,SHAKE
-13.0541124343872,-13.5562620162964,-12.0924377441406,19.0566749572754,23.288236618042,22.7840251922607,-2.29005002975464,-3.18600010871887,-5.66700029373169,6.48105049133301,7.38105058670044,7.38600015640259,-0.6347000002861,-0.45086249709129,-1.07126247882843,-0.08895000070333,13.6450510025024,21.6450004577637,3.39473748207092,15.6184873580933,17.5944995880127,-14.5492877960205,-24.6175880432129,-22.0035743713379,13.1470508575439,13.7680501937866,11.1430501937866,-1.99200010299683,-2.4300000667572,3.82995009422302,7.63922500610352,0.49321249127388,-1.10109996795654,12.0139503479004,6.0600004196167,-0.42900002002716,1.53518748283386,-3.50006246566772,-12.637900352478,0.70523750782013,3.30742502212524,11.3194122314453,-5.09700012207031,-5.05605030059814,-3.90705013275146,3.57300019264221,4.29195022583008,5.14695024490356,-12.7936878204346,-12.9046497344971,-5.76221227645874,-26.881950378418,-20.1690006256104,-9.23805046081543,1.96239995956421,4.7933874130249,6.80528736114502,3.55258750915527,-0.50283747911453,-5.41172504425049,-2.76900005340576,3.5029501914978,10.7839508056641,9.27105045318604,7.91595029830933,1.8270001411438,-2.14733743667603,12.0544872283936,13.4080371856689,23.2180519104004,23.0359516143799,21.0960006713867,25.5734882354736,22.6491374969482,1.80564999580383,-16.2399883270264,-4.5636248588562,0.44041249155998,9.6940507888794,6.48405027389526,-2.70900011062622,7.98495054244995,6.91395044326782,1.28595006465912,-1.24148750305176,-2.00227499008179,-19.0415496826172,-8.03295040130615,-15.3049507141113,-23.6250019073486,SHAKE
-15.1985626220703,-15.1828870773315,-2.20247507095337,22.7275123596191,24.8591747283936,15.1877002716064,-2.55105018615723,-4.66605043411255,-4.44300031661987,6.11205005645752,6.28200006484985,8.25300025939941,-0.8732625246048,-1.75615000724792,-3.12949991226196,1.72305011749268,18.0090007781982,22.7490005493164,9.17441272735596,23.3492870330811,26.1324253082275,-17.1628875732422,-19.9797115325928,-20.3088874816895,13.6840505599976,14.6509504318237,13.195050239563,-5.50995016098022,-3.35400009155273,4.41600036621094,14.7181377410889,13.5474624633789,-1.39094996452332,14.9650506973267,9.02805042266846,-1.38705003261566,-1.72658753395081,-7.24253749847412,-18.2340126037598,1.58633744716644,3.47366237640381,8.57009983062744,-6.14595031738281,-6.18900012969971,-4.49805021286011,1.47495007514954,2.62695002555847,2.51205015182495,-19.9219627380371,-19.4341125488281,-18.204174041748,-31.2000007629395,-24.8650512695313,-15.38805103302,-3.61570000648499,0.35062500834465,2.42673754692078,13.022762298584,1.46492505073547,-5.33362483978271,-5.64105033874512,-2.13900017738342,7.16700029373169,9.01200008392334,11.2759504318237,5.46495008468628,-0.26702499389648,9.76538753509522,17.2286128997803,21.844051361084,24.8539505004883,21.373950958252,24.9953002929688,25.1145114898682,18.8575744628906,-17.792911529541,-11.8425998687744,-3.3515625,12.9079504013062,8.77605056762695,3.93900012969971,-4.20195007324219,-0.61905002593994,0.90495002269745,-1.2644499540329,-1.50053751468658,-15.1457624435425,-1.89195013046265,-7.03005027770996,-24.6670513153076,SHAKE
10.354437828064,22.4570503234863,24.9953002929688,-20.0006122589111,-19.4426364898682,-17.792911529541,15.9060010910034,15.9330005645752,12.9079504013062,-9.51195049285889,-7.56495046615601,-4.20195007324219,17.0730991363525,6.55118751525879,-1.2644499540329,9.19500064849854,3.94605016708374,-1.89195013046265,2.71700000762939,-5.04019975662231,-10.8552122116089,-1.6411999464035,-1.12626254558563,1.03812503814697,-5.66700029373169,-3.47295022010803,-2.29200005531311,0.9250500202179,3.48495006561279,3.93300008773804,-25.7075500488281,-25.2158489227295,-11.3426504135132,-21.0910511016846,-16.4779510498047,-13.9630508422852,-0.18658749759197,0.91107499599457,1.59293746948242,-0.98917502164841,-2.79069995880127,-6.70821237564087,-3.13305020332336,-0.21795001626015,10.2300004959106,10.9189500808716,14.076000213623,5.05800008773804,0.73479998111725,16.9984378814697,17.4875240325928,25.5730514526367,18.7950000762939,12.6130504608154,22.0860748291016,10.5894250869751,3.04191255569458,-8.1378002166748,-3.33781242370605,-1.4860999584198,6.31695032119751,0.13005000352859,-4.76895046234131,5.69295024871826,4.2460503578186,2.46000003814697,-12.2647247314453,-23.4445743560791,-24.6549873352051,-28.5420017242432,-27.1930503845215,-17.6179504394531,-14.3842878341675,-5.56833744049072,-2.2922625541687,11.5746126174927,11.0848379135132,3.40381240844727,-6.04500007629395,-2.72805023193359,1.98405003547668,2.98395013809204,1.52295005321503,2.91495013237,-0.33893749117851,1.04005002975464,9.5287504196167,9.53595066070557,15.1950006484985,21.1110000610352,SHAKE
16.6285629272461,19.7390880584717,20.0716991424561,-13.189962387085,-12.4803247451782,-9.37378787994385,23.7480010986328,22.090051651001,16.8790512084961,-1.20405006408691,-0.1710000038147,1.10699999332428,-0.02694999985397,-1.45640003681183,-1.72081243991852,4.21095037460327,-0.03405000269413,-4.94100046157837,-5.23517513275146,-13.847074508667,-18.5395374298096,0.47299998998642,-0.42927500605583,8.433424949646,-8.65095043182373,-8.13600063323975,-6.04800033569336,2.92005014419556,0.38805001974106,0.87900006771088,-21.0308990478516,-20.2805614471436,-10.7816495895386,-24.2760009765625,-15.2280006408691,-8.93595027923584,-0.7537750005722,1.91193747520447,7.78181266784668,0.85428750514984,-4.71336269378662,-16.3641490936279,5.24400043487549,17.0130004882813,23.4100513458252,13.735050201416,6.50505018234253,-1.92195010185242,17.4927501678467,18.3352127075195,18.4864616394043,20.7799510955811,19.1520004272461,13.6960506439209,20.2406883239746,8.68463706970215,4.61312484741211,-2.25390005111694,-2.3782000541687,-1.60586249828339,12.1339502334595,6.07500028610229,-0.72600001096725,-2.56200003623962,1.86300003528595,4.38495016098022,-1.46465003490448,-1.16187500953674,-11.9707498550415,-6.75900030136108,-16.92405128479,-29.1450004577637,-13.0575494766235,-13.7643003463745,-13.3625249862671,2.93741250038147,3.62450003623962,3.95862507820129,-7.66005039215088,-10.1530504226685,-10.1959505081177,2.75400018692017,2.53605008125305,1.23600006103516,-2.20288753509521,-1.49902498722076,-1.92486250400543,5.80695009231567,13.1160001754761,20.7130508422852,SHAKE
8.93791198730469,15.4301128387451,16.8174877166748,-13.2742500305176,-16.4551753997803,-16.7242622375488,26.3299503326416,27.1729507446289,23.5609512329102,3.15705013275146,-3.18705010414124,-7.33695030212402,3.70658755302429,-1.98962497711182,-1.17480003833771,14.0839509963989,9.48495006561279,-3.20700025558472,1.04678750038147,-1.97848749160767,-11.3352251052856,-0.91767501831055,-0.79750001430511,1.78694999217987,-10.8109502792358,-9.80295085906982,-8.67495059967041,2.92905020713806,3.63300013542175,5.17995023727417,-24.337911605835,-24.8931369781494,-23.4348125457764,-22.9609508514404,-12.1500005722046,-2.22795009613037,-4.14108753204346,-1.92032504081726,1.86037504673004,2.98072504997253,1.0089750289917,-5.34985017776489,-1.54305005073547,8.51294994354248,23.9320507049561,0.89805006980896,0.79800003767014,4.33305025100708,5.58717489242554,4.71845006942749,4.22014999389648,23.9659519195557,20.1240005493164,14.6509504318237,8.92897510528564,1.25785005092621,0.28352499008179,-4.05350017547607,-0.12815000116825,0.3119874894619,13.9500007629395,7.9980001449585,1.5700501203537,2.17500019073486,4.58895015716553,5.25195026397705,-1.24368751049042,-0.90392500162125,-4.98052501678467,-2.57505011558533,-11.7720003128052,-22.7170505523682,-15.3566875457764,-17.0570125579834,-16.2944374084473,7.11122512817383,10.5234251022339,11.153037071228,-8.93595027923584,-9.03705024719238,-9.26205062866211,-0.48495003581047,1.00394999980927,1.0110000371933,-18.5701999664307,-0.59509998559952,-0.41648748517036,-5.2020001411438,8.28105068206787,15.2190008163452,SHAKE
10.4479370117188,10.3833122253418,8.92897510528564,-9.45766258239746,-8.6574125289917,-4.05350017547607,25.6590003967285,20.416051864624,13.9500007629395,-0.21900001168251,0.09795000404119,2.17500019073486,-2.67107486724854,-1.84566247463226,-1.24368751049042,5.75400018692017,2.70495009422302,-2.57505011558533,-2.65526247024536,-8.90463733673096,-15.3566875457764,0.35585001111031,0.31556248664856,7.11122512817383,-10.4280004501343,-10.3849506378174,-8.93595027923584,1.557000041008,-0.81600004434586,-0.48495003581047,-22.5561866760254,-22.6483116149902,-18.5701999664307,-23.3659515380859,-13.678050994873,-5.2020001411438,-1.62607502937317,-0.12003749608994,5.76894998550415,1.40167498588562,-0.48922500014305,-10.0715999603271,4.90605020523071,14.7520503997803,22.2270011901855,3.3030002117157,3.50205016136169,2.93595004081726,8.74555015563965,7.95327472686768,7.36986255645752,24.4999504089355,20.3850002288818,15.5370006561279,8.93420028686523,3.05277490615845,1.40318751335144,-3.22464990615845,-1.17754995822906,-0.21257500350475,15.0949506759644,8.92005062103271,3.87405014038086,0.18705001473427,3.68100023269653,6.76095008850098,-1.68671250343323,-4.07206249237061,-20.0058364868164,-8.3730001449585,-16.9519500732422,-24.3360004425049,-17.3329753875732,-17.0168628692627,-6.25734996795654,8.05309963226318,9.75383758544922,9.42589950561523,-7.90905046463013,-8.1670503616333,-4.31595039367676,1.07295000553131,-0.17895001173019,0.2250000089407,-1.36606252193451,-0.90736252069473,0.70235002040863,8.52705001831055,13.2619504928589,17.3959503173828,SHAKE
13.6646127700806,13.7977123260498,8.93420028686523,-13.2026128768921,-12.4048376083374,-3.22464990615845,26.7319507598877,21.5230503082275,15.0949506759644,-3.25395011901855,-2.81595015525818,0.18705001473427,-2.40514993667603,-1.9354499578476,-1.68671250343323,5.65095043182373,2.29095005989075,-8.3730001449585,-7.16416263580322,-14.5023994445801,-17.3329753875732,0.19346250593662,2.18198752403259,8.05309963226318,-8.89095020294189,-8.58600044250488,-7.90905046463013,0.64200001955032,0.91995006799698,1.07295000553131,-23.9086380004883,-5.4421124458313,-1.36606252193451,-17.1889514923096,0.08205000311136,8.52705001831055,-1.34255003929138,2.01671242713928,11.6265878677368,1.26142501831055,-2.28745007514954,-7.82223749160767,12.7069501876831,21.5440502166748,27.5290508270264,3.31995010375977,1.81095004081726,2.44995021820068,17.6981754302979,17.3783493041992,15.5577125549316,19.4490013122559,17.1660003662109,12.5719509124756,2.64357495307922,0.94448751211166,-0.02172499895096,0.40713748335838,0.71967500448227,0.61751252412796,12.9750003814697,7.26795053482056,1.89105010032654,3.8580002784729,4.8070502281189,4.45695018768311,-1.10233747959137,-0.93073749542236,-21.0812244415283,-2.17305016517639,-7.95405054092407,-25.4830513000488,-17.4132747650146,-16.5493621826172,-12.0780000686646,10.1550626754761,11.4306497573853,12.2809495925903,-7.70700025558472,-8.83800029754639,-8.63400077819824,-0.43995001912117,-0.15705001354218,-0.07800000160933,-2.15283751487732,-0.48922500014305,0.0244750007987,-0.68805003166199,13.2430505752563,22.1500511169434,SHAKE
13.4509372711182,13.6090621948242,11.4435749053955,-8.12611198425293,-7.34057474136353,-4.62632513046265,28.7680511474609,25.1989517211914,19.1779518127441,2.62500023841858,2.82600021362305,2.96700024604797,-1.26335000991821,-1.83012497425079,-1.50699996948242,8.07000064849854,4.75305032730103,1.77105009555817,-1.25537502765656,-3.08934998512268,-15.3191499710083,0.35557499527931,0.19538749754429,5.3917875289917,-3.59295010566711,-7.90605020523071,-8.4859504699707,2.50005006790161,0.32805001735687,-0.26205000281334,-22.5354251861572,-22.3341255187988,-19.2759876251221,-25.8019504547119,-16.3920001983643,-7.41795015335083,-4.34087514877319,-0.14327499270439,2.8862624168396,6.61856269836426,-0.0362999998033,-4.61601257324219,-5.30805015563965,12.8740501403809,21.3120002746582,0.10800000280142,5.71695041656494,5.82705020904541,16.3601627349854,15.6485996246338,14.6994371414185,22.5480003356934,19.0270500183105,16.8090000152588,15.0770120620728,4.45940017700195,2.67712497711182,-8.40331268310547,-1.98027503490448,-0.68942499160767,18.4860000610352,11.8759508132935,5.89995050430298,-3.28305006027222,-0.82995003461838,2.66595005989075,-1.58963751792908,-1.22938752174377,-1.36248743534088,0.29100000858307,-5.23605012893677,-13.2160511016846,-7.60512495040894,-12.1046752929688,-13.1256122589111,-1.91056251525879,3.67510008811951,5.34751224517822,-10.0860004425049,-9.10395050048828,-9.89400005340576,-0.85605001449585,-1.44105005264282,-1.53405010700226,-25.0339374542236,-16.947286605835,-2.68070006370544,-10.3999500274658,-2.20395016670227,3.39495015144348,SHAKE
16.9988498687744,15.0770120620728,4.45940017700195,-12.4367370605469,-8.40331268310547,-1.98027503490448,24.9169521331787,18.4860000610352,11.8759508132935,-2.82495021820068,-3.28305006027222,-0.82995003461838,-2.07033753395081,-1.58963751792908,-1.22938752174377,4.35300016403198,0.29100000858307,-5.23605012893677,-1.23076248168945,-7.60512495040894,-12.1046752929688,-0.59523749351501,-1.91056251525879,3.67510008811951,-8.79495048522949,-10.0860004425049,-9.10395050048828,1.32000005245209,-0.85605001449585,-1.44105005264282,-24.9991493225098,-25.0339374542236,-16.947286605835,-20.5540504455566,-10.3999500274658,-2.20395016670227,-3.31113743782043,-2.20659995079041,-1.37170004844666,2.72250008583069,1.20064997673035,-0.19910000264645,-2.77800011634827,5.94300031661987,16.1989517211914,-0.10695000737906,2.4190502166748,5.7940502166748,-8.89391231536865,-9.94042491912842,-10.0938749313354,21.1950016021729,18.5290508270264,16.3570499420166,1.39686250686646,1.93737494945526,1.4082750082016,-2.54471254348755,-0.80905002355576,-0.13048750162125,19.7670001983643,14.0809507369995,8.55405044555664,1.16595005989075,2.23200011253357,3.88005018234253,-1.3474999666214,-0.9345874786377,-0.66852498054504,3.21300005912781,-0.25200000405312,-6.20595026016235,-12.3809127807617,-16.9175872802734,-16.746675491333,0.08552499860525,8.82378768920898,10.4983997344971,-10.1890506744385,-9.11805057525635,-9.46995067596436,-2.97795009613037,-2.30505013465881,-0.72900003194809,-22.3766117095947,-6.53331232070923,-1.07690000534058,-10.7250003814697,-3.1189501285553,2.94705009460449,SHAKE
1.39686250686646,1.93737494945526,1.4082750082016,-2.54471254348755,-0.80905002355576,-0.13048750162125,19.7670001983643,14.0809507369995,8.55405044555664,1.16595005989075,2.23200011253357,3.88005018234253,-1.3474999666214,-0.9345874786377,-0.66852498054504,3.21300005912781,-0.25200000405312,-6.20595026016235,-12.3809127807617,-16.9175872802734,-16.746675491333,0.08552499860525,8.82378768920898,10.4983997344971,-10.1890506744385,-9.11805057525635,-9.46995067596436,-2.97795009613037,-2.30505013465881,-0.72900003194809,-22.3766117095947,-6.53331232070923,-1.07690000534058,-10.7250003814697,-3.1189501285553,2.94705009460449,-1.56089997291565,-1.36510002613068,4.86557483673096,1.05159997940063,0.05775000154972,-3.74948740005493,4.48905038833618,16.1790008544922,25.2690010070801,-0.16695000231266,4.51695013046265,8.30100059509277,-25.7465991973877,-25.7720375061035,-14.9304370880127,20.707950592041,17.5009517669678,11.356050491333,0.97721248865128,0.7067499756813,0.18328750133514,-0.83943748474121,-0.29686251282692,-0.39930000901222,13.3800010681152,7.70595026016235,2.84895014762878,2.84805011749268,4.83600044250488,5.21205043792725,-1.55595004558563,-2.06703758239746,-6.03501224517822,-2.89800024032593,-7.94700050354004,-12.1339502334595,-12.7474870681763,-16.799337387085,-16.4174995422363,0.81427496671677,7.54008722305298,9.50537490844727,-11.695050239563,-10.8450002670288,-9.75,-5.25795030593872,-5.93400049209595,-3.20100021362305,-21.6730251312256,-5.82766246795654,-1.30858755111694,-11.4889507293701,-3.54000020027161,-0.01995000056922,SHAKE
0.7067499756813,0.18328750133514,-0.693274974823,-0.29686251282692,-0.39930000901222,-0.60637497901917,7.70595026016235,2.84895014762878,-1.55895006656647,4.83600044250488,5.21205043792725,4.55100011825562,-2.06703758239746,-6.03501224517822,-21.7683124542236,-7.94700050354004,-12.1339502334595,-17.3260517120361,-16.799337387085,-16.4174995422363,-12.2098627090454,7.54008722305298,9.50537490844727,11.0148496627808,-10.8450002670288,-9.75,-9.18495082855225,-5.93400049209595,-3.20100021362305,0.61800003051758,-5.82766246795654,-1.30858755111694,-0.9453125,-3.54000020027161,-0.01995000056922,2.29800009727478,-0.37345001101494,1.91853749752045,5.32963752746582,-0.07521250098944,-1.45529997348785,-3.59658741950989,11.8540506362915,20.9959506988525,28.162052154541,0.99405002593994,4.23000001907349,4.43595027923584,10.5281000137329,9.57976245880127,7.64156246185303,19.3309516906738,18.4950008392334,13.3320007324219,0.71307498216629,-0.08456250280142,-0.38898751139641,-0.0749375000596,0.45925000309944,0.33329999446869,18.0499515533447,12.1459503173828,6.69495010375977,2.87205004692078,3.19305014610291,3.05805015563965,-1.00045001506805,-1.01681244373322,-1.49778747558594,1.63200008869171,-3.02505016326904,-8.29395008087158,-7.58120012283325,-15.1956748962402,-19.5654239654541,-1.71984994411469,2.1984875202179,7.74798727035522,-9.65205001831055,-12.1549501419067,-10.6960506439209,1.56900012493134,-3.10995006561279,-6.22800016403198,-23.2498741149902,-18.2605495452881,-1.83108747005463,-21.9679508209229,-14.3370008468628,-7.56105041503906,SHAKE
-0.08456250280142,-0.38898751139641,-0.71417498588562,0.45925000309944,0.33329999446869,-0.03849999979138,12.1459503173828,6.69495010375977,1.34700012207031,3.19305014610291,3.05805015563965,2.63895010948181,-1.01681244373322,-1.49778747558594,-5.7088623046875,-3.02505016326904,-8.29395008087158,-11.6809501647949,-15.1956748962402,-19.5654239654541,-19.3183364868164,2.1984875202179,7.74798727035522,9.95101261138916,-12.1549501419067,-10.6960506439209,-9.76200008392334,-3.10995006561279,-6.22800016403198,-5.85495042800903,-18.2605495452881,-1.83108747005463,-0.54065001010895,-14.3370008468628,-7.56105041503906,4.6210503578186,-0.35777500271797,4.27404975891113,10.1418628692627,-1.0095249414444,-7.1061372756958,-14.7146997451782,9.88095092773438,20.1150016784668,27.2089519500732,12.9790506362915,11.4670505523682,6.57900047302246,-11.8914127349854,-12.2167377471924,-10.502387046814,27.5700016021729,23.7450008392334,17.121000289917,6.69789981842041,5.25607490539551,4.19911241531372,-6.8767876625061,-3.05511260032654,-2.20357489585876,14.0689506530762,8.51805019378662,3.64395022392273,-4.36304998397827,-1.2109500169754,0.69000005722046,-0.90378749370575,-0.31556248664856,0.59647500514984,1.43595004081726,-2.63505005836487,-8.81895065307617,0.1552374958992,-0.63593751192093,-0.51507496833801,1.94603753089905,5.06893730163574,5.50852489471436,-11.7600002288818,-10.8640508651733,-11.953950881958,-1.61805009841919,-6.58005046844482,-2.68905019760132,9.5493745803833,1.9962249994278,-0.91643750667572,-6.14400005340576,-0.4200000166893,17.0299510955811,SHAKE
13.866325378418,10.8784503936768,6.69789981842041,-18.9177989959717,-13.8748502731323,-6.8767876625061,27.0270004272461,20.566951751709,14.0689506530762,-6.28305006027222,-6.75795030593872,-4.36304998397827,-1.97229993343353,-1.28713750839233,-0.90378749370575,6.88200044631958,4.25699996948242,1.43595004081726,2.25609993934631,0.92454999685287,0.1552374958992,-1.99539995193481,-1.38971245288849,1.94603753089905,-6.12405014038086,-9.7069501876831,-11.7600002288818,1.72005009651184,1.19505000114441,-1.61805009841919,14.3790626525879,14.1990747451782,9.5493745803833,-26.0970020294189,-15.1470003128052,-6.14400005340576,-0.99384999275208,-1.13987493515015,-0.10587500035763,1.84043753147125,-0.06751249730587,-2.95473742485046,-5.13300037384033,14.1370506286621,24.8179512023926,0.06900000572205,5.23095035552979,6.40905046463013,-14.7897748947144,-16.7195873260498,-17.1912117004395,25.3669509887695,22.8420009613037,17.5249500274658,0.78498750925064,0.4839999973774,-0.21408750116825,-1.18799996376038,-0.20061250030994,-0.16609999537468,13.1190004348755,6.79095029830933,0.92805004119873,3.61395025253296,4.35900020599365,4.43805027008057,-2.05603742599487,-8.04292488098145,-23.9505748748779,-4.26405000686646,-12.3750009536743,-19.9990501403809,-18.0245990753174,-16.9137382507324,-11.8663873672485,8.7023754119873,10.3973379135132,12.1741123199463,-9.65895080566406,-10.3230009078979,-9.92505073547363,-5.28495025634766,-1.82895004749298,1.36800003051758,-2.45286250114441,-0.90681248903275,-1.18992495536804,-1.71495008468628,2.37195014953613,7.66305017471313,SHAKE
6.11077499389648,1.94947493076324,1.36826252937317,-4.88014984130859,-0.81303751468658,-0.33852499723434,21.0030002593994,14.5170011520386,8.58195018768311,0.15600000321865,1.1620500087738,3.62805008888245,-1.37362504005432,-1.18250000476837,-1.70266246795654,1.53900003433228,-3.62205028533936,-8.54295063018799,-14.7779502868652,-19.113187789917,-19.0969619750977,0.43532499670982,6.8781623840332,9.15062522888184,-13.2139501571655,-11.953950881958,-11.4769506454468,-3.61305022239685,-4.23105001449585,-2.12595009803772,-19.4603748321533,-4.47617483139038,-1.33869993686676,-8.24595069885254,-2.34000015258789,1.80900013446808,-2.1646625995636,-0.47781249880791,17.6257133483887,1.54962503910065,-0.0314874984324,-11.4794626235962,6.58695030212402,15.6859502792358,29.719051361084,1.83495008945465,9.14205074310303,11.8750505447388,17.3908615112305,16.9848251342773,12.2453374862671,14.0569505691528,14.4880504608154,11.6140508651733,3.71580004692078,1.67901253700256,1.15706253051758,0.24103750288486,0.01278750039637,-0.41057500243187,18.2659511566162,6.83400011062622,1.22505009174347,2.64705014228821,4.39305019378662,4.71600008010864,-0.27761250734329,-0.80905002355576,-5.29168748855591,-2.30400013923645,-6.28995037078857,-11.9250001907349,-17.4817504882813,-23.0077381134033,-22.7787990570068,3.19797492027283,8.60667514801025,10.2224378585815,-15.3949508666992,-16.7059516906738,-14.5860004425049,-5.82105016708374,-7.31595039367676,-2.74605011940002,-16.9417877197266,-0.0449624992907,-0.2894375026226,-11.8650007247925,1.39695012569427,3.85695028305054,SHAKE
11.7767372131348,3.71580004692078,1.67901253700256,1.1281875371933,0.24103750288486,0.01278750039637,23.5660514831543,18.2659511566162,6.83400011062622,3.60000014305115,2.64705014228821,4.39305019378662,-0.36423748731613,-0.27761250734329,-0.80905002355576,1.25400006771088,-2.30400013923645,-6.28995037078857,-8.59168720245361,-17.4817504882813,-23.0077381134033,-2.09976243972778,3.19797492027283,8.60667514801025,-11.1130504608154,-15.3949508666992,-16.7059516906738,-1.67100012302399,-5.82105016708374,-7.31595039367676,-21.9302883148193,-16.9417877197266,-0.0449624992907,-21.0430507659912,-11.8650007247925,1.39695012569427,0.09707500040531,2.51872491836548,11.3092374801636,-0.63964998722076,-2.23973751068115,-12.6241502761841,9.28695011138916,19.2520503997803,28.2649517059326,2.93595004081726,8.72700023651123,11.860050201416,19.6598873138428,18.5083255767822,14.1157503128052,16.9960498809814,11.6890506744385,8.0910005569458,4.8570499420166,1.56640005111694,0.40906250476837,0.42239999771118,0.39668750762939,0.22371250391006,15.0540008544922,8.86305046081543,3.46005010604858,4.51500034332275,3.68595027923584,3.66900014877319,-1.66649997234344,-2.66461253166199,-5.93133735656738,-3.06105017662048,-6.29505014419556,-8.6419506072998,-12.4328870773315,-18.458137512207,-19.8291492462158,-1.23681247234344,5.08653736114502,8.14439964294434,-14.6070003509521,-15.4290008544922,-13.206000328064,-1.88895010948181,-5.98905038833618,-4.58100032806396,-17.515438079834,-6.59711265563965,-0.93334996700287,-13.7209510803223,-4.27305030822754,-2.01705002784729,SHAKE
14.7930746078491,4.8570499420166,1.56640005111694,-0.25382500886917,0.42239999771118,0.39668750762939,21.6310501098633,15.0540008544922,8.86305046081543,6.85695028305054,4.51500034332275,3.68595027923584,-1.32893753051758,-1.66649997234344,-2.66461253166199,0.37695002555847,-3.06105017662048,-6.29505014419556,-6.20716238021851,-12.4328870773315,-18.458137512207,-1.91345000267029,-1.23681247234344,5.08653736114502,-9.69105052947998,-14.6070003509521,-15.4290008544922,3.83400011062622,-1.88895010948181,-5.98905038833618,-21.4554996490479,-17.515438079834,-6.59711265563965,-21.553050994873,-13.7209510803223,-4.27305030822754,-4.74100017547607,-0.04289999976754,4.77015018463135,3.95257496833801,0.80753749608994,-2.13248753547669,-3.10905003547669,14.6680507659912,24.937952041626,1.72005009651184,3.6910502910614,8.59800052642822,23.2098617553711,24.9981880187988,23.2531757354736,26.6290512084961,22.7509517669678,15.058051109314,13.243724822998,4.48648738861084,0.681725025177,-6.93096256256104,0.25354999303818,0.25877499580383,23.0800514221191,15.6979503631592,9.06599998474121,7.70700025558472,5.59200048446655,3.29595017433167,-1.15747499465942,-1.77828752994537,-2.73941254615784,1.29000008106232,-1.14300000667572,-3.50400018692017,-4.78871250152588,-12.3836622238159,-21.0644493103027,-1.29923748970032,-2.53481245040894,5.66486263275146,-9.23505020141602,-12.1690502166748,-15.6160507202148,2.40705013275146,-1.03395009040833,-6.97095012664795,-22.2952117919922,-19.5021743774414,-6.72691249847412,-21.951000213623,-21.2539501190186,-12.6270008087158,SHAKE
4.48648738861084,0.681725025177,-0.32010000944138,0.25354999303818,0.25877499580383,0.33989998698235,15.6979503631592,9.06599998474121,3.47595024108887,5.59200048446655,3.29595017433167,1.60695004463196,-1.77828752994537,-2.73941254615784,-4.39766263961792,-1.14300000667572,-3.50400018692017,-7.31700038909912,-12.3836622238159,-21.0644493103027,-23.172737121582,-2.53481245040894,5.66486263275146,8.09118747711182,-12.1690502166748,-15.6160507202148,-14.614951133728,-1.03395009040833,-6.97095012664795,-7.06695032119751,-19.5021743774414,-6.72691249847412,1.29662501811981,-21.2539501190186,-12.6270008087158,-4.45800018310547,0.46818751096725,1.87522494792938,5.2849497795105,0.94737499952316,-0.61599999666214,-4.11042499542236,2.91300010681152,14.0119504928589,24.7080020904541,5.81505012512207,5.25705003738403,9.2590503692627,15.4628372192383,22.0908870697021,21.1554756164551,25.1920509338379,17.3959503173828,13.7629508972168,10.7369623184204,3.13334989547729,1.42092502117157,1.72438752651215,-0.22274999320507,-0.17902499437332,14.0929508209229,7.43295049667358,1.98195004463196,1.33605003356934,0.26295000314713,2.16300010681152,-2.46056246757507,-3.14159989356995,-6.43733739852905,-3.13095021247864,-6.23205041885376,-9.99195003509522,-11.9750127792358,-15.8934869766235,-15.6270122528076,3.40917491912842,5.84539985656738,6.82426261901855,-13.9300508499146,-13.0150508880615,-12.318000793457,-2.6100001335144,-2.7240002155304,-0.37695002555847,-3.45386242866516,-0.34993749856949,0.13144999742508,-5.1259503364563,-3.1470000743866,3.15795016288757,SHAKE
10.7369623184204,3.13334989547729,1.42092502117157,1.72438752651215,-0.22274999320507,-0.17902499437332,14.0929508209229,7.43295049667358,1.98195004463196,1.33605003356934,0.26295000314713,2.16300010681152,-2.46056246757507,-3.14159989356995,-6.43733739852905,-3.13095021247864,-6.23205041885376,-9.99195003509522,-11.9750127792358,-15.8934869766235,-15.6270122528076,3.40917491912842,5.84539985656738,6.82426261901855,-13.9300508499146,-13.0150508880615,-12.318000793457,-2.6100001335144,-2.7240002155304,-0.37695002555847,-3.45386242866516,-0.34993749856949,0.13144999742508,-5.1259503364563,-3.1470000743866,3.15795016288757,0.86666250228882,7.89414978027344,20.9730129241943,-0.93857496976852,-9.79192447662354,-12.6770877838135,13.94700050354,24.8850002288818,32.2600517272949,9.8700008392334,8.49495029449463,6.27000045776367,14.2594375610352,13.7032499313354,14.1439371109009,17.659049987793,13.3050003051758,8.07705020904541,1.19652497768402,0.31294998526573,-0.48798748850822,-0.02818750031292,-0.0662750005722,-0.40273749828339,9.84000015258789,4.78905010223389,0.94695001840591,4.23195028305054,3.29805016517639,3.39600014686584,-3.15383744239807,-4.6941123008728,-11.1040878295898,-4.34505033493042,-6.07200050354004,-7.83705043792725,-14.2223119735718,-18.5112133026123,-17.9218883514404,2.81778740882874,7.33878755569458,9.722900390625,-12.9070510864258,-12.4660501480103,-11.3770503997803,-5.35395002365112,-7.31100034713745,-5.54100036621094,-13.5807371139526,-2.47664999961853,-0.04702499881387,-15.9250507354736,-8.8279504776001,-4.08599996566772,SHAKE
0.31294998526573,-0.48798748850822,-1.72081243991852,-0.0662750005722,-0.40273749828339,-0.82005000114441,4.78905010223389,0.94695001840591,-2.49105000495911,3.29805016517639,3.39600014686584,3.89400029182434,-4.6941123008728,-11.1040878295898,-21.7068500518799,-6.07200050354004,-7.83705043792725,-11.3020505905151,-18.5112133026123,-17.9218883514404,-13.8177871704102,7.33878755569458,9.722900390625,11.9031000137329,-12.4660501480103,-11.3770503997803,-11.9269504547119,-7.31100034713745,-5.54100036621094,-1.5700501203537,-2.47664999961853,-0.04702499881387,-0.12622499465942,-8.8279504776001,-4.08599996566772,-0.4909500181675,1.68671250343323,5.18773746490479,15.0955753326416,-1.96047496795654,-6.47569990158081,-18.8185253143311,7.12905025482178,19.3840503692627,28.3489513397217,9.98700046539307,12.562050819397,6.96195030212402,14.3057746887207,13.3984127044678,13.7553625106812,22.1190013885498,18.2389507293701,12.8239507675171,15.6043252944946,5.04281234741211,2.69389986991882,0.6404749751091,-1.02973747253418,-0.42734998464584,19.8820514678955,13.7680501937866,8.17094993591309,5.12505006790161,2.63505005836487,1.1620500087738,-1.92912495136261,-1.90863752365112,-1.68904995918274,2.91600012779236,-0.43605002760887,-5.06295013427734,-2.48228740692139,-9.94496250152588,-17.5579242706299,-0.9619500041008,-1.14578747749329,6.63176250457764,-10.3159503936768,-13.4290504455566,-13.312050819397,1.02495002746582,-1.69200003147125,-3.42105007171631,-20.6985626220703,-5.46700000762939,0.81702500581741,-22.0819511413574,-8.37795066833496,-2.2590000629425,SHAKE
15.6043252944946,5.04281234741211,2.69389986991882,0.6404749751091,-1.02973747253418,-0.42734998464584,19.8820514678955,13.7680501937866,8.17094993591309,5.12505006790161,2.63505005836487,1.1620500087738,-1.92912495136261,-1.90863752365112,-1.68904995918274,2.91600012779236,-0.43605002760887,-5.06295013427734,-2.48228740692139,-9.94496250152588,-17.5579242706299,-0.9619500041008,-1.14578747749329,6.63176250457764,-10.3159503936768,-13.4290504455566,-13.312050819397,1.02495002746582,-1.69200003147125,-3.42105007171631,-20.6985626220703,-5.46700000762939,0.81702500581741,-22.0819511413574,-8.37795066833496,-2.2590000629425,-0.32463750243187,0.28228750824928,14.3328628540039,0.26867499947548,-1.15018749237061,-17.3756008148193,-1.46400010585785,8.64495086669922,28.582950592041,4.96005010604858,9.54195022583008,12.1669502258301,16.792049407959,16.6185245513916,16.9338130950928,20.7180004119873,19.8030014038086,16.5289516448975,15.6098251342773,3.99918746948242,2.83208751678467,0.85909998416901,-0.73521250486374,-0.89072501659393,19.0630512237549,5.69400024414063,0.05400000140071,-1.47000002861023,2.77800011634827,4.93905019760132,-0.32078748941422,-0.47244998812675,-4.94518756866455,-4.19204998016357,-9.10605049133301,-13.8559503555298,-20.4712753295898,-23.3296241760254,-22.4336757659912,6.16096258163452,9.89738750457764,11.0830497741699,-14.1499509811401,-12.5020503997803,-12.2050504684448,-4.72200012207031,-4.30995035171509,-2.59500002861023,-13.2822246551514,-0.01869999989867,-0.84603750705719,-8.25795078277588,3.6889500617981,11.2549505233765,SHAKE
25.0296745300293,15.6098251342773,3.99918746948242,-11.6403369903564,0.85909998416901,-0.73521250486374,26.0040016174316,19.0630512237549,5.69400024414063,0.46905001997948,-1.47000002861023,2.77800011634827,-0.69464999437332,-0.32078748941422,-0.47244998812675,1.34205007553101,-4.19204998016357,-9.10605049133301,-10.3505878448486,-20.4712753295898,-23.3296241760254,-0.93761247396469,6.16096258163452,9.89738750457764,-13.9030504226685,-14.1499509811401,-12.5020503997803,-0.84195005893707,-4.72200012207031,-4.30995035171509,-17.9987506866455,-13.2822246551514,-0.01869999989867,-17.1340503692627,-8.25795078277588,3.6889500617981,-1.20340001583099,1.72603750228882,9.67243766784668,0.46750000119209,-2.82988739013672,-11.4453620910645,8.85795021057129,19.2240009307861,27.2010021209717,8.20800018310547,8.28194999694824,7.67805051803589,4.89651250839233,4.04580020904541,4.62041234970093,18.1410007476807,17.2620010375977,13.7509508132935,10.6688995361328,2.60658740997314,0.72448748350143,-1.8133499622345,-0.4478375017643,-0.26963749527931,20.0670013427734,14.2680006027222,3.95295023918152,4.20795011520386,3.4459502696991,4.06905031204224,-1.17947494983673,-1.30212497711182,-2.7219500541687,-1.13100004196167,-5.26905012130737,-8.49600028991699,-12.7549123764038,-19.9233379364014,-20.8162631988525,-2.22626256942749,7.2837872505188,9.97356224060059,-12.6580505371094,-10.9549503326416,-9.46305084228516,-2.20995020866394,-2.75100016593933,-1.54605007171631,-19.0401744842529,-6.18612480163574,0.42006251215935,-14.4810009002686,-6.94395017623901,-1.62900006771088,SHAKE
2.60658740997314,0.72448748350143,-0.23828749358654,-0.4478375017643,-0.26963749527931,-0.595787525177,14.2680006027222,3.95295023918152,-0.66105002164841,3.4459502696991,4.06905031204224,3.81105017662048,-1.30212497711182,-2.7219500541687,-15.4530744552612,-5.26905012130737,-8.49600028991699,-14.4900007247925,-19.9233379364014,-20.8162631988525,-18.3244876861572,7.2837872505188,9.97356224060059,11.3498001098633,-10.9549503326416,-9.46305084228516,-9.4150505065918,-2.75100016593933,-1.54605007171631,-1.21305000782013,-6.18612480163574,0.42006251215935,0.2389750033617,-6.94395017623901,-1.62900006771088,1.87200009822845,0.09762500226498,3.23097491264343,12.4964122772217,-0.08841250091791,-3.6342625617981,-14.1433877944946,9.7300500869751,18.7570514678955,26.2410011291504,6.15000009536743,10.6480503082275,9.74805068969727,18.7603626251221,17.7870006561279,16.8803253173828,16.9939498901367,16.006950378418,12.7879505157471,8.65191268920898,2.30257487297058,0.99756246805191,0.42556250095367,0.30208748579025,0.39902499318123,18.7399501800537,13.2840003967285,8.53695011138916,7.7310004234314,5.43705034255981,3.86805009841919,-1.50562500953674,-1.58290004730225,-1.60641252994537,2.67105007171631,0.14205001294613,-3.80400013923645,-4.51068735122681,-9.94028759002686,-12.2637624740601,-1.69248747825623,4.88592481613159,8.93694972991943,-9.25200080871582,-9.75495052337646,-8.33295059204102,-0.72495001554489,-1.54905009269714,-2.10405015945435,-18.5509490966797,-2.35963749885559,0.09171249717474,-12.6529502868652,-7.05405044555664,-0.35205000638962,SHAKE
8.65191268920898,2.30257487297058,0.99756246805191,0.42556250095367,0.30208748579025,0.39902499318123,18.7399501800537,13.2840003967285,8.53695011138916,7.7310004234314,5.43705034255981,3.86805009841919,-1.50562500953674,-1.58290004730225,-1.60641252994537,2.67105007171631,0.14205001294613,-3.80400013923645,-4.51068735122681,-9.94028759002686,-12.2637624740601,-1.69248747825623,4.88592481613159,8.93694972991943,-9.25200080871582,-9.75495052337646,-8.33295059204102,-0.72495001554489,-1.54905009269714,-2.10405015945435,-18.5509490966797,-2.35963749885559,0.09171249717474,-12.6529502868652,-7.05405044555664,-0.35205000638962,-0.3965499997139,1.07799994945526,8.32864952087402,-0.28366249799728,-2.65086245536804,-13.9095001220703,3.47205018997192,13.4130010604858,23.6260509490967,9.22800064086914,14.5620002746582,13.9990510940552,16.5453758239746,17.4228992462158,17.6162242889404,20.4829502105713,20.4709510803223,16.9770011901855,17.9321994781494,7.00246238708496,3.01743745803833,-3.23812508583069,-0.66027498245239,-0.01608750037849,19.2949504852295,13.1929502487183,3.89100027084351,4.23195028305054,3.28605008125305,1.47105002403259,-1.09848749637604,-1.06053745746613,-1.70582497119904,-0.4120500087738,-4.35495042800903,-8.61000061035156,-1.90643751621246,-5.83096265792847,-7.08454990386963,-1.44663751125336,3.61858749389648,4.33908748626709,-9.46305084228516,-8.97195053100586,-7.5400505065918,-1.75200009346008,-1.97505009174347,-1.3090500831604,-26.109188079834,-19.9806747436523,-0.56430000066757,-16.6720504760742,-9.28605079650879,5.14995002746582,SHAKE
23.9717502593994,17.9321994781494,7.00246238708496,-14.4339246749878,-3.23812508583069,-0.66027498245239,25.7839508056641,19.2949504852295,13.1929502487183,5.7940502166748,4.23195028305054,3.28605008125305,-1.1782374382019,-1.09848749637604,-1.06053745746613,1.8550500869751,-0.4120500087738,-4.35495042800903,0.39971250295639,-1.90643751621246,-5.83096265792847,-0.51301246881485,-1.44663751125336,3.61858749389648,-7.27200031280518,-9.46305084228516,-8.97195053100586,-1.31595003604889,-1.75200009346008,-1.97505009174347,-27.0792503356934,-26.109188079834,-19.9806747436523,-22.6860008239746,-16.6720504760742,-9.28605079650879,-0.46186250448227,0.26014998555183,3.53952503204346,-0.52621251344681,-1.8356249332428,-6.82123756408691,-0.60405004024506,8.92305088043213,18.409049987793,5.57805013656616,10.9140005111694,12.4570503234863,11.1259498596191,17.5089740753174,17.6763114929199,21.1540508270264,20.2650012969971,16.0380001068115,11.8655624389648,4.45060014724731,2.80279994010925,0.05321250110865,-0.47863748669624,-0.42350000143051,16.4740505218506,11.028000831604,1.38795006275177,1.25505006313324,0.31905001401901,1.43205010890961,-0.37001249194145,-0.36533749103546,-1.65013754367828,-2.38305020332336,-7.27905035018921,-11.9779500961304,-12.2981376647949,-14.8146619796753,-14.8055877685547,4.79118728637695,7.66919994354248,8.48099994659424,-11.2090501785278,-9.19200038909912,-9.57300090789795,-1.07895004749298,-0.03705000132322,0.29505002498627,-18.9221992492676,0.20624999701977,0.38252499699593,-11.0340003967285,-4.34295034408569,0.81795001029968,SHAKE
11.8655624389648,4.45060014724731,2.80279994010925,0.05321250110865,-0.47863748669624,-0.42350000143051,16.4740505218506,11.028000831604,1.38795006275177,1.25505006313324,0.31905001401901,1.43205010890961,-0.37001249194145,-0.36533749103546,-1.65013754367828,-2.38305020332336,-7.27905035018921,-11.9779500961304,-12.2981376647949,-14.8146619796753,-14.8055877685547,4.79118728637695,7.66919994354248,8.48099994659424,-11.2090501785278,-9.19200038909912,-9.57300090789795,-1.07895004749298,-0.03705000132322,0.29505002498627,-18.9221992492676,0.20624999701977,0.38252499699593,-11.0340003967285,-4.34295034408569,0.81795001029968,-0.61916249990463,1.1032999753952,9.4972620010376,-0.0937749966979,-2.38658738136292,-16.0320873260498,5.9239501953125,16.0650005340576,25.0699520111084,6.86400032043457,11.3089504241943,9.75705051422119,9.88446235656738,9.09301280975342,7.75871229171753,23.6590518951416,22.2240009307861,11.7559509277344,4.79421234130859,3.3989999294281,2.59586238861084,-1.03207504749298,-0.2880625128746,-0.30401250720024,11.8780508041382,6.50400018692017,1.78305006027222,0.19605000317097,1.72005009651184,2.59395003318787,-1.20161247253418,-3.19055008888245,-22.8023128509521,-7.42500019073486,-13.1560506820679,-19.9530010223389,-15.392162322998,-15.3803377151489,-12.4899501800537,7.3741250038147,8.43576240539551,8.71309947967529,-8.32800006866455,-8.38304996490479,-8.29395008087158,-1.08900010585785,-2.34405016899109,-2.38905000686646,-0.36231249570847,6.80363750457764,15.893349647522,8.4190502166748,20.0659503936768,22.2169513702393,SHAKE
2.39662504196167,1.50301253795624,0.8124874830246,0.01306249946356,0.39434999227524,0.3299999833107,13.945050239563,8.57295036315918,3.85695028305054,5.62800025939941,5.43195009231567,5.07495021820068,-0.83558750152588,-1.68203747272491,-14.8271751403809,0.4420500099659,-9.07800006866455,-15.5200510025024,-20.703649520874,-21.7490615844727,-19.2128753662109,10.221474647522,13.3645877838135,14.0790376663208,-10.2049503326416,-9.45300006866455,-10.0710000991821,-3.38295006752014,-2.44905018806458,-1.57200002670288,-5.79672479629517,1.06534993648529,0.0276375003159,-6.58200025558472,-0.73305004835129,4.47000026702881,-0.26455000042915,2.2624249458313,8.48567485809326,0.00618749996647,-3.70768737792969,-12.1101751327515,9.55695056915283,18.6010513305664,25.7479515075684,6.19095039367676,9.25200080871582,9.39795017242432,-11.2131252288818,-12.2299375534058,-11.1524877548218,20.7160511016846,18.9310512542725,16.3759498596191,2.58610010147095,2.14362502098084,1.79987502098084,-0.32394999265671,0.22948749363422,0.08841250091791,13.0110006332397,7.70805025100708,2.83905005455017,0.6400500535965,0.35205000638962,0.8809500336647,-0.87023746967316,-0.96387499570847,-2.61621236801147,-2.28000020980835,-7.26900053024292,-9.39795017242432,-7.52716255187988,-12.1635246276855,-12.7253503799438,-1.71338748931885,4.08265018463135,5.29086256027222,-11.2900505065918,-10.3849506378174,-9.04395008087158,-0.04395000264049,-1.125,-1.29000008106232,-23.5922508239746,-8.1609001159668,0.23292499780655,-17.7210006713867,-9.82500076293945,-1.50000011920929,SHAKE
2.58610010147095,2.14362502098084,1.79987502098084,-0.32394999265671,0.22948749363422,0.08841250091791,13.0110006332397,7.70805025100708,2.83905005455017,0.6400500535965,0.35205000638962,0.8809500336647,-0.87023746967316,-0.96387499570847,-2.61621236801147,-2.28000020980835,-7.26900053024292,-9.39795017242432,-7.52716255187988,-12.1635246276855,-12.7253503799438,-1.71338748931885,4.08265018463135,5.29086256027222,-11.2900505065918,-10.3849506378174,-9.04395008087158,-0.04395000264049,-1.125,-1.29000008106232,-23.5922508239746,-8.1609001159668,0.23292499780655,-17.7210006713867,-9.82500076293945,-1.50000011920929,-1.21343743801117,0.14382499456406,14.6885747909546,0.77673751115799,-1.14647495746613,-13.4994745254517,2.19300007820129,14.5720510482788,29.0670013427734,8.06895065307617,10.7920503616333,7.56600046157837,22.7486877441406,22.6187496185303,20.4368991851807,24.082950592041,19.1560516357422,12.4020004272461,7.26604986190796,3.38813757896423,2.43443751335144,-0.65065002441406,-0.43422499299049,-0.2246749997139,14.2950010299683,8.83200073242188,3.93600010871887,0.7540500164032,1.27695000171661,2.06895017623901,-0.84149998426437,-0.71334999799728,-6.66063737869263,0.41295000910759,-3.52800011634827,-13.9230003356934,-14.5233001708984,-15.5181121826172,-14.5488748550415,7.13638734817505,9.33899974822998,9.91952514648438,-9.72405052185059,-8.49795055389404,-9.30495071411133,-3.76200008392334,-2.37705016136169,-0.80805003643036,-10.8908252716064,1.11911249160767,0.08964999765158,-7.59705018997192,-0.53895002603531,4.49895000457764,SHAKE
7.26604986190796,3.38813757896423,2.43443751335144,-0.65065002441406,-0.43422499299049,-0.2246749997139,14.2950010299683,8.83200073242188,3.93600010871887,0.7540500164032,1.27695000171661,2.06895017623901,-0.84149998426437,-0.71334999799728,-6.66063737869263,0.41295000910759,-3.52800011634827,-13.9230003356934,-14.5233001708984,-15.5181121826172,-14.5488748550415,7.13638734817505,9.33899974822998,9.91952514648438,-9.72405052185059,-8.49795055389404,-9.30495071411133,-3.76200008392334,-2.37705016136169,-0.80805003643036,-10.8908252716064,1.11911249160767,0.08964999765158,-7.59705018997192,-0.53895002603531,4.49895000457764,-0.30140000581741,1.49957501888275,7.3238000869751,-0.33934998512268,-3.36723756790161,-10.9121370315552,8.04600048065186,18.1720504760742,25.5270004272461,5.37000036239624,8.47395038604736,7.22805023193359,-3.12262487411499,-4.1472749710083,-3.78716254234314,21.6400508880615,20.9929504394531,16.9549503326416,5.82697486877441,2.0761125087738,1.25551247596741,-4.59483766555786,-0.21821250021458,-0.10903749614954,18.0310516357422,7.41600036621094,3.06000018119812,0.89100003242493,4.03095006942749,4.74195003509521,-1.03620004653931,-1.35602498054504,-3.45015001296997,-1.41300010681152,-5.63295030593872,-9.52305030822754,-17.8690872192383,-18.185474395752,-14.8312997817993,8.61588764190674,11.1870002746582,11.9202871322632,-8.52195072174072,-8.12895011901855,-8.13899993896484,-4.71000003814697,-3.17700004577637,-1.33500003814697,-6.03652477264404,-0.18823750317097,0.08607500046492,-5.91105031967163,-1.01295006275177,4.53194999694824,SHAKE
10.7329750061035,5.82697486877441,2.0761125087738,-12.0697498321533,-4.59483766555786,-0.21821250021458,24.2320518493652,18.0310516357422,7.41600036621094,1.70295011997223,0.89100003242493,4.03095006942749,-1.18414998054504,-1.03620004653931,-1.35602498054504,1.98405003547668,-1.41300010681152,-5.63295030593872,-6.17072486877441,-17.8690872192383,-18.185474395752,0.35571250319481,8.61588764190674,11.1870002746582,-8.60595035552979,-8.52195072174072,-8.12895011901855,0.63000005483627,-4.71000003814697,-3.17700004577637,-22.0118255615234,-6.03652477264404,-0.18823750317097,-12.562050819397,-5.91105031967163,-1.01295006275177,-1.22526252269745,0.43793749809265,5.31258726119995,1.68382501602173,0.13103750348091,-5.83866262435913,5.10300016403198,13.7890510559082,22.0570507049561,2.99895024299622,5.27895021438599,7.24500036239624,23.6792869567871,23.8079872131348,18.4197750091553,19.5780010223389,16.2900009155273,11.7049503326416,3.37039995193481,1.26321244239807,0.31487500667572,0.70289999246597,0.74703747034073,0.65340000391006,15.3010511398315,9.99600028991699,5.30400037765503,5.92800045013428,5.01300001144409,3.87495017051697,-1.1779625415802,-1.51964998245239,-2.82686257362366,0.37200000882149,-3.72705006599426,-8.778000831604,-7.66480016708374,-12.0374374389648,-12.8299875259399,-1.72864997386932,7.17145013809204,9.13467502593994,-10.885950088501,-10.3780508041382,-9.64500045776367,-3.40695023536682,-3.00195002555847,0.10305000841618,-24.1597118377686,-15.0122499465942,-1.60916244983673,-15.1249504089355,-7.17300033569336,-2.80305004119873,SHAKE
1.26321244239807,0.31487500667572,-0.53542500734329,0.74703747034073,0.65340000391006,0.37152498960495,9.99600028991699,5.30400037765503,0.34395000338554,5.01300001144409,3.87495017051697,2.30595016479492,-1.51964998245239,-2.82686257362366,-11.8010749816895,-3.72705006599426,-8.778000831604,-15.0790510177612,-12.0374374389648,-12.8299875259399,-11.2117500305176,7.17145013809204,9.13467502593994,9.68178749084473,-10.3780508041382,-9.64500045776367,-10.0500001907349,-3.00195002555847,0.10305000841618,0.99195003509521,-15.0122499465942,-1.60916244983673,-0.68694996833801,-7.17300033569336,-2.80305004119873,4.55895042419434,-0.2774749994278,1.77072501182556,7.10393762588501,-0.77577501535416,-4.2861499786377,-13.390025138855,10.0600500106812,21.6139507293701,29.9680519104004,5.78895044326782,7.4320502281189,6.97905015945435,-13.657187461853,-14.2344121932983,-12.7945127487183,24.1980018615723,20.2219505310059,14.5909509658813,2.23616242408752,1.15183746814728,0.32229998707771,-2.0711624622345,0.03918749839067,-0.00178749999031,15.9060010910034,9.74400043487549,-1.15200006961823,2.63205003738403,2.86005020141602,2.64705014228821,-1.03839993476868,-0.74854999780655,-12.3549251556396,-3.79200029373169,-11.1900005340576,-20.0400009155273,-18.0929374694824,-17.2704124450684,-8.38722515106201,9.37901210784912,11.4153871536255,13.0633249282837,-10.6030502319336,-10.701000213623,-8.39505004882813,0.97995007038116,-1.05494999885559,-2.38005018234253,0.21175000071526,-0.35475000739098,-1.48816251754761,1.01400005817413,8.27100086212158,15.9090003967285,SHAKE
7.01786231994629,2.23616242408752,1.15183746814728,-11.3183126449585,-2.0711624622345,0.03918749839067,22.6800003051758,15.9060010910034,9.74400043487549,3.7390501499176,2.63205003738403,2.86005020141602,-1.39314997196198,-1.03839993476868,-0.74854999780655,0.78405004739761,-3.79200029373169,-11.1900005340576,-12.0514621734619,-18.0929374694824,-17.2704124450684,-1.19707500934601,9.37901210784912,11.4153871536255,-11.8390502929688,-10.6030502319336,-10.701000213623,1.14195001125336,0.97995007038116,-1.05494999885559,-7.19482517242432,0.21175000071526,-0.35475000739098,-5.08995008468628,1.01400005817413,8.27100086212158,-2.20838737487793,-5.00458765029907,-8.08802509307861,1.50232493877411,-0.52882498502731,2.80169987678528,13.7989501953125,23.5660514831543,29.9509506225586,4.31805038452148,8.22000026702881,9.28995037078857,-24.4076251983643,-24.3740749359131,-4.06628751754761,18.7900505065918,17.8320007324219,11.2030506134033,0.51631247997284,1.24162495136261,1.65110003948212,0.779212474823,0.21491250395775,-0.51617497205734,9.49995040893555,3.8950502872467,-1.61700010299683,-2.48295021057129,-0.67395001649857,1.11600005626678,0.70963752269745,2.17098760604858,8.17272472381592,-2.92200016975403,-9.91800022125244,-20.5399513244629,4.94793748855591,4.89169979095459,1.49751245975494,-0.43931248784065,0.39434999227524,0.93513751029968,-10.7110500335693,-11.1970500946045,-8.26995086669922,1.86600005626678,0.07395000010729,-2.68395018577576,1.68918752670288,0.03519999980927,-0.87835001945496,1.65795004367828,5.38305044174194,11.0920505523682,SHAKE
-0.83943748474121,0.51631247997284,1.24162495136261,0.8761500120163,0.779212474823,0.21491250395775,15.4510507583618,9.49995040893555,3.8950502872467,-2.08995008468628,-2.48295021057129,-0.67395001649857,-0.37468749284744,0.70963752269745,2.17098760604858,2.08200001716614,-2.92200016975403,-9.91800022125244,3.62931251525879,4.94793748855591,4.89169979095459,-0.78278750181198,-0.43931248784065,0.39434999227524,-12.2700004577637,-10.7110500335693,-11.1970500946045,1.75605010986328,1.86600005626678,0.07395000010729,11.183837890625,1.68918752670288,0.03519999980927,-3.79905009269714,1.65795004367828,5.38305044174194,-2.34684991836548,-5.15858745574951,-8.02188777923584,1.63460004329681,1.0760749578476,3.65887498855591,11.742000579834,21.1110000610352,29.3740520477295,3.65505027770996,10.5550508499146,13.4550008773804,-19.1254253387451,-19.4863624572754,-15.6881999969482,20.1430511474609,18.1549510955811,12.9750003814697,-2.13537502288818,-0.85140001773834,-0.59138751029968,0.90832501649857,0.94751250743866,0.60348749160767,15.8440504074097,9.33705043792725,3.94305014610291,6.37995052337646,5.83200025558472,5.60895013809204,-1.15775001049042,-1.30735003948212,-2.47912502288818,-0.4240500330925,-4.43400001525879,-9.31695079803467,-12.5448122024536,-19.2802505493164,-19.9493255615234,-1.3333375453949,9.48543739318848,12.0392246246338,-12.3229503631592,-11.4630002975464,-10.6960506439209,-4.01295042037964,-1.30695009231567,1.70505011081696,-19.7390880584717,0.14272500574589,-0.52428752183914,-13.6570510864258,1.43295001983643,9.83505058288574,SHAKE
-2.13537502288818,-0.85140001773834,-0.59138751029968,0.90832501649857,0.94751250743866,0.60348749160767,15.8440504074097,9.33705043792725,3.94305014610291,6.37995052337646,5.83200025558472,5.60895013809204,-1.15775001049042,-1.30735003948212,-2.47912502288818,-0.4240500330925,-4.43400001525879,-9.31695079803467,-12.5448122024536,-19.2802505493164,-19.9493255615234,-1.3333375453949,9.48543739318848,12.0392246246338,-12.3229503631592,-11.4630002975464,-10.6960506439209,-4.01295042037964,-1.30695009231567,1.70505011081696,-19.7390880584717,0.14272500574589,-0.52428752183914,-13.6570510864258,1.43295001983643,9.83505058288574,-1.84552502632141,-3.55231237411499,-7.9360876083374,0.96923750638962,-1.85679996013641,1.89942502975464,13.3699502944946,24.5310020446777,30.9040508270264,3.55395007133484,8.6050500869751,11.6350507736206,-29.8330993652344,-29.7877254486084,-19.5006618499756,22.0999507904053,18.4069499969482,14.2710008621216,-1.14730000495911,0.41827499866486,0.93486249446869,0.75198751688004,0.69107496738434,0.29315000772476,14.8890008926392,9.00900077819824,3.5269501209259,-0.55500000715256,0.50100004673004,2.03805017471313,-0.78979998826981,0.18864999711514,1.6883624792099,1.48395001888275,-3.70800018310547,-11.3500509262085,-10.1596002578735,-10.7104253768921,-10.2132253646851,11.6026620864868,13.1217622756958,13.2415246963501,-11.4150009155273,-11.3449506759644,-10.8880500793457,1.55400002002716,0.70695000886917,-0.29595002532005,8.33181285858154,1.2725625038147,-0.16183750331402,-2.27295017242432,3.73995018005371,9.52395057678223,SHAKE
-6.23878765106201,-1.14730000495911,0.41827499866486,4.72807502746582,0.75198751688004,0.69107496738434,21.4150505065918,14.8890008926392,9.00900077819824,0.72300004959106,-0.55500000715256,0.50100004673004,-1.60434997081757,-0.78979998826981,0.18864999711514,5.0779504776001,1.48395001888275,-3.70800018310547,-0.51094996929169,-10.1596002578735,-10.7104253768921,-0.39242500066757,11.6026620864868,13.1217622756958,-11.9830503463745,-11.4150009155273,-11.3449506759644,0.99600005149841,1.55400002002716,0.70695000886917,12.1412496566772,8.33181285858154,1.2725625038147,-11.1400508880615,-2.27295017242432,3.73995018005371,-1.49173748493195,-1.57877504825592,1.59211254119873,1.03949999809265,0.16706250607967,-3.25421237945557,4.71900033950806,14.1600008010864,23.392951965332,-0.06105000153184,3.66705012321472,6.13800048828125,-28.8913631439209,-30.788724899292,-17.6171875,19.7770500183105,20.0040016174316,15.1110010147095,-0.4086500108242,0.28682500123978,0.2088624984026,0.56196248531342,0.83118748664856,0.49059998989105,15.2530508041382,8.89395046234131,3.24600005149841,2.0500500202179,3.62100028991699,5.66700029373169,-0.36836248636246,-1.26541244983673,-15.4442749023438,-5.6650505065918,-10.6699504852295,-16.78005027771,-20.304349899292,-21.6407127380371,-19.3219127655029,8.83011245727539,12.1123752593994,13.2416620254517,-11.2279500961304,-10.9789505004883,-10.2319507598877,-2.26500010490417,-2.97795009613037,-2.71305012702942,-6.02799987792969,0.04881250113249,-0.59207499027252,-7.86795043945313,-0.55395001173019,5.01405000686646,SHAKE
-7.30496263504028,-0.4086500108242,0.28682500123978,-0.16664999723434,0.56196248531342,0.83118748664856,22.2150001525879,15.2530508041382,8.89395046234131,3.11595010757446,2.0500500202179,3.62100028991699,-1.15706253051758,-0.36836248636246,-1.26541244983673,3.57405018806458,-5.6650505065918,-10.6699504852295,-14.6723499298096,-20.304349899292,-21.6407127380371,-0.66371250152588,8.83011245727539,12.1123752593994,-11.6110506057739,-11.2279500961304,-10.9789505004883,-0.70095002651215,-2.26500010490417,-2.97795009613037,-20.2647495269775,-6.02799987792969,0.04881250113249,-15.03600025177,-7.86795043945313,-0.55395001173019,-2.88584995269775,0.60610002279282,4.49515008926392,2.97742509841919,-2.28305006027222,-8.41059970855713,-0.57705003023148,20.6170501708984,28.8829517364502,2.47605013847351,9.08700084686279,7.47705030441284,-22.4512748718262,-22.5850620269775,-20.2699756622314,24.9210014343262,22.92405128479,17.275951385498,3.3382248878479,3.06817507743835,2.80238747596741,-2.89327502250671,-0.3812874853611,-0.2041874974966,17.1970500946045,11.0179500579834,5.65095043182373,-2.13795018196106,-0.42300000786781,1.18605005741119,-0.7067499756813,0.36904999613762,0.78347498178482,2.53500008583069,-7.68105030059814,-14.0689506530762,-14.5975503921509,-16.8145999908447,-16.8166618347168,8.39437484741211,11.3130874633789,12.1844253540039,-11.9509506225586,-10.4899501800537,-10.3800001144409,-0.91605001688004,-0.76500004529953,-1.38300001621246,-7.70426225662232,2.04215002059937,0.71293747425079,-9.62100028991699,-2.60400009155273,2.74305009841919,SHAKE
3.3382248878479,3.06817507743835,2.80238747596741,-2.89327502250671,-0.3812874853611,-0.2041874974966,17.1970500946045,11.0179500579834,5.65095043182373,-2.13795018196106,-0.42300000786781,1.18605005741119,-0.7067499756813,0.36904999613762,0.78347498178482,2.53500008583069,-7.68105030059814,-14.0689506530762,-14.5975503921509,-16.8145999908447,-16.8166618347168,8.39437484741211,11.3130874633789,12.1844253540039,-11.9509506225586,-10.4899501800537,-10.3800001144409,-0.91605001688004,-0.76500004529953,-1.38300001621246,-7.70426225662232,2.04215002059937,0.71293747425079,-9.62100028991699,-2.60400009155273,2.74305009841919,-0.88192498683929,0.71692502498627,6.71137475967407,0.25726249814034,-2.01355004310608,-11.1728372573853,7.91400051116943,17.6430015563965,26.3850021362305,5.5969500541687,8.49495029449463,9.62595081329346,10.6196746826172,9.968337059021,10.0225124359131,23.5849514007568,21.9300003051758,17.485050201416,2.8254873752594,2.03431248664856,1.50218749046326,-0.42102500796318,0.07150000333786,0.03052499890327,13.2649507522583,7.63395023345947,2.27595019340515,1.99305009841919,2.50995016098022,2.95995020866394,-0.52717500925064,-0.20611250400543,-0.29493749141693,-0.91095006465912,-5.89005041122437,-12.7849502563477,-13.6053495407104,-18.6690616607666,-18.7800254821777,3.45496249198914,10.3529253005981,11.6789751052856,-11.8320007324219,-11.1420001983643,-10.8109502792358,-0.11595000326633,-0.34095001220703,-1.25895011425018,-0.16046249866486,0.50242501497269,-0.43669998645782,-4.37805032730103,2.26395010948181,7.588050365448,SHAKE
2.8254873752594,2.03431248664856,1.50218749046326,-0.42102500796318,0.07150000333786,0.03052499890327,13.2649507522583,7.63395023345947,2.27595019340515,1.99305009841919,2.50995016098022,2.95995020866394,-0.52717500925064,-0.20611250400543,-0.29493749141693,-0.91095006465912,-5.89005041122437,-12.7849502563477,-13.6053495407104,-18.6690616607666,-18.7800254821777,3.45496249198914,10.3529253005981,11.6789751052856,-11.8320007324219,-11.1420001983643,-10.8109502792358,-0.11595000326633,-0.34095001220703,-1.25895011425018,-0.16046249866486,0.50242501497269,-0.43669998645782,-4.37805032730103,2.26395010948181,7.588050365448,-1.26692497730255,4.20667505264282,4.37414979934692,0.06118749827147,-6.0124626159668,-7.96042490005493,12.9079504013062,21.8149509429932,28.5190505981445,6.35205030441284,10.03005027771,11.4550504684448,-14.8809375762939,-14.6264247894287,-9.95046234130859,21.1950016021729,18.7440013885498,14.7499504089355,2.07831239700317,2.11048746109009,1.96432495117188,0.19978749752045,0.10903749614954,-0.31845000386238,12.8029508590698,7.75605058670044,2.96895003318787,0.10995000600815,1.13505005836487,2.27100014686584,-0.42652499675751,-0.80781251192093,-15.8465995788574,-1.28700006008148,-10.8190507888794,-15.9559507369995,-19.0114364624023,-19.7503623962402,-17.1853008270264,8.52018737792969,10.2704248428345,10.3274869918823,-11.050950050354,-9.25005054473877,-7.63305044174194,-0.87300002574921,-0.70095002651215,-0.16200000047684,-1.6220874786377,1.06177496910095,0.88453751802444,-5.59500026702881,-0.78795003890991,2.72895002365112,SHAKE
1.45901250839233,2.07831239700317,2.11048746109009,-2.41298747062683,0.19978749752045,0.10903749614954,23.7810020446777,12.8029508590698,7.75605058670044,2.71095013618469,0.10995000600815,1.13505005836487,-0.73699998855591,-0.42652499675751,-0.80781251192093,2.98305010795593,-1.28700006008148,-10.8190507888794,-13.006537437439,-19.0114364624023,-19.7503623962402,0.93389999866486,8.52018737792969,10.2704248428345,-12.3030004501343,-11.050950050354,-9.25005054473877,0.5100000500679,-0.87300002574921,-0.70095002651215,-16.9276256561279,-1.6220874786377,1.06177496910095,-11.836950302124,-5.59500026702881,-0.78795003890991,-1.62854993343353,-0.67883747816086,7.41331243515015,2.42783737182617,2.0625,-4.13723754882813,4.46100044250488,14.0100002288818,29.7660007476807,0.36900001764297,5.39595031738281,6.89100027084351,27.3021373748779,26.4702625274658,19.5710620880127,19.326000213623,16.8070507049561,12.1369504928589,0.93128746747971,-0.60582500696182,-1.2227874994278,1.5691499710083,1.19528746604919,0.93389999866486,18.1549510955811,12.3469505310059,7.22700023651123,10.8450002670288,8.93295001983643,6.66495037078857,-0.95521247386932,-1.40662503242493,-2.29308748245239,1.97205007076263,-0.73305004835129,-3.47100019454956,-6.48147487640381,-12.6171369552612,-21.3285865783691,-1.10082495212555,-2.03142499923706,8.17891216278076,-8.83800029754639,-13.9320011138916,-14.1979503631592,-2.49900007247925,-3.96795010566711,-3.3469500541687,-20.3310241699219,-16.9058990478516,-4.25026226043701,-25.3660507202148,-18.435001373291,-7.68795013427734,SHAKE
-0.60582500696182,-1.2227874994278,-1.8327374458313,1.19528746604919,0.93389999866486,0.54917502403259,12.3469505310059,7.22700023651123,2.79105019569397,8.93295001983643,6.66495037078857,4.19895029067993,-1.40662503242493,-2.29308748245239,-4.31997489929199,-0.73305004835129,-3.47100019454956,-6.04995012283325,-12.6171369552612,-21.3285865783691,-21.4344615936279,-2.03142499923706,8.17891216278076,10.528374671936,-13.9320011138916,-14.1979503631592,-11.7169504165649,-3.96795010566711,-3.3469500541687,-1.71900010108948,-16.9058990478516,-4.25026226043701,2.02358746528625,-18.435001373291,-7.68795013427734,0.39600002765656,0.27335000038147,0.80753749608994,12.5023250579834,0.41538751125336,-0.63153749704361,-11.7005624771118,1.56300008296967,12.4380006790161,30.2910022735596,1.57395005226135,5.04900026321411,12.3319501876831,9.17001247406006,7.70811223983765,6.90497493743896,20.4589500427246,18.44700050354,14.2680006027222,5.5948748588562,2.8272750377655,3.13651251792908,-1.43563747406006,-0.03822499886155,-0.65312498807907,15.4420509338379,4.98000001907349,0.46305000782013,-3.2749502658844,-3.60600018501282,-1.37595009803772,-0.7871875166893,-1.38531243801117,-6.70064973831177,-4.18905019760132,-8.27805042266846,-13.6350002288818,0.80313748121262,-0.20006249845028,-1.44429993629456,-8.63816261291504,-9.66088771820068,-8.66717529296875,-10.2580509185791,-9.46500015258789,-8.99805068969727,1.43700003623962,0.81405001878738,0.30705001950264,-20.0230255126953,-0.46309998631477,-0.68103748559952,-8.00699996948242,4.30005025863647,12.3589506149292,SHAKE
14.3072872161865,5.5948748588562,2.8272750377655,-10.5330495834351,-1.43563747406006,-0.03822499886155,22.5550518035889,15.4420509338379,4.98000001907349,1.73205006122589,-3.2749502658844,-3.60600018501282,-0.80863749980927,-0.7871875166893,-1.38531243801117,0.21900001168251,-4.18905019760132,-8.27805042266846,6.37669992446899,0.80313748121262,-0.20006249845028,-5.39233732223511,-8.63816261291504,-9.66088771820068,-10.2319507598877,-10.2580509185791,-9.46500015258789,2.32095003128052,1.43700003623962,0.81405001878738,-25.6301364898682,-20.0230255126953,-0.46309998631477,-15.6280508041382,-8.00699996948242,4.30005025863647,-0.91465002298355,1.0813000202179,11.9994878768921,-0.03739999979734,-2.65457487106323,-11.2125749588013,9.65505027770996,20.3899517059326,28.7440509796143,4.84995031356812,6.99300050735474,9.28605079650879,9.63434982299805,9.44349956512451,9.52558708190918,24.2239513397217,21.1180515289307,15.3700504302979,4.40701246261597,1.66814994812012,0.98614996671677,-1.07249999046326,0.14767499268055,0.16224999725819,17.0080509185791,11.1070508956909,5.62695026397705,2.83800005912781,3.17100024223328,3.85605025291443,-0.93293750286102,-0.79199999570847,-0.80849999189377,1.6750500202179,-3.10200023651123,-8.50500011444092,-10.4248371124268,-18.1076507568359,-20.2355995178223,-0.55206251144409,6.89273738861084,10.5267248153687,-11.8530006408691,-11.1300001144409,-10.6320009231567,2.12400007247925,1.67205011844635,1.28100001811981,-19.2303371429443,-14.2573747634888,0.29782500863075,-11.5849504470825,-7.01505041122437,-5.13105010986328,SHAKE
4.40701246261597,1.66814994812012,0.98614996671677,-1.07249999046326,0.14767499268055,0.16224999725819,17.0080509185791,11.1070508956909,5.62695026397705,2.83800005912781,3.17100024223328,3.85605025291443,-0.93293750286102,-0.79199999570847,-0.80849999189377,1.6750500202179,-3.10200023651123,-8.50500011444092,-10.4248371124268,-18.1076507568359,-20.2355995178223,-0.55206251144409,6.89273738861084,10.5267248153687,-11.8530006408691,-11.1300001144409,-10.6320009231567,2.12400007247925,1.67205011844635,1.28100001811981,-19.2303371429443,-14.2573747634888,0.29782500863075,-11.5849504470825,-7.01505041122437,-5.13105010986328,-0.03011249937117,2.75618743896484,9.61441230773926,1.47344994544983,0.64020001888275,-4.08925008773804,11.0610008239746,20.6890506744385,28.7269515991211,2.19900012016296,3.55200028419495,5.86305046081543,25.9540882110596,25.7082366943359,23.3173866271973,17.7550506591797,16.6819515228271,12.4459505081177,1.59321248531342,0.0692999958992,-0.35103750228882,2.51803755760193,1.86064994335175,1.38132500648499,17.3749504089355,11.2789506912231,5.88600015640259,6.22905015945435,4.36605024337769,2.78805017471313,-0.8454874753952,-1.20766246318817,-4.97639989852905,-2.25195002555847,-6.11700010299683,-12.3300008773804,-16.3542499542236,-18.4755992889404,-17.2864990234375,6.50911235809326,9.60506248474121,10.4303379058838,-11.4799509048462,-10.0879507064819,-9.72600078582764,-2.02995014190674,-0.3870000243187,1.10895001888275,-16.1057872772217,-0.06324999779463,0.66068750619888,-7.96395015716553,-3.6979501247406,-1.18395006656647,SHAKE
8.21287536621094,1.59321248531342,0.0692999958992,-2.27191257476807,2.51803755760193,1.86064994335175,24.0730514526367,17.3749504089355,11.2789506912231,8.0710506439209,6.22905015945435,4.36605024337769,-0.18535000085831,-0.8454874753952,-1.20766246318817,3.05700016021729,-2.25195002555847,-6.11700010299683,-7.36642503738403,-16.3542499542236,-18.4755992889404,-1.24781250953674,6.50911235809326,9.60506248474121,-11.8750505447388,-11.4799509048462,-10.0879507064819,-1.32300007343292,-2.02995014190674,-0.3870000243187,-20.2357368469238,-16.1057872772217,-0.06324999779463,-15.7189502716064,-7.96395015716553,-3.6979501247406,0.02144999988377,1.29414999485016,5.99060010910034,1.04995000362396,-0.28104999661446,-7.14711236953735,0.20700001716614,18.7999515533447,27.9889507293701,-1.52700006961823,5.38905048370361,6.60300016403198,20.5698623657227,19.9370880126953,19.0988864898682,22.0950012207031,19.1320514678955,14.131950378418,6.62887477874756,1.14152503013611,0.56870001554489,1.70843744277954,0.56718748807907,0.50256252288818,17.6760005950928,11.4709501266479,5.79705047607422,2.29200005531311,2.04495000839233,2.27505016326904,-0.99494999647141,-1.17809998989105,-1.41831254959106,1.21800005435944,-1.95000004768372,-6.78495025634766,-7.23676252365112,-14.7959623336792,-17.3090496063232,-1.20560002326965,4.60061264038086,8.34982490539551,-9.33600044250488,-9.70005035400391,-9.42705059051514,0.0409500002861,-1.36695003509521,-1.16505002975464,-18.568000793457,-1.59554994106293,0.05252499878407,-8.6419506072998,-4.16100025177002,-0.42705002427101,SHAKE
6.62887477874756,1.14152503013611,0.56870001554489,1.70843744277954,0.56718748807907,0.50256252288818,17.6760005950928,11.4709501266479,5.79705047607422,2.29200005531311,2.04495000839233,2.27505016326904,-0.99494999647141,-1.17809998989105,-1.41831254959106,1.21800005435944,-1.95000004768372,-6.78495025634766,-7.23676252365112,-14.7959623336792,-17.3090496063232,-1.20560002326965,4.60061264038086,8.34982490539551,-9.33600044250488,-9.70005035400391,-9.42705059051514,0.0409500002861,-1.36695003509521,-1.16505002975464,-18.568000793457,-1.59554994106293,0.05252499878407,-8.6419506072998,-4.16100025177002,-0.42705002427101,-0.69341248273849,0.59317499399185,6.27646255493164,1.63006246089935,0.75652498006821,-6.62694978713989,8.62095069885254,18.1459503173828,27.0619506835938,1.99305009841919,5.09895038604736,7.26705026626587,25.8073749542236,26.4440002441406,25.3031616210938,22.8970508575439,20.1379508972168,13.3720502853394,6.16123723983765,2.05232501029968,0.76230001449585,1.53958749771118,0.49334999918938,0.30387499928474,16.8070507049561,10.7980508804321,5.59605026245117,2.82405018806458,3.02700018882751,3.43200016021729,-1.22952497005463,-1.7960250377655,-3.30838751792908,-0.25394999980927,-3.89205026626587,-8.65395069122314,-7.6146125793457,-12.4756498336792,-14.3020620346069,-1.95332503318787,4.01747512817383,7.05732488632202,-9.26700019836426,-9.42705059051514,-8.37105083465576,0.24405001103878,-1.72095012664795,-2.24295020103455,-24.1272621154785,-2.63436245918274,-0.60362499952316,-15.4750509262085,-3.52305006980896,0.88695001602173,SHAKE
6.16123723983765,2.05232501029968,0.76230001449585,1.53958749771118,0.49334999918938,0.30387499928474,16.8070507049561,10.7980508804321,5.59605026245117,2.82405018806458,3.02700018882751,3.43200016021729,-1.22952497005463,-1.7960250377655,-3.30838751792908,-0.25394999980927,-3.89205026626587,-8.65395069122314,-7.6146125793457,-12.4756498336792,-14.3020620346069,-1.95332503318787,4.01747512817383,7.05732488632202,-9.26700019836426,-9.42705059051514,-8.37105083465576,0.24405001103878,-1.72095012664795,-2.24295020103455,-24.1272621154785,-2.63436245918274,-0.60362499952316,-15.4750509262085,-3.52305006980896,0.88695001602173,-0.33495000004768,1.80688750743866,9.72991275787354,0.64666247367859,-2.29116249084473,-11.7100496292114,8.62095069885254,19.2499504089355,28.3290004730225,6.21300029754639,9.03404998779297,5.14905023574829,18.2774620056152,17.7853507995605,17.0018749237061,20.9359512329102,20.1460514068604,13.9180507659912,7.99108743667603,2.75742506980896,1.96459996700287,-0.38376250863075,-0.25959998369217,-0.17984999716282,16.8379516601563,11.0160007476807,5.89305019378662,0.28695002198219,1.16400003433228,2.42895007133484,-1.34158754348755,-1.44196248054504,-2.03747487068176,0.70995002985001,-2.89095020294189,-7.21695041656494,-12.7594499588013,-14.8754377365112,-14.2753877639771,3.60415005683899,6.75482511520386,7.91449975967407,-9.07695007324219,-8.65799999237061,-8.51895046234131,-1.62000012397766,-1.60095012187958,-1.78800010681152,-19.7106246948242,-0.91904997825623,-0.68543750047684,-6.72600030899048,3.58200025558472,9.65505027770996,SHAKE
16.4300117492676,15.1753253936768,7.99108743667603,-12.1521120071411,-9.63984966278076,-0.38376250863075,29.1580505371094,23.1060009002686,16.8379516601563,3.52305006980896,1.10895001888275,0.28695002198219,-1.06589996814728,-1.30432498455048,-1.34158754348755,5.36595010757446,3.18900012969971,0.70995002985001,0.24076250195503,-1.55044996738434,-12.7594499588013,-0.45319998264313,-0.48908749222755,3.60415005683899,-2.69700002670288,-6.94800043106079,-9.07695007324219,3.19500017166138,1.62405002117157,-1.62000012397766,-25.311824798584,-24.4825630187988,-19.7106246948242,-20.2620010375977,-14.4400510787964,-6.72600030899048,-1.89983749389648,-1.26664996147156,0.48056250810623,2.27163743972778,1.35781252384186,0.28984999656677,1.25895011425018,11.4780006408691,21.9250507354736,-0.06405000388622,3.76995015144348,6.32505035400391,22.5234622955322,23.2863121032715,21.5699005126953,18.5650501251221,17.0820007324219,11.9550008773804,1.82861244678497,0.81427496671677,0.34333750605583,0.41745001077652,0.20006249845028,0.08937499672174,16.4290504455566,10.5990009307861,5.69400024414063,3.29595017433167,4.18905019760132,4.48395013809204,-1.13038754463196,-1.29442501068115,-1.82888746261597,0.63105005025864,-1.90200006961823,-6.20595026016235,-8.85623741149902,-15.5490503311157,-18.2235622406006,-1.82105004787445,4.39587497711182,9.15241241455078,-9.43695068359375,-9.35295009613037,-8.84505081176758,-0.51105004549026,-1.79295003414154,-2.34795022010803,-22.4274883270264,-16.9756126403809,-1.62346243858337,-16.6579513549805,-9.7600507736206,-3.13305020332336,SHAKE
0.81427496671677,0.34333750605583,-0.22426250576973,0.20006249845028,0.08937499672174,-0.14946250617504,10.5990009307861,5.69400024414063,1.37805008888245,4.18905019760132,4.48395013809204,3.82995009422302,-1.29442501068115,-1.82888746261597,-7.0228123664856,-1.90200006961823,-6.20595026016235,-12.4309501647949,-15.5490503311157,-18.2235622406006,-17.1522998809814,4.39587497711182,9.15241241455078,10.8245496749878,-9.35295009613037,-8.84505081176758,-8.79195022583008,-1.79295003414154,-2.34795022010803,-2.50200009346008,-16.9756126403809,-1.62346243858337,-0.24818749725819,-9.7600507736206,-3.13305020332336,2.5489501953125,-1.27600002288818,-1.03977501392365,2.08546257019043,1.56529998779297,0.58891248703003,-7.5028247833252,5.7610502243042,16.8720016479492,25.4599514007568,2.10495018959045,8.00400066375732,10.3060503005981,14.8805246353149,14.8345994949341,6.55709981918335,21.5299510955811,19.4800510406494,9.74205017089844,1.30652499198914,1.1530749797821,1.34213745594025,0.00316249998286,0.06462500244379,-0.24103750288486,12.9610509872437,8.06295013427734,4.15395021438599,0.16500000655651,-0.77700001001358,-0.55500000715256,-1.13409996032715,-1.07538747787476,-1.64188754558563,0.5020500421524,-3.43200016021729,-8.42400074005127,1.47331249713898,-2.48627495765686,-3.7369749546051,-3.02458739280701,-1.47179996967316,-1.48417496681213,-9.51600074768066,-8.64405059814453,-8.80005073547363,-0.64800000190735,-1.10805010795593,-0.10905000567436,-21.4377632141113,-2.67533755302429,-0.93059998750687,-6.94095039367676,-1.32705008983612,3.40200018882751,SHAKE
1.30652499198914,1.1530749797821,1.34213745594025,0.00316249998286,0.06462500244379,-0.24103750288486,12.9610509872437,8.06295013427734,4.15395021438599,0.16500000655651,-0.77700001001358,-0.55500000715256,-1.13409996032715,-1.07538747787476,-1.64188754558563,0.5020500421524,-3.43200016021729,-8.42400074005127,1.47331249713898,-2.48627495765686,-3.7369749546051,-3.02458739280701,-1.47179996967316,-1.48417496681213,-9.51600074768066,-8.64405059814453,-8.80005073547363,-0.64800000190735,-1.10805010795593,-0.10905000567436,-21.4377632141113,-2.67533755302429,-0.93059998750687,-6.94095039367676,-1.32705008983612,3.40200018882751,-0.75776249170303,0.44206249713898,6.36391258239746,-0.04207500070333,-2.2152624130249,-7.07258749008179,10.4119501113892,21.9949512481689,30.328950881958,3.99495029449463,7.72905015945435,7.0290002822876,1.33278751373291,0.63841247558594,-3.15287494659424,21.973051071167,17.7619514465332,8.02395057678223,-0.1363999992609,-0.50599998235703,-1.16888749599457,0.26578751206398,0.30360001325607,0.04606249928474,9.81795024871826,4.77000045776367,0.62895005941391,4.95105028152466,4.78800010681152,4.27005004882813,-1.84442496299744,-2.50758743286133,-10.0104122161865,-3.1429500579834,-8.12895011901855,-13.5370502471924,-17.6219997406006,-19.5941619873047,-11.3352251052856,6.35387516021729,10.7692747116089,14.6130876541138,-10.8900003433228,-10.8450002670288,-9.70500087738037,-2.44695019721985,-2.36505007743835,-1.35495007038116,-0.80079996585846,-0.70922499895096,-1.38586246967316,1.39695012569427,6.53895044326782,10.5769500732422,SHAKE
0.75487500429153,-0.1363999992609,-0.50599998235703,-0.86624997854233,0.26578751206398,0.30360001325607,15.5020503997803,9.81795024871826,4.77000045776367,5.48895025253296,4.95105028152466,4.78800010681152,-1.84469997882843,-1.84442496299744,-2.50758743286133,0.88695001602173,-3.1429500579834,-8.12895011901855,-11.3697376251221,-17.6219997406006,-19.5941619873047,-1.90863752365112,6.35387516021729,10.7692747116089,-10.5070505142212,-10.8900003433228,-10.8450002670288,-1.06695008277893,-2.44695019721985,-2.36505007743835,-13.6669502258301,-0.80079996585846,-0.70922499895096,-8.33505058288574,1.39695012569427,6.53895044326782,-1.57258749008179,-2.0132749080658,-3.57500004768372,1.05599999427795,0.24763749539852,-0.01498750038445,9.60495090484619,18.9889507293701,26.1480007171631,0.34500002861023,6.27495050430298,9.74100017547607,-19.99098777771,-21.0727005004883,-20.8517379760742,17.9830513000488,15.7080011367798,12.6010503768921,-1.87522494792938,-1.34268748760223,-1.44581246376038,-0.44068750739098,0.39077499508858,0.52717500925064,17.7870006561279,12.3330001831055,7.77105045318604,8.98095035552979,7.10100030899048,5.7940502166748,-2.52725005149841,-2.68784999847412,-6.88228750228882,0.61200004816055,-2.3449501991272,-8.64405059814453,-8.01418781280518,-11.2597370147705,-12.1576128005981,-0.49156248569489,7.11067485809326,10.3164873123169,-9.25200080871582,-9.61905002593994,-8.57400035858154,-2.45400023460388,-3.25095009803772,-1.45305001735687,-20.3277244567871,-10.1259126663208,-2.42659997940063,-16.0830001831055,-7.48995018005371,1.65105009078979,SHAKE
-1.87522494792938,-1.34268748760223,-1.44581246376038,-0.44068750739098,0.39077499508858,0.52717500925064,17.7870006561279,12.3330001831055,7.77105045318604,8.98095035552979,7.10100030899048,5.7940502166748,-2.52725005149841,-2.68784999847412,-6.88228750228882,0.61200004816055,-2.3449501991272,-8.64405059814453,-8.01418781280518,-11.2597370147705,-12.1576128005981,-0.49156248569489,7.11067485809326,10.3164873123169,-9.25200080871582,-9.61905002593994,-8.57400035858154,-2.45400023460388,-3.25095009803772,-1.45305001735687,-20.3277244567871,-10.1259126663208,-2.42659997940063,-16.0830001831055,-7.48995018005371,1.65105009078979,-0.86267501115799,0.31872498989105,12.0626001358032,0.59523749351501,-0.75776249170303,-9.08737468719482,3.84000015258789,12.7620010375977,27.4620018005371,2.19600009918213,2.17005014419556,9.53700065612793,24.6119499206543,23.6285495758057,19.7590255737305,18.0550518035889,14.8450508117676,11.8420505523682,3.92026257514954,1.32797503471375,0.71719998121262,0.07603749632835,0.08167500048876,0.15042500197887,17.4870014190674,12.2179508209229,7.42800045013428,2.99595022201538,2.33505010604858,2.51205015182495,-1.1866250038147,-1.07126247882843,-4.19264984130859,2.03700017929077,-2.2350001335144,-11.5060501098633,-11.7585878372192,-15.8379373550415,-15.401237487793,1.65591251850128,7.42898750305176,8.80357456207275,-11.0340003967285,-9.73605060577393,-9.57600021362305,-1.774050116539,-0.3529500067234,0.80505001544952,-4.74113750457764,-0.92234998941422,-0.7958499789238,-1.51395010948181,2.81295013427734,6.42705011367798,SHAKE
11.3100624084473,3.92026257514954,1.32797503471375,-5.29127502441406,0.07603749632835,0.08167500048876,23.0770511627197,17.4870014190674,12.2179508209229,4.95300006866455,2.99595022201538,2.33505010604858,-1.50150001049042,-1.1866250038147,-1.07126247882843,4.36695003509521,2.03700017929077,-2.2350001335144,-5.03882503509521,-11.7585878372192,-15.8379373550415,-1.28686249256134,1.65591251850128,7.42898750305176,-10.0330505371094,-11.0340003967285,-9.73605060577393,-0.09195000678301,-1.774050116539,-0.3529500067234,-23.4448490142822,-4.74113750457764,-0.92234998941422,-18.9520511627197,-1.51395010948181,2.81295013427734,-0.83723747730255,-0.10271249711514,3.68967509269714,0.52676248550415,-0.32903748750687,-9.86947536468506,6.67605018615723,14.6470508575439,22.7920513153076,-0.41295000910759,3.31005024909973,7.40505027770996,13.5510377883911,12.6479377746582,4.86736249923706,17.7910499572754,15.046950340271,11.0040006637573,0.64583748579025,0.12223749607801,-0.31748750805855,0.11329999566078,0.54037499427795,0.41126251220703,16.2490501403809,11.2909507751465,6.68595027923584,5.06100034713745,5.24805021286011,5.42205047607422,-1.51016247272491,-1.65783751010895,-2.48985004425049,1.06005001068115,-2.52195000648499,-6.95100021362305,-14.0526371002197,-17.1005992889404,-16.1753616333008,1.70637500286102,8.40303707122803,10.925612449646,-9.48000049591064,-9.03900051116943,-8.68695068359375,-1.53900003433228,-1.28700006008148,-0.57105004787445,-17.4776248931885,-4.00826263427734,-0.71912497282028,-12.4549503326416,-5.80605030059814,-0.19395001232624,SHAKE
0.64583748579025,0.12223749607801,-0.31748750805855,0.11329999566078,0.54037499427795,0.41126251220703,16.2490501403809,11.2909507751465,6.68595027923584,5.06100034713745,5.24805021286011,5.42205047607422,-1.51016247272491,-1.65783751010895,-2.48985004425049,1.06005001068115,-2.52195000648499,-6.95100021362305,-14.0526371002197,-17.1005992889404,-16.1753616333008,1.70637500286102,8.40303707122803,10.925612449646,-9.48000049591064,-9.03900051116943,-8.68695068359375,-1.53900003433228,-1.28700006008148,-0.57105004787445,-17.4776248931885,-4.00826263427734,-0.71912497282028,-12.4549503326416,-5.80605030059814,-0.19395001232624,-1.2447874546051,-0.34897500276566,4.33853769302368,1.74006247520447,0.08415000140667,-6.3714747428894,2.92500019073486,11.0130004882813,20.9599514007568,1.85595011711121,5.60400009155273,8.46900081634521,10.4291000366211,10.0823249816895,9.68261241912842,21.1230010986328,18.2730007171631,13.6480503082275,3.62037491798401,2.13289999961853,1.51469993591309,-0.99041247367859,-0.22783750295639,-0.18067499995232,16.8499507904053,11.623950958252,6.97800016403198,1.41795003414154,2.58195018768311,3.41805005073547,-1.38916254043579,-1.363450050354,-1.71311247348785,1.77600014209747,-2.12700009346008,-6.47895050048828,-12.8005628585815,-16.1639499664307,-15.738112449646,0.77385002374649,7.43036222457886,9.21621227264404,-8.57400035858154,-8.18205070495605,-7.69800043106079,-0.91605001688004,-0.23400001227856,0.94605004787445,-21.2867870330811,-5.94000005722046,-0.96841251850128,-10.2340507507324,-3.84705018997192,1.33005011081696,SHAKE
3.62037491798401,2.13289999961853,1.51469993591309,-0.99041247367859,-0.22783750295639,-0.18067499995232,16.8499507904053,11.623950958252,6.97800016403198,1.41795003414154,2.58195018768311,3.41805005073547,-1.38916254043579,-1.363450050354,-1.71311247348785,1.77600014209747,-2.12700009346008,-6.47895050048828,-12.8005628585815,-16.1639499664307,-15.738112449646,0.77385002374649,7.43036222457886,9.21621227264404,-8.57400035858154,-8.18205070495605,-7.69800043106079,-0.91605001688004,-0.23400001227856,0.94605004787445,-21.2867870330811,-5.94000005722046,-0.96841251850128,-10.2340507507324,-3.84705018997192,1.33005011081696,-1.09298753738403,0.23856249451637,5.11211252212524,2.00090003013611,1.79244995117188,-4.40151262283325,6.99900054931641,14.5650005340576,22.4899501800537,-1.36905002593994,5.20695018768311,11.2350006103516,27.3080501556396,27.884449005127,26.2435245513916,18.5359516143799,17.146951675415,14.7499504089355,2.66901254653931,1.203125,0.53322499990463,1.77361249923706,1.22141253948212,0.24639999866486,19.8340511322021,14.5920009613037,5.19405031204224,4.29195022583008,2.76405024528503,2.95305013656616,-0.79640001058578,-1.22553753852844,-2.32498741149902,-0.70500004291534,-4.20105028152466,-9.60000038146973,-8.22167491912842,-13.1339998245239,-13.6787748336792,-2.02248740196228,5.85571241378784,7.51684999465942,-9.84600067138672,-8.51205062866211,-7.93305015563965,-0.27705001831055,2.2390501499176,3.0990002155304,-23.3003368377686,-12.7225999832153,-0.28421249985695,-11.1949501037598,-3.34395027160645,5.68005037307739,SHAKE
2.66901254653931,1.203125,0.53322499990463,1.77361249923706,1.22141253948212,0.24639999866486,19.8340511322021,14.5920009613037,5.19405031204224,4.29195022583008,2.76405024528503,2.95305013656616,-0.79640001058578,-1.22553753852844,-2.32498741149902,-0.70500004291534,-4.20105028152466,-9.60000038146973,-8.22167491912842,-13.1339998245239,-13.6787748336792,-2.02248740196228,5.85571241378784,7.51684999465942,-9.84600067138672,-8.51205062866211,-7.93305015563965,-0.27705001831055,2.2390501499176,3.0990002155304,-23.3003368377686,-12.7225999832153,-0.28421249985695,-11.1949501037598,-3.34395027160645,5.68005037307739,0.36066249012947,5.57892513275146,12.1992750167847,0.19910000264645,-8.22442531585693,-6.92724990844727,12.8380508422852,20.7850513458252,26.6269512176514,0.93900007009506,4.45005035400391,5.52105045318604,20.3581123352051,19.0301380157471,9.53919982910156,17.7240009307861,16.0960502624512,11.8300504684448,0.77412497997284,0.54628747701645,0.42198750376701,0.8595125079155,1.03661251068115,0.71445000171661,16.6609516143799,12.5250005722046,8.71395015716553,1.70505011081696,1.59495007991791,1.69305002689362,-1.76082503795624,-1.78887498378754,-1.86986243724823,2.14500021934509,-0.35505002737045,-2.9320502281189,-2.40322494506836,-7.44741249084473,-13.4750003814697,-1.07937502861023,-2.21265006065369,3.0329749584198,-6.38295030593872,-9.1399507522583,-8.94300079345703,1.51605010032654,0.78795003890991,1.52805006504059,-24.5972366333008,-23.0575122833252,-17.0326747894287,-21.0739517211914,-17.3620510101318,-10.5460500717163,SHAKE
0.54628747701645,0.42198750376701,0.18576249480247,1.03661251068115,0.71445000171661,0.15551249682903,12.5250005722046,8.71395015716553,5.13795042037964,1.59495007991791,1.69305002689362,1.83705008029938,-1.78887498378754,-1.86986243724823,-2.4785749912262,-0.35505002737045,-2.9320502281189,-5.79195022583008,-7.44741249084473,-13.4750003814697,-14.9803495407104,-2.21265006065369,3.0329749584198,5.63131237030029,-9.1399507522583,-8.94300079345703,-6.65805053710938,0.78795003890991,1.52805006504059,3.24000024795532,-23.0575122833252,-17.0326747894287,-0.60238748788834,-17.3620510101318,-10.5460500717163,-2.29995012283325,-0.76917499303818,0.00068749999627,3.4762749671936,1.59967494010925,0.98285001516342,-1.63762497901917,3.13095021247864,13.1260509490967,22.711051940918,-0.15705001354218,3.29100012779236,5.98305034637451,24.9730243682861,26.7275257110596,25.7478370666504,23.0910015106201,21.1969509124756,17.1760501861572,6.61801242828369,1.66141247749329,-0.693274974823,-2.01740002632141,1.10247504711151,0.56650000810623,20.3130016326904,14.2540502548218,4.2810001373291,6.41595029830933,5.16795015335083,3.7630500793457,-1.73373746871948,-1.95992493629456,-3.23014998435974,-0.16305001080036,-3.87600016593933,-7.93695020675659,-10.6611995697021,-17.1958866119385,-15.1751871109009,-1.85693752765656,9.91938781738281,11.2974128723145,-8.77305030822754,-7.90605020523071,-7.37205028533936,-0.35805001854897,-0.21900001168251,-0.06105000153184,-0.31707498431206,-0.71981251239777,7.91615009307861,8.99400043487549,13.9999504089355,18.2200508117676,SHAKE
2.14995002746582,1.48926246166229,1.0757999420166,0.19098749756813,0.43422499299049,0.20239999890327,15.2190008163452,9.98805046081543,5.23695039749146,2.81205010414124,3.12105011940002,3.36705017089844,-1.04238748550415,-1.66072499752045,-7.26440000534058,-2.9800500869751,-7.26000022888184,-12.1669502258301,-15.6120252609253,-18.0564994812012,-16.935188293457,5.0943751335144,9.13013744354248,10.2946252822876,-9.88905048370361,-9.04905033111572,-8.60295009613037,-1.17495000362396,-0.82305002212524,-0.73905003070831,-17.4261989593506,-1.11911249160767,0.11123749613762,-10.7040004730225,-3.21000003814697,3.4789502620697,-0.59193748235703,1.01543748378754,6.05770015716553,0.58987498283386,-1.35767495632172,-9.1845874786377,8.24505043029785,16.9630508422852,24.3109512329102,3.67905020713806,5.5900502204895,5.78595018386841,16.5221366882324,15.9900121688843,2.60892510414124,20.3970012664795,19.1520004272461,10.6180505752563,1.22347497940063,0.32147499918938,-0.32298749685287,0.49555000662804,0.81812500953674,0.62136250734329,14.8099508285522,10.0240507125854,5.91000032424927,6.19395017623901,4.69200038909912,3.19995021820068,-1.46107494831085,-1.5549875497818,-2.19972491264343,1.03095006942749,-2.45100021362305,-6.61500024795532,-7.7268123626709,-13.006537437439,-15.4559621810913,-1.35588753223419,2.53288745880127,10.8597497940063,-7.79595041275024,-9.00104999542236,-6.46005010604858,0.60105001926422,-1.04595005512238,0.74505001306534,-18.7996883392334,-2.92352509498596,0.47272500395775,-13.8510007858276,-7.06800031661987,-1.51605010032654,SHAKE
0.32147499918938,-0.32298749685287,-1.1310750246048,0.81812500953674,0.62136250734329,0.23045000433922,10.0240507125854,5.91000032424927,2.01300001144409,4.69200038909912,3.19995021820068,2.75895023345947,-1.5549875497818,-2.19972491264343,-6.14693737030029,-2.45100021362305,-6.61500024795532,-9.97800064086914,-13.006537437439,-15.4559621810913,-11.0416622161865,2.53288745880127,10.8597497940063,12.3158750534058,-9.00104999542236,-6.46005010604858,-6.46395015716553,-1.04595005512238,0.74505001306534,0.2710500061512,-2.92352509498596,0.47272500395775,0.55605000257492,-7.06800031661987,-1.51605010032654,6.88905048370361,0.44976249337196,5.162024974823,11.0954246520996,0.26496249437332,-8.0482873916626,-9.30847454071045,12.7669506072998,21.6949501037598,27.9820518493652,5.62800025939941,6.07095050811768,5.69295024871826,20.1605243682861,13.7601747512817,-1.04266250133514,19.3429508209229,13.4200506210327,9.74895000457764,1.33787500858307,0.89058750867844,0.40782499313354,0.34842500090599,0.10037499666214,-0.30744999647141,11.1720008850098,6.32895040512085,1.03305006027222,1.88295006752014,1.57800006866455,1.58295011520386,-0.87779998779297,-0.53020000457764,-2.44708752632141,-2.35005021095276,-7.58505058288574,-14.4930009841919,-13.5335750579834,-14.7775373458862,-14.1934375762939,5.69387483596802,7.75816249847412,8.33071231842041,-9.73605060577393,-8.77305030822754,-8.89095020294189,0.97695004940033,1.42005002498627,0.02400000020862,-18.2905254364014,-0.46612501144409,0.10436250269413,-7.62600040435791,-2.50095009803772,1.86900007724762,SHAKE
2.5558500289917,1.33787500858307,0.89058750867844,0.05719999969006,0.34842500090599,0.10037499666214,15.8749504089355,11.1720008850098,6.32895040512085,2.66295003890991,1.88295006752014,1.57800006866455,-1.3252249956131,-0.87779998779297,-0.53020000457764,1.97205007076263,-2.35005021095276,-7.58505058288574,-5.1486873626709,-13.5335750579834,-14.7775373458862,-0.4959625005722,5.69387483596802,7.75816249847412,-10.8109502792358,-9.73605060577393,-8.77305030822754,0.46905001997948,0.97695004940033,1.42005002498627,-20.542911529541,-18.2905254364014,-0.46612501144409,-14.8500003814697,-7.62600040435791,-2.50095009803772,-1.15692496299744,-1.80620002746582,-3.5147750377655,1.25661253929138,1.82091248035431,3.35816240310669,0.06599999964237,15.1110010147095,23.1990013122559,-2.79600024223328,4.91700029373169,6.65595054626465,-4.12720012664795,-5.34778738021851,-5.69579982757568,21.726001739502,19.7050514221191,16.2250499725342,-2.94043755531311,-1.35189998149872,-0.97955000400543,2.83194994926453,1.96253752708435,1.57011246681213,18.703950881958,13.1089506149292,7.9549503326416,9.0169506072998,5.29305028915405,2.2870500087738,-1.57946252822876,-1.51758754253387,-1.56585001945496,3.22005009651184,-3.41100025177002,-7.50405025482178,-3.41989994049072,-7.831862449646,-7.78964996337891,-1.56420004367828,4.93473768234253,5.29938745498657,-9.86805057525635,-8.65799999237061,-7.66200017929077,-1.77600014209747,0.43395000696182,2.30205011367798,-17.3573131561279,0.0851124972105,0.66233748197556,-8.17500019073486,-2.44800019264221,4.26405000686646,SHAKE
-4.68036270141602,-2.94043755531311,-1.35189998149872,4.0110125541687,2.83194994926453,1.96253752708435,24.5449504852295,18.703950881958,13.1089506149292,11.2159509658813,9.0169506072998,5.29305028915405,-1.72301244735718,-1.57946252822876,-1.51758754253387,5.50695037841797,3.22005009651184,-3.41100025177002,-1.59389996528625,-3.41989994049072,-7.831862449646,-0.86721247434616,-1.56420004367828,4.93473768234253,-8.47095012664795,-9.86805057525635,-8.65799999237061,-1.59900009632111,-1.77600014209747,0.43395000696182,-21.3512744903564,-17.3573131561279,0.0851124972105,-22.9450511932373,-8.17500019073486,-2.44800019264221,0.598537504673,0.94998747110367,3.82882499694824,-0.71224999427795,-1.50425004959106,-6.41203737258911,2.49000000953674,11.0130004882813,20.3730010986328,3.07005023956299,6.64605045318604,6.65100049972534,19.7983493804932,19.9979991912842,18.9965877532959,22.7610015869141,19.2379512786865,15.8970003128052,3.87956237792969,0.8984249830246,0.08195000141859,-0.51686251163483,0.49059998989105,0.42941248416901,15.046950340271,10.0650005340576,5.85000038146973,5.95605039596558,4.42605018615723,3.61395025253296,-2.04847502708435,-2.55076241493225,-5.55747509002686,0.85605001449585,-5.30805015563965,-9.48705005645752,-12.5710744857788,-15.9816246032715,-15.1027250289917,2.83538746833801,8.88249969482422,10.4054498672485,-8.84505081176758,-7.52295017242432,-6.56505012512207,-0.3649500310421,1.25700008869171,0.95295006036758,-2.6967875957489,0.5517874956131,0.45622500777245,-7.91400051116943,-2.74695014953613,4.01700019836426,SHAKE
3.87956237792969,0.8984249830246,0.08195000141859,-0.51686251163483,0.49059998989105,0.42941248416901,15.046950340271,10.0650005340576,5.85000038146973,5.95605039596558,4.42605018615723,3.61395025253296,-2.04847502708435,-2.55076241493225,-5.55747509002686,0.85605001449585,-5.30805015563965,-9.48705005645752,-12.5710744857788,-15.9816246032715,-15.1027250289917,2.83538746833801,8.88249969482422,10.4054498672485,-8.84505081176758,-7.52295017242432,-6.56505012512207,-0.3649500310421,1.25700008869171,0.95295006036758,-2.6967875957489,0.5517874956131,0.45622500777245,-7.91400051116943,-2.74695014953613,4.01700019836426,0.58396250009537,4.4273624420166,14.8724126815796,-1.31614995002747,-8.3964376449585,-15.9268999099731,10.1110506057739,18.7690505981445,26.5759506225586,9.81705093383789,10.9690504074097,7.11300039291382,18.7451000213623,18.2789745330811,17.3119373321533,19.1800518035889,18.3730506896973,15.2719507217407,3.75993752479553,2.78519988059998,1.91303753852844,0.05816249921918,-0.00178749999031,-0.34196248650551,11.4420003890991,7.04505014419556,3.22695016860962,0.61305004358292,1.02795004844666,1.63605010509491,-1.11113750934601,-0.81014996767044,-0.38651248812675,-0.08205000311136,-2.93700003623962,-7.66005039215088,-9.64865016937256,-15.9978494644165,-15.9598999023438,-1.27462494373322,8.18070030212402,9.59626197814941,-9.40095043182373,-7.80795049667358,-7.0489501953125,1.26900005340576,2.31405019760132,1.67700004577637,-13.131799697876,-2.00557494163513,1.97917497158051,-17.0239505767822,-10.2460508346558,-3.89205026626587,SHAKE
3.75993752479553,2.78519988059998,1.91303753852844,0.05816249921918,-0.00178749999031,-0.34196248650551,11.4420003890991,7.04505014419556,3.22695016860962,0.61305004358292,1.02795004844666,1.63605010509491,-1.11113750934601,-0.81014996767044,-0.38651248812675,-0.08205000311136,-2.93700003623962,-7.66005039215088,-9.64865016937256,-15.9978494644165,-15.9598999023438,-1.27462494373322,8.18070030212402,9.59626197814941,-9.40095043182373,-7.80795049667358,-7.0489501953125,1.26900005340576,2.31405019760132,1.67700004577637,-13.131799697876,-2.00557494163513,1.97917497158051,-17.0239505767822,-10.2460508346558,-3.89205026626587,0.12430000305176,0.27114999294281,6.9520001411438,1.23763751983643,-0.47176250815392,-14.8801126480103,-0.94905006885529,7.16700029373169,26.5189514160156,4.50495004653931,6.97395038604736,-0.79695004224777,-11.1709127426147,-11.385274887085,-9.71561241149902,21.328950881958,20.2530002593994,14.4600009918213,3.56812500953674,1.51827502250671,0.37138751149178,-3.27758741378784,-0.21917499601841,0.29741248488426,17.6430015563965,12.7810506820679,8.59200000762939,5.35305023193359,5.84895038604736,5.3430004119873,-2.22983741760254,-1.88265001773834,-1.62882494926453,2.65005016326904,0.43005001544952,-2.69700002670288,-6.61320018768311,-12.7037620544434,-16.5643501281738,0.06421250104904,-1.64505004882813,7.30894994735718,-7.03905010223389,-7.36995029449463,-6.21105051040649,0.46905001997948,0.38100001215935,0.36405003070831,-23.1702632904053,-12.3826999664307,-0.38444998860359,-20.2840518951416,-9.34305000305176,-4.11495018005371,SHAKE
0.37138751149178,-0.86927497386932,-2.45877504348755,0.29741248488426,0.39462500810623,0.43903750181198,8.59200000762939,4.57800006866455,0.39195001125336,5.3430004119873,4.58400011062622,3.07995009422302,-1.62882494926453,-2.46152496337891,-11.7090873718262,-2.69700002670288,-7.21395015716553,-14.0860509872437,-16.5643501281738,-17.0385875701904,-8.14770030975342,7.30894994735718,11.2678499221802,15.2769374847412,-6.21105051040649,-5.64495038986206,-5.99505043029785,0.36405003070831,-1.02195000648499,-2.98995018005371,-0.38444998860359,0.55879998207092,0.60871249437332,-4.11495018005371,0.78195005655289,9.79200077056885,0.26853749155998,3.43090009689331,5.89764976501465,1.32907497882843,-4.82102489471436,-3.39308738708496,15.0420007705688,22.8780002593994,26.7919521331787,6.6060004234314,5.38905048370361,3.83205008506775,24.5342617034912,23.8261375427246,-0.79406249523163,18.4999504089355,14.8860006332397,7.99305057525635,0.38554999232292,0.03382499888539,-0.43669998645782,0.69286251068115,0.2261874973774,-0.2216500043869,9.71505069732666,5.76600027084351,1.96995007991791,2.38995003700256,1.0200001001358,0.11505000293255,-0.00206249998882,-1.05613744258881,-1.5578750371933,-1.16400003433228,-4.29195022583008,-9.39105033874512,-2.57193756103516,-6.60976266860962,-5.5827751159668,-0.3255999982357,3.29793739318848,4.36823749542236,-7.46100044250488,-6.16695022583008,-6.92205047607422,-0.55500000715256,-0.11205000430346,-0.87795001268387,-8.65878772735596,0.21848750114441,0.24667499959469,-7.13805055618286,-2.58495020866394,3.94305014610291,SHAKE
0.38554999232292,0.03382499888539,-0.43669998645782,0.69286251068115,0.2261874973774,-0.2216500043869,9.71505069732666,5.76600027084351,1.96995007991791,2.38995003700256,1.0200001001358,0.11505000293255,-0.00206249998882,-1.05613744258881,-1.5578750371933,-1.16400003433228,-4.29195022583008,-9.39105033874512,-2.57193756103516,-6.60976266860962,-5.5827751159668,-0.3255999982357,3.29793739318848,4.36823749542236,-7.46100044250488,-6.16695022583008,-6.92205047607422,-0.55500000715256,-0.11205000430346,-0.87795001268387,-8.65878772735596,0.21848750114441,0.24667499959469,-7.13805055618286,-2.58495020866394,3.94305014610291,0.03272499889135,2.05150008201599,12.563099861145,-0.98766249418259,-5.70418739318848,-14.7762994766235,7.57695055007935,18.0690002441406,24.6600017547607,6.67995023727417,7.30695056915283,3.0990002155304,7.76696252822876,7.46267509460449,8.10095024108887,20.7250518798828,18.7639503479004,14.8410005569458,3.87144994735718,1.60572504997253,1.08336246013641,-2.30780005455017,-0.09157499670982,0.18645000457764,18.3130512237549,13.3050003051758,8.66895008087158,4.15995025634766,2.66295003890991,1.60695004463196,-1.88691246509552,-1.39012503623962,-1.32770001888275,3.25605010986328,-1.9980001449585,-5.61705017089844,-4.98575019836426,-14.2375745773315,-13.4223375320435,-1.21852505207062,7.20238733291626,8.22813701629639,-8.29905033111572,-6.89805030822754,-6.43305015563965,-0.33900001645088,-0.95505005121231,-1.08900010585785,-19.4500617980957,-0.0757625028491,0.98642498254776,-12.2610006332397,-5.19000005722046,1.53900003433228,SHAKE
14.1385746002197,3.87144994735718,1.60572504997253,-11.5073747634888,-2.30780005455017,-0.09157499670982,23.5060520172119,18.3130512237549,13.3050003051758,6.08595037460327,4.15995025634766,2.66295003890991,-2.06772494316101,-1.88691246509552,-1.39012503623962,5.53800010681152,3.25605010986328,-1.9980001449585,-1.80482494831085,-4.98575019836426,-14.2375745773315,-0.87133747339249,-1.21852505207062,7.20238733291626,-5.93295049667358,-8.29905033111572,-6.89805030822754,1.14705002307892,-0.33900001645088,-0.95505005121231,-22.4547119140625,-19.4500617980957,-0.0757625028491,-19.1050510406494,-12.2610006332397,-5.19000005722046,0.0591249987483,0.16541250050068,5.32647514343262,1.21343743801117,0.02131249941885,-11.299337387085,-2.16495013237,5.59800004959106,23.848051071167,2.51505017280579,3.99705028533936,1.61205005645752,23.2799873352051,23.0964241027832,21.9249248504639,20.8879508972168,18.1939506530762,14.3539505004883,8.63596248626709,0.72888749837875,-0.65601247549057,1.60943746566772,0.22371250391006,0.65023750066757,20.2129516601563,15.0370502471924,10.5820503234863,9.84795093536377,8.74200057983398,6.26100015640259,-2.13551259040833,-2.37613749504089,-2.78684997558594,3.18195009231567,-0.86700004339218,-2.7240002155304,-4.99056243896484,-9.11157512664795,-15.1904497146606,-1.4913250207901,-2.09233736991882,10.6639499664307,-6.64905023574829,-9.22605037689209,-8.87895011901855,-1.14105010032654,-4.69800043106079,-2.81100010871887,-20.0279750823975,-8.3212251663208,0.96305000782013,-18.5880012512207,-9.94905090332031,-4.36695003509521,SHAKE
0.72888749837875,-0.65601247549057,-1.6246999502182,0.22371250391006,0.65023750066757,0.61957502365112,15.0370502471924,10.5820503234863,6.53505039215088,8.74200057983398,6.26100015640259,3.51405024528503,-2.37613749504089,-2.78684997558594,-3.72033739089966,-0.86700004339218,-2.7240002155304,-5.42295026779175,-9.11157512664795,-15.1904497146606,-12.5270748138428,-2.09233736991882,10.6639499664307,11.4948625564575,-9.22605037689209,-8.87895011901855,-9.68295001983643,-4.69800043106079,-2.81100010871887,-0.0679500028491,-8.3212251663208,0.96305000782013,0.45649999380112,-9.94905090332031,-4.36695003509521,-1.7940000295639,1.17686247825623,1.97436249256134,5.40883731842041,-2.13496255874634,-3.69283747673035,-9.83743762969971,3.63000011444092,9.61500072479248,16.9219512939453,4.03995037078857,4.71300029754639,4.6080002784729,5.04872512817383,3.17941236495972,2.70173740386963,26.824951171875,21.3210010528564,13.5090007781982,4.90861225128174,2.14610004425049,0.81262499094009,-3.18051242828369,-0.16609999537468,0.48771250247955,16.3780498504639,11.5519504547119,7.48995018005371,5.22795009613037,4.29704999923706,3.31995010375977,-2.36211252212524,-2.87141251564026,-3.44588756561279,1.29000008106232,-1.05405008792877,-3.51900005340576,-4.92428731918335,-8.39506244659424,-12.37926197052,-1.18745005130768,-2.36183738708496,4.25933742523193,-5.32905006408691,-7.44900035858154,-6.43995046615601,0.22305001318455,0.44805002212524,0.96300005912781,-24.8083000183105,-22.069299697876,-13.6507253646851,-21.1480503082275,-19.3570518493652,-13.5900011062622,SHAKE
0.81262499094009,-0.45870000123978,-1.8709625005722,0.48771250247955,0.32394999265671,-0.06916250288486,7.48995018005371,3.87600016593933,0.80100005865097,3.31995010375977,2.57505011558533,1.74600005149841,-3.44588756561279,-4.73742485046387,-12.1888246536255,-3.51900005340576,-5.38005018234253,-9.10605049133301,-12.37926197052,-13.0319747924805,-11.2153253555298,4.25933742523193,7.1875376701355,8.81526279449463,-6.43995046615601,-4.56795024871826,-5.16600036621094,0.96300005912781,1.13295006752014,0.28500002622604,-13.6507253646851,-0.5879499912262,0.66618752479553,-13.5900011062622,-9.14895057678223,5.77095031738281,0.60046249628067,3.86209988594055,15.3351001739502,-1.70527493953705,-10.306037902832,-16.9800128936768,7.62705039978027,17.0350513458252,24.3109512329102,9.11100006103516,6.41400051116943,-0.02295000106096,15.5641746520996,15.4565124511719,16.3055744171143,20.5170001983643,21.211051940918,16.7970008850098,6.29914999008179,3.84147500991821,2.63752508163452,-3.68582487106323,-1.1779625415802,-0.67925000190735,16.3399505615234,12.0240001678467,7.80600023269653,0.05295000225306,0.37800002098083,0.94395005702972,-1.82833743095398,-1.09133744239807,-0.24461250007153,5.04300022125244,1.86195003986359,-2.06295013427734,-2.40061259269714,-9.25966262817383,-9.3182373046875,-0.02186249941587,8.29207515716553,10.0770998001099,-8.53605079650879,-8.3899507522583,-7.83705043792725,1.1380500793457,3.1690502166748,3.64800024032593,5.96763753890991,3.79651236534119,2.6640625,-16.9260005950928,-9.78405094146728,-4.24905014038086,SHAKE
3.84147500991821,2.63752508163452,1.46121251583099,-1.1779625415802,-0.67925000190735,-0.59056252241135,12.0240001678467,7.80600023269653,3.99600028991699,0.37800002098083,0.94395005702972,1.32195007801056,-1.09133744239807,-0.24461250007153,0.89705002307892,1.86195003986359,-2.06295013427734,-7.16400051116943,-9.25966262817383,-9.3182373046875,-8.33951282501221,8.29207515716553,10.0770998001099,10.4051752090454,-8.3899507522583,-7.83705043792725,-8.34195041656494,3.1690502166748,3.64800024032593,0.56295001506805,3.79651236534119,2.6640625,1.20216250419617,-9.78405094146728,-4.24905014038086,2.16105008125305,-1.21811246871948,-2.09481239318848,-3.02871251106262,2.00626254081726,2.94029998779297,5.1669750213623,5.9650502204895,13.94700050354,19.6399517059326,-0.64095002412796,1.08495008945465,2.87400007247925,2.93026256561279,2.55419993400574,0.48468750715256,24.0589504241943,17.086950302124,12.8359508514404,-2.02729988098145,-1.60476243495941,-2.08848738670349,3.07614994049072,2.0627748966217,1.63803744316101,13.5589504241943,8.91795063018799,5.01405000686646,10.0180501937866,8.23905086517334,5.71695041656494,-2.21154999732971,-2.80252504348755,-7.48453760147095,0.33405002951622,-1.98795008659363,-8.97495079040527,-16.5376758575439,-19.3780117034912,-17.3188133239746,5.98523759841919,13.3977251052856,14.9104995727539,-7.51095056533813,-6.50505018234253,-7.36005020141602,-3.00495004653931,-1.86900007724762,-0.57600003480911,-15.7855501174927,0.94421249628067,0.10821250081062,-14.4780006408691,1.54800009727478,7.19595050811768,SHAKE
-8.25013732910156,-2.02729988098145,-1.60476243495941,11.7649126052856,3.07614994049072,2.0627748966217,18.7969512939453,13.5589504241943,8.91795063018799,9.86295032501221,10.0180501937866,8.23905086517334,-1.78598749637604,-2.21154999732971,-2.80252504348755,2.932950258255,0.33405002951622,-1.98795008659363,-10.0665121078491,-16.5376758575439,-19.3780117034912,-0.90420001745224,5.98523759841919,13.3977251052856,-8.40900039672852,-7.51095056533813,-6.50505018234253,-2.14995002746582,-3.00495004653931,-1.86900007724762,-20.3893241882324,-15.7855501174927,0.94421249628067,-21.6010513305664,-14.4780006408691,1.54800009727478,0.79681247472763,1.69276249408722,5.85901260375977,-1.1032999753952,-3.61611247062683,-11.4644746780396,3.58200025558472,12.7230005264282,20.4640502929688,7.48695039749146,6.44505023956299,1.10699999332428,20.5089492797852,20.4019756317139,18.6289119720459,21.5080509185791,18.2970008850098,11.4760503768921,7.51753759384155,3.69709992408752,2.01616239547729,-1.80331254005432,-0.75019997358322,-0.4433000087738,14.6749505996704,9.94500064849854,5.29395008087158,-0.01605000160635,2.39505004882813,2.95800018310547,-1.07717502117157,-1.03386247158051,-8.78047466278076,0.47505003213882,-3.24300026893616,-16.9429512023926,-16.6134376525879,-17.1879119873047,-15.7859621047974,4.58521270751953,7.13336229324341,8.0693244934082,-6.43605041503906,-6.838050365448,-7.65195035934448,6.15000009536743,4.57200002670288,2.14605021476746,-14.5480499267578,-0.39476248621941,-1.19515001773834,-8.55300045013428,5.46600008010864,11.7919502258301,SHAKE
17.6930866241455,7.51753759384155,3.69709992408752,-5.52076244354248,-1.80331254005432,-0.75019997358322,20.0230503082275,14.6749505996704,9.94500064849854,-2.19000005722046,-0.01605000160635,2.39505004882813,-1.48335003852844,-1.07717502117157,-1.03386247158051,3.82605028152466,0.47505003213882,-3.24300026893616,-11.4630994796753,-16.6134376525879,-17.1879119873047,-1.88086247444153,4.58521270751953,7.13336229324341,-8.66805076599121,-6.43605041503906,-6.838050365448,3.65205025672913,6.15000009536743,4.57200002670288,-21.8343124389648,-14.5480499267578,-0.39476248621941,-14.4499502182007,-8.55300045013428,5.46600008010864,-1.06136250495911,0.63456249237061,4.50711250305176,0.28022500872612,-3.03998756408691,-10.3955497741699,7.87395048141479,17.0299510955811,24.2170505523682,6.5310001373291,3.58800005912781,-2.30805015563965,-12.2018871307373,-10.7945747375488,-4.93391227722168,23.9320507049561,18.2029514312744,12.2179508209229,1.64023745059967,0.96882498264313,-0.06971249729395,0.82527500391006,0.6485875248909,0.28036248683929,12.2370004653931,7.30395030975342,2.71500015258789,2.8050000667572,4.0639500617981,4.20300006866455,-0.6348375082016,-0.39173749089241,-0.7928249835968,0.1489500105381,-4.98900032043457,-11.9370002746582,-18.9124374389648,-18.9102382659912,-15.7532377243042,10.1472253799438,12.6017370223999,12.7744379043579,-6.89805030822754,-6.74700021743774,-6.46395015716553,3.12600016593933,1.53795003890991,-0.29805001616478,-2.23767495155334,1.2277375459671,0.79447501897812,-9.13695049285889,-2.23995018005371,5.20305013656616,SHAKE
1.64023745059967,0.96882498264313,-0.06971249729395,0.82527500391006,0.6485875248909,0.28036248683929,12.2370004653931,7.30395030975342,2.71500015258789,2.8050000667572,4.0639500617981,4.20300006866455,-0.6348375082016,-0.39173749089241,-0.7928249835968,0.1489500105381,-4.98900032043457,-11.9370002746582,-18.9124374389648,-18.9102382659912,-15.7532377243042,10.1472253799438,12.6017370223999,12.7744379043579,-6.89805030822754,-6.74700021743774,-6.46395015716553,3.12600016593933,1.53795003890991,-0.29805001616478,-2.23767495155334,1.2277375459671,0.79447501897812,-9.13695049285889,-2.23995018005371,5.20305013656616,-0.13117499649525,0.94998747110367,9.41036224365234,1.32288753986359,-0.15193749964237,-5.37721252441406,8.38395023345947,16.006950378418,22.4520015716553,2.29200005531311,1.05405008792877,-1.54395008087158,22.374137878418,22.1198997497559,20.8862495422363,21.9469509124756,21.5970001220703,16.9720516204834,2.47005009651184,1.02038753032684,0.22728750109673,0.80808746814728,1.07373750209808,0.86556249856949,17.0179500579834,11.8969507217407,7.12905025482178,3.23100018501282,5.18295001983643,5.32695007324219,-1.36537504196167,-1.17122495174408,-1.23255002498627,2.29305005073547,-1.92600011825562,-6.17205047607422,-8.21287536621094,-16.6601867675781,-19.3617877960205,1.42161250114441,5.35961246490479,11.2381496429443,-10.3900508880615,-8.88300037384033,-7.52100038528442,-0.25800001621246,2.62305021286011,4.14105033874512,-21.3867492675781,-19.7722244262695,-0.11838749796152,-18.7410011291504,-11.0610008239746,-3.31305027008057,SHAKE
2.47005009651184,1.02038753032684,0.22728750109673,0.80808746814728,1.07373750209808,0.86556249856949,17.0179500579834,11.8969507217407,7.12905025482178,3.23100018501282,5.18295001983643,5.32695007324219,-1.36537504196167,-1.17122495174408,-1.23255002498627,2.29305005073547,-1.92600011825562,-6.17205047607422,-8.21287536621094,-16.6601867675781,-19.3617877960205,1.42161250114441,5.35961246490479,11.2381496429443,-10.3900508880615,-8.88300037384033,-7.52100038528442,-0.25800001621246,2.62305021286011,4.14105033874512,-21.3867492675781,-19.7722244262695,-0.11838749796152,-18.7410011291504,-11.0610008239746,-3.31305027008057,0.24557499587536,1.04046249389648,5.91607475280762,0.66481250524521,0.98078751564026,3.29862499237061,8.77905082702637,17.5230007171631,23.4319515228271,-2.38005018234253,-4.28805017471313,-2.90400004386902,22.3625869750977,22.2143630981445,20.6299495697021,20.9620513916016,18.6340503692627,14.1439504623413,-2.40872502326965,-1.88814997673035,-2.26957488059998,5.80291223526001,3.0581374168396,2.29858756065369,19.2360000610352,14.0290508270264,9.07800006866455,7.58700037002563,7.31700038909912,6.36600017547607,-1.61094999313354,-1.80661249160767,-3.36765003204346,3.25095009803772,-3.82800006866455,-6.93195009231567,-12.4243621826172,-17.3566246032715,-16.3384380340576,-2.82218742370605,5.26212501525879,12.4596996307373,-8.24400043487549,-7.22100019454956,-6.34695053100586,0.10305000841618,-1.66800010204315,-5.02905035018921,-10.8640127182007,1.11650002002716,1.39411246776581,-11.7619504928589,-5.59800004959106,6.27795028686523,SHAKE
-2.40872502326965,-1.88814997673035,-2.26957488059998,5.80291223526001,3.0581374168396,2.29858756065369,19.2360000610352,14.0290508270264,9.07800006866455,7.58700037002563,7.31700038909912,6.36600017547607,-1.61094999313354,-1.80661249160767,-3.36765003204346,3.25095009803772,-3.82800006866455,-6.93195009231567,-12.4243621826172,-17.3566246032715,-16.3384380340576,-2.82218742370605,5.26212501525879,12.4596996307373,-8.24400043487549,-7.22100019454956,-6.34695053100586,0.10305000841618,-1.66800010204315,-5.02905035018921,-10.8640127182007,1.11650002002716,1.39411246776581,-11.7619504928589,-5.59800004959106,6.27795028686523,-0.17641249299049,2.14046239852905,7.3607873916626,1.86284995079041,-1.97958743572235,-9.20755004882812,10.6690502166748,19.7359504699707,26.5429515838623,10.9500007629395,7.99200057983398,3.89205026626587,25.242525100708,22.5359745025635,1.59334993362427,24.5809516906738,12.9100503921509,7.9549503326416,2.48393750190735,1.65783751010895,0.75473749637604,-0.56045001745224,-0.58630001544952,-0.73287498950958,9.24795055389404,4.61595010757446,0.43905001878738,3.01500010490417,2.17994999885559,0.65100002288818,-1.61851251125336,-2.99749994277954,-22.3704242706299,-5.09505033493042,-10.1170501708984,-15.7999505996704,-14.0555248260498,-9.80553722381592,-1.46299993991852,7.74620008468628,9.34312534332275,4.68586254119873,-4.12695026397705,-5.44905042648315,-5.52795028686523,-2.14995002746582,-4.93695020675659,-5.08605003356934,2.25885009765625,1.1834625005722,0.25451248884201,-3.61905026435852,1.11195003986359,9.80595016479492,SHAKE
5.21083736419678,2.48393750190735,1.65783751010895,-0.72586250305176,-0.56045001745224,-0.58630001544952,14.110050201416,9.24795055389404,4.61595010757446,2.46900010108948,3.01500010490417,2.17994999885559,-1.88113749027252,-1.61851251125336,-2.99749994277954,1.17900002002716,-5.09505033493042,-10.1170501708984,-12.883337020874,-14.0555248260498,-9.80553722381592,5.05683755874634,7.74620008468628,9.34312534332275,-6.07395029067993,-4.12695026397705,-5.44905042648315,-0.55500000715256,-2.14995002746582,-4.93695020675659,1.78598749637604,2.25885009765625,1.1834625005722,-8.16495037078857,-3.61905026435852,1.11195003986359,-0.56924998760223,-0.73589998483658,5.89641237258911,1.55209994316101,-0.07631249725819,-10.7790374755859,6.32895040512085,15.4080009460449,24.7630519866943,7.33800029754639,10.3230009078979,4.9960503578186,6.07186269760132,5.72508764266968,-2.52876257896423,22.9740009307861,23.685001373291,9.15705013275146,1.57134997844696,1.33127498626709,0.68048751354218,-0.2261874973774,-0.25134998559952,-0.41387498378754,11.5830001831055,6.81705045700073,2.14695000648499,3.00105023384094,2.89995002746582,1.1620500087738,-2.05425000190735,-3.18615007400513,-15.9747495651245,-5.21205043792725,-10.2130508422852,-16.114049911499,-1.91647493839264,-1.96253752708435,-3.6816999912262,0.27871251106262,1.53078746795654,2.50566244125366,-6.05505037307739,-6.59595012664795,-5.65500020980835,-3.3139500617981,-3.23505020141602,-3.48600006103516,-0.86019998788834,0.41703748703003,0.37180000543594,-5.17800045013428,0.09705000370741,23.3860511779785,SHAKE
7.95781230926514,2.15847492218018,1.57134997844696,-12.8188495635986,-1.41075003147125,-0.2261874973774,27.3910522460938,16.6350002288818,11.5830001831055,5.41800022125244,2.48400020599365,3.00105023384094,-1.9679000377655,-2.05878758430481,-2.05425000190735,3.60795021057129,1.9410001039505,-5.21205043792725,-1.11402499675751,0.81427496671677,-1.91647493839264,-1.36702501773834,-2.15366244316101,0.27871251106262,-7.23105049133301,-6.69900035858154,-6.05505037307739,-3.35205006599426,-3.63195013999939,-3.3139500617981,-27.5992755889893,-14.0175752639771,-0.86019998788834,-11.6880006790161,-8.31105041503906,-5.17800045013428,0.11673749983311,1.04981243610382,8.89446258544922,0.22591249644756,-2.39937496185303,-11.8288497924805,0.63795000314713,15.5929508209229,24.7660503387451,1.46295011043549,10.1170501708984,4.69395017623901,13.1572370529175,13.0238628387451,-1.00539994239807,24.4399509429932,23.4199504852295,10.0510501861572,2.32100009918213,1.4777125120163,0.51947498321533,-0.62562501430511,-0.49623748660088,-0.50641250610352,11.7010507583618,6.69795036315918,2.10405015945435,4.89495038986206,4.27305030822754,1.99500012397766,-1.14166247844696,0.23512500524521,3.04438757896423,-3.73695015907288,-8.89305019378662,-18.5380516052246,-11.3264245986938,-9.96902465820312,-6.11421251296997,10.6401624679565,11.5570125579834,9.20576286315918,-5.39595031738281,-6.79995012283325,-7.51095056533813,-1.53705012798309,-2.65500020980835,-2.72700023651123,2.11653757095337,0.52910000085831,-0.67347496747971,-0.8890500664711,3.20295023918152,10.3039503097534,SHAKE
11.9092874526978,4.13049983978271,2.32100009918213,-13.5178995132446,-2.11365008354187,-0.62562501430511,26.2309513092041,16.7520008087158,11.7010507583618,-0.27195000648499,2.85705018043518,4.89495038986206,-1.54838752746582,-1.61370003223419,-1.14166247844696,6.01200008392334,2.76495003700256,-3.73695015907288,-4.04098749160767,-5.69841241836548,-11.3264245986938,0.8982874751091,2.95583748817444,10.6401624679565,-9.80805015563965,-7.89900016784668,-5.39595031738281,-2.48700022697449,-1.88100004196167,-1.53705012798309,9.91608715057373,6.89919996261597,2.11653757095337,-21.3570003509521,-5.65995025634766,-0.8890500664711,-0.04881250113249,-0.63566249608994,-1.64876246452332,0.70235002040863,0.32078748941422,-1.40497493743896,-0.23505000770092,6.09405040740967,23.4030017852783,0.25905001163483,4.53105020523071,8.17199993133545,-32.6250381469727,-33.1846618652344,-29.6935367584229,26.5110015869141,25.4119510650635,19.4749507904053,0.12952500581741,1.68588745594025,1.70678746700287,-1.33264994621277,-0.53680002689362,-0.66178750991821,16.8550510406494,11.4780006408691,6.76005029678345,-1.20600008964539,1.76295006275177,4.10700035095215,-1.56694996356964,-1.3553375005722,0.16692499816418,3.31995010375977,0.70005005598068,-6.35700035095215,-3.00093746185303,-13.5929746627808,-13.8788375854492,5.06934976577759,13.1774501800537,15.8210248947144,-8.89095020294189,-6.32805013656616,-5.16405010223389,-2.70105004310608,-2.7720000743866,-2.71695017814636,21.5271377563477,14.1806497573853,4.58493757247925,-15.774001121521,-8.78999996185303,-4.28295040130615,SHAKE
