gyro_x_0,gyro_y_0,gyro_z_0,acc_x_0,acc_y_0,acc_z_0,gyro_x_1,gyro_y_1,gyro_z_1,acc_x_1,acc_y_1,acc_z_1,gyro_x_2,gyro_y_2,gyro_z_2,acc_x_2,acc_y_2,acc_z_2,gyro_x_3,gyro_y_3,gyro_z_3,acc_x_3,acc_y_3,acc_z_3,gyro_x_4,gyro_y_4,gyro_z_4,acc_x_4,acc_y_4,acc_z_4,gyro_x_5,gyro_y_5,gyro_z_5,acc_x_5,acc_y_5,acc_z_5,gyro_x_6,gyro_y_6,gyro_z_6,acc_x_6,acc_y_6,acc_z_6,gyro_x_7,gyro_y_7,gyro_z_7,acc_x_7,acc_y_7,acc_z_7,gyro_x_8,gyro_y_8,gyro_z_8,acc_x_8,acc_y_8,acc_z_8,gyro_x_9,gyro_y_9,gyro_z_9,acc_x_9,acc_y_9,acc_z_9,gyro_x_10,gyro_y_10,gyro_z_10,acc_x_10,acc_y_10,acc_z_10,gyro_x_11,gyro_y_11,gyro_z_11,acc_x_11,acc_y_11,acc_z_11,gyro_x_12,gyro_y_12,gyro_z_12,acc_x_12,acc_y_12,acc_z_12,gyro_x_13,gyro_y_13,gyro_z_13,acc_x_13,acc_y_13,acc_z_13,gyro_x_14,gyro_y_14,gyro_z_14,acc_x_14,acc_y_14,acc_z_14,motion_type
-0.53909301757813,-0.58152800798416,-0.55769699811935,-0.25470000505447,-0.33536100387573,-0.33504301309586,1.16799998283386,1.32500004768372,1.40299999713898,9.04899978637695,9.04899978637695,9.52000045776367,1.27380502223969,1.28169703483582,1.2620609998703,0.35199999809265,0.27399998903275,0.1169999986887,-0.03688099980354,0.13621200621128,0.2173790037632,0.17197600007057,0.44742798805237,0.58429199457169,1.7960000038147,1.71700000762939,1.87399995326996,9.20600032806396,10.1470003128052,10.0690002441406,1.04522395133972,0.97922599315643,0.91736000776291,-0.35299998521805,-0.74500000476837,1.76499998569489,0.07798500359058,-0.94387400150299,-2.31092500686646,0.36777698993683,-0.92236000299454,-3.02546095848084,-4.32299995422363,-14.2869997024536,-26.6830005645752,28.1140003204346,22.3080005645752,11.8730001449585,1.20390605926514,1.7739280462265,2.08430099487305,1.13699996471405,-4.43200016021729,-19.1040000915527,-5.98138380050659,-7.53608179092407,-6.30470705032349,-0.86514502763748,0.78297597169876,10.4034585952759,-7.93200016021729,-5.57800006866455,-7.14699983596802,-18.2530002593994,-18.4099998474121,-3.11100006103516,-3.37978506088257,-0.73020201921463,-1.34861898422241,0.19499999284744,3.80399990081787,-4.98199987411499,3.23538589477539,4.33411312103271,5.16321516036987,3.29193997383118,-0.82817202806473,-1.42820596694946,-1.02799999713898,-0.71399998664856,-0.87099999189377,13.7559995651245,13.4429998397827,13.5209999084473,-5.22090911865234,-3.98407411575317,-3.45371699333191,-4.19700002670288,-2.78500008583069,-2.78500008583069,SWING_RIGHT
0.38325399160385,0.26757100224495,0.17039400339127,0.37676298618317,0.14680799841881,-0.06937500089407,0.93300002813339,0.93300002813339,1.08899998664856,8.9709997177124,9.1269998550415,9.59799957275391,0.03743100166321,0.01058700028807,-0.00125099997967,2.15700006484985,1.2150000333786,-0.1169999986887,0.49358201026917,1.05996298789978,1.65468096733093,0.6871799826622,1.25809800624847,2.02314591407776,4.30600023269653,5.40500020980835,6.34600019454956,8.5,9.44099998474121,9.83399963378906,1.65922403335571,2.34404492378235,2.01815605163574,-4.74599981307983,-0.27399998903275,6.94299983978271,0.57923698425293,-0.46495300531387,-2.05672097206116,1.07826602458954,-0.91648399829865,-3.06323289871216,-0.55699998140335,-6.20599985122681,-14.9930000305176,18.4640007019043,17.2870006561279,11.4809999465942,-1.22526597976685,-0.09026399999857,1.11202394962311,36.3639984130859,20.4370002746582,14.710000038147,-6.00242710113525,-5.82504892349243,-6.15676116943359,-4.63522911071777,-3.68256902694702,-2.75680208206177,-39.8639984130859,-37.6669998168945,-29.1940002441406,11.5600004196167,-6.8769998550415,7.48000001907349,5.56431913375854,6.62601280212402,5.74880886077881,-38.6389999389649,-32.2840003967285,-9.92399978637695,-1.69086503982544,-0.01375799998641,0.87986797094345,12.2716455459595,12.5113744735718,10.1834716796875,-9.50100040435791,-7.14699983596802,-4.55800008773804,-1.38499999046326,4.5770001411438,8.57800006866455,1.07362794876099,-4.74213123321533,-10.4229564666748,3.88299989700317,1.13699996471405,-4.74599981307983,SWING_RIGHT
0.42229399085045,0.38692399859428,0.35315901041031,0.89589202404022,0.84349900484085,0.67912501096725,0.69700002670288,0.69700002670288,0.85399997234344,9.59799957275391,9.28400039672852,8.73499965667725,0.7724090218544,0.56566601991653,0.30566498637199,3.88299989700317,4.35400009155273,6.47200012207031,0.45591101050377,0.42812100052834,-0.04259800165892,-1.12076103687286,-1.83604598045349,-3.07280898094177,2.65899991989136,1.55999994277954,-6.51999998092651,14.3839998245239,12.0299997329712,9.52000045776367,-1.56426298618317,-0.67391800880432,0.80572700500488,36.8339996337891,29.6159992218018,13.9250001907349,-5.31850481033325,-4.78048801422119,-4.88838481903076,-4.56111907958984,-3.42474794387817,-2.85102701187134,-39.7849998474121,-39.9420013427734,-39.9420013427734,17.4440002441406,-4.44399976730347,3.16499996185303,6.57232522964478,8.12081241607666,8.22175598144531,-37.3059997558594,-31.8920001983643,-4.03999996185303,-2.47221803665161,-1.2093780040741,0.40141201019287,6.5172119140625,10.8507385253906,11.0304346084595,-9.02999973297119,-4.63700008392334,-2.98900008201599,3.79200005531311,5.20499992370605,5.51900005340576,-2.59734988212585,-8.36720561981201,-11.367506980896,7.49200010299683,-1.45099997520447,-7.96299982070923,0.70540100336075,2.78767490386963,4.1025972366333,3.91754698753357,6.73520517349243,9.6329517364502,-1.02799999713898,-1.89100003242493,-2.51900005340576,14.9329996109009,12.5799999237061,10.3830003738403,-7.8587760925293,-6.52999687194824,-4.63030576705933,-2.94199991226196,0.03900000080466,1.05799996852875,SWING_RIGHT
0.4042130112648,0.4076110124588,0.43475499749184,-0.19181600213051,-0.09189499914646,0.04166499897838,0.30500000715256,0.46200001239777,0.61900001764297,9.99100017547607,10.0690002441406,9.83399963378906,1.86890304088593,1.85912096500397,1.80271995067596,1.60800004005432,0.98000001907349,0.43099999427795,0.90659302473068,1.12741100788116,1.39184498786926,1.08113896846771,1.43726205825806,1.79296803474426,1.71700000762939,2.89400005340576,2.89400005340576,8.9709997177124,9.44099998474121,9.91199970245361,1.81636095046997,1.69815301895142,1.34565997123718,-0.35299998521805,2.15700006484985,5.29500007629395,0.87550002336502,0.08623500168324,-1.31765496730804,0.51524102687836,-1.0430760383606,-3.66116690635681,-0.40000000596046,-2.59699988365173,-13.1890001296997,15.875,14.9329996109009,7.08799982070923,-1.86420500278473,-0.53558599948883,0.99757599830627,39.0309982299805,22.7119998931885,15.0240001678467,-5.91185522079468,-5.89427518844604,-5.58506679534912,-4.96612691879272,-4.18844318389893,-2.26444888114929,-39.8639984130859,-39.9420013427734,-37.9020004272461,-1.07099997997284,16.1889991760254,12.4230003356934,6.96692323684692,7.74944877624512,6.26727199554443,-38.9529991149902,-25.6940002441406,-1.13699996471405,-0.40888300538063,1.34250104427338,1.28669798374176,11.0743522644043,10.1767950057983,9.65610885620117,-8.79500007629395,-2.04800009727478,0.14800000190735,4.42000007629395,1.04700005054474,6.30299997329712,-2.59826493263245,-10.1758060455322,-12.590087890625,11.8850002288818,3.88299989700317,-4.03999996185303,SWING_RIGHT
1.30560898780823,1.57989799976349,1.74346995353699,2.01440000534058,2.55772089958191,2.84213590621948,4.61999988555908,5.09100008010864,5.01200008392334,10.9320001602173,12.7360000610352,14.2270002365112,2.23729300498962,1.86281895637512,1.35441303253174,0.35199999809265,4.58900022506714,7.25600004196167,1.17073702812195,0.68419700860977,-0.24431400001049,-0.24613699316978,-1.6421240568161,-4.13492822647095,2.18799996376038,-0.24300000071526,-9.3439998626709,9.83399963378906,6.77400016784668,1.28199994564056,-0.90017300844193,1.15427601337433,2.40169501304626,38.560001373291,28.8320007324219,17.9260005950928,-5.23407220840454,-4.59143018722534,-4.3180570602417,-5.773362159729,-4.24592685699463,-3.1723198890686,-39.7849998474121,-39.9420013427734,-39.9420013427734,13.7559995651245,-1.30599999427795,2.14499998092651,5.93009281158447,7.30879783630371,7.09686279296875,-34.7949981689453,-38.7179985046387,-36.1290016174316,0.86613899469376,2.24995303153992,2.65892100334167,14.6019611358643,12.883282661438,10.5174474716187,-10.28600025177,-8.08899974822998,-8.08899974822998,3.94899988174438,1.8309999704361,1.8309999704361,-1.08280694484711,-5.49004793167114,-11.1689758300781,10.7089996337891,6.55000019073486,0.43099999427795,-0.95612198114395,1.30935204029083,3.80456709861755,2.72607588768005,3.08033490180969,4.69497680664063,0.61900001764297,0.30500000715256,-0.47900000214577,13.28600025177,14.8549995422363,13.28600025177,-8.57912158966064,-7.26630020141602,-5.38143110275269,-2.78500008583069,-1.92200005054474,-1.45099997520447,SWING_RIGHT
-0.03930100053549,-0.101253002882,-0.19295899569988,-1.01313197612762,-1.07106196880341,-1.08771002292633,-0.87099999189377,-0.87099999189377,-0.40000000596046,9.91199970245361,10.0690002441406,9.59799957275391,2.43370008468628,2.23685789108276,2.21516108512878,3.7260000705719,3.17700004577637,2.31399989128113,0.27207300066948,0.85661101341248,1.35997498035431,-1.05795502662659,-0.14795899391174,0.79056602716446,1.0110000371933,1.0110000371933,3.5220000743866,11.9519996643066,11.9519996643066,13.9919996261597,3.64260101318359,4.00671911239624,3.8562479019165,-2.23600006103516,1.05799996852875,6.55000019073486,1.61870098114014,1.12474405765533,-0.96379798650742,1.49505198001862,-1.52660000324249,-5.10685205459595,0.14800000190735,-4.87200021743774,-20.1709995269775,9.1269998550415,12.5799999237061,3.94899988174438,-0.80506497621536,0.72175401449203,1.91205394268036,35.8930015563965,26.0860004425049,16.3570003509521,-4.14557886123657,-4.24179601669312,-4.02273178100586,-4.72187423706055,-4.26417589187622,-2.96591997146606,-39.8639984130859,-39.9420013427734,-27.7029991149902,-4.20900011062622,10.7749996185303,3.94899988174438,7.76763010025024,9.01181983947754,8.36478424072266,-39.1100006103516,-21.0650005340576,2.07800006866455,-0.50729298591614,2.07966589927673,1.817263007164,12.2014722824097,13.8076877593994,12.2295484542847,-8.71700000762939,-4.79400014877319,-2.28299999237061,0.73299998044968,1.67400002479553,7.87200021743774,-3.53070306777954,-10.0740766525269,-12.0909299850464,5.9229998588562,-0.50999999046326,-5.60900020599365,SWING_RIGHT
0.0633269995451,0.26377499103546,0.43119299411774,-1.12722897529602,-0.77509599924088,-0.54992800951004,0.54000002145767,0.54000002145767,0.61900001764297,9.36299991607666,9.36299991607666,9.83399963378906,2.45544004440308,2.46009111404419,2.41894602775574,2.62800002098084,2.54900002479553,2.62800002098084,1.15086495876312,1.1046450138092,1.08658802509308,0.27196499705315,0.3326869904995,0.43461298942566,0.93300002813339,1.63900005817413,2.50200009346008,9.52000045776367,10.3830003738403,11.7170000076294,1.85121500492096,1.70662498474121,1.56193196773529,1.52900004386902,-0.27399998903275,-0.03900000080466,1.68619704246521,1.39391505718231,0.47903499007225,1.47270095348358,0.88576799631119,-1.49068796634674,1.08899998664856,-2.28299999237061,-11.3059997558594,12.7360000610352,15.875,14.0699996948242,1.26130604743958,2.63381505012512,4.05567693710327,38.7960014343262,24.3600006103516,14.16100025177,-3.82862305641174,-3.47556900978088,-3.55776810646057,-5.82107400894165,-5.10134601593018,-4.69363021850586,-39.7849998474121,-36.6469993591309,-31.9400005340576,7.71500015258789,-0.75700002908707,14.4619998931885,8.60575675964355,-1.87475895881653,-2.58255505561829,-38.7179985046387,-10.3170003890991,6.00099992752075,1.93790102005005,1.90595304965973,0.89911699295044,15.9867420196533,12.3222026824951,9.96116065979004,-4.87200021743774,-2.20499992370605,-0.79299998283386,0.73299998044968,1.51699995994568,5.0479998588562,-6.14279508590698,-12.4948759078979,-11.4125957489014,4.74599981307983,0.1169999986887,-5.21700000762939,SWING_RIGHT
1.24154996871948,1.11311495304108,1.0059859752655,-0.39178401231766,-0.34679400920868,-0.24575999379158,0.46200001239777,0.69700002670288,0.61900001764297,8.81400012969971,8.5,8.3430004119873,1.80514597892761,1.73279500007629,1.71622896194458,1.76499998569489,0.90200001001358,0.43099999427795,0.56872302293777,0.44423100352287,0.11460699886084,0.90708500146866,1.11476802825928,0.94032198190689,-0.40000000596046,-0.63599997758865,-1.73399996757507,9.36299991607666,11.246000289917,14.9329996109009,1.57710194587708,1.39632904529572,1.21245694160461,16.9850006103516,33.3819999694824,38.4029998779297,-3.72027111053467,-4.10490608215332,-4.0412859916687,-6.2101879119873,-5.19007396697998,-3.71017503738403,-39.2360000610351,-39.7849998474121,-31.9400005340576,7.40100002288818,20.1900005340576,-2.24799990653992,5.14908409118652,7.00602293014526,8.0595064163208,-35.5800018310547,-38.875,-35.8930015563965,-1.54355502128601,2.37741994857788,4.13392210006714,11.6783199310303,16.5332851409912,16.0883140563965,-8.16699981689453,-6.51999998092651,-3.6949999332428,-2.9539999961853,-3.03200006484985,0.18400000035763,0.15808400511742,0.2964960038662,-1.99967896938324,10.1590003967285,9.5319995880127,6.47200012207031,2.2680389881134,4.23991203308105,5.5001220703125,-1.06926000118256,-3.66160202026367,-1.72623002529144,0.54000002145767,0.30500000715256,0.14800000190735,14.7760000228882,16.9729995727539,15.7180004119873,-8.20309543609619,-6.35706901550293,-4.77236604690552,-3.56900000572205,-2.0789999961853,-1.21599996089935,SWING_RIGHT
0.53942400217056,0.59511798620224,0.76180499792099,-0.20158499479294,-0.00134299998172,0.64338797330856,0.46200001239777,0.77600002288818,1.40299999713898,10.3830003738403,10.2259998321533,11.5600004196167,2.01571393013,2.03613710403442,1.93179702758789,0.82300001382828,1.2150000333786,0.66600000858307,0.91276001930237,0.84005302190781,0.70234298706055,1.50334298610687,1.47087705135345,1.18699598312378,0.69700002670288,-0.08600000292063,-0.32199999690056,10.1470003128052,10.4610004425049,12.2659997940063,1.02030694484711,-0.01305700000376,0.18925100564957,32.048999786377,38.0110015869141,30.7929992675781,-4.72208118438721,-4.5416088104248,-4.07568120956421,-7.32900285720825,-6.11400890350342,-4.64377117156982,-38.8440017700195,-39.7070007324219,-39.8639984130859,9.36299991607666,17.2080001831055,-4.67999982833862,4.99175119400024,7.10230922698975,8.92198181152344,-31.5,-37.8549995422363,-39.5019989013672,-1.72378194332123,-5.30564498901367,-6.01600980758667,1.86602401733398,-27.4066162109375,-21.2257919311523,-9.3439998626709,-9.02999973297119,-5.65700006484985,6.53800010681152,2.45900011062622,1.8309999704361,9.44857597351074,7.62403678894043,4.54823923110962,4.35400009155273,12.121000289917,12.121000289917,5.42854881286621,8.61701202392578,9.09935092926025,-16.0181941986084,-14.0913667678833,-10.9212532043457,1.0110000371933,0.54000002145767,0.54000002145767,9.20600032806396,11.7170000076294,14.0699996948242,-0.86421298980713,1.23412001132965,2.28705811500549,-2.78500008583069,-3.41300010681152,-2.86299991607666,SWING_RIGHT
1.1798460483551,1.23297798633575,1.52387499809265,0.99468702077866,1.20483994483948,1.48997795581818,2.42300009727478,3.36500000953674,3.20799994468689,7.95100021362305,10.7749996185303,11.9519996643066,3.02646589279175,2.91858291625977,2.94038605690002,-1.2940000295639,1.13699996471405,5.60900020599365,0.24943900108337,-0.21641099452972,-0.17092399299145,0.56086802482605,-0.75595998764038,-2.38017988204956,-3.6949999332428,-4.55800008773804,-10.28600025177,17.6790008544922,11.5600004196167,11.9519996643066,7.63062906265259,8.92843723297119,8.70960998535156,37.8540000915527,28.2830009460449,14.7880001068115,0.71363002061844,0.12153299897909,-0.94825202226639,-8.99907970428467,-8.17025279998779,-7.25771808624268,-39.7070007324219,-39.8639984130859,-39.9420013427734,0.81099998950958,-5.93499994277954,4.9689998626709,8.63580226898193,10.0557737350464,11.3410587310791,-35.5009994506836,-38.875,-38.4819984436035,0.35269999504089,-0.6315889954567,-0.71054899692535,-10.1144361495972,-11.2368192672729,-10.4613389968872,-12.7180004119873,-10.128999710083,-6.28399991989136,8.81400012969971,3.55699992179871,2.53699994087219,8.40573215484619,6.70721292495728,-2.55798006057739,11.8070001602173,10.081000328064,1.2150000333786,7.01831293106079,8.13142776489258,8.26386833190918,-10.591402053833,-7.7259202003479,-3.97689700126648,0.93300002813339,1.0110000371933,0.46200001239777,12.3439998626709,13.7559995651245,12.3439998626709,1.84283101558685,2.2118558883667,2.25515794754028,-5.5310001373291,-4.58900022506714,-3.8050000667572,SWING_RIGHT
1.48853600025177,1.28809499740601,1.01715898513794,1.26301002502441,1.25154495239258,1.09437000751495,1.87399995326996,0.93300002813339,-0.55699998140335,13.128999710083,12.9720001220703,12.0299997329712,2.4099600315094,2.42801308631897,2.78094291687012,4.43200016021729,5.60900020599365,6.07999992370605,0.46105098724365,0.3575040102005,0.63226199150085,-0.97457700967789,-1.59572100639343,-2.37202191352844,-1.26300001144409,-1.02799999713898,-7.30399990081787,8.10799980163574,15.0120000839233,23.9559993743896,4.3703441619873,5.36513185501099,5.97277212142944,37.6969985961914,31.0289993286133,12.121000289917,-0.64279401302338,-0.87468099594116,-1.61044204235077,-6.18787908554077,-5.38806486129761,-4.71976280212402,-39.7070007324219,-39.8639984130859,-37.9020004272461,8.73499965667725,6.06799983978271,3.55699992179871,8.53208637237549,10.2517528533936,11.6976375579834,-36.992000579834,-39.2669982910156,-25.3799991607666,-1.87909996509552,-2.41121697425842,-2.50299096107483,-6.52616786956787,-7.48060083389282,-7.358314037323,-11.0699996948242,-8.16699981689453,-5.10799980163574,5.44000005722046,4.34200000762939,5.28299999237061,7.6895580291748,5.98459577560425,1.91683995723724,8.59000015258789,8.74699974060059,6.47200012207031,6.58429718017578,7.44289112091064,7.4341459274292,-9.36978530883789,-8.25686454772949,-6.02171611785889,-0.94900000095367,-0.55699998140335,-0.47900000214577,11.7950000762939,12.5010004043579,12.5799999237061,-0.20748099684715,0.89493900537491,1.44478905200958,-3.96199989318848,-3.4909999370575,-2.94199991226196,SWING_RIGHT
2.28881502151489,2.00843501091003,1.37625598907471,0.65262097120285,0.9395449757576,1.44566702842712,1.08899998664856,1.08899998664856,0.69700002670288,9.52000045776367,9.20600032806396,9.04899978637695,4.58779716491699,3.93486094474792,2.82225799560547,-1.84300005435944,-1.84300005435944,-0.50999999046326,0.11241500079632,0.14554999768734,0.28010898828506,1.65543699264526,-0.01099599990994,-3.11103510856628,0.69700002670288,-0.24300000071526,-4.08799982070923,16.1100006103516,19.5620002746582,17.6009998321533,2.21785593032837,2.26044988632202,2.63294100761414,39.1100006103516,34.5589981079102,22.9479999542236,-3.50385403633118,-3.86509895324707,-4.57328796386719,-7.04361915588379,-5.84970188140869,-5.03543376922607,-39.6279983520508,-39.8639984130859,-39.9420013427734,9.04899978637695,-4.60099983215332,12.8149995803833,7.04428195953369,8.80642318725586,9.1405668258667,-37.6189994812012,-39.423999786377,-34.7169990539551,-0.45137301087379,3.52797794342041,4.26495504379272,17.2735443115234,20.3445625305176,16.5561466217041,-11.5410003662109,-7.61800003051758,-4.08799982070923,2.69400000572205,1.36000001430511,1.28199994564056,-1.52674102783203,-1.47290205955505,-2.91440796852112,6.39300012588501,7.80600023269653,6.15799999237061,2.62911200523376,2.59052610397339,3.90363597869873,4.998291015625,-0.72838097810745,-1.92123103141785,0.77600002288818,1.08899998664856,1.08899998664856,8.0290002822876,9.59799957275391,10.3039999008179,-10.6513347625732,-8.07028484344482,-6.0812668800354,-1.21599996089935,-1.60800004005432,-1.92200005054474,SWING_RIGHT
1.14126801490784,1.0910120010376,1.02265501022339,0.26938501000404,0.3566919863224,0.32582101225853,0.61900001764297,0.93300002813339,0.61900001764297,9.20600032806396,9.1269998550415,9.44099998474121,3.1006190776825,3.03486204147339,3.03224992752075,3.56900000572205,3.17700004577637,2.70600008964539,0.81564897298813,0.83453297615051,0.87675601243973,-0.07037000358105,0.08315700292587,0.20549899339676,0.69700002670288,0.85399997234344,0.61900001764297,10.0690002441406,9.67700004577637,10.1470003128052,3.14428091049194,2.73540496826172,2.30633997917175,2.0,-0.66699999570847,-2.70600008964539,0.98465001583099,0.80929297208786,0.47238698601723,2.04610204696655,2.57123708724976,2.54418110847473,1.7960000038147,0.77600002288818,-1.10599994659424,11.3240003585815,17.757999420166,23.1709995269775,-0.97746497392654,-2.16046810150146,-1.37795197963715,-29.6949996948242,4.43200016021729,11.1009998321533,-3.82313895225525,-4.28645515441895,-3.46144890785217,0.32600298523903,-2.45183706283569,-4.90985012054443,0.30500000715256,1.55999994277954,1.71700000762939,3.71399998664856,6.85200023651123,8.81400012969971,-4.0272741317749,-5.84976196289063,-4.16426706314087,5.4520001411438,0.50900000333786,-3.8050000667572,4.07838678359985,3.45489001274109,2.32894396781921,-2.70780897140503,0.69384700059891,3.15595602989197,-1.57700002193451,-2.36199998855591,-2.51900005340576,11.7950000762939,11.0100002288818,10.6969995498657,1.48471403121948,1.89275097846985,2.18047690391541,-5.68800020217896,-4.51100015640259,-3.56900000572205,SWING_RIGHT
1.57112801074982,1.54727494716644,1.54257798194885,1.31232798099518,1.3634740114212,1.29770004749298,1.48199999332428,1.55999994277954,1.71700000762939,8.89200019836426,9.28400039672852,9.36299991607666,3.36250400543213,3.23623895645142,3.12245106697083,3.33400011062622,3.4909999370575,3.33400011062622,1.48000204563141,1.46159601211548,1.44126999378204,0.52486902475357,0.23242700099945,0.06548599898815,2.03099989891052,2.42300009727478,2.89400005340576,8.10799980163574,7.95100021362305,8.10799980163574,2.16300702095032,1.05068302154541,-0.0591249987483,-0.66699999570847,-2.70600008964539,-4.03999996185303,0.98746401071548,0.39283400774002,-0.24377900362015,2.3478479385376,1.81131494045258,-0.3483569920063,3.99200010299683,-2.04800009727478,-12.6389999389648,25.9169998168945,30.7029991149902,8.57800006866455,4.18760776519775,6.32222318649292,6.59124517440796,36.0499992370605,20.2019996643066,-5.13899993896484,-2.56788492202759,-3.1958019733429,-4.13105201721191,-5.5375919342041,-5.41035509109497,-5.38615322113037,-23.1520004272461,-26.2119998931885,-26.8400001525879,4.89099979400635,0.18400000035763,2.6159999370575,9.50044918060303,12.6749849319458,13.7960224151611,-34.7169990539551,-38.5610008239746,-29.30299949646,-3.81678295135498,-4.32591199874878,-4.01562881469727,-20.8686370849609,-18.0001049041748,-14.9799995422363,-9.50100040435791,-7.61800003051758,-6.12799978256226,7.24499988555908,5.98899984359741,4.73400020599365,7.9653468132019,6.34826993942261,3.74657106399536,1.68599998950958,3.25500011444092,3.01999998092651,SWING_RIGHT
1.12732899188995,1.20334100723267,1.26188898086548,0.03505599871278,-0.08537299931049,-0.13795700669289,1.16799998283386,1.16799998283386,1.16799998283386,10.2259998321533,9.83399963378906,8.9709997177124,4.19273900985718,4.05644702911377,3.87155699729919,3.6470000743866,3.4909999370575,2.94099998474121,1.27095997333527,1.24774897098541,1.06350195407867,0.04832899942994,0.11846400052309,0.8357430100441,1.55999994277954,1.55999994277954,1.63900005817413,9.1269998550415,9.20600032806396,9.36299991607666,2.09106302261353,1.75930798053741,1.41829001903534,0.19499999284744,-1.05900001525879,-0.35299998521805,0.26042398810387,-0.00727800000459,-1.03421103954315,2.08477807044983,0.00488399993628,-4.34010887145996,0.38299998641014,-1.65600001811981,-23.8589992523193,18.5419998168945,19.1700000762939,-4.60099983215332,1.56919503211975,2.20827507972717,2.82176804542542,36.8339996337891,19.7310009002686,19.7310009002686,-4.52580118179321,-4.65570497512817,-4.83837890625,-4.64622592926025,-3.10790395736694,-1.75874304771423,-39.4710006713867,-39.0009994506836,-31.6259994506836,12.1090002059937,3.63599991798401,7.32299995422363,7.94580793380737,2.46673798561096,-2.03868794441223,-39.3450012207031,-32.2060012817383,-32.2060012817383,2.0149519443512,2.07465291023254,2.05524706840515,16.1079807281494,12.9052782058716,9.64971923828125,-7.69700002670288,-3.7739999294281,-0.79299998283386,5.75400018692017,5.83199977874756,6.14599990844727,-1.06772804260254,-7.00923204421997,-14.4372253417969,14.003999710083,14.003999710083,6.78599977493286,SWING_RIGHT
0.13135899603367,0.22830200195313,0.35841399431229,-0.76775699853897,-0.59324198961258,-0.09793599694967,1.16799998283386,1.24600005149841,1.32500004768372,9.59799957275391,9.28400039672852,9.75500011444092,1.71701395511627,1.75198495388031,1.64085400104523,0.90200001001358,0.90200001001358,-0.82400000095367,0.51718401908875,0.52629697322845,0.47926199436188,0.64358699321747,0.75515097379684,1.16483104228973,1.55999994277954,1.0110000371933,0.14800000190735,7.32299995422363,7.24499988555908,9.44099998474121,1.28928899765015,1.32803404331207,1.77078294754028,0.90200001001358,2.86299991607666,5.13800001144409,-0.90489798784256,-0.6747829914093,0.80414199829102,-0.59936499595642,-2.2042670249939,-4.58809995651245,-2.20499992370605,-1.10599994659424,-4.32299995422363,13.5989999771118,15.2469997406006,14.3839998245239,6.76320314407349,6.90464019775391,6.50833797454834,37.3050003051758,25.3799991607666,17.613000869751,-1.6921900510788,-3.36479091644287,-4.55541706085205,-6.53850698471069,-5.32785892486572,-3.20470809936523,-37.2750015258789,-36.7249984741211,-31.0769996643066,-3.58100008964539,9.20600032806396,4.65500020980835,8.33479404449463,9.30635929107666,8.30215644836426,-38.0900001525879,-39.5019989013672,-26.7140007019043,1.5967960357666,4.39175891876221,5.07960987091064,15.4452447891235,15.3521213531494,13.0302619934082,-9.97200012207031,-7.53999996185303,-6.20599985122681,11.3240003585815,10.6969995498657,9.91199970245361,-2.36217188835144,-5.11914682388306,-10.5872144699097,9.13899993896484,6.62900018692017,6.15799999237061,SWING_RIGHT
0.58386397361755,0.52188402414322,0.40161600708961,0.38367500901222,0.79831600189209,0.92754399776459,1.48199999332428,1.08899998664856,-0.00800000037998,15.0120000839233,12.8149995803833,11.4809999465942,0.97412198781967,1.25612497329712,1.90774703025818,5.13800001144409,8.43299961090088,13.8470001220703,-0.39477699995041,0.96949797868729,2.6747989654541,-2.14135909080505,-4.19487905502319,-5.802659034729,-3.22499990463257,-8.95199966430664,-26.5259990692139,13.9919996261597,10.8540000915527,-2.71799993515015,8.11418914794922,8.02130508422852,7.53852891921997,24.5949993133545,13.8470001220703,8.11900043487549,-0.57177698612213,-2.86920499801636,-4.27368783950806,-5.69534778594971,-4.27520322799683,-2.25871610641479,-39.9420013427734,-39.9420013427734,-39.9420013427734,-5.62099981307983,-1.38499999046326,8.89200019836426,8.37362384796143,7.42497682571411,3.53483891487122,-37.2270011901855,-39.2669982910156,-29.8519992828369,2.38857698440552,3.09779191017151,3.25562191009521,14.2561664581299,11.5057601928711,9.28979015350342,-11.3059997558594,-9.50100040435791,-7.14699983596802,9.04899978637695,5.51900005340576,5.0479998588562,-2.63959002494812,-10.6872959136963,-11.5571298599243,6.39300012588501,2.94099998474121,1.84300005435944,0.92113602161407,2.22107791900635,3.32118606567383,3.87412810325623,3.77564001083374,4.06029081344604,-1.65600001811981,-1.49899995326996,-1.49899995326996,11.4809999465942,11.9519996643066,11.9519996643066,-7.15883111953735,-5.20708084106445,-3.58535599708557,-0.43099999427795,-0.50999999046326,-0.43099999427795,SWING_RIGHT
0.16069799661636,0.34195598959923,1.02559900283813,-0.44669899344444,-0.61442399024963,-0.7245460152626,-0.87099999189377,-0.40000000596046,4.69799995422363,9.67700004577637,9.1269998550415,10.6180000305176,2.54754710197449,2.09358191490173,1.96153199672699,2.86299991607666,7.96299982070923,18.632999420166,2.32724809646606,1.40559196472168,-0.21615499258041,-0.33084800839424,-1.80330502986908,-3.3220739364624,-6.91200017929077,-22.6030006408691,-32.7239990234375,21.7590007781982,7.48000001907349,3.16499996185303,3.55531406402588,4.30772686004639,4.78904008865356,16.4360008239746,15.4940004348755,7.02099990844727,-3.41349005699158,-3.70088005065918,-3.25369191169739,-4.2544150352478,-4.13563203811646,-3.42548990249634,-34.5289993286133,-30.2919998168945,-33.1160011291504,-0.99199998378754,4.02799987792969,0.26199999451637,8.29973125457764,9.39514541625977,10.7703161239624,-32.5979995727539,-37.148998260498,-25.6940002441406,-4.16852283477783,-4.88948678970337,-4.58655500411987,-23.3451404571533,-20.8400955200195,-17.4921779632568,-9.8149995803833,-8.48099994659424,-7.38299989700317,11.3240003585815,8.0290002822876,7.08799982070923,6.05864810943604,2.53908395767212,-2.01007890701294,3.09800004959106,4.27500009536743,3.4909999370575,6.0881290435791,6.11382484436035,6.09424209594727,-4.25247478485107,-3.53081393241882,-2.5987548828125,-1.57700002193451,-1.65600001811981,-1.41999995708466,8.42099952697754,9.20600032806396,10.0690002441406,-4.79122686386108,-3.96624493598938,-2.6642050743103,-0.50999999046326,-1.05900001525879,-1.45099997520447,SWING_RIGHT
0.02712400071323,0.06135899946094,0.09136299788952,-0.27590799331665,-0.22149200737476,-0.13147200644016,0.14800000190735,-0.00800000037998,-0.32199999690056,9.28400039672852,11.08899974823,11.7170000076294,0.76737600564957,0.83013999462128,0.89273601770401,1.68599998950958,1.52900004386902,1.13699996471405,0.15382599830627,0.26567301154137,0.72343999147415,0.61016297340393,0.38302499055862,-1.21720695495605,1.24600005149841,1.40299999713898,-1.18499994277954,9.1269998550415,13.9130001068115,19.5620002746582,1.7906219959259,3.27201294898987,5.28708600997925,36.8339996337891,34.6380004882813,18.4759998321533,0.37912100553513,0.504419028759,0.72941297292709,-7.41296577453613,-6.7327241897583,-7.14471578598022,-39.5499992370605,-39.8639984130859,-39.9420013427734,9.91199970245361,4.73400020599365,5.12599992752075,9.81524658203125,11.5668382644653,10.5873727798462,-34.0890007019043,-34.0890007019043,-39.5019989013672,2.3205680847168,-1.83989095687866,-2.49914693832397,-26.2835063934326,-19.276273727417,-16.6080722808838,-10.4429998397827,-7.06899976730347,-4.08799982070923,8.6569995880127,2.53699994087219,2.06599998474121,4.94455480575562,2.69558811187744,-4.24541187286377,10.7089996337891,10.8649997711182,8.19799995422363,5.7817850112915,6.4752721786499,6.70727014541626,-8.10225486755371,-6.2076268196106,-4.02018404006958,-1.57700002193451,-1.41999995708466,-1.26300001144409,9.59799957275391,11.246000289917,12.4230003356934,-6.58917808532715,-4.63742399215698,-3.05332708358765,-2.31399989128113,-2.54999995231628,-2.94199991226196,SWING_RIGHT
0.60064500570297,0.41055199503899,-0.34703600406647,1.68440496921539,1.52552497386932,1.06824994087219,1.40299999713898,-2.51900005340576,-1.34200000762939,11.5600004196167,11.4029998779297,7.40100002288818,0.75695598125458,0.61645400524139,0.40928399562836,6.78599977493286,3.7260000705719,1.68599998950958,-0.15530799329281,0.09515599906445,-0.01538900006562,-1.5536869764328,-1.26591503620148,-2.22484707832336,-0.71399998664856,-3.38199996948242,-10.128999710083,12.3439998626709,17.2870006561279,12.7360000610352,4.38256120681763,5.50308418273926,7.89409923553467,39.0309982299805,33.6959991455078,14.7880001068115,3.08363604545593,3.28607988357544,3.0941789150238,-7.65115785598755,-7.80416297912598,-8.45849895477295,-39.7849998474121,-39.9420013427734,-39.9420013427734,5.28299999237061,-3.18899989128113,3.00799989700317,10.0063705444336,10.8293886184692,11.45823097229,-36.2859992980957,-36.2859992980957,-34.560001373291,1.0901210308075,-0.90450400114059,-2.38948798179626,-13.8629884719849,-17.2265014648438,-18.3479251861572,-16.3269996643066,-10.128999710083,-4.79400014877319,11.9519996643066,7.24499988555908,5.44000005722046,4.78785181045532,-0.21279700100422,-6.64068078994751,13.0620002746582,8.66899967193604,8.66899967193604,8.03957653045654,7.75677299499512,6.88617277145386,-4.18016719818115,-1.26948797702789,1.51377201080322,-0.40000000596046,-1.34200000762939,-1.65600001811981,14.8549995422363,11.4809999465942,9.67700004577637,-1.20829999446869,-0.06287900358438,0.91452300548553,-3.25600004196167,-2.78500008583069,-2.62800002098084,SWING_RIGHT
0.19816400110722,0.26213899254799,0.31487199664116,0.09145499765873,0.23655800521374,0.30803498625755,1.87399995326996,2.18799996376038,2.42300009727478,9.59799957275391,9.59799957275391,9.59799957275391,-0.04624399915338,-0.22303800284863,-0.41450300812721,1.45099997520447,1.13699996471405,0.82300001382828,0.3568420112133,0.34534001350403,0.2228139936924,0.64271998405457,0.80689597129822,1.22017896175385,2.73699998855591,2.50200009346008,2.73699998855591,10.539999961853,12.3439998626709,13.7559995651245,-1.3952579498291,-1.27564895153046,-0.98520302772522,0.66600000858307,2.94099998474121,7.17799997329712,0.05655499920249,0.46371799707413,1.9570859670639,-0.07485800236464,-1.79841804504395,-4.78702878952026,2.89400005340576,0.77600002288818,-13.8950004577637,8.0290002822876,1.04700005054474,-5.69999980926514,6.67656803131104,7.6081337928772,7.75078296661377,36.1279983520508,23.2609996795654,13.2189998626709,-0.82841598987579,-2.3368558883667,-2.96745800971985,-6.43395376205444,-5.061683177948,-2.90624403953552,-38.2159996032715,-36.9609985351563,-31.1550006866455,0.49700000882149,4.42000007629395,13.3640003204346,9.45811653137207,9.92426204681396,-0.80150097608566,-35.7360000610352,-38.6389999389649,-26.0860004425049,1.37624597549438,2.60513305664063,2.83809494972229,21.6649856567383,17.2201919555664,13.8166751861572,-10.128999710083,-8.71700000762939,-7.22599983215332,7.87200021743774,5.51900005340576,3.87100005149841,-2.71390199661255,-3.26349711418152,-6.92497301101685,4.27500009536743,4.74599981307983,4.51000022888184,SWING_RIGHT
0.43697300553322,0.42783999443054,0.48826798796654,0.82558298110962,1.22684895992279,1.59458804130554,1.16799998283386,1.71700000762939,1.71700000762939,11.0100002288818,11.5600004196167,11.7170000076294,0.38549798727036,0.28762400150299,0.21460500359535,-1.76499998569489,-1.2940000295639,2.62800002098084,0.39721500873566,0.49681401252747,0.28581601381302,1.31980800628662,0.28095299005508,-0.73493897914886,1.16799998283386,0.61900001764297,0.38299998641014,8.42099952697754,9.52000045776367,9.91199970245361,0.55906802415848,1.07436096668243,1.89604496955872,9.13899993896484,13.1409997940063,27.0270004272461,2.10046911239624,3.23362898826599,3.40738701820374,-6.54372406005859,-7.67220497131348,-8.16815376281738,-1.18499994277954,-19.0729999542236,-29.5069999694824,-4.67999982833862,-7.89599990844727,-12.1330003738403,5.76383590698242,6.32014322280884,7.00483179092407,28.4400005340576,5.37400007247925,-7.96299982070923,2.0321729183197,1.62109100818634,1.6981920003891,-5.9882640838623,-4.66121912002563,-3.90953993797302,-37.6669998168945,-32.3320007324219,-24.7999992370605,13.28600025177,10.1470003128052,13.4429998397827,9.93420314788818,1.78550004959106,1.21212005615234,-28.4400005340576,-29.4599990844727,-20.4379997253418,1.57586395740509,2.07884311676025,2.06129097938538,14.7944412231445,12.0051174163818,8.2668571472168,-9.6579999923706,-8.16699981689453,-6.59800004959106,9.04899978637695,6.06799983978271,4.65500020980835,0.54184597730637,-4.90370988845825,-10.5689134597778,3.80399990081787,4.66699981689453,5.13800001144409,SWING_RIGHT
-0.22307400405407,-0.17606799304485,-0.07741200178862,0.44181999564171,0.8556079864502,1.1818380355835,1.71700000762939,2.50200009346008,4.07100009918213,8.26399993896484,7.79400014877319,7.40100002288818,-0.29359498620033,-0.73394197225571,-0.99420201778412,0.66600000858307,0.50900000333786,3.88299989700317,1.39962601661682,-0.80006402730942,-1.70876502990723,0.55406498908997,-0.5650560259819,-2.62188792228699,-6.36299991607666,-14.4440002441406,-26.6049995422363,29.0550003051758,25.0540008544922,0.96799999475479,6.58246421813965,9.61904621124268,11.6007385253906,24.988000869751,10.5520000457764,7.41300010681152,4.5084080696106,4.39754009246826,3.35992693901062,-7.52836418151855,-8.62589740753174,-9.12580299377441,-28.7229995727539,-23.8589992523193,-29.1149997711182,0.73299998044968,6.46000003814697,8.81400012969971,12.9516344070435,13.5577230453491,13.1061773300171,-36.9129981994629,-31.8139991760254,-16.4360008239746,-1.27399694919586,-2.09528207778931,-3.44044089317322,-7.31657123565674,-8.60604667663574,-10.1390361785889,-7.53999996185303,-6.59800004959106,-4.00899982452393,6.22499990463257,5.75400018692017,9.20600032806396,8.01834774017334,7.00599813461304,3.74305605888367,-0.1169999986887,1.05799996852875,1.2940000295639,5.1585750579834,6.86617183685303,7.50393199920654,-5.72438478469849,-4.59663105010986,-3.872554063797,-0.40000000596046,-0.00800000037998,0.30500000715256,8.57800006866455,10.7749996185303,11.08899974823,-3.40125393867493,-2.88632488250732,-2.32988810539246,2.78399991989136,2.86299991607666,1.76499998569489,SWING_RIGHT
-5.23254585266113,-4.84367609024048,-4.2927942276001,-0.15468899905682,-0.22614300251007,-0.30032399296761,0.61900001764297,0.77600002288818,0.77600002288818,9.44099998474121,9.1269998550415,8.73499965667725,-12.1834115982056,-10.5346736907959,-9.07652473449707,2.86299991607666,2.07800006866455,0.74500000476837,-2.1323709487915,-1.099848985672,-0.98699599504471,-0.00257600005716,0.56956499814987,-0.30757901072502,1.24600005149841,2.42300009727478,-0.16500000655651,9.67700004577637,12.9720001220703,16.738000869751,-4.40453004837036,-2.67363810539246,-1.06197905540466,37.3839988708496,37.2270011901855,28.5960006713867,-7.64844799041748,-8.30509471893311,-8.85506534576416,-5.62470579147339,-3.38706111907959,-1.35259997844696,-39.3930015563965,-39.7849998474121,-39.8639984130859,10.1470003128052,4.26300001144409,-1.46300005912781,3.53778004646301,6.10698986053467,8.41568374633789,-34.6380004882813,-38.6389999389649,-31.8139991760254,-3.8862841129303,-4.3707799911499,-3.80277609825134,-20.1729373931885,-18.5691108703613,-15.5570783615112,-15.7779998779297,-11.6979999542236,-7.77500009536743,10.8540000915527,7.16599988937378,4.18499994277954,7.42126083374023,6.1762318611145,3.85593199729919,5.76599979400635,4.90299987792969,4.90299987792969,2.35802888870239,4.46969223022461,5.99312210083008,-11.1874027252197,-11.6520366668701,-10.5052690505981,-1.81200003623962,-1.18499994277954,-0.47900000214577,8.10799980163574,9.28400039672852,10.3830003738403,-0.40324801206589,0.4121710062027,0.89884799718857,2.70600008964539,1.68599998950958,0.58799999952316,SWING_RIGHT
0.96041399240494,0.82307499647141,0.68038702011108,-0.52373701334,-0.36267200112343,-0.2487999945879,1.16799998283386,0.93300002813339,0.93300002813339,9.75500011444092,9.67700004577637,9.83399963378906,-0.11931999772787,-0.18924599885941,-0.26329201459885,2.31399989128113,2.31399989128113,2.23499989509583,0.26658299565315,0.14755800366402,-0.01019799988717,0.55584502220154,0.85585999488831,1.15285205841064,0.61900001764297,0.46200001239777,1.0110000371933,10.2259998321533,10.3039999008179,10.1470003128052,-0.67901599407196,-0.78727197647095,-0.49876099824905,-0.98000001907349,0.27399998903275,4.03999996185303,0.14091199636459,3.62760710716248,7.98940181732178,1.25072395801544,-1.50953197479248,-3.70777297019959,2.34500002861023,7.60099983215332,-21.1909999847412,7.24499988555908,3.32200002670288,-4.99399995803833,11.0571031570435,9.94675636291504,9.33817481994629,37.0699996948242,20.0450000762939,-2.39299988746643,0.65558397769928,-0.43194100260735,-0.28219699859619,-5.54825878143311,-4.38072109222412,-3.96027588844299,-34.3720016479492,-27.8600006103516,-23.9370002746582,7.71500015258789,4.26300001144409,5.98899984359741,12.7977180480957,12.6508836746216,10.792610168457,-26.4790000915527,-25.9290008544922,-21.8500003814697,-1.0426139831543,-1.41175997257233,-1.0645979642868,-16.8419094085693,-14.7541980743408,-12.7474222183228,-8.8730001449585,-7.22599983215332,-5.89200019836426,11.8730001449585,9.28400039672852,7.71500015258789,6.60809087753296,5.26540803909302,3.22876000404358,-0.98000001907349,4.35400009155273,5.4520001411438,SWING_RIGHT
0.66544997692108,0.60241198539734,0.42956200242043,1.28861904144287,1.19535005092621,0.928995013237,0.93300002813339,0.14800000190735,1.71700000762939,7.08799982070923,7.79400014877319,10.539999961853,-0.13361600041389,0.09972800314426,0.21017800271511,3.6470000743866,3.01999998092651,4.51000022888184,-1.15999400615692,-1.55388605594635,-0.63070899248123,-1.00957000255585,-2.11382699012756,-4.69254922866821,-4.87200021743774,-0.55699998140335,-14.4440002441406,9.36299991607666,4.73400020599365,-1.69799995422363,4.0881872177124,6.69943380355835,9.43016147613525,37.9329986572266,18.632999420166,8.35499954223633,8.76407623291016,10.1384391784668,10.4735555648804,-11.3330583572388,-11.6481914520264,-12.7622652053833,-39.8639984130859,-39.9420013427734,-36.7249984741211,-3.26799988746643,1.9099999666214,6.77400016784668,8.84976005554199,8.74561786651611,8.63822364807129,-35.7360000610352,-38.9529991149902,-31.1860008239746,4.62129592895508,3.17501091957092,2.32938289642334,-14.8402805328369,-13.3310785293579,-11.4935274124146,-13.0319995880127,-9.6579999923706,-6.51999998092651,7.40100002288818,3.63599991798401,3.08599996566772,5.93392610549927,4.83098077774048,2.03143906593323,5.21700000762939,5.13800001144409,3.88299989700317,4.46959686279297,5.8679780960083,6.85618495941162,-7.60595607757568,-8.59344673156738,-7.69269990921021,-2.83200001716614,-2.36199998855591,-2.20499992370605,7.87200021743774,9.36299991607666,10.9320001602173,-2.21066999435425,-0.83796697854996,-0.14192299544811,-0.03900000080466,0.58799999952316,0.90200001001358,SWING_RIGHT
-0.14166900515556,0.00209000008181,0.43108999729156,0.43563398718834,0.38880398869514,0.35058701038361,2.73699998855591,3.36500000953674,3.75699996948242,8.10799980163574,8.0290002822876,7.87200021743774,-0.76388198137283,-0.67183899879456,-0.38183599710464,0.90200001001358,4.27500009536743,8.66899967193604,0.4972639977932,-0.11649300158024,-0.40006101131439,-0.99764502048492,-1.95420598983765,-3.31819891929626,-0.55699998140335,-1.41999995708466,-6.44099998474121,14.0699996948242,12.5799999237061,11.0100002288818,3.34606003761292,5.60221385955811,8.70851612091064,35.0299987792969,22.0060005187988,15.1020002365112,7.10032176971436,11.1107358932495,11.5800695419312,-8.41525840759277,-10.1694478988647,-11.5112562179565,-39.7849998474121,-39.9420013427734,-30.1350002288818,2.8510000705719,10.4610004425049,13.28600025177,12.9438514709473,13.0432844161987,12.5182752609253,-38.2470016479492,-31.5,-11.4940004348755,3.05849409103394,1.8122980594635,0.97329902648926,-12.5880136489868,-11.5753583908081,-10.248122215271,-10.9130001068115,-7.53999996185303,-4.08799982070923,0.96799999475479,2.8510000705719,1.98800003528595,5.88190317153931,2.53754806518555,-1.74756705760956,2.86299991607666,-1.37300002574921,-4.43200016021729,8.57012939453125,9.951096534729,9.49649715423584,-11.5609140396118,-7.05903911590576,-3.20960211753845,1.7960000038147,1.71700000762939,1.16799998283386,11.3240003585815,12.1870002746582,12.8929996490479,3.92269110679626,3.44222211837769,3.04514598846436,-2.62800002098084,-2.23600006103516,-1.45099997520447,SWING_RIGHT
0.4449580013752,0.37895798683167,0.28673601150513,0.87155902385712,0.62107402086258,0.09351599961519,1.55999994277954,1.32500004768372,1.55999994277954,9.04899978637695,8.89200019836426,9.52000045776367,0.87693500518799,1.33801996707916,1.90979599952698,3.88299989700317,2.47099995613098,0.98000001907349,1.05624902248383,1.8154970407486,2.32464909553528,-0.19546300172806,0.54848498106003,1.02438294887543,6.58099985122681,6.97399997711182,5.40500020980835,10.0690002441406,10.3830003738403,11.7170000076294,4.42375707626343,6.94982099533081,9.72917747497559,29.6159992218018,38.7169990539551,28.4400005340576,4.58549308776855,3.63097310066223,2.36271595954895,-6.670166015625,-6.59474802017212,-5.81214189529419,-39.1580009460449,-39.7849998474121,-39.9420013427734,7.48000001907349,13.2069997787476,5.28299999237061,10.6994190216064,11.9049892425537,10.8517417907715,-31.0289993286133,-38.875,-36.1290016174316,3.30222702026367,0.59403997659683,-0.61071199178696,-24.8486576080322,-21.2968425750732,-18.1964569091797,-14.3649997711182,-11.2270002365112,-7.46099996566772,9.36299991607666,7.87200021743774,5.91099977493286,5.19114685058594,4.27061176300049,2.11557197570801,9.76700019836426,12.7480001449585,12.5129995346069,8.83137226104736,8.53768634796143,8.77483654022217,-6.42074823379517,-5.85998821258545,-4.29090785980225,3.05100011825562,3.36500000953674,3.44300007820129,8.73499965667725,10.3039999008179,11.7170000076294,-6.74345779418945,-4.79767990112305,-3.76776790618896,-9.8459997177124,-10.5520000457764,-8.43400001525879,SWING_RIGHT
-0.41555601358414,-0.29528599977493,-0.14299899339676,-1.91421794891357,-1.45727801322937,-0.79217302799225,0.93300002813339,1.48199999332428,2.10899996757507,10.539999961853,11.4809999465942,11.4029998779297,0.60797697305679,0.37005001306534,0.05219599977136,-1.2940000295639,0.03900000080466,3.6470000743866,0.35868400335312,0.50044399499893,0.52845102548599,1.51158094406128,0.50462400913239,-1.77588498592377,1.55999994277954,0.38299998641014,-0.24300000071526,10.2259998321533,9.83399963378906,9.20600032806396,3.59533405303955,7.16053009033203,10.1682195663452,38.1679992675781,39.5800018310547,31.0289993286133,9.13519859313965,7.48004198074341,5.00117778778076,-8.04685592651367,-7.41188097000122,-6.00228214263916,-39.2360000610351,-39.7849998474121,-39.9420013427734,5.67500019073486,18.2280006408691,0.18400000035763,10.0068235397339,11.0682487487793,11.3441123962402,-36.5209999084473,-39.1100006103516,-39.5810012817383,1.21344602108002,1.84367394447327,1.72667002677917,23.5519027709961,18.8606662750244,14.6274890899658,-11.0699996948242,-7.06899976730347,-4.16599988937378,4.18499994277954,3.16499996185303,2.77300000190735,-1.86316895484924,-4.47560691833496,-11.249828338623,6.23699998855591,6.55000019073486,4.43200016021729,-1.29268002510071,-0.08879700303078,1.47897696495056,5.73800992965698,4.94271993637085,5.03063678741455,0.30500000715256,0.07000000029802,-0.40000000596046,10.539999961853,12.0299997329712,12.0299997329712,-11.6760854721069,-9.69643402099609,-7.35856914520264,-0.03900000080466,-0.58799999952316,-1.21599996089935,SWING_RIGHT
1.07290494441986,0.86720097064972,0.67110502719879,0.71830397844315,0.77440202236176,0.65724897384644,0.85399997234344,1.0110000371933,1.16799998283386,8.42099952697754,10.9320001602173,11.4809999465942,2.40609288215637,2.26916289329529,2.04700303077698,2.0,0.82300001382828,-0.66699999570847,0.70518398284912,1.63864898681641,1.53803098201752,0.89740598201752,1.47080504894257,1.26961600780487,5.01200008392334,5.71799993515015,2.73699998855591,10.8540000915527,19.4050006866455,23.0930004119873,0.74089300632477,1.98910105228424,4.41728401184082,26.1639995574951,34.4809989929199,34.951000213623,1.78898096084595,5.08572578430176,6.0922532081604,-5.50789499282837,-6.7944598197937,-7.36545085906982,-37.5880012512207,-39.3930015563965,-39.7849998474121,3.40000009536743,11.246000289917,-0.60000002384186,10.3395681381226,10.838493347168,11.4040851593018,-28.5970001220703,-37.148998260498,-39.2669982910156,-1.3904310464859,-2.25426292419434,-0.30508801341057,0.90832698345184,25.4329967498779,20.4225997924805,-14.4440002441406,-10.3640003204346,-6.67700004577637,6.61700010299683,3.47900009155273,2.53699994087219,-3.03531408309937,-2.80525398254395,-5.31096220016479,10.4729995727539,7.96299982070923,5.60900020599365,-2.8422269821167,-3.51392507553101,-1.44522297382355,6.71042013168335,3.71286201477051,3.55487608909607,-0.16500000655651,0.14800000190735,-0.08600000292063,9.52000045776367,11.4029998779297,11.3240003585815,-13.0465517044067,-11.4367904663086,-9.44142436981201,-0.82400000095367,0.58799999952316,0.98000001907349,SWING_RIGHT
0.94870001077652,0.94304901361465,0.92866098880768,-0.3755429983139,0.22100999951363,0.80123198032379,2.26600003242493,2.73699998855591,3.36500000953674,9.75500011444092,10.3830003738403,10.4610004425049,0.06802300363779,-0.73268097639084,-1.22402799129486,-2.62800002098084,-3.25600004196167,-2.31399989128113,0.70138198137283,0.30255499482155,-0.78009700775146,2.28895401954651,1.8720680475235,-0.03386599943042,0.38299998641014,-4.79400014877319,-1.96899998188019,12.9720001220703,17.757999420166,21.9160003662109,9.14254856109619,15.0405349731445,14.6514310836792,36.9910011291504,30.1660003662109,19.0249996185303,5.54314804077148,3.82573390007019,1.9293110370636,-8.00308609008789,-6.75830316543579,-6.51588582992554,-39.3930015563965,-39.7849998474121,-39.9420013427734,13.9130001068115,17.3649997711182,-1.38499999046326,11.1375980377197,12.2595176696777,13.1884670257568,-35.8930015563965,-38.9529991149902,-39.7379989624023,0.40038499236107,-1.99273598194122,-3.54982399940491,-10.1063508987427,-14.095817565918,-15.4428968429565,-11.5410003662109,-8.95199966430664,-5.10799980163574,8.9709997177124,6.06799983978271,4.89099979400635,8.63535499572754,7.172532081604,6.16089105606079,2.39199995994568,5.37400007247925,6.70699977874756,0.12963099777699,7.45848894119263,8.5792064666748,-11.2817211151123,-8.95075225830078,-8.58154964447021,-0.40000000596046,-0.00800000037998,0.22599999606609,7.63700008392334,9.04899978637695,8.57800006866455,-7.68706607818604,-6.32313919067383,-4.77233123779297,3.41199994087219,1.68599998950958,0.50900000333786,SWING_RIGHT
0.68660998344421,0.65809202194214,0.38831400871277,0.02873099967837,0.0234370008111,-0.45655998587608,4.07100009918213,3.99200010299683,3.67799997329712,9.44099998474121,10.4610004425049,11.0100002288818,0.28505399823189,0.38428598642349,0.52822697162628,4.66699981689453,4.82399988174438,4.98099994659424,-0.96321302652359,-0.93046998977661,-0.91800200939178,-1.44408297538757,-2.00770092010498,-2.90442204475403,2.89400005340576,2.18799996376038,2.18799996376038,7.79400014877319,7.16599988937378,7.16599988937378,1.2500159740448,1.99627995491028,3.64192199707031,20.0450000762939,24.9090003967285,21.378999710083,-4.26918792724609,-4.3566632270813,-4.22387313842773,-5.88022184371948,-5.02987289428711,-4.15941095352173,-39.0789985656738,-39.6279983520508,-39.6279983520508,2.14499998092651,1.8309999704361,5.59700012207031,7.96990013122559,5.45058012008667,-5.11602878570557,-36.6780014038086,-26.9489994049072,8.04100036621094,0.56575202941895,1.42858803272247,0.96450400352478,15.0385208129883,12.7911033630371,10.1615524291992,-12.6389999389648,-8.63799953460693,-5.02899980545044,2.06599998474121,6.38199996948242,10.3830003738403,-7.37628412246704,-7.12693119049072,-6.59781122207642,-7.57100009918213,-5.60900020599365,-3.88299989700317,5.14831399917603,4.05635213851929,2.47151899337769,6.02661514282227,4.25308418273926,2.50651597976685,-4.24499988555908,-4.16599988937378,-3.61700010299683,8.57800006866455,6.85200023651123,7.63700008392334,-3.15510892868042,-2.4974319934845,-1.96658599376678,2.23499989509583,2.0,3.33400011062622,SWING_RIGHT
0.26445698738098,0.41268000006676,0.55206197500229,0.32155999541283,0.27903300523758,0.19524300098419,1.08899998664856,1.32500004768372,1.63900005817413,9.44099998474121,9.36299991607666,9.52000045776367,1.59555304050446,2.2804479598999,3.23662710189819,2.54900002479553,1.45099997520447,1.45099997520447,2.00905203819275,2.79555106163025,4.36774110794067,0.61975699663162,1.44740200042725,3.86579704284668,4.14900016784668,5.01200008392334,5.9539999961853,9.44099998474121,9.99100017547607,12.4230003356934,11.0021266937256,10.5519313812256,10.4590892791748,20.2800006866455,33.2249984741211,35.4220008850098,-4.34704113006592,-14.3680248260498,-14.2996978759766,-6.67564296722412,-2.65317893028259,0.10360100120306,-39.2360000610351,-39.7849998474121,-39.9420013427734,0.41899999976158,2.6159999370575,1.51699995994568,0.90952897071838,5.38538885116577,6.55142498016357,-28.9109992980957,-39.2669982910156,-33.382999420166,-1.75131797790527,-0.6813679933548,0.03025900013745,4.74820423126221,4.32440900802612,3.32732892036438,-12.5609998703003,-9.73700046539307,-6.36299991607666,6.85200023651123,0.10499999672174,-1.77699995040894,4.27116584777832,1.88154494762421,-6.35273122787476,11.1009998321533,8.74699974060059,4.82399988174438,-5.00418281555176,-6.81413602828979,-6.86928510665894,11.5405254364014,12.278431892395,13.7615404129028,0.07000000029802,-0.16500000655651,-1.02799999713898,10.3830003738403,12.6579999923706,12.5799999237061,-16.7846927642822,-16.7586975097656,-15.3316135406494,0.43099999427795,0.27399998903275,0.35199999809265,SWING_RIGHT
0.42231100797653,0.36864998936653,0.33141499757767,3.29645109176636,3.3292601108551,2.76940107345581,3.20799994468689,2.03099989891052,2.50200009346008,7.16599988937378,7.32299995422363,7.79400014877319,0.76620697975159,0.93093299865723,1.32614600658417,3.09800004959106,7.09999990463257,11.6499996185303,-1.30154204368591,-1.52810001373291,-1.30961394309998,-2.41661596298218,-2.95456004142761,-3.39952206611633,-2.83200001716614,-6.44099998474121,-12.0120000839233,17.2870006561279,15.2469997406006,12.0299997329712,6.85331583023071,10.2225532531738,11.5894804000854,35.9710006713867,23.4179992675781,13.6110000610352,3.67429399490356,2.49903297424316,0.70252102613449,-8.2434606552124,-7.81186389923096,-6.99429178237915,-39.7849998474121,-39.9420013427734,-39.2360000610351,4.9689998626709,-1.69799995422363,4.10599994659424,9.71566677093506,10.6570796966553,11.0354347229004,-35.3440017700195,-37.6980018615723,-34.6380004882813,-0.39884498715401,3.45689606666565,6.06626176834106,4.84370994567871,16.4297103881836,17.5123443603516,-9.6579999923706,-9.73700046539307,-7.38299989700317,10.7749996185303,7.95100021362305,4.02799987792969,-1.91696798801422,-2.40142202377319,-11.6768522262573,5.68699979782104,5.37400007247925,3.4909999370575,-0.25787499547005,-0.76683098077774,0.52476900815964,7.47847318649292,6.09686708450317,5.71155595779419,-1.65600001811981,-0.79299998283386,-0.55699998140335,8.73499965667725,12.9720001220703,13.3640003204346,-12.4342002868652,-10.5691404342651,-8.67308712005615,-0.1169999986887,-0.66699999570847,-0.82400000095367,SWING_RIGHT
-0.10239999741316,-0.1455609947443,-0.08932100236416,-0.85887199640274,-0.77344399690628,-0.73501098155975,1.24600005149841,1.7960000038147,2.81500005722046,9.28400039672852,9.36299991607666,10.539999961853,0.70096498727798,0.64335602521896,0.32043799757957,3.4909999370575,2.39199995994568,1.68599998950958,0.67321401834488,0.61813801527023,0.1907359957695,0.1455080062151,-0.28989699482918,-1.50435400009155,4.46299982070923,-2.59699988365173,-14.4440002441406,19.6410007476807,20.7390003204346,17.4440002441406,3.65408396720886,5.28286409378052,5.85882902145386,39.0309982299805,26.7919998168945,23.1049995422363,-3.22276496887207,-4.54293584823608,-6.15126991271973,-6.28105115890503,-5.23773908615112,-3.35702395439148,-39.8639984130859,-39.9420013427734,-37.1180000305176,-0.05099999904633,-1.69799995422363,17.6790008544922,7.16245412826538,7.87838411331177,4.88741588592529,-38.1689987182617,-12.8269996643066,4.66699981689453,3.15749096870422,3.81263899803162,0.34162899851799,18.1376876831055,15.8988370895386,10.9193677902222,-10.5209999084473,-2.44000005722046,1.87399995326996,2.53699994087219,3.00799989700317,8.5,-14.1155481338501,-16.0737018585205,-16.5183601379395,-0.27399998903275,-4.03999996185303,-5.68800020217896,1.87646198272705,2.35985398292542,2.27678298950195,9.25136470794678,9.1477108001709,8.40623569488525,-1.18499994277954,-2.04800009727478,-2.36199998855591,10.6180000305176,9.67700004577637,8.9709997177124,-2.05156493186951,1.48706495761871,2.31423401832581,-1.21599996089935,-1.37300002574921,-1.45099997520447,SWING_RIGHT
0.70980000495911,0.79121398925781,1.05052995681763,-0.03375500068069,-0.02235499955714,-0.00616500014439,2.50200009346008,3.99200010299683,5.40500020980835,11.4029998779297,11.5600004196167,12.0299997329712,1.12015604972839,0.62581098079681,0.08648300170898,3.4909999370575,2.31399989128113,4.11800003051758,1.55817294120789,1.9623349905014,2.79347896575928,0.60455298423767,-0.20867699384689,-2.22504806518555,3.36500000953674,-6.28399991989136,-14.6789999008179,11.4809999465942,4.81199979782104,-2.56100010871887,8.30063343048096,9.1836576461792,9.12890911102295,36.9129981994629,21.4570007324219,10.4729995727539,1.53941404819489,0.67019897699356,0.49960398674011,-6.44614315032959,-6.31851816177368,-5.83551216125488,-39.9420013427734,-39.9420013427734,-27.8600006103516,-8.21000003814697,5.75400018692017,11.7950000762939,11.9738607406616,12.9869842529297,12.3395595550537,-39.1100006103516,-24.125,-2.62800002098084,1.33186602592468,1.72400796413422,2.5155930519104,-9.34426403045654,-8.08936882019043,-6.70919990539551,-12.2469997406006,-8.24600028991699,-5.10799980163574,3.00799989700317,1.43900001049042,1.51699995994568,3.37105107307434,-1.88486802577972,-5.78678178787231,3.80399990081787,-0.03900000080466,-3.09899997711182,4.66001081466675,7.32423210144043,7.91812896728516,-4.52760601043701,-2.77687907218933,-0.07648099958897,0.07000000029802,-0.63599997758865,-1.81200003623962,13.3640003204346,12.7360000610352,10.9320001602173,3.14822602272034,2.91150403022766,2.73052906990051,-0.90200001001358,-0.195999994874,0.1169999986887,SWING_RIGHT
0.37443399429321,0.5847390294075,0.71104699373245,1.10059595108032,2.19728088378906,2.51932406425476,4.07100009918213,5.40500020980835,5.48299980163574,11.08899974823,12.3439998626709,13.2069997787476,-0.99930602312088,-1.14376997947693,-1.03453695774078,-5.84499979019165,-2.15700006484985,3.41199994087219,-0.434101998806,-1.44686794281006,-2.36427402496338,1.54504203796387,-0.32328298687935,-2.52636408805847,-3.7739999294281,-4.79400014877319,-4.79400014877319,16.8950004577637,13.128999710083,13.128999710083,3.92708611488342,13.3494453430176,12.3949203491211,33.6959991455078,35.9710006713867,21.0650005340576,7.04063081741333,5.41287517547607,3.61069107055664,-8.77788734436035,-7.93356513977051,-6.69382286071777,-39.6279983520508,-39.8639984130859,-39.9420013427734,6.14599990844727,10.6969995498657,-5.30700016021729,9.94472217559814,11.1689958572388,12.3915338516235,-33.5400009155273,-38.4039993286133,-38.4039993286133,1.77040004730225,0.80764800310135,-0.53781199455261,-5.97192096710205,-9.02496242523193,-9.99359035491943,-12.168999671936,-12.6389999389648,-11.0699996948242,14.5410003662109,11.6379995346069,7.79400014877319,10.2164554595947,8.69685173034668,6.37109279632568,4.58900022506714,5.68699979782104,6.47200012207031,2.90956592559814,4.37587690353394,5.41107320785522,-7.52270078659058,-8.26536560058594,-8.11689567565918,-0.94900000095367,0.14800000190735,0.77600002288818,7.40100002288818,8.73499965667725,10.6180000305176,-2.85693907737732,-0.28607699275017,1.72264695167542,-0.90200001001358,-3.09899997711182,-3.88299989700317,SWING_RIGHT
0.20994800329208,0.15248200297356,0.18890999257565,-2.18256497383118,-1.63794803619385,-0.60859197378159,0.30500000715256,0.46200001239777,0.77600002288818,9.04899978637695,9.04899978637695,9.28400039672852,2.05228090286255,2.12162590026855,1.73966705799103,1.60800004005432,1.13699996471405,0.50900000333786,0.73274600505829,0.8434219956398,1.00344502925873,1.45561802387238,1.42768597602844,1.45492994785309,2.18799996376038,3.12899994850159,2.97199988365173,10.8540000915527,13.2069997787476,16.423999786377,-0.01425800006837,-0.43384298682213,-0.64276301860809,1.84300005435944,7.25600004196167,13.5329999923706,-0.26320299506187,-0.80529600381851,-0.78076297044754,-1.16491496562958,-2.56327891349792,-4.72704076766968,-4.08799982070923,-8.63799953460693,-21.3479995727539,8.3430004119873,8.42099952697754,5.83199977874756,5.96358203887939,9.22761154174805,8.98793125152588,39.3450012207031,34.7159996032715,23.7320003509521,5.47817420959473,3.69283604621887,-0.23008500039577,-8.77704238891602,-7.24217700958252,-5.32770013809204,-39.8639984130859,-39.9420013427734,-39.0789985656738,10.6969995498657,-11.1920003890991,8.57800006866455,8.47411155700684,8.24535846710205,7.01706600189209,-38.4819984436035,-38.4819984436035,-27.2630004882813,-0.83033001422882,0.72033798694611,2.13997602462769,13.7926254272461,12.9107532501221,10.5792875289917,-12.2469997406006,-9.10900020599365,-5.18599987030029,9.44099998474121,6.93100023269653,5.44000005722046,1.79429996013641,-1.87772798538208,-11.4095449447632,11.4930000305176,7.64900016784668,2.47099995613098,SWING_RIGHT
1.51498198509216,0.86916899681091,0.02735400013626,1.44428098201752,0.55788797140121,-0.2859779894352,3.20799994468689,0.69700002670288,-0.79299998283386,15.7180004119873,16.0319995880127,15.7180004119873,0.01744999922812,0.64976799488068,1.780277967453,11.5719995498657,12.6700000762939,22.0060005187988,-1.73795104026794,-0.36895999312401,0.65480899810791,-4.35117483139038,-6.62891578674316,-7.93727207183838,-15.7779998779297,-28.173999786377,-37.0390014648438,-3.89499998092651,-4.75799989700317,-7.11199998855591,6.64871978759766,5.92109394073486,5.45985078811646,27.9689998626709,7.72700023651123,0.66600000858307,-4.89837789535522,-4.30841302871704,-3.91128396987915,-2.21673107147217,-0.48594099283218,1.30476605892181,-39.9420013427734,-39.9420013427734,-34.9210014343262,5.28299999237061,2.22300004959106,2.69400000572205,7.83166790008545,7.17635822296143,5.97685718536377,-38.4039993286133,-39.5810012817383,-27.5769996643066,2.09568190574646,2.64054799079895,2.66624593734741,10.2212152481079,8.88004779815674,6.76602792739868,-13.3450002670288,-11.7760000228882,-9.42300033569336,9.04899978637695,5.20499992370605,3.40000009536743,3.10548496246338,1.98092496395111,-3.18428707122803,5.37400007247925,7.49200010299683,8.19799995422363,1.72058498859406,-0.15408299863338,0.32650399208069,8.17446899414063,7.54463291168213,6.45101118087769,-1.02799999713898,-0.08600000292063,-0.08600000292063,8.26399993896484,11.1669998168945,11.4809999465942,-13.0033445358276,-10.9616966247559,-7.98301601409912,-2.54999995231628,-3.25600004196167,-4.51100015640259,SWING_RIGHT
1.19119000434875,1.07199501991272,0.82321900129318,0.85272300243378,0.74209702014923,0.71422398090363,1.87399995326996,1.24600005149841,0.85399997234344,9.75500011444092,10.6969995498657,12.0299997329712,1.04835796356201,1.17777299880981,1.28124403953552,3.33400011062622,3.88299989700317,3.88299989700317,0.11111400276423,0.18658499419689,0.84063601493835,0.55687201023102,0.41174700856209,-0.06701400130987,1.7960000038147,2.81500005722046,2.10899996757507,8.18599987030029,8.42099952697754,10.9320001602173,4.32426691055298,8.68679904937744,9.21925830841064,14.5530004501343,34.8730010986328,21.2220001220703,4.10633516311646,2.55664205551147,0.21541699767113,-7.93004894256592,-6.63656187057495,-5.22063589096069,-39.6279983520508,-39.8639984130859,-39.9420013427734,10.9320001602173,10.7749996185303,-0.67900002002716,9.96729564666748,11.3695497512817,12.0223093032837,-37.6189994812012,-39.423999786377,-24.3600006103516,1.45039498806,-0.28745999932289,-0.72245198488235,-17.2037124633789,-17.1634387969971,-15.8816261291504,-16.3269996643066,-10.4429998397827,-5.57800006866455,10.6969995498657,6.38199996948242,3.55699992179871,6.61136293411255,4.9819278717041,0.97451001405716,5.9229998588562,4.03999996185303,3.80399990081787,6.06963920593262,7.30117893218994,7.98335313796997,-7.38691186904907,-5.89932680130005,-3.83190608024597,1.40299999713898,1.32500004768372,0.85399997234344,8.81400012969971,9.91199970245361,9.52000045776367,-6.01315689086914,-4.59387302398682,-2.54169893264771,0.03900000080466,-0.90200001001358,-1.45099997520447,SWING_RIGHT
2.30935406684875,3.43977999687195,4.1815938949585,1.54364800453186,1.75499904155731,1.98978698253632,5.48299980163574,4.22800016403198,2.18799996376038,9.67700004577637,9.91199970245361,15.168999671936,9.08300399780273,9.54319477081299,9.5327615737915,7.33500003814697,7.64900016784668,8.35499954223633,2.90701103210449,2.87110996246338,3.24579691886902,1.38520002365112,0.32952600717545,-1.58689594268799,-5.2649998664856,-10.9130001068115,-29.5069999694824,19.4839992523193,17.3649997711182,1.04700005054474,9.4244270324707,7.94988298416138,6.7462100982666,29.1459999084473,19.3390007019043,11.2580003738403,-3.54539489746094,-5.0297679901123,-6.00703907012939,-4.07194519042969,-3.06179904937744,-1.06815600395203,-39.9420013427734,-39.9420013427734,-39.9420013427734,-6.56300020217896,2.14499998092651,7.00899982452393,7.19429302215576,6.11739492416382,4.61444902420044,-37.5410003662109,-39.423999786377,-30.8719997406006,-0.40327399969101,0.82304000854492,1.13888096809387,11.9299659729004,9.33098411560059,6.94528388977051,-12.7180004119873,-11.3839998245239,-7.93200016021729,10.0690002441406,7.79400014877319,5.36199998855591,3.7625880241394,3.15903401374817,-1.46204900741577,3.33400011062622,3.09800004959106,3.25500011444092,4.85038805007935,2.49132704734802,2.03466606140137,12.1067676544189,10.8891849517822,9.08669853210449,-1.73399996757507,-1.34200000762939,-1.26300001144409,8.42099952697754,8.9709997177124,10.2259998321533,-13.9377899169922,-12.5296182632446,-10.3419752120972,0.27399998903275,-0.35299998521805,-0.98000001907349,SWING_RIGHT
0.02942400053144,0.25420999526978,0.53352600336075,0.22962300479412,0.68396198749542,1.22090697288513,2.81500005722046,3.59999990463257,4.85500001907349,10.3039999008179,11.7170000076294,12.6579999923706,-1.85592997074127,-2.70618200302124,-3.03192210197449,-7.17799997329712,-6.39400005340576,-2.78500008583069,0.96190100908279,-0.43427601456642,-1.79219996929169,1.83198797702789,1.61246395111084,-0.70605999231339,-2.28299999237061,-4.16599988937378,-2.98900008201599,8.10799980163574,11.7170000076294,13.6780004501343,3.89044308662415,3.6522159576416,3.18035697937012,36.8339996337891,39.2669982910156,38.6389999389649,-3.95585799217224,-4.11818885803223,-3.13072896003723,-9.36769580841064,-8.31205177307129,-7.38667392730713,-38.6870002746582,-39.6279983520508,-39.8639984130859,-6.7979998588562,1.51699995994568,3.16499996185303,7.27523708343506,9.19906330108643,10.9283456802368,-32.9119987487793,-38.2470016479492,-39.5810012817383,0.8439080119133,1.85307598114014,2.61487197875977,-2.93670296669006,0.67136800289154,0.79674398899078,-14.8360004425049,-9.26599979400635,-5.4210000038147,20.5820007324219,8.26399993896484,6.46000003814697,6.06677579879761,1.61588799953461,-10.8882646560669,11.414999961853,9.5319995880127,7.25600004196167,1.10585105419159,-0.02836699970067,0.41362801194191,6.26820087432861,3.90810489654541,3.3602728843689,0.77600002288818,0.77600002288818,0.46200001239777,10.4610004425049,11.0100002288818,10.9320001602173,-9.65436935424805,-8.23148155212402,-6.56954288482666,-0.1169999986887,-0.195999994874,-0.82400000095367,SWING_RIGHT
1.51249003410339,1.73899304866791,1.77956700325012,1.20852494239807,1.65099203586578,1.92552196979523,6.65999984741211,6.65999984741211,6.11100006103516,13.2069997787476,14.4619998931885,14.3059997558594,0.40698400139809,0.52812802791595,0.72659301757813,3.4909999370575,7.80600023269653,17.8479995727539,0.45675399899483,1.19333398342133,16.7516174316406,-1.27083098888397,-3.42045497894287,2.59514093399048,-0.00800000037998,-15.1499996185303,-33.1160011291504,8.57800006866455,-5.07200002670288,-14.0159997940063,16.1127624511719,13.0157117843628,11.2840070724487,30.6359996795654,23.7320003509521,12.4350004196167,-2.05950999259949,-5.86799287796021,-5.98304986953735,-3.65545010566711,-1.26842403411865,0.76868999004364,-39.9420013427734,-39.9420013427734,-39.9420013427734,-2.01200008392334,4.02799987792969,11.6379995346069,10.0453901290894,10.0990419387817,9.46913433074951,-35.5800018310547,-38.0120010375977,-29.7740001678467,0.39607301354408,1.53431403636932,1.6073659658432,8.07885265350342,7.31193017959595,4.88198089599609,-12.7959995269775,-11.1490001678467,-9.6579999923706,13.128999710083,5.98899984359741,4.9689998626709,7.01098680496216,7.49476385116577,6.20950984954834,2.70600008964539,2.94099998474121,3.56900000572205,-2.1315929889679,0.00169699999969,2.95569801330566,-11.8106641769409,-17.4598865509033,-14.2435121536255,-2.28299999237061,-1.34200000762939,-1.41999995708466,7.08799982070923,7.95100021362305,7.79400014877319,5.63862419128418,4.94206809997559,4.81927490234375,2.31399989128113,1.60800004005432,0.66600000858307,SWING_RIGHT
-0.00879099965096,0.29601699113846,0.71060401201248,-0.12334699928761,0.77995997667313,1.53786504268646,2.26600003242493,3.83500003814697,4.22800016403198,10.2259998321533,10.9320001602173,12.7360000610352,-0.21594500541687,-0.26260098814964,-0.24705499410629,-4.35400009155273,10.0019998550415,27.5769996643066,-0.10311099886894,-0.88905900716782,-1.33305704593658,-2.47536396980286,-4.86745882034302,-6.86485385894775,-7.53999996185303,-18.7590007781982,-28.4090003967285,16.5020008087158,-2.32599997520447,-10.7209997177124,5.91601419448853,8.64295101165771,9.38395881652832,35.1870002746582,27.0270004272461,11.8850002288818,6.21821308135986,5.59555006027222,4.35257482528687,-9.39240646362305,-9.65300846099854,-8.9992151260376,-39.9420013427734,-39.9420013427734,-39.9420013427734,-0.91399997472763,-0.75700002908707,5.12599992752075,10.6590642929077,7.17137622833252,5.39956092834473,-36.992000579834,-39.3450012207031,-7.33500003814697,1.77561104297638,1.86710798740387,2.86198592185974,-17.84641456604,-14.8381719589233,-11.9488201141357,-11.2270002365112,-9.3439998626709,-4.87200021743774,4.5770001411438,1.98800003528595,0.88999998569489,2.0230119228363,-2.95082902908325,-7.37188577651978,6.15799999237061,5.21700000762939,3.25500011444092,3.64354395866394,4.42812204360962,5.77824878692627,-3.4991729259491,-1.7977420091629,0.93218302726746,-1.65600001811981,-1.96899998188019,-2.12599992752075,8.5,10.3830003738403,11.246000289917,-5.52456903457642,-2.95983099937439,-1.63694095611572,-1.92200005054474,-1.37300002574921,-1.60800004005432,SWING_RIGHT
0.21395599842072,0.33002299070358,0.42600500583649,0.02696000039577,0.11656100302935,0.17151300609112,1.24600005149841,0.93300002813339,0.93300002813339,9.36299991607666,9.59799957275391,9.99100017547607,0.94953900575638,1.48138105869293,2.23696208000183,1.52900004386902,1.52900004386902,1.45099997520447,0.83844798803329,1.04131996631622,1.33368897438049,0.43287399411201,0.62329298257828,1.07677805423737,2.57999992370605,3.99200010299683,5.01200008392334,9.52000045776367,11.3240003585815,13.9130001068115,2.46705389022827,1.65637695789337,2.028568983078,-3.41300010681152,-1.37300002574921,12.5909996032715,0.49054199457169,1.658931016922,3.52499508857727,0.71631801128387,-0.53831899166107,-2.26678609848022,-0.79299998283386,-4.40100002288818,-21.2700004577637,18.7779998779297,13.9919996261597,1.67400002479553,12.8365421295166,11.5200681686401,9.97365188598633,32.2050018310547,17.6909999847412,5.53000020980835,-0.38710701465607,-3.43642902374268,-5.27355909347534,-6.66350603103638,-5.48273277282715,-3.17357492446899,-39.8639984130859,-38.5299987792969,-34.6860008239746,-8.75899982452393,0.34000000357628,1.125,9.18653297424316,9.48794746398926,-1.25779294967651,-23.4969997406006,-30.2450008392334,-33.6969985961914,1.03278505802155,3.86183500289917,4.59244108200073,24.3290157318115,14.5680418014526,11.4585199356079,-11.5410003662109,-6.44099998474121,-4.55800008773804,15.7180004119873,11.7950000762939,10.3830003738403,-5.29971981048584,-10.4296398162842,-11.9024496078491,2.39199995994568,3.56900000572205,4.66699981689453,SWING_RIGHT
-0.00699699996039,0.00471800006926,0.03274499997497,-0.93646901845932,-0.95461702346802,-0.8632709980011,0.14800000190735,0.07000000029802,0.14800000190735,9.67700004577637,9.59799957275391,9.04899978637695,0.28045499324799,0.39167699217796,0.47263300418854,3.6470000743866,3.33400011062622,2.86299991607666,0.20392599701881,0.32531499862671,0.80437898635864,0.11753799766302,0.42072901129723,0.83262699842453,1.16799998283386,1.48199999332428,3.91400003433228,8.9709997177124,9.04899978637695,11.0100002288818,0.36724299192429,0.07490500062704,-0.03771200031042,-2.0,-0.90200001001358,7.80600023269653,1.49475598335266,1.46281003952026,2.70575189590454,1.70241594314575,-0.37054300308228,-2.21973991394043,1.32500004768372,-7.30399990081787,-21.6620006561279,27.3290004730225,10.8540000915527,-17.3899993896484,13.3644437789917,13.70729637146,12.2769021987915,39.8940010070801,31.1860008239746,12.9840002059937,7.4751501083374,5.02458190917969,2.63114190101624,-7.54681205749512,-8.17429065704346,-7.08965492248535,-39.8639984130859,-39.9420013427734,-38.6870002746582,-9.30900001525879,4.18499994277954,-0.44299998879433,10.6969575881958,11.5268630981445,6.87187719345093,-23.6539993286133,-32.8339996337891,-21.0650005340576,0.94986999034882,0.22687700390816,0.47869899868965,-20.1042747497559,-16.8618965148926,-14.2643747329712,-12.0120000839233,-9.02999973297119,-7.14699983596802,12.1870002746582,8.0290002822876,6.14599990844727,5.25106191635132,3.42961597442627,-0.96492397785187,2.70600008964539,3.88299989700317,5.21700000762939,SWING_RIGHT
0.23622100055218,0.10536900162697,-0.04117399826646,0.43171098828316,0.91481202840805,1.58357799053192,0.07000000029802,-0.24300000071526,-0.16500000655651,9.67700004577637,10.3830003738403,11.3240003585815,-0.8793820142746,-0.98742300271988,-1.02149701118469,-1.13699996471405,-0.27399998903275,0.66600000858307,-0.09622000157833,0.42135000228882,1.28312003612518,1.71937596797943,1.16007304191589,0.37827700376511,3.28600001335144,4.93400001525879,6.03200006484985,9.36299991607666,10.9320001602173,12.9720001220703,1.63269102573395,3.30275392532349,5.64870691299438,4.19700002670288,6.55000019073486,18.0049991607666,5.77347421646118,9.24794673919678,10.0447664260864,-0.20610000193119,-1.30437803268433,-3.55178689956665,2.81500005722046,-8.8730001449585,-30.3700008392334,-6.8769998550415,-7.66099977493286,-2.56100010871887,10.91748046875,9.9069938659668,8.87437629699707,37.6189994812012,25.3799991607666,15.8079996109009,-2.38808393478394,-3.6013560295105,-3.63012099266052,-5.04352521896362,-3.3167450428009,-2.03081488609314,-39.9420013427734,-39.9420013427734,-39.9420013427734,-6.56300020217896,-6.48400020599365,8.18599987030029,9.84001541137695,10.5239973068237,8.04254817962646,-27.5769996643066,-30.0090007781982,-32.1269989013672,-0.71305900812149,1.34198796749115,2.44810390472412,21.7636775970459,17.9873924255371,14.6539525985718,-15.46399974823,-13.2670001983643,-10.6780004501343,21.05299949646,13.7559995651245,7.79400014877319,-3.6157660484314,-6.07805109024048,-8.6730375289917,3.88299989700317,4.19700002670288,3.96099996566772,SWING_RIGHT
0.37519401311874,0.63210302591324,0.84913599491119,0.26217201352119,0.41935500502586,0.63628602027893,0.61900001764297,0.61900001764297,0.85399997234344,9.75500011444092,10.0690002441406,10.0690002441406,6.22367811203003,7.13745021820068,7.52220296859741,0.58799999952316,0.19499999284744,-0.35299998521805,0.62024599313736,0.56480997800827,0.76501101255417,1.30151295661926,1.45692896842957,1.51724100112915,2.18799996376038,2.89400005340576,2.18799996376038,10.1470003128052,10.539999961853,11.5600004196167,1.46713805198669,1.55889201164246,2.64668798446655,2.39199995994568,7.49200010299683,8.43299961090088,1.3388819694519,2.02105689048767,5.35981702804565,-1.11869597434998,-1.24313998222351,-4.16698503494263,4.38500022888184,3.83500003814697,-23.8589992523193,15.875,7.32299995422363,-8.44600009918213,9.20150375366211,8.1378755569458,6.82621622085571,37.7760009765625,29.8519992828369,26.0069999694824,-6.44304084777832,-6.36720991134644,-5.51347494125366,-3.97817707061768,-2.04833197593689,-0.52808398008347,-39.9420013427734,-39.9420013427734,-39.3139991760254,-5.46400022506714,-0.99199998378754,14.8549995422363,8.57478046417236,4.56859683990479,1.30757200717926,-33.0690002441406,-27.2630004882813,-8.43400001525879,3.06947493553162,3.35001993179321,3.09038305282593,13.3387060165405,10.1996288299561,7.56953191757202,-13.2670001983643,-9.89299964904785,-8.48099994659424,11.1669998168945,5.36199998855591,4.02799987792969,-2.64723992347717,-11.0201349258423,-10.8097295761108,2.23499989509583,1.37199997901917,1.9210000038147,SWING_RIGHT
-0.04354099929333,-0.19159600138664,-0.42343801259995,-0.97149497270584,-0.74027997255325,-0.16556699573994,0.69700002670288,0.38299998641014,-0.47900000214577,9.99100017547607,10.0690002441406,8.73499965667725,-0.11113700270653,0.46087598800659,1.5470290184021,7.02099990844727,7.80600023269653,6.78599977493286,2.67851090431213,4.50489902496338,6.15345001220703,-0.94644498825073,-0.97851300239563,-1.23744904994965,1.95200002193451,-2.75399994850159,-6.28399991989136,8.6569995880127,18.4640007019043,21.9939994812012,8.85845756530762,8.21333312988281,7.08709716796875,36.9129981994629,21.92799949646,15.0240001678467,-2.50960302352905,-3.8900830745697,-5.03908777236938,-3.25026106834412,-2.03333306312561,-0.88482397794724,-39.7849998474121,-39.9420013427734,-37.4309997558594,8.3430004119873,3.24300003051758,3.63599991798401,6.74304723739624,7.61237192153931,7.3712968826294,-34.0890007019043,-38.4819984436035,-32.048999786377,-1.47628700733185,1.3096239566803,1.62423300743103,11.691873550415,11.6969528198242,9.58536052703857,-12.6389999389648,-9.8149995803833,-6.91200017929077,12.8149995803833,5.67500019073486,7.00899982452393,1.85409903526306,0.55817502737045,-2.71627593040466,5.05999994277954,6.00099992752075,3.33400011062622,2.90124607086182,2.99350905418396,2.99069809913635,3.6435809135437,5.36050510406494,6.68337488174438,-3.6949999332428,-4.00899982452393,-4.32299995422363,9.75500011444092,11.1669998168945,11.1669998168945,-11.5695838928223,-10.0801401138306,-8.33020687103271,-0.50999999046326,1.76499998569489,2.15700006484985,SWING_RIGHT
0.05518700182438,-0.01035999972373,-0.02778100036085,-0.24971799552441,-0.33190900087357,-0.32977101206779,1.16799998283386,1.32500004768372,1.48199999332428,9.75500011444092,9.52000045776367,9.28400039672852,-0.89466202259064,-0.71480000019073,-0.44991400837898,2.0,1.76499998569489,1.52900004386902,0.55084502696991,0.77196598052979,1.00036597251892,-0.03039100021124,0.26127800345421,0.661680996418,2.73699998855591,3.44300007820129,3.83500003814697,10.3830003738403,10.539999961853,10.4610004425049,1.77227699756622,2.29364490509033,2.64839601516724,0.27399998903275,-0.03900000080466,1.2150000333786,1.71241497993469,1.14490902423859,-6.79311180114746,1.60164201259613,-0.90123301744461,-7.31565618515015,2.34500002861023,1.24600005149841,-17.503999710083,15.4820003509521,17.5219993591309,-0.20800000429153,-13.8547811508179,-8.3905086517334,-4.89189291000366,39.6590003967285,34.3240013122559,21.92799949646,-7.44723415374756,1.44534802436829,4.9972767829895,-4.82666015625,-10.2545251846313,-12.7621250152588,-39.7849998474121,-39.9420013427734,-39.9420013427734,-3.26799988746643,-2.01200008392334,-4.83699989318848,7.86082983016968,8.74479389190674,9.62275218963623,-31.9710006713867,-38.0120010375977,-32.5979995727539,1.40769100189209,1.09594595432281,1.00861895084381,-10.7910718917847,-9.29415988922119,-8.40914916992188,-16.4050006866455,-13.0319995880127,-8.71700000762939,10.7749996185303,8.0290002822876,4.9689998626709,7.38409185409546,6.11161518096924,2.83513998985291,8.74699974060059,9.29599952697754,7.64900016784668,SWING_RIGHT
-0.73159599304199,-0.60391402244568,-0.48765799403191,0.35322099924088,0.3732950091362,0.337336987257,1.48199999332428,1.55999994277954,1.71700000762939,9.44099998474121,9.67700004577637,10.1470003128052,-1.97628200054169,-1.63323700428009,-1.32250595092773,3.33400011062622,3.09800004959106,2.62800002098084,-0.22309200465679,-0.10239399969578,0.21896800398827,-0.31918698549271,-0.33485800027847,-0.15719400346279,2.97199988365173,3.75699996948242,5.01200008392334,10.6180000305176,11.1669998168945,11.7170000076294,-0.98006600141525,-1.02134799957275,-1.13401997089386,0.74500000476837,2.86299991607666,11.96399974823,0.66003400087357,-0.07143300026655,-0.85986602306366,-0.65089100599289,-3.59398102760315,-6.21034717559814,2.57999992370605,-1.49899995326996,-25.1919994354248,8.9709997177124,-0.67900002002716,-10.8780002593994,2.52010703086853,4.9631872177124,6.71122598648071,38.4029998779297,21.2999992370605,21.2999992370605,3.83391499519348,6.61693096160889,7.4572319984436,-8.59482860565186,-10.0012140274048,-11.2473421096802,-35.6269989013672,-34.9210014343262,-31.9400005340576,-3.89499998092651,-2.16899991035461,0.26199999451637,9.55495357513428,10.3214921951294,10.6606063842773,-23.261999130249,-25.2229995727539,-25.9290008544922,2.77970504760742,2.76145505905151,2.54470705986023,-7.34810400009155,-6.77772998809814,-7.03247213363647,-11.3839998245239,-9.02999973297119,-6.99100017547607,15.326000213623,13.9919996261597,11.8730001449585,8.20750141143799,7.53189277648926,7.28391122817993,1.37199997901917,5.37400007247925,6.78599977493286,SWING_RIGHT
0.40742498636246,0.34749999642372,0.23595200479031,0.43013599514961,0.76336801052094,1.01869797706604,1.24600005149841,0.85399997234344,1.08899998664856,11.4809999465942,11.0100002288818,9.99100017547607,0.06368499994278,0.0066410000436,0.02268500067294,1.05799996852875,2.23499989509583,4.27500009536743,0.13268099725246,0.50237900018692,0.99793899059296,0.54102200269699,-0.21274900436401,-0.56022697687149,2.18799996376038,2.73699998855591,4.14900016784668,8.5,7.71500015258789,8.18599987030029,2.69356989860535,3.80154609680176,4.66698312759399,3.4909999370575,5.13800001144409,4.51000022888184,3.96014809608459,3.95803594589233,4.29284381866455,0.93462300300598,1.58925497531891,-0.88383501768112,7.52299976348877,3.59999990463257,-24.7220001220703,11.7170000076294,13.128999710083,5.83199977874756,8.83498859405518,9.41196918487549,9.12700271606445,36.9910011291504,26.7919998168945,12.3559999465942,-1.08639097213745,-2.39071106910706,-3.21325898170471,-4.61768388748169,-4.02024984359741,-2.93495297431946,-39.8639984130859,-39.9420013427734,-39.9420013427734,-1.93400001525879,1.20299994945526,1.9099999666214,9.93016624450684,11.6762189865112,8.03968620300293,-34.560001373291,-36.9129981994629,-27.4990005493164,1.92743504047394,1.14694499969482,1.33682799339294,-23.6940078735352,-19.7178611755371,-16.0604572296143,-13.8159999847412,-10.128999710083,-6.51999998092651,14.8549995422363,8.89200019836426,5.20499992370605,6.2174129486084,4.42445611953735,-0.09533800184727,7.17799997329712,6.94299983978271,7.49200010299683,SWING_RIGHT
0.08109699934721,0.03129599988461,-0.07557900249958,0.50667101144791,0.50105798244476,0.52749198675156,2.50200009346008,2.97199988365173,3.75699996948242,9.91199970245361,10.0690002441406,10.539999961853,0.14630299806595,-0.18457999825478,-0.43132001161575,-1.68700003623962,-1.52999997138977,3.6470000743866,0.53959399461746,-0.07600799947977,-0.41510599851608,0.68754702806473,-1.56764101982117,-4.09523391723633,2.10899996757507,-1.18499994277954,-15.0719995498657,20.8959999084473,13.6780004501343,-0.75700002908707,3.65025496482849,5.57496023178101,6.01492404937744,37.9329986572266,33.6180000305176,12.0419998168945,-1.37825798988342,20.8366622924805,21.2281799316406,-6.15134620666504,-13.4326210021973,-16.1603775024414,-39.8639984130859,-39.9420013427734,-39.9420013427734,-0.83499997854233,3.63599991798401,3.79200005531311,9.75357055664062,9.52816200256348,9.38621997833252,-37.4620018005371,-38.3250007629395,-20.7509994506836,6.143235206604,4.96351003646851,4.62245512008667,-14.9540061950684,-12.7498760223389,-10.5213603973389,-12.4820003509521,-8.71700000762939,-5.81400012969971,9.52000045776367,7.71500015258789,4.5770001411438,5.77748012542725,2.81838297843933,-3.49462294578552,10.0019998550415,11.3360004425049,10.7869997024536,5.81195402145386,5.47848320007324,5.47029113769531,-3.14419507980347,-2.29363703727722,-1.02145099639893,-0.63599997758865,-1.34200000762939,-2.20499992370605,9.52000045776367,9.59799957275391,9.20600032806396,-5.20946216583252,-2.75490999221802,-0.64190101623535,0.82300001382828,-1.37300002574921,-3.09899997711182,SWING_RIGHT
0.81297099590302,0.74104398488998,0.66414302587509,1.15678799152374,1.00572502613068,0.86475300788879,1.95200002193451,2.03099989891052,1.95200002193451,9.28400039672852,8.9709997177124,8.89200019836426,1.87149298191071,1.98375296592712,2.02907109260559,2.0,2.0,2.0,0.5077959895134,0.55021899938583,0.85075497627258,-0.16300800442696,0.00694599980488,0.61032497882843,2.50200009346008,4.38500022888184,6.58099985122681,9.1269998550415,10.3039999008179,11.1669998168945,0.74629002809525,0.36526799201965,0.29471099376678,-3.96199989318848,-1.21599996089935,12.4350004196167,2.24837303161621,2.2324230670929,2.02703309059143,0.54924601316452,-2.04334688186646,-4.38421821594238,7.99399995803833,-5.81400012969971,-19.5440006256104,14.3059997558594,3.00799989700317,-1.85500001907349,7.75135517120361,9.32364368438721,9.69047260284424,39.8160018920898,22.3199996948242,-1.37300002574921,1.4216810464859,1.1108649969101,1.33447694778442,-6.90810298919678,-6.86002206802368,-6.84716081619263,-37.1180000305176,-31.2329998016357,-22.4459991455078,1.8309999704361,5.44000005722046,9.44099998474121,13.3364591598511,10.7030000686646,8.94151878356934,-32.5200004577637,-22.3990001678467,-9.68900012969971,1.00301194190979,0.81122398376465,1.88533198833466,-18.7519302368164,-15.9109420776367,-12.9095983505249,-9.02999973297119,-6.99100017547607,-5.65700006484985,6.77400016784668,5.0479998588562,5.20499992370605,4.05985593795776,-0.03055799938738,-4.25015878677368,3.41199994087219,4.03999996185303,4.43200016021729,SWING_RIGHT
-0.19328400492668,-0.24343800544739,-0.36758100986481,0.17393900454044,0.10946200042963,0.08824999630451,1.40299999713898,1.32500004768372,1.32500004768372,9.99100017547607,10.3039999008179,11.4029998779297,-1.14849102497101,-1.48346900939941,-1.64221501350403,-0.35299998521805,-3.4909999370575,-3.4909999370575,-0.44942700862885,-0.3868870139122,-0.22884400188923,2.3132209777832,2.89675307273865,3.18043303489685,0.46200001239777,1.08899998664856,1.7960000038147,8.81400012969971,5.36199998855591,2.14499998092651,-0.8189349770546,0.39665099978447,3.14164590835571,1.13699996471405,10.2379999160767,10.2379999160767,3.44846200942993,4.58101797103882,3.97492599487305,-5.44142198562622,-6.85336589813232,-6.68059206008911,3.36500000953674,-0.47900000214577,-17.8959999084473,13.128999710083,13.0500001907349,2.92899990081787,6.91629314422607,7.00158023834229,6.949462890625,35.7360000610352,27.3409996032715,13.6110000610352,-1.04355502128601,-1.95481705665588,-2.37602591514587,-4.52936983108521,-4.12408876419067,-3.04072093963623,-39.4710006713867,-38.451000213623,-36.0190010070801,-3.89499998092651,10.6969995498657,8.73499965667725,9.7921257019043,7.2610387802124,0.8971049785614,-30.5580005645752,-24.9099998474121,-16.9850006103516,1.74821901321411,2.63058996200562,3.13508605957031,16.0124073028564,13.3782520294189,10.6698150634766,-10.128999710083,-8.40299987792969,-6.83400011062622,11.0100002288818,9.1269998550415,6.93100023269653,-1.73313200473785,-4.50380802154541,-8.09213829040527,1.2940000295639,1.52900004386902,1.45099997520447,SWING_RIGHT
0.08859299868345,0.1195480003953,0.16761499643326,0.73786801099777,0.75219398736954,0.7041249871254,2.50200009346008,3.20799994468689,4.30600023269653,9.83399963378906,10.7749996185303,10.2259998321533,0.41326600313187,0.14780400693417,-0.2326779961586,-0.27399998903275,-2.62800002098084,-5.13899993896484,2.18411993980408,1.32839500904083,-0.02773899957538,2.27907109260559,2.137540102005,-0.05903400108218,6.42399978637695,1.0110000371933,-6.28399991989136,8.42099952697754,29.3689994812012,28.6630001068115,2.35829710960388,4.92277812957764,8.01986980438232,38.6389999389649,34.951000213623,26.7919998168945,-0.12036199867725,1.66066896915436,3.96665501594543,-6.09257411956787,-6.28561210632324,-8.2990255355835,-39.7070007324219,-39.8639984130859,-39.9420013427734,17.5219993591309,-1.62000000476837,-0.05099999904633,12.8247032165527,13.4482698440552,13.4201183319092,-34.6380004882813,-38.6389999389649,-36.1290016174316,2.78267788887024,0.07463700324297,-0.95389902591705,-20.5100345611572,-20.1627311706543,-18.3478908538818,-12.5609998703003,-10.3640003204346,-7.46099996566772,11.246000289917,8.10799980163574,6.38199996948242,6.42429780960083,5.62634515762329,3.40586495399475,9.13899993896484,11.414999961853,9.2180004119873,7.90276622772217,7.85140609741211,7.18121814727783,-6.60520076751709,-5.17921304702759,-3.50534105300903,-2.20499992370605,-2.04800009727478,-2.28299999237061,11.0100002288818,12.4230003356934,12.3439998626709,-7.31482887268066,-5.63394689559937,-4.11990880966187,-1.13699996471405,-1.45099997520447,-1.2940000295639,SWING_RIGHT
-0.15102000534534,-0.15851800143719,-0.11998199671507,0.46215200424194,0.22436200082302,-0.00467600021511,0.69700002670288,1.08899998664856,1.16799998283386,10.0690002441406,9.99100017547607,9.67700004577637,0.27464300394058,-0.18932500481606,-0.53350901603699,1.9210000038147,2.07800006866455,2.47099995613098,0.30478900671005,0.48666301369667,0.65097802877426,-0.16131800413132,-0.17764399945736,-0.18949200212955,1.87399995326996,2.34500002861023,2.97199988365173,9.04899978637695,8.89200019836426,9.52000045776367,-0.28676399588585,-0.15225699543953,-0.07514800131321,-0.50999999046326,-3.96199989318848,4.66699981689453,0.7172440290451,-0.00602500000969,-0.43367698788643,1.37211894989014,-1.24505794048309,-3.75479698181152,-0.71399998664856,-7.93200016021729,-21.5830001831055,25.996000289917,10.9320001602173,-6.17000007629395,4.98218393325806,6.85941076278687,7.6625862121582,34.951000213623,19.181999206543,2.70600008964539,2.01310205459595,10.7969560623169,-14.239616394043,-7.61837816238403,-15.5694484710693,18.8375453948975,-35.6269989013672,-28.0170001983643,-26.2910003662109,-1.07099997997284,4.02799987792969,4.89099979400635,-0.41173899173737,1.63922500610352,2.8119010925293,-28.3619995117188,-21.8500003814697,-12.5129995346069,-1.2824490070343,-0.06964799761772,1.1601380109787,8.97773838043213,7.12907409667969,5.90658187866211,-6.67700004577637,-4.87200021743774,-2.98900008201599,6.53800010681152,3.71399998664856,2.69400000572205,-1.41410899162292,-7.39203882217407,-8.37032318115234,2.15700006484985,2.23499989509583,2.0,SWING_RIGHT
2.51485395431519,2.80735492706299,2.89706206321716,-3.07433295249939,-2.34897089004517,-1.67128396034241,1.7960000038147,1.7960000038147,1.63900005817413,8.73499965667725,9.04899978637695,8.6569995880127,1.39663898944855,1.83831202983856,2.2109010219574,2.0,1.13699996471405,0.35199999809265,2.32831501960754,2.11836695671082,1.84762895107269,1.05961394309998,1.81039798259735,2.54083800315857,2.34500002861023,2.57999992370605,3.05100011825562,9.28400039672852,10.4610004425049,12.3439998626709,3.26532292366028,3.23809790611267,2.94822406768799,-2.62800002098084,-1.52999997138977,2.54900002479553,0.9325960278511,0.5975170135498,0.32894399762154,2.06048202514648,0.05533999949694,-3.1159451007843,1.71700000762939,0.54000002145767,-6.51999998092651,19.1700000762939,14.9329996109009,-1.62000000476837,2.09928703308105,3.99487400054932,5.25644397735596,39.5800018310547,39.8160018920898,25.6940002441406,-0.89481401443481,-0.82044398784637,-0.96350598335266,-8.90924644470215,-8.46499729156494,-8.12178516387939,-39.7849998474121,-39.9420013427734,-39.9420013427734,-6.8769998550415,-7.11199998855591,-2.56100010871887,8.5366268157959,10.0763626098633,9.38503360748291,-31.9710006713867,-37.6980018615723,-36.5209999084473,-1.95790898799896,0.39894899725914,1.48765695095062,19.8028259277344,16.0543365478516,12.5812034606934,-17.4249992370605,-16.1700000762939,-11.4630002975464,20.0330009460449,16.2670001983643,7.48000001907349,1.75107395648956,0.64591300487518,-9.82603740692139,2.62800002098084,5.13800001144409,7.88399982452393,SWING_RIGHT
0.28499901294708,0.31788200139999,0.42338898777962,0.29760700464249,0.23400300741196,0.13083699345589,1.63900005817413,1.87399995326996,1.55999994277954,8.5,7.40100002288818,6.38199996948242,0.40656200051308,0.4315670132637,0.48221400380135,1.60800004005432,2.23499989509583,3.01999998092651,0.17040500044823,-0.03940499946475,-0.19182699918747,0.0949290022254,-0.06517899781466,-0.12406100332737,0.69700002670288,1.24600005149841,2.34500002861023,11.08899974823,11.1669998168945,13.6780004501343,0.57534199953079,0.40305799245834,0.24535000324249,1.68599998950958,6.94299983978271,21.2999992370605,0.10358999669552,-0.15092399716377,-0.52317798137665,-1.78039002418518,-4.55949020385742,-7.7039008140564,-0.63599997758865,-3.14599990844727,-15.46399974823,-2.32599997520447,-11.9759998321533,-18.5659999847412,2.41326999664307,3.5115020275116,4.34314298629761,36.2070007324219,29.3810005187988,4.43200016021729,-2.71766805648804,-5.13677406311035,-6.20808982849121,-6.88279676437378,-3.1206738948822,2.2111508846283,-38.1380004882813,-31.3899993896484,-23.7019996643066,9.28400039672852,13.4429998397827,15.7959995269775,7.47906017303467,7.46494102478027,7.3439679145813,-26.1650009155273,-19.0249996185303,-10.081000328064,1.1946040391922,1.59292805194855,1.74703502655029,6.23454189300537,4.12432193756104,2.32155299186707,-9.6579999923706,-7.85400009155273,-6.44099998474121,10.7749996185303,7.79400014877319,6.85200023651123,3.73467397689819,-0.67249798774719,-8.89234161376953,2.23499989509583,2.31399989128113,4.35400009155273,SWING_RIGHT
0.85539501905441,1.24444198608398,1.30748796463013,1.10273802280426,1.26776397228241,1.11362504959106,5.01200008392334,4.93400001525879,4.85500001907349,11.4809999465942,12.5010004043579,13.2069997787476,0.16091899573803,0.42705199122429,1.03299200534821,3.7260000705719,4.66699981689453,9.76700019836426,1.05896604061127,1.88323402404785,3.17819309234619,-2.49207711219788,-5.25994396209717,-7.36842012405396,0.69700002670288,-8.32400035858154,-26.1340007781982,1.28199994564056,-6.95499992370605,-7.50400018692017,7.87970018386841,7.86651706695557,7.31973218917847,37.9329986572266,29.6949996948242,24.3600006103516,-0.49176299571991,-1.1762980222702,-1.36813795566559,-6.42465877532959,-5.2127628326416,-4.13041877746582,-39.9420013427734,-39.9420013427734,-39.9420013427734,-3.50300002098084,-4.91499996185303,8.0290002822876,9.09348487854004,9.99441528320312,6.69106483459473,-34.7949981689453,-37.8549995422363,-24.125,-0.10839699953794,1.26479804515839,1.84530997276306,15.4407415390015,12.8807516098022,9.85665988922119,-17.8169994354248,-15.46399974823,-12.0120000839233,15.7180004119873,7.40100002288818,1.75300002098084,1.69492995738983,0.77333897352219,-4.44532012939453,6.31500005722046,5.13800001144409,4.66699981689453,-2.53241109848022,-4.33979511260986,-4.27948379516602,9.50328826904297,8.78974056243896,8.23960113525391,-2.98900008201599,-2.36199998855591,-2.12599992752075,5.12599992752075,6.85200023651123,8.6569995880127,-11.1939058303833,-11.3776636123657,-10.3110914230347,2.0,1.9210000038147,2.31399989128113,SWING_RIGHT
0.85565000772476,0.76112502813339,0.65672498941422,1.35028898715973,1.39093804359436,1.37796199321747,2.42300009727478,2.34500002861023,0.61900001764297,10.539999961853,9.36299991607666,7.95100021362305,1.56777405738831,1.4225560426712,1.29339003562927,1.76499998569489,3.4909999370575,4.19700002670288,0.13645200431347,0.76079201698303,0.82096898555756,0.60374802350998,-0.23834699392319,-1.02491295337677,6.03200006484985,2.42300009727478,4.54099988937378,1.75300002098084,2.06599998474121,8.3430004119873,-0.48157799243927,-0.78474599123001,-0.5567569732666,4.51000022888184,6.31500005722046,10.3950004577637,1.37440299987793,-0.55705600976944,-1.53908705711365,-2.32818198204041,-1.3000260591507,-3.21419596672058,-3.38199996948242,-11.2270002365112,-25.9769992828369,28.8199996948242,23.5629997253418,1.59599995613098,4.58796405792236,4.99867391586304,5.47138404846191,31.1860008239746,18.5540008544922,-7.02199983596802,-4.28424406051636,-6.86553812026978,-7.85769605636597,-3.18456196784973,-0.338279992342,5.12175989151001,-37.8240013122559,-31.3899993896484,-25.0349998474121,-0.12899999320507,3.63599991798401,6.53800010681152,4.9069561958313,4.9093861579895,4.82497501373291,-34.1669998168945,-19.9669990539551,-7.17799997329712,-0.10871600359678,0.86182302236557,1.70486199855804,9.28224658966064,7.35828590393066,5.6379280090332,-7.61800003051758,-4.87200021743774,-3.46000003814697,7.08799982070923,6.38199996948242,6.14599990844727,-0.71344298124313,-5.93652820587158,-9.56776714324951,1.45099997520447,2.23499989509583,2.54900002479553,SWING_RIGHT
-0.36051100492477,-0.35288000106812,-0.34319698810577,-0.58143502473831,-0.96191000938416,-1.17217898368835,1.0110000371933,1.0110000371933,1.24600005149841,10.3039999008179,10.6180000305176,10.2259998321533,-0.20013000071049,-0.27443000674248,-0.29774099588394,2.23499989509583,1.60800004005432,0.43099999427795,0.12780399620533,0.3284470140934,1.25495600700378,-0.60119199752808,-0.38404300808907,-0.09185700118542,3.67799997329712,6.42399978637695,5.9539999961853,8.89200019836426,13.7559995651245,16.738000869751,1.37051796913147,3.4559440612793,6.75617980957031,37.3050003051758,36.7560005187988,26.7919998168945,1.3637900352478,1.06715595722198,3.66222500801086,-8.26262378692627,-7.65054321289063,-9.01397895812988,-39.6279983520508,-39.8639984130859,-39.9420013427734,9.67700004577637,3.00799989700317,0.18400000035763,9.98650169372559,7.02220010757446,7.203941822052,-36.7560005187988,-33.5400009155273,-9.14000034332275,6.18726587295532,4.74125480651855,4.74374198913574,-16.9948387145996,-14.4092683792114,-12.1217069625854,-12.0120000839233,-5.7350001335144,-3.22499990463257,1.28199994564056,-1.93400001525879,-0.75700002908707,2.22847890853882,-3.34520888328552,-8.76954078674316,8.82600021362305,5.60900020599365,2.31399989128113,4.92438411712646,5.75631999969482,7.01660919189453,-2.23123288154602,-0.00109499995597,3.80103397369385,-0.87099999189377,-1.41999995708466,-1.18499994277954,9.52000045776367,16.6590003967285,10.8540000915527,-5.62172603607178,-3.40053701400757,-1.5396009683609,-1.21599996089935,-1.37300002574921,-2.70600008964539,SWING_RIGHT
0.37737700343132,0.49107700586319,0.5399129986763,1.52309203147888,2.04107999801636,2.48925304412842,2.42300009727478,2.57999992370605,3.12899994850159,10.2259998321533,9.75500011444092,9.20600032806396,-0.12029399722815,0.09877499938011,0.71726602315903,1.52900004386902,6.86399984359741,16.9850006103516,1.4459890127182,1.83620703220367,2.60559105873108,-1.9835729598999,-4.75750589370728,-6.03997421264648,3.12899994850159,-6.20599985122681,-28.5659999847412,13.9130001068115,9.52000045776367,-9.38700008392334,10.5576086044312,12.3466606140137,11.970817565918,35.1080017089844,25.9290008544922,14.3170003890991,7.54385805130005,4.94988489151001,2.57695388793945,-6.81596517562866,-6.85102701187134,-6.10420894622803,-39.9420013427734,-39.9420013427734,-39.3930015563965,-4.83699989318848,-0.60000002384186,3.32200002670288,11.5125436782837,12.3781976699829,7.67221879959106,-37.5410003662109,-39.1100006103516,-22.5559997558594,1.84277701377869,0.33786100149155,-0.40962401032448,-23.2100944519043,-20.6007823944092,-17.7828540802002,-12.4820003509521,-9.6579999923706,-7.69700002670288,8.42099952697754,5.28299999237061,2.53699994087219,3.40013289451599,2.44530510902405,-1.36731994152069,4.19700002670288,4.90299987792969,6.62900018692017,6.49880123138428,5.4670147895813,5.28247404098511,-2.02561402320862,-0.3748399913311,0.74082601070404,-1.26300001144409,-0.71399998664856,-1.02799999713898,4.89099979400635,7.79400014877319,9.75500011444092,-9.68051147460938,-8.31663608551025,-6.16297197341919,1.37199997901917,0.66600000858307,-0.35299998521805,SWING_RIGHT
0.4171490073204,0.41458201408386,0.4386520087719,1.03227496147156,0.85805302858353,0.61754697561264,1.71700000762939,1.55999994277954,1.48199999332428,8.6569995880127,8.3430004119873,8.6569995880127,0.60955601930618,0.45050200819969,0.36779299378395,2.94099998474121,3.01999998092651,2.78399991989136,0.18046200275421,0.06421600282192,-0.05205199867487,-0.59339499473572,-0.62967997789383,-0.53383100032806,1.08899998664856,1.24600005149841,1.71700000762939,9.99100017547607,9.44099998474121,8.9709997177124,0.31342598795891,0.2957090139389,0.06636799871922,1.45099997520447,-1.2940000295639,-2.78500008583069,0.75247001647949,0.8187729716301,0.78172397613525,1.47754395008087,1.24136304855347,-1.54848802089691,4.22800016403198,4.07100009918213,0.54000002145767,17.3649997711182,20.503999710083,11.5600004196167,2.20208597183228,4.83792400360107,6.07683992385864,39.2669982910156,32.5979995727539,10.1590003967285,-0.94586098194122,-0.96698397397995,-0.9325749874115,-6.98598194122314,-6.68696784973145,-7.02661895751953,-39.7070007324219,-36.0979995727539,-31.9400005340576,1.51699995994568,-0.52200001478195,-4.36600017547607,10.8869104385376,12.6309795379639,5.8128080368042,-37.148998260498,-35.4230003356934,-23.261999130249,-0.00262199994177,-1.59640395641327,-2.13160490989685,-25.3480606079102,-21.9681148529053,-18.9895725250244,-11.1490001678467,-8.95199966430664,-6.59800004959106,8.3430004119873,7.16599988937378,6.38199996948242,2.31227588653564,1.80921804904938,-0.53637599945068,3.01999998092651,3.01999998092651,4.03999996185303,SWING_RIGHT
0.15183000266552,0.13365200161934,0.12676100432873,0.11059399694204,-0.01198399998248,-0.15370300412178,1.71700000762939,1.63900005817413,1.63900005817413,9.75500011444092,10.0690002441406,9.75500011444092,0.38395300507545,0.39155301451683,0.44927400350571,1.60800004005432,1.60800004005432,1.60800004005432,0.16836300492287,0.14733299612999,0.13150499761105,0.00834199972451,0.11976999789476,0.23818799853325,1.71700000762939,1.95200002193451,2.42300009727478,9.52000045776367,9.44099998474121,9.52000045776367,0.0148109998554,-0.18016600608826,-0.50585597753525,-0.82400000095367,-2.23600006103516,-0.43099999427795,1.18752205371857,1.24646699428558,1.40991103649139,1.19521200656891,-0.61746197938919,-3.94453096389771,4.85500001907349,2.50200009346008,-0.47900000214577,13.2069997787476,6.53800010681152,1.43900001049042,4.06226921081543,6.50574588775635,7.52757406234741,39.5019989013672,31.8920001983643,14.16100025177,0.52344399690628,0.80662202835083,0.85947799682617,-7.06190586090088,-7.04477310180664,-6.62029314041138,-39.8639984130859,-37.5880012512207,-37.2750015258789,-2.64000010490417,5.28299999237061,7.32299995422363,9.5126781463623,-2.48264789581299,-0.19565300643444,-37.7760009765625,-34.2459983825684,-16.75,-4.0634388923645,-2.66330003738403,-2.05821490287781,14.9904203414917,11.1783714294434,8.02086162567139,-10.128999710083,-6.67700004577637,-5.02899980545044,5.67500019073486,4.18499994277954,4.02799987792969,2.65746402740479,-0.23328499495983,-9.5467939376831,4.11800003051758,3.96099996566772,4.27500009536743,SWING_RIGHT
0.14590699970722,0.05313999950886,-0.24002400040627,1.612380027771,1.27663195133209,0.71670001745224,1.55999994277954,0.46200001239777,0.30500000715256,8.26399993896484,10.3039999008179,13.7559995651245,0.8999559879303,0.74042701721191,0.88154399394989,6.55000019073486,5.29500007629395,6.55000019073486,-0.40735000371933,0.61472600698471,1.76336896419525,-1.75943100452423,-2.9152410030365,-4.77402687072754,0.61900001764297,-2.59699988365173,-18.2880001068115,8.73499965667725,7.87200021743774,-0.75700002908707,4.64735221862793,4.89469623565674,5.1697940826416,35.5789985656738,24.3600006103516,10.7869997024536,-1.97075796127319,-2.32371997833252,-2.78498697280884,-5.7432689666748,-4.71211194992065,-3.61892700195313,-39.8639984130859,-39.9420013427734,-39.2360000610351,1.98800003528595,1.20299994945526,7.32299995422363,8.85825729370117,8.05095767974854,4.3314528465271,-38.2470016479492,-37.6980018615723,-21.7709999084473,1.27000796794891,1.85554802417755,1.94448304176331,12.1853523254395,9.50110912322998,6.89508581161499,-14.3649997711182,-11.2270002365112,-8.01000022888184,12.1090002059937,6.69500017166138,3.24300003051758,1.82602000236511,-0.35835400223732,-7.17182922363281,6.62900018692017,6.15799999237061,5.53000020980835,0.09938400238752,-0.23945499956608,0.89371502399445,6.70845890045166,5.24193096160889,5.30404710769653,-2.75399994850159,-2.28299999237061,-2.20499992370605,9.28400039672852,10.6180000305176,11.0100002288818,-9.73093700408936,-7.48074293136597,-5.09659814834595,1.60800004005432,0.58799999952316,0.1169999986887,SWING_RIGHT
0.08084300160408,0.38727998733521,0.90520197153091,0.18761399388313,0.92847102880478,1.57406997680664,3.75699996948242,5.71799993515015,7.28700017929077,9.36299991607666,9.99100017547607,10.4610004425049,-0.39737498760223,-0.40410500764847,-0.3383229970932,-4.27600002288818,0.19499999284744,7.72700023651123,0.9121749997139,-0.02104800008237,-0.65978902578354,0.44965499639511,-2.13006806373596,-4.91980123519897,1.40299999713898,-2.91100001335144,-15.9350004196167,21.6019992828369,12.3439998626709,-10.4069995880127,5.49824094772339,8.27644824981689,8.75635719299316,39.7369995117188,37.2270011901855,24.4379997253418,-1.18820798397064,-2.66297197341919,-3.19172501564026,-7.35547780990601,-5.57899522781372,-3.70898294448853,-39.9420013427734,-39.9420013427734,-39.9420013427734,-9.70100021362305,-7.58300018310547,5.20499992370605,9.0049877166748,9.37427234649658,5.80798578262329,-36.443000793457,-39.1100006103516,-27.1060009002686,0.51356798410416,1.81010496616364,2.21713089942932,15.5216293334961,12.4854393005371,9.3635778427124,-18.2099990844727,-14.9930000305176,-11.7760000228882,14.3839998245239,7.00899982452393,3.63599991798401,2.05588293075562,1.57530903816223,-3.48643088340759,5.05999994277954,5.29500007629395,6.00099992752075,0.1453509926796,-2.0101010799408,-1.24009597301483,12.0989665985107,10.369574546814,7.85210418701172,-3.30299997329712,-2.44000005722046,-1.49899995326996,6.38199996948242,8.26399993896484,9.20600032806396,-11.020697593689,-8.52111053466797,-6.74945211410522,2.78399991989136,1.13699996471405,1.05799996852875,SWING_RIGHT
0.03680400177836,0.017512999475,0.01435299962759,-0.11939200013876,-0.07304300367832,-0.0224350001663,1.95200002193451,1.7960000038147,1.87399995326996,9.83399963378906,9.59799957275391,9.59799957275391,0.17383800446987,0.12822400033474,0.05233300104737,0.98000001907349,0.90200001001358,0.43099999427795,0.08262900263071,0.2095900028944,0.76361000537872,0.24243800342083,0.33279499411583,0.99292397499084,2.97199988365173,3.59999990463257,7.28700017929077,10.1470003128052,10.539999961853,11.6379995346069,-0.1965419948101,-0.11452700197697,-0.0852530002594,-5.21700000762939,-1.52999997138977,11.0220003128052,2.04643106460571,1.46435701847076,0.03283600136638,-0.08972699940205,-3.96540498733521,-7.21380615234375,7.99399995803833,5.56099987030029,-26.5259990692139,14.9329996109009,11.08899974823,-4.99399995803833,3.08432602882385,4.99040603637695,5.84907293319702,38.7960014343262,24.9090003967285,5.29500007629395,-3.56344604492188,-3.94036602973938,-4.71692323684692,-7.00161981582642,-5.82794094085693,-3.37727499008179,-37.9809989929199,-34.2150001525879,-27.1539993286133,-2.875,4.73400020599365,5.83199977874756,8.3012228012085,5.67648601531982,4.07436895370483,-26.9489994049072,-25.3020000457764,-25.3020000457764,-0.65304797887802,0.85788398981094,1.52818596363068,12.3773536682129,9.57485580444336,7.04754781723022,-9.97200012207031,-8.32400035858154,-6.67700004577637,13.4429998397827,10.8540000915527,8.6569995880127,2.16905307769775,-0.69941997528076,-8.30947685241699,4.03999996185303,5.76599979400635,6.78599977493286,SWING_RIGHT
0.10784800350666,0.11322499811649,0.14916199445724,0.26318100094795,0.41396498680115,0.7253469824791,2.97199988365173,3.20799994468689,3.5220000743866,9.20600032806396,9.59799957275391,9.67700004577637,0.24894200265408,0.15769000351429,0.0791390016675,0.27399998903275,0.19499999284744,-0.66699999570847,0.80362898111343,0.94679802656174,1.0078649520874,0.76248097419739,0.80417799949646,0.8218799829483,4.93400001525879,4.85500001907349,3.83500003814697,9.1269998550415,9.59799957275391,11.0100002288818,0.21206399798393,0.32500699162483,0.43002700805664,1.13699996471405,6.39300012588501,15.1020002365112,-0.89503699541092,-1.44603002071381,-2.13770198822021,-2.40738606452942,-5.42295503616333,-7.78156518936157,-0.00800000037998,-9.02999973297119,-17.8169994354248,7.32299995422363,-4.67999982833862,-9.22999954223633,3.76363897323608,4.66250085830688,5.17428588867188,37.4620018005371,20.2800006866455,4.19700002670288,-3.2789568901062,-3.49708294868469,-3.7691490650177,-6.2406849861145,-5.06204080581665,-3.01542091369629,-39.8639984130859,-39.9420013427734,-39.9420013427734,-4.83699989318848,0.65399998426437,3.55699992179871,7.74723291397095,7.22533702850342,5.33669185638428,-21.92799949646,-32.2060012817383,-30.8719997406006,-0.76485002040863,0.93539202213287,1.82027494907379,11.5259122848511,9.58310031890869,7.28717708587646,-12.326000213623,-9.26599979400635,-5.57800006866455,17.757999420166,12.1090002059937,7.63700008392334,3.36480188369751,-6.06363677978516,-15.4396209716797,9.29599952697754,9.375,7.96299982070923,SWING_RIGHT
0.09865000098944,0.06362400203943,-0.00045699998736,0.70183497667313,-0.12218800187111,-0.77464401721954,2.73699998855591,1.71700000762939,1.7960000038147,8.73499965667725,9.1269998550415,9.59799957275391,0.9109600186348,0.91999000310898,1.28734397888184,4.98099994659424,4.98099994659424,5.29500007629395,1.09458196163177,1.25611698627472,1.48398196697235,-1.34945201873779,-1.10183298587799,-0.74501401185989,3.12899994850159,2.97199988365173,3.05100011825562,8.9709997177124,9.1269998550415,8.9709997177124,2.56867909431458,2.84767007827759,2.98927402496338,2.15700006484985,1.60800004005432,1.05799996852875,2.52904391288757,2.04358792304993,0.10878200083971,1.61648297309875,-1.20878601074219,-5.82010889053345,4.77699995040894,1.63900005817413,-25.1140003204346,7.71500015258789,4.18499994277954,-11.8190002441406,4.12772607803345,5.43708992004395,5.88833284378052,38.7169990539551,27.2630004882813,12.121000289917,-2.87864804267883,-3.15200090408325,-3.85510396957397,-5.02836322784424,-3.70466899871826,-1.12286198139191,-39.9420013427734,-39.9420013427734,-33.0379981994629,6.14599990844727,10.0690002441406,15.6389999389648,7.40617799758911,5.4016489982605,4.94561100006104,-31.3430004119873,-15.5729999542236,-4.35400009155273,0.9075899720192,1.48260998725891,2.05846691131592,8.05003643035889,5.57770919799805,3.36771202087402,-5.97100019454956,-3.14599990844727,-1.02799999713898,9.67700004577637,7.71500015258789,7.87200021743774,-2.60316896438599,-12.3226518630981,-14.8944911956787,9.375,4.90299987792969,1.76499998569489,SWING_RIGHT
0.21268400549889,0.26638200879097,0.34842398762703,-0.67305397987366,-0.47002100944519,-0.31921601295471,0.93300002813339,1.16799998283386,1.32500004768372,9.20600032806396,9.28400039672852,9.52000045776367,0.52212101221085,0.70994800329208,0.9261639714241,0.35199999809265,0.19499999284744,0.43099999427795,0.70613300800323,0.76883298158646,0.91973197460175,0.89018100500107,0.95193302631378,0.91372901201248,2.03099989891052,3.05100011825562,4.30600023269653,9.28400039672852,9.83399963378906,10.0690002441406,0.85554802417755,0.67153698205948,0.54659897089005,-0.98000001907349,-0.195999994874,4.58900022506714,1.81987202167511,1.25477397441864,0.40683099627495,0.18549500405788,-1.99075901508331,-5.03702688217163,2.50200009346008,-1.49899995326996,-14.4440002441406,14.1490001678467,9.28400039672852,-2.71799993515015,2.86625695228577,4.71603393554688,5.5253701210022,39.1879997253418,35.0299987792969,21.1429996490479,-1.84979701042175,-2.0244300365448,-2.53049206733704,-7.38975286483765,-6.73943901062012,-5.50972509384155,-39.8639984130859,-39.9420013427734,-36.4119987487793,-4.20900011062622,2.30200004577637,7.79400014877319,8.42066478729248,8.10730743408203,7.3793478012085,-30.951000213623,-32.048999786377,-25.5370006561279,-1.2563019990921,0.3793939948082,1.06817996501923,9.63898277282715,7.73196315765381,5.43185377120972,-13.581000328064,-11.7760000228882,-9.89299964904785,14.9329996109009,11.7950000762939,8.3430004119873,5.43191289901733,4.44296979904175,0.7401459813118,5.76599979400635,7.57000017166138,7.49200010299683,SWING_RIGHT
0.5655660033226,0.72954702377319,0.79119199514389,-0.38920599222183,-0.32870998978615,-0.20976500213146,4.30600023269653,5.01200008392334,5.01200008392334,8.89200019836426,11.246000289917,11.246000289917,0.18515999615192,0.16954299807549,0.20902000367641,1.68599998950958,1.05799996852875,1.52900004386902,0.53691202402115,-0.09136199951172,-0.90896201133728,0.0698179975152,-0.1925940066576,-1.12368500232697,5.16900014877319,2.10899996757507,-4.63700008392334,21.2880001068115,23.8770008087158,19.7980003356934,0.20240999758244,0.75832599401474,2.00260496139526,36.6769981384277,34.5589981079102,30.8719997406006,-5.75842523574829,-6.1765661239624,-6.67404317855835,-5.5434250831604,-4.72601890563965,-3.81776309013367,-39.6279983520508,-39.8639984130859,-39.9420013427734,12.1090002059937,2.45900011062622,7.00899982452393,4.47337579727173,4.83556222915649,5.13939523696899,-35.7360000610352,-38.9529991149902,-5.9229998588562,-2.43669009208679,-1.24507105350494,-0.6709960103035,8.87390899658203,7.69514513015747,5.91723680496216,-12.7959995269775,-6.83400011062622,-3.30299997329712,2.6159999370575,5.51900005340576,5.83199977874756,1.50409698486328,-3.36762499809265,-9.45103168487549,1.13699996471405,0.50900000333786,0.19499999284744,3.53754091262817,4.81100988388062,5.2823371887207,4.51984882354736,5.83299779891968,6.66199016571045,-0.63599997758865,-1.41999995708466,-2.36199998855591,14.0699996948242,13.128999710083,11.08899974823,-8.7753734588623,-6.65515518188477,-3.93757295608521,-4.58900022506714,-3.64800000190735,-3.01999998092651,SWING_RIGHT
0.00942599959671,-0.01855899952352,-0.08165100216866,0.0253500007093,0.02576999925077,0.04498400166631,2.34500002861023,2.26600003242493,2.34500002861023,9.83399963378906,9.67700004577637,9.67700004577637,-0.028146000579,-0.0776079967618,-0.14016599953175,1.84300005435944,1.2940000295639,0.74500000476837,-0.08680500090122,-0.03175099939108,0.03496000170708,-0.03551699966192,-0.00721300020814,0.1144500002265,2.50200009346008,2.81500005722046,3.59999990463257,9.1269998550415,9.1269998550415,8.9709997177124,-0.04034199938178,0.01032899972051,0.03553500026464,-1.13699996471405,-1.05900001525879,2.23499989509583,1.9279990196228,0.52477699518204,-1.82916104793549,0.7914400100708,-2.86929106712341,-5.82466077804565,4.14900016784668,-11.3839998245239,-25.6630001068115,22.1509990692139,8.81400012969971,-7.42600011825562,2.15315198898315,3.44479608535767,4.05104112625122,37.5400009155273,23.6539993286133,2.15700006484985,-5.16571187973022,-5.73820686340332,-7.19442892074585,-5.16500091552734,-3.897057056427,0.43060699105263,-39.9420013427734,-39.9420013427734,-33.3520011901855,2.30200004577637,7.87200021743774,21.4449996948242,3.93812704086304,3.20284390449524,3.32809710502625,-34.1669998168945,-12.7489995956421,4.74599981307983,-0.82394599914551,-0.22702600061893,0.58369100093842,8.35084533691406,5.80971908569336,3.44394588470459,-7.14699983596802,-5.2649998664856,-1.41999995708466,3.08599996566772,2.14499998092651,5.0479998588562,-4.40142297744751,-11.4664907455444,-13.2653703689575,11.2580003738403,10.081000328064,3.88299989700317,SWING_RIGHT
0.71843701601028,0.66822797060013,0.60106998682022,1.7723640203476,2.20724296569824,2.37751007080078,3.20799994468689,3.36500000953674,3.36500000953674,10.3039999008179,10.6969995498657,11.4809999465942,1.00188601016998,0.86502599716187,0.65786999464035,2.39199995994568,6.55000019073486,10.6300001144409,0.13356000185013,0.06224400177598,-0.49802300333977,-1.19036304950714,-4.4141149520874,-7.05121803283691,5.09100008010864,-2.59699988365173,-25.6630001068115,10.0690002441406,0.34000000357628,-13.2309999465942,3.17632699012756,5.02545309066772,5.27638006210327,39.8160018920898,32.2050018310547,22.0849990844727,-1.65394103527069,-1.87656199932098,-2.02429509162903,-6.8129940032959,-5.97167015075684,-4.83632183074951,-39.9420013427734,-39.9420013427734,-39.9420013427734,-3.18899989128113,-0.28600001335144,12.7360000610352,9.11744403839111,6.75096702575684,3.58078408241272,-38.7179985046387,-32.5200004577637,-9.29699993133545,0.13055899739265,0.58717799186707,0.44689399003983,13.7865591049194,10.7109174728394,7.7450909614563,-13.1890001296997,-13.1890001296997,-3.30299997329712,2.06599998474121,2.06599998474121,-0.99199998378754,-0.44496700167656,-6.10224103927612,-12.0089731216431,12.5129995346069,11.1789999008179,6.78599977493286,-5.80411100387573,-4.00298309326172,-1.71567296981812,4.79899501800537,5.11138010025024,6.97463703155518,-1.57700002193451,-2.20499992370605,-2.98900008201599,12.1870002746582,14.3059997558594,13.0500001907349,-10.2242040634155,-8.17164134979248,-6.35905694961548,-1.05900001525879,-1.37300002574921,-1.52999997138977,SWING_RIGHT
-1.3281090259552,-0.87019902467728,-0.14717300236225,-0.56371599435806,-0.88571202754974,-1.00986194610596,1.40299999713898,2.65899991989136,3.28600001335144,6.85200023651123,6.38199996948242,7.00899982452393,0.65752398967743,0.71651697158813,0.78858202695847,3.41199994087219,3.7260000705719,5.29500007629395,2.6090350151062,1.99829304218292,0.08648400008678,0.25139200687408,-0.46351400017738,-1.31729805469513,2.34500002861023,-0.63599997758865,-11.4630002975464,10.7749996185303,22.386999130249,23.0139999389648,0.64391499757767,1.37709295749664,2.41396403312683,33.8530006408691,26.3999996185303,22.0060005187988,-5.16841602325439,-5.11649990081787,-5.34580087661743,-2.53489804267883,-2.20618295669556,-2.00501990318298,-39.7849998474121,-39.9420013427734,-39.9420013427734,2.30200004577637,-2.64000010490417,3.00799989700317,6.46786499023438,7.40788984298706,5.69479990005493,-34.4029998779297,-36.992000579834,-16.3579998016357,-1.19131195545197,0.89778399467468,2.02771997451782,14.0861749649048,14.107442855835,11.7226448059082,-18.5240001678467,-13.6590003967285,-7.69700002670288,14.8549995422363,9.28400039672852,7.55800008773804,-2.42775011062622,-4.13890314102173,-6.85708522796631,-2.23600006103516,-4.82499980926514,-5.60900020599365,2.78897500038147,5.59481382369995,7.89875411987305,5.65981483459473,6.543869972229,6.82474613189697,2.81500005722046,1.71700000762939,0.38299998641014,10.3039999008179,9.91199970245361,8.81400012969971,-13.1643962860107,-10.6231126785278,-4.87246417999268,0.82300001382828,0.50900000333786,-1.13699996471405,SWING_RIGHT
0.17694500088692,0.20429000258446,0.24668000638485,-0.15195800364017,-0.25223699212074,-0.32458999752998,3.36500000953674,3.59999990463257,3.91400003433228,9.44099998474121,8.89200019836426,8.6569995880127,0.15512600541115,0.19987599551678,0.22047699987888,2.0,1.2940000295639,0.50900000333786,1.33875894546509,1.73920500278473,1.90743100643158,0.34288200736046,0.83915597200394,0.89332902431488,8.07199954986572,7.52299976348877,5.01200008392334,9.59799957275391,7.79400014877319,5.44000005722046,0.45759499073029,2.42387795448303,4.26725292205811,32.2840003967285,38.7960014343262,31.2639999389648,-4.82545614242554,-4.56626415252686,-4.23452186584473,-6.39373588562012,-5.14588594436646,-3.91280198097229,-39.6279983520508,-39.8639984130859,-39.9420013427734,7.87200021743774,6.14599990844727,-0.52200001478195,7.97116708755493,9.48136711120606,9.4941816329956,-36.5209999084473,-38.2470016479492,-32.8339996337891,-2.51991701126099,-0.21686899662018,0.53267002105713,14.7858533859253,16.9115962982178,14.5433359146118,-15.2279996871948,-12.2469997406006,-3.06800007820129,3.24300003051758,0.49700000882149,-4.05200004577637,-1.53339397907257,-3.78050303459167,-9.94331645965576,18.4759998321533,10.6300001144409,1.68599998950958,-6.06713008880615,-3.81620192527771,-0.32418501377106,2.39937591552734,2.54274296760559,5.47572088241577,1.08899998664856,-0.00800000037998,-1.81200003623962,15.0120000839233,15.326000213623,13.128999710083,-12.5418424606323,-11.2317905426025,-9.69806957244873,-3.7260000705719,-2.0789999961853,0.35199999809265,SWING_RIGHT
