gyro_x_0,gyro_y_0,gyro_z_0,acc_x_0,acc_y_0,acc_z_0,gyro_x_1,gyro_y_1,gyro_z_1,acc_x_1,acc_y_1,acc_z_1,gyro_x_2,gyro_y_2,gyro_z_2,acc_x_2,acc_y_2,acc_z_2,gyro_x_3,gyro_y_3,gyro_z_3,acc_x_3,acc_y_3,acc_z_3,gyro_x_4,gyro_y_4,gyro_z_4,acc_x_4,acc_y_4,acc_z_4,gyro_x_5,gyro_y_5,gyro_z_5,acc_x_5,acc_y_5,acc_z_5,gyro_x_6,gyro_y_6,gyro_z_6,acc_x_6,acc_y_6,acc_z_6,gyro_x_7,gyro_y_7,gyro_z_7,acc_x_7,acc_y_7,acc_z_7,gyro_x_8,gyro_y_8,gyro_z_8,acc_x_8,acc_y_8,acc_z_8,gyro_x_9,gyro_y_9,gyro_z_9,acc_x_9,acc_y_9,acc_z_9,gyro_x_10,gyro_y_10,gyro_z_10,acc_x_10,acc_y_10,acc_z_10,gyro_x_11,gyro_y_11,gyro_z_11,acc_x_11,acc_y_11,acc_z_11,gyro_x_12,gyro_y_12,gyro_z_12,acc_x_12,acc_y_12,acc_z_12,gyro_x_13,gyro_y_13,gyro_z_13,acc_x_13,acc_y_13,acc_z_13,gyro_x_14,gyro_y_14,gyro_z_14,acc_x_14,acc_y_14,acc_z_14,motion_type
-0.04276249930263,-0.17476250231266,-0.23704999685287,0.02007500082254,0.05678749829531,0.13255000114441,3.10695004463196,3.46905016899109,4.96200037002563,9.33795070648193,9.11295032501221,10.0219507217407,0.94201248884201,0.23704999685287,-1.83617496490479,1.79505014419556,8.50695037841797,15.2140502929688,-0.34209999442101,0.60829997062683,2.20385003089905,1.14166247844696,0.58822500705719,-0.14478750526905,6.61995029449463,5.21295022964478,-2.73105001449585,13.3050003051758,15.0060005187988,11.4169502258301,-6.26614999771118,-0.71706247329712,4.37249994277954,-0.65700000524521,-25.2319507598877,-31.8049507141113,0.690249979496,-0.42033749818802,-0.60238748788834,1.67309999465942,1.31147503852844,0.34869998693466,-9.26100063323975,-9.48600006103516,-10.7059507369995,1.76205003261566,3.32205009460449,6.86595010757446,-1.20216250419617,-3.77753758430481,-5.38889980316162,43.7190017700195,26.8060512542725,16.6669502258301,-1.25111246109009,-3.59067487716675,-4.15387487411499,-0.1387374997139,1.6131500005722,3.4482250213623,4.04505014419556,-5.08305025100708,-13.0099506378174,-5.78895044326782,-4.11899995803833,2.73105001449585,-4.08292484283447,2.32375001907349,6.75482511520386,-26.4810009002686,-40.1260528564453,-30.2359523773193,2.01698756217957,1.34021246433258,0.34443750977516,-2.00791239738464,-1.92238748073578,-1.06356251239777,-10.9500007629395,-8.10494995117188,-3.96000027656555,7.20795011520386,4.31205034255981,0.99105006456375,2.83071255683899,-1.3194500207901,-3.55629992485046,31.3930511474609,33.3529510498047,25.4080505371094,SHAKE
0.68406248092651,-0.46791249513626,-1.12035000324249,-0.23649999499321,-0.49059998989105,-0.51617497205734,4.32795000076294,15.3540010452271,14.2560005187988,-2.31495022773743,-0.61605000495911,0.23295001685619,-3.83006238937378,-5.1397500038147,-5.53423738479614,13.7040004730225,4.82895040512085,-2.29095005989075,0.06833750009537,2.08656239509583,2.87952494621277,-1.29690003395081,-2.43924999237061,-2.24743747711182,-6.59700012207031,-6.03300046920776,-6.75495052337646,20.8039512634277,20.1370506286621,13.5370502471924,5.23022508621216,0.25176250934601,-3.81906247138977,19.525951385498,30.9690017700195,14.568000793457,-1.42340004444122,-2.74037504196167,-2.6536123752594,0.27912500500679,0.78608751296997,0.84603750705719,11.2290000915527,-0.21600000560284,-6.05895042419434,3.26700019836426,3.05100011825562,8.40000057220459,3.0164749622345,6.06952476501465,7.0321626663208,-26.4810009002686,-17.7180004119873,4.97295045852661,1.40855002403259,0.38719999790192,-0.33109998703003,0.3768875002861,0.66522496938705,0.31693750619888,3.5310001373291,12.6670503616333,14.5570507049561,0.50805002450943,1.10805010795593,1.54605007171631,-4.11221265792847,-5.15556240081787,-6.00462484359741,15.738000869751,12.38805103302,8.9209508895874,-3.30110001564026,-3.40738749504089,-1.93159997463226,0.60651248693466,0.5295125246048,-0.48207500576973,-0.68205004930496,-5.94705009460449,-7.33005046844482,0.64200001955032,4.90800046920776,14.998950958252,0.69643747806549,5.16546249389648,7.88864994049072,-25.2250518798828,-24.961950302124,-14.5189504623413,SHAKE
1.41102504730225,0.3286249935627,-0.57791250944138,-0.14478750526905,0.65903747081757,0.44893750548363,-1.3900500535965,10.5420007705688,11.6400003433228,3.43200016021729,2.46795010566711,5.31300020217896,-4.43107509613037,-5.82133769989014,-6.72306251525879,12.7279510498047,12.0220508575439,6.19095039367676,-1.98164999485016,-1.51868748664856,-0.17723749577999,0.63827496767044,0.47093749046326,0.43298751115799,-3.85995006561279,-6.96405029296875,-7.28700017929077,6.18105030059814,8.6650505065918,13.10205078125,0.58520001173019,4.98217487335205,7.98393726348877,-24.0640506744385,-26.098051071167,-18.6280517578125,2.08422493934631,1.07511246204376,0.09281250089407,-0.83627498149872,-1.16256248950958,-0.60417497158051,-7.82295036315918,-6.99705028533936,-2.30505013465881,5.06400012969971,4.12095022201538,2.45595002174377,1.27311253547668,-2.98210000991821,-3.72487497329712,33.034049987793,15.4180507659912,12.6370506286621,-1.84978747367859,-2.01341247558594,0.06957499682903,0.24983750283718,0.34017500281334,-0.49417498707771,2.54700016975403,-3.89295029640198,-9.12705039978027,4.94205045700073,5.5620002746582,14.1619510650635,-1.7384124994278,2.87347507476807,8.40303707122803,-22.9990501403809,-27.3190517425537,-10.9540500640869,2.00227499008179,0.84053748846054,-1.33292496204376,0.90337496995926,2.07501244544983,2.98402500152588,-6.06405019760132,-4.10895013809204,14.2080011367798,6.37005043029785,2.79495024681091,4.41300010681152,-2.22461247444153,-3.30096244812012,-4.47755002975464,20.0290508270264,15.0750007629395,13.5180006027222,SHAKE
-0.16871249675751,-0.43738749623299,-0.03066249936819,-0.33412501215935,-0.78622502088547,-0.60293751955032,4.65495014190674,-1.5940500497818,-13.3890008926392,7.03605031967163,7.24905014038086,12.9700508117676,-2.18803739547729,3.74825000762939,9.91911220550537,-25.8660011291504,-34.560001373291,-12.1500005722046,2.05851244926453,0.97240000963211,0.59248751401901,0.73603749275208,-0.21449999511242,-0.3647874891758,-8.78894996643066,9.62295055389404,16.7040004730225,4.32405042648315,0.23295001685619,1.23000001907349,-3.71277499198914,-4.57641267776489,-5.77005004882813,15.364951133728,13.6609506607056,10.6819505691528,-4.71460008621216,-4.58755016326904,-2.28827500343323,1.26376247406006,1.42257499694824,1.01708745956421,-2.98200011253357,-11.9220008850098,-14.0010004043579,0.88605004549026,8.1670503616333,19.7989501953125,0.0,5.66142511367798,8.83547496795654,-32.9179496765137,-33.7770004272461,-19.6230010986328,3.88987493515015,2.36637496948242,0.87711250782013,-0.40507498383522,-0.14245000481606,0.24007499217987,-10.8090009689331,-6.11400032043457,7.5319504737854,5.89905023574829,0.22095000743866,-3.37695026397705,-0.30043751001358,-2.37490010261536,-3.57829999923706,30.3570022583008,22.7640018463135,18.1410007476807,-2.7856125831604,-3.59796237945557,-3.83253741264343,0.93389999866486,1.09766244888306,1.26623749732971,11.6209506988525,5.54295015335083,-2.05605006217957,-0.85305005311966,1.05795001983643,5.20995044708252,-3.98516249656677,1.47949993610382,6.14762496948242,-20.2860012054443,-33.2890510559082,-29.3530521392822,SHAKE
-2.23093748092651,-0.53886252641678,1.52583754062653,0.84727501869202,0.15083749592304,-0.8289874792099,-11.6659507751465,-13.2190504074097,-8.39895057678223,10.2210006713867,16.0470008850098,19.7539501190186,4.5667872428894,7.96441268920898,9.60753726959228,-33.8920516967773,-23.0929508209229,-12.1000509262085,1.1006875038147,0.92234998941422,0.91135001182556,0.26207500696182,-0.09955000132322,-0.64322501420975,-7.86600017547607,0.91500002145767,13.4610004425049,4.0009503364563,4.40100002288818,4.70504999160767,-0.10876250267029,-1.69688749313354,-3.03104996681213,25.54905128479,20.6460018157959,18.3610515594482,-1.88265001773834,-3.65048742294312,-3.24981236457825,0.33660000562668,0.65298748016357,0.31941249966621,13.123950958252,-1.85700011253357,-11.332950592041,-0.57300001382828,4.23600006103516,10.3620004653931,-0.46172499656677,8.42008781433105,9.48048782348633,-33.9490509033203,-20.97705078125,7.67700052261353,1.46850001811981,0.59248751401901,-0.18452499806881,0.083599999547,-0.82403749227524,-0.4086500108242,4.44195032119751,18.8479499816895,18.2470512390137,0.90495002269745,-0.7950000166893,-1.93005013465881,-5.48061227798462,-6.9271125793457,-6.73777484893799,14.3460006713867,7.81500053405762,-12.0760507583618,0.7207750082016,3.23620009422302,3.67606258392334,0.17655000090599,-0.45636248588562,-0.43312498927116,-9.48600006103516,-8.24100017547607,-9.65805053710938,25.441951751709,22.7329502105713,12.1300506591797,7.82512474060059,7.82870006561279,5.941237449646,-11.7790508270264,-0.4200000166893,12.6610507965088,SHAKE
-0.62191247940063,-1.07758748531342,-1.62978744506836,0.3255999982357,0.33536249399185,0.33783748745918,16.5169506072998,17.742000579834,16.3540515899658,1.31895005702972,0.63000005483627,0.93600004911423,-4.04511260986328,-5.40732479095459,-6.46167516708374,15.5329504013062,11.2780504226685,4.26195001602173,0.4129124879837,2.93328738212585,3.18615007400513,-0.10202500224113,-1.10261249542236,-0.77398747205734,-11.4550504684448,-9.75600051879883,-7.50000047683716,24.1309509277344,23.9149513244629,7.14795017242432,8.04127502441406,2.45313739776611,-2.03169989585876,-4.71495008468628,25.6140003204346,19.3090515136719,-1.11553752422333,-3.02500009536743,-1.98660004138947,-0.27802500128746,1.04266250133514,1.19047498703003,16.2559509277344,5.68395042419434,-10.0030508041382,-0.32205000519753,0.96705007553101,15.9130506515503,1.98041248321533,5.39632511138916,7.23126268386841,-31.8720016479492,-24.7870502471924,-2.13300013542175,1.04692494869232,0.48372501134872,0.30167499184608,0.75432497262955,0.76532500982285,0.31817498803139,2.08095002174377,11.0089502334595,15.748950958252,-0.68805003166199,0.21795001626015,0.94605004787445,-1.47578752040863,-2.65966248512268,-4.03768730163574,19.4400005340576,16.7650508880615,15.7549505233765,-2.61332488059998,-2.75618743896484,-2.27369999885559,0.84479999542236,1.6718624830246,1.98948752880096,7.89105033874512,2.05695009231567,-4.64205026626587,1.10805010795593,6.33000040054321,12.1350002288818,-3.44396257400513,2.01698756217957,4.12087488174438,-16.3279514312744,-21.5250015258789,-17.5990505218506,SHAKE
-2.61332488059998,-2.75618743896484,-2.27369999885559,0.84479999542236,1.6718624830246,1.98948752880096,7.89105033874512,2.05695009231567,-4.64205026626587,1.10805010795593,6.33000040054321,12.1350002288818,-3.44396257400513,2.01698756217957,4.12087488174438,-16.3279514312744,-21.5250015258789,-17.5990505218506,1.7714124917984,1.32921254634857,1.39631247520447,-0.48688748478889,-0.64817500114441,-0.93527501821518,-3.45300006866455,0.60900002717972,12.7770004272461,6.74805021286011,4.07595014572144,4.26495027542114,0.60472500324249,-2.96504998207092,-4.12087488174438,17.8680000305176,16.5949516296387,13.0650005340576,-1.84607493877411,-1.2694000005722,1.11539995670319,1.05366253852844,0.80327498912811,-0.25712499022484,3.12600016593933,-3.56100010871887,-8.800950050354,9.32295036315918,12.7140007019043,15.7000503540039,1.76055002212524,4.81841230392456,4.89541244506836,-24.3990020751953,-9.55605030059814,-3.44700026512146,0.92358750104904,1.14963746070862,1.75793743133545,0.59551250934601,0.42336249351501,0.0787874981761,2.60700011253357,8.31195068359375,12.8440504074097,3.40800023078919,5.17905044555664,6.21195030212402,1.49049997329712,-0.4959625005722,-2.09151244163513,19.9039516448975,20.1169509887695,16.9369506835938,-0.08071249723434,-0.6903874874115,-0.69519996643066,-0.26331248879433,0.23154999315739,0.35365000367165,16.9530010223389,12.7789506912231,7.9960503578186,-1.75500011444092,2.49900007247925,6.46605014801025,-5.67242479324341,-5.35108757019043,-1.4502124786377,0.7180500626564,-8.01000022888184,-22.8300018310547,SHAKE
-0.43614998459816,-1.0813000202179,-1.54426252841949,-0.35241249203682,0.06049999967217,0.35983750224113,23.1430511474609,17.1460514068604,9.6540002822876,-0.0730499997735,-0.90795004367828,1.76595008373261,-7.00892496109009,-7.00768756866455,-5.34008741378784,2.69895005226135,-5.12400007247925,-17.5579509735107,0.88563752174377,1.65412497520447,1.77388751506805,1.00856244564056,-0.30965000391006,-0.88632500171661,-10.9669504165649,-9.56505012512207,-9.82500076293945,9.39495086669922,7.02405023574829,3.22800016403198,7.12016248703003,6.69501256942749,5.77623748779297,-12.8659505844116,-0.29805001616478,6.49005031585693,-0.41662499308586,0.16114999353886,1.22650003433228,0.70922499895096,0.43064999580383,-0.48317500948906,10.5919504165649,20.2690505981445,25.6320018768311,-1.22400009632111,3.18795013427734,4.59705018997192,-1.38297498226166,-3.43791246414185,-6.10362482070923,24.3889503479004,19.6440010070801,10.9789505004883,-0.76120001077652,0.07204999774694,0.85263746976852,-1.07085001468658,-1.64133751392365,-0.45265001058578,6.38100051879883,-0.45000001788139,-11.7450008392334,5.6569504737854,10.5510005950928,8.0910005569458,-0.92977499961853,5.62842512130737,6.36625003814697,-28.7089519500732,-22.1449508666992,-9.35295009613037,0.52043747901917,0.43243750929832,0.74634999036789,0.79103749990463,1.09408748149872,0.4673624932766,2.52300000190735,11.7000007629395,20.0850009918213,-0.50295001268387,-0.89805006980896,-0.29805001616478,1.3034999370575,-1.03729999065399,-3.11409997940063,20.9809513092041,21.3780002593994,18.6289501190186,SHAKE
-0.50091248750687,-0.98106247186661,-0.64020001888275,-1.01213753223419,-1.34571254253387,-1.56323754787445,21.5800514221191,14.9659509658813,8.17995071411133,-5.1340503692627,-0.19695000350475,6.26505041122437,-6.4261999130249,-5.87647485733032,-4.37249994277954,-0.69300001859665,-7.42200040817261,-15.6409511566162,0.78801250457764,0.22591249644756,0.10133749991655,1.51552498340607,1.86119997501373,1.2418999671936,-10.5430507659912,-9.98805046081543,-10.1149501800537,4.54200029373169,3.16395020484924,3.61095023155212,5.35589981079102,5.88499975204468,6.11586236953735,-12.6619510650635,-5.88105010986328,-0.97305005788803,-0.37386250495911,3.16291236877441,4.32973766326904,1.01213753223419,-0.32931250333786,-1.21371245384216,2.76300024986267,19.5990009307861,23.6719512939453,-0.00600000005215,4.72200012207031,-3.42795014381409,0.31638750433922,-3.24609994888306,-4.7158374786377,17.1570014953613,13.8460502624512,11.2759504318237,-2.55832505226135,-1.75683748722076,-0.26028749346733,-1.85033750534058,-2.05796241760254,-0.37207499146461,10.2480001449585,4.93095016479492,-4.92000007629395,-0.8359500169754,8.48295021057129,11.1780004501343,-1.34516251087189,1.39521253108978,3.689537525177,-20.0200500488281,-22.8850517272949,-19.2450008392334,0.87958747148514,0.61201250553131,0.18438750505447,0.91327500343323,1.08790004253387,1.38723754882813,-5.81700038909912,-3.04905009269714,2.1739501953125,3.70695018768311,-0.59700000286102,-3.50895023345947,4.39449977874756,3.55520009994507,2.31151247024536,5.31495046615601,10.5390005111694,13.7520008087158,SHAKE
-0.64515000581741,-2.22117495536804,-2.55832505226135,-2.37558746337891,-1.93696248531342,-1.85033750534058,21.8410511016846,16.2709503173828,10.2480001449585,-16.6680011749268,-10.6660509109497,-0.8359500169754,-5.7164249420166,-3.59067487716675,-1.34516251087189,-0.32400000095367,-14.1150007247925,-20.0200500488281,0.34443750977516,0.6572499871254,0.87958747148514,1.17713749408722,1.1258499622345,0.91327500343323,-7.14495038986206,-6.77205038070679,-5.81700038909912,8.12400054931641,6.21705007553101,3.70695018768311,4.84893751144409,4.67059993743896,4.39449977874756,-2.92995023727417,1.85700011253357,5.31495046615601,1.28521251678467,1.69812500476837,0.87106251716614,0.50888746976852,-0.260837495327,-0.83751249313354,15.9259510040283,22.0020008087158,26.1460514068604,-2.43900012969971,-5.7180004119873,-11.5489501953125,-1.70307493209839,-3.68101239204407,-4.96993732452393,17.6719512939453,15.0010509490967,9.49995040893555,-1.70073747634888,-0.34457498788834,0.36519998311996,-0.61874997615814,-0.65051251649857,-0.29631251096725,10.1400003433228,4.21500015258789,-2.5729501247406,5.25105047225952,9.73995018005371,8.45505046844482,-2.95652508735657,-0.28586250543594,2.69513750076294,-15.4000511169434,-22.3800010681152,-23.7960014343262,1.3585000038147,0.25162500143051,-1.00429999828339,-0.51012498140335,-0.21436250209808,0.24983750283718,-6.35595035552979,-3.10905003547669,10.0630502700806,-3.72900009155273,-8.53905010223389,-3.90405011177063,3.47324991226196,0.36286249756813,-1.66526246070862,12.0270004272461,17.9640007019043,17.545051574707,SHAKE
-0.15647499263287,-0.25423750281334,-0.21023750305176,-0.57722496986389,-0.35241249203682,-0.37317499518394,-3.98895025253296,2.24595022201538,12.0780010223389,-3.1690502166748,-2.85795021057129,-1.02495002746582,3.4964873790741,1.12516248226166,-1.28521251678467,16.3840503692627,21.9190502166748,21.1249504089355,0.03781250119209,-0.48138749599457,-0.88824999332428,0.55769997835159,-0.33164998888969,-0.48069998621941,24.9450016021729,12.820050239563,6.6060004234314,-4.75605010986328,-4.21005010604858,-2.66700005531311,-4.3102126121521,-2.70242500305176,2.88928747177124,-7.08705043792725,-14.1960010528564,-22.1809501647949,1.46107494831085,1.39026248455048,0.97116249799728,-0.57241249084473,-1.40676248073578,-1.65852499008179,-5.28105020523071,2.00400018692017,11.3290500640869,-1.06095004081726,-5.53095006942749,-6.93105030059814,-0.0867625027895,-2.88323760032654,-5.76523733139038,24.8430004119873,23.0610008239746,8.83005046844482,-0.7099124789238,-1.28645002841949,-1.24258744716644,-0.05321250110865,0.0409750007093,1.4580500125885,8.56095027923584,-5.48700046539307,-8.68905067443848,-0.41700002551079,-0.64200001955032,1.24200010299683,-0.7097749710083,2.15146255493164,4.56183767318726,-21.3940505981445,-22.9279518127441,-19.1419506072998,1.80069994926453,1.32302498817444,0.5545374751091,-0.43064999580383,-0.7567999958992,-0.59193748235703,-5.33595037460327,-0.7540500164032,6.68505048751831,-2.28405022621155,-5.45895004272461,-7.0339503288269,4.43231248855591,2.25898742675781,-0.44714999198914,9.30900001525879,18.3270015716553,21.0790500640869,SHAKE
0.4129124879837,0.71348750591278,0.42267498373985,0.40136250853539,-0.39888748526573,-1.17961251735687,21.7690505981445,15.9930009841919,10.1089506149292,-2.53305006027222,-3.22395014762878,-4.27905035018921,-5.06151247024536,-5.03222513198853,-4.18563747406006,0.43095001578331,-3.21000003814697,-9.86205005645752,-2.3347499370575,-0.92124998569489,0.57172501087189,2.34135007858276,2.10072493553162,0.93761247396469,-9.32295036315918,-8.41095066070557,-6.88500022888184,2.70195007324219,6.22200012207031,5.72700023651123,5.91305017471313,6.56301259994507,6.49453735351563,-15.6889505386353,-6.35895013809204,0.44295001029968,-0.60720002651215,-0.28352499008179,0.37867498397827,0.40988749265671,0.78251248598099,0.72380000352859,9.07695007324219,18.2419509887695,25.7899513244629,-4.77705001831055,-0.99405002593994,0.18495000898838,-0.93334996700287,-2.76594996452332,-4.84041261672974,21.2970008850098,15.9919509887695,6.39405012130737,-0.80148750543594,-1.79836249351501,-2.76237487792969,-0.89127498865128,-0.87174999713898,-0.22783750295639,8.59200000762939,1.95105004310608,-4.78605031967163,-6.57405042648315,-5.13105010986328,-2.39895009994507,-4.03658771514893,-1.44044995307922,2.02675008773804,-12.7290010452271,-21.2220001220703,-25.4520015716553,1.31326246261597,1.61012494564056,1.34626245498657,0.31459999084473,-0.36465001106262,-0.64074999094009,-7.52805042266846,-6.81795024871826,-3.1519501209259,5.43495035171509,0.57195001840591,-2.9389500617981,6.01438760757446,2.62789988517761,0.22605000436306,6.22605037689209,19.6440010070801,21.1390514373779,SHAKE
0.82953751087189,-0.16747500002384,-0.06476250290871,-0.46488749980927,1.03180003166199,1.22718751430511,5.43105030059814,23.9020519256592,27.9979515075684,-4.41795015335083,-5.16000032424927,-3.58305025100708,-3.21681237220764,-4.10616254806519,-5.19722509384155,12.5800504684448,8.23905086517334,2.74695014953613,-1.88265001773834,-3.22409987449646,-1.39521253108978,-1.77333748340607,1.53999996185303,2.15943741798401,-1.17495000362396,-11.6659507751465,-10.9069509506226,-3.82995009422302,4.37205028533936,10.2109508514404,6.43348741531372,7.34373760223389,6.86358737945557,-19.1400012969971,-6.76800012588501,4.19505023956299,-0.49733749032021,-1.32687497138977,-1.70183753967285,0.56017500162125,1.22471249103546,1.50947499275208,7.5319504737854,18.8569507598877,26.5939521789551,-7.52205038070679,-6.22500038146973,-4.57605028152466,-0.66948747634888,-2.57166242599487,-3.79582500457764,23.1559505462646,17.2909507751465,11.3569507598877,0.27114999294281,0.18562500178814,-0.5986750125885,-1.73786246776581,-2.3645875453949,-2.20096254348755,15.9090003967285,9.58005046844482,2.77905011177063,0.00495000043884,0.14205001294613,0.14595000445843,-5.26679992675781,-4.27473735809326,-1.7910749912262,-4.54095029830933,-12.0040502548218,-21.2140502929688,0.43972501158714,1.72617495059967,2.00722503662109,1.5020500421524,0.12526249885559,-0.88274997472763,-7.84200048446655,-6.69300031661987,-1.11495006084442,10.5580501556396,6.7819504737854,-2.20995020866394,5.37432479858398,3.45991253852844,-0.72696250677109,9.4549503326416,16.9110012054443,18.7080001831055,SHAKE
-0.95782500505447,-1.13382494449615,-1.44044995307922,-1.43494999408722,-1.68657493591309,-1.7048624753952,17.8000507354736,12.1260004043579,5.77005004882813,-3.77700018882751,-1.67100012302399,0.4120500087738,-5.8825249671936,-5.54413747787476,-3.88135004043579,-0.78900003433228,-7.43595027923584,-16.1459999084473,-0.13928750157356,1.380499958992,2.09646248817444,1.80633747577667,0.93637502193451,-0.0042624999769,-8.83500003814697,-6.96405029296875,-6.80295038223267,9.57195091247559,8.47395038604736,3.66600012779236,7.13226222991943,7.23373746871948,6.18667507171631,-11.1709508895874,-2.37495017051697,7.8919506072998,0.39572501182556,-0.08799999952316,-0.42405000329018,0.29136249423027,0.54670000076294,0.55288749933243,12.5070009231567,22.4950504302979,27.4500007629395,-4.1100001335144,-5.28705024719238,-4.91805028915405,-1.03606247901917,-2.80871248245239,-3.99863743782043,17.7270011901855,14.7739505767822,10.077000617981,-0.53143751621246,-0.91629999876022,-1.42945003509521,-1.13437497615814,-1.15142500400543,-1.05613744258881,13.6260004043579,7.50105047225952,1.34400010108948,-2.03295016288757,-0.73305004835129,1.0150500535965,-4.76588726043701,-2.05493760108948,5.24232482910156,-11.5690507888794,-21.6240005493164,-24.2170505523682,1.74570000171661,1.8544625043869,1.2997875213623,-0.59798747301102,-1.08542501926422,-0.10807500034571,-7.17705011367798,-4.6279501914978,10.44105052948,1.96695005893707,-0.79995006322861,-5.26095008850098,2.58513736724854,-1.04087495803833,-2.72442507743835,16.5810012817383,17.0419502258301,14.2240505218506,SHAKE
0.08552499860525,-1.455162525177,-1.29263746738434,0.52717500925064,0.54670000076294,-0.06902500241995,20.6569519042969,27.2299518585205,24.5880012512207,-8.37405014038086,-4.73205041885376,-2.20500016212463,-4.57173728942871,-5.02246236801147,-5.44280004501343,6.16200017929077,3.42000007629395,0.37305000424385,-2.13922500610352,-1.22663748264313,0.17586250603199,0.6151750087738,2.22777509689331,1.98096251487732,-9.65595054626465,-8.9209508895874,-6.88200044631958,5.23605012893677,8.42100048065186,9.86400032043457,6.19767475128174,7.32778739929199,7.1359748840332,-22.7430019378662,-10.6159505844116,-0.64305001497269,1.94851243495941,1.47949993610382,0.45925000309944,-0.65670001506805,0.14107500016689,0.69946247339249,4.16700029373169,14.5999507904053,22.9609508514404,-1.63095009326935,-3.96795010566711,-7.12005043029785,-0.18328750133514,-2.09288740158081,-3.51738739013672,18.8320503234863,16.6810512542725,12.3640508651733,-1.13258755207062,-2.40432500839233,-2.91499996185303,-0.66275000572205,-0.70922499895096,0.39888748526573,16.0410003662109,1.557000041008,-5.69295024871826,-2.30505013465881,1.57695007324219,4.71900033950806,-3.14599990844727,4.03287506103516,6.00462484359741,-19.0180511474609,-25.6009521484375,-15.5359506607056,2.68771243095398,2.02193737030029,1.10797500610352,-0.05307500064373,0.51246249675751,0.32683750987053,0.55605000257492,8.3860502243042,16.606050491333,-4.75605010986328,-8.2369499206543,-10.5850505828857,-0.82472497224808,-2.52656245231628,-3.90953755378723,17.4109516143799,16.1040000915527,13.0009508132935,SHAKE
-0.62919998168945,1.18497502803802,2.41284990310669,1.8356249332428,1.77086246013641,0.55041247606277,-6.29805040359497,-5.43000030517578,-5.89200019836426,15.8269510269165,15.4540510177612,12.070050239563,6.03638744354248,4.14645004272461,2.45313739776611,4.89405012130737,13.6489505767822,15.4009504318237,1.20092499256134,-0.0489500015974,-1.05201244354248,1.03056252002716,0.4159374833107,-0.51493752002716,20.6710510253906,22.8990001678467,21.9180011749268,-11.9200506210327,-12.41100025177,-11.5060501098633,-3.63591241836548,-5.19598770141602,-5.72247505187988,11.7970504760742,5.14500045776367,1.28505003452301,-3.87777495384216,-2.62185001373291,-0.19181250035763,-1.39699995517731,0.15207499265671,1.49352502822876,-5.32695007324219,-8.6050500869751,-7.82505035400391,7.48800039291382,14.8290004730225,19.5120010375977,4.81965017318726,7.22521257400513,7.50007486343384,-28.9720516204834,-18.295051574707,-4.85400009155273,4.4090747833252,3.82139992713928,2.24180006980896,-0.40741249918938,0.61146247386932,1.14413750171661,-0.65595000982285,7.52700042724609,16.5150012969971,0.38595002889633,-5.78700017929077,-12.8989505767822,0.40920001268387,-1.34763753414154,-2.89176249504089,17.6410503387451,16.6810512542725,14.3740510940552,-3.01771259307861,-3.35115003585815,-3.72501254081726,-0.94861251115799,-1.34571254253387,-1.77457499504089,16.1560516357422,11.53005027771,-1.25400006771088,-7.98795032501221,-3.0090000629425,6.66495037078857,-4.57283735275269,-1.47949993610382,5.62842512130737,-11.1810007095337,-22.3200016021729,-22.3890018463135,SHAKE
-2.86494994163513,-0.47533750534058,1.97051250934601,-0.90227496623993,0.67993748188019,1.24066245555878,-6.0400505065918,-7.2480001449585,-6.55200052261353,16.1880016326904,21.7830009460449,22.1160011291504,5.4109001159668,6.51172494888306,6.01081228256226,-21.0799503326416,-9.60195064544678,1.62000012397766,3.52824997901917,3.02128744125366,1.94851243495941,1.39094996452332,1.6218124628067,1.00485002994537,4.94295024871826,11.8530006408691,17.4220504760742,-2.07600021362305,-7.22295045852661,-12.3940505981445,0.00123749999329,-1.37692499160767,-2.73184990882874,14.3290510177612,14.4199504852295,13.642050743103,-4.16116237640381,-4.61931228637695,-2.78066253662109,-1.70981252193451,-2.11296248435974,0.0787874981761,9.35700035095215,2.59305024147034,-8.7180004119873,-3.22395014762878,2.99895024299622,19.5100517272949,1.6603125333786,6.82563734054565,5.74928760528564,-29.3020515441895,-11.0920505523682,3.84600019454956,2.37984991073608,0.77934998273849,-1.11306250095367,2.66763758659363,2.53082489967346,-0.6151750087738,12.7360506057739,18.7069511413574,21.4390506744385,-13.8060007095337,-15.8400011062622,-13.5400505065918,-3.01028752326965,-4.01706266403198,-4.97612476348877,14.0320510864258,11.4100503921509,8.63595008850098,-3.34262490272522,-3.31581258773804,-1.7850250005722,-2.6504499912262,-2.18377494812012,0.0787874981761,3.01605010032654,-4.46805000305176,-7.86795043945313,4.77705001831055,11.7880506515503,19.4910011291504,1.50755000114441,4.909987449646,6.34672498703003,-26.0959510803223,-23.2909507751465,-11.7430505752563,SHAKE
2.76347494125366,0.87106251716614,0.26867499947548,0.02144999988377,0.9645624756813,0.35612499713898,3.20805025100708,19.8100509643555,23.7439517974854,-3.10200023651123,-7.2199501991272,-6.72705030441284,-3.14599990844727,-4.12568759918213,-4.87588739395142,13.4749507904053,9.52605056762695,5.55900049209595,-2.8686625957489,-3.16676259040833,-2.34451246261597,-1.2199000120163,-0.84727501869202,0.4673624932766,3.22005009651184,-3.59700012207031,-7.44495058059692,-0.05400000140071,4.65195035934448,9.95700073242188,1.76660001277924,4.53612518310547,5.08227491378784,-27.0840015411377,-20.3890514373779,-7.12995052337646,3.2569625377655,2.27727508544922,1.44526255130768,-0.21807499229908,0.58698749542236,0.77027499675751,1.98705005645752,11.403000831604,19.3360500335693,0.13005000352859,-6.12195014953613,-6.56895017623901,0.14052499830723,-2.01712489128113,-3.37809991836548,22.2880516052246,18.3109512329102,13.1400003433228,-1.78131246566772,-3.15081238746643,-3.28281259536743,-0.51617497205734,-1.05861246585846,-0.59441250562668,15.6220502853394,0.21705001592636,-7.0620002746582,-6.81405019760132,0.4909500181675,5.8609504699707,-1.72026252746582,2.35056257247925,5.40842485427856,-21.4750518798828,-27.189001083374,-21.6310501098633,3.33767509460449,3.34248757362366,2.55942487716675,-0.53322499990463,-0.36107498407364,0.34759998321533,-6.99000024795532,-1.40505003929138,7.85700035095215,6.25605010986328,0.42900002002716,-4.94895029067993,3.46596240997314,1.26568746566772,-0.80877500772476,15.9490509033203,20.7040500640869,19.9570503234863,SHAKE
-1.74707496166229,-2.10746240615845,-2.14788746833801,-0.57722496986389,-0.62975001335144,-0.53693747520447,24.2250003814697,20.4460506439209,14.9400005340576,-6.88095045089722,-4.300950050354,0.13395000994205,-5.57713747024536,-5.75190019607544,-5.1874623298645,5.33400011062622,-0.78105002641678,-7.66095018386841,-0.92729997634888,-0.41057500243187,0.38362500071526,0.5321249961853,2.09096240997314,2.13496255874634,-10.1080503463745,-10.5670509338379,-9.64605045318604,9.8569507598877,9.98400020599365,9.17505073547363,4.85869979858398,5.07622480392456,4.9282751083374,-14.5309505462646,-3.70800018310547,2.12700009346008,1.79217493534088,1.25950002670288,0.60472500324249,0.0787874981761,-0.23031249642372,-0.9645624756813,12.9400510787964,20.7480010986328,25.5139503479004,-5.40705013275146,-7.60995054244995,-8.61300086975098,-1.54426252841949,-3.1605749130249,-4.35050010681152,20.053050994873,14.7910509109497,10.9240503311157,-2.02812504768372,-1.93407499790192,-1.98660004138947,-1.4557124376297,-2.04572510719299,-1.95772504806519,11.836950302124,4.66500043869019,-3.00600004196167,1.62495005130768,5.27700042724609,7.84200048446655,-4.00358724594116,-1.17534995079041,2.42137503623962,-12.7669506072998,-21.8490009307861,-26.6610012054443,1.69812500476837,2.25403738021851,2.19779992103577,1.21013748645782,0.4281750023365,0.09955000132322,-9.43305015563965,-8.14305019378662,-3.21405005455017,9.71805000305176,5.7529501914978,0.58395004272461,5.5770001411438,4.32354974746704,2.36761260032654,7.80600023269653,13.1470508575439,18.0570011138916,SHAKE
-0.54614996910095,-0.8650124669075,-1.1643500328064,-0.43546250462532,-0.7763249874115,-0.95232498645782,27.7159519195557,23.2669506072998,16.9600505828857,-4.78200006484985,-4.23900032043457,-2.25705003738403,-5.39027500152588,-5.77747488021851,-5.60037517547607,5.73105049133301,1.40505003929138,-4.27995014190674,-2.01712489128113,-0.7429124712944,0.96992498636246,0.23512500524521,2.03472495079041,2.16548752784729,-11.5699501037598,-11.6629505157471,-9.87795066833496,9.43305015563965,12.2590503692627,12.8029508590698,6.67535018920898,7.27031230926514,6.46153736114502,-20.0440502166748,-5.51205015182495,5.35305023193359,1.644362449646,0.4129124879837,-0.52538752555847,0.16802500188351,0.94379997253418,1.16008746623993,9.0799503326416,19.4940013885498,25.8880519866943,-5.74395036697388,-8.09400081634521,-7.44495058059692,-1.00182497501373,-2.86494994163513,-4.12582492828369,21.1530017852783,17.0500507354736,12.4030504226685,-0.80877500772476,-0.90296250581741,-1.37568747997284,-1.21137499809265,-1.56681251525879,-1.70981252193451,14.2369508743286,7.88100051879883,1.10205006599426,0.34305000305176,2.18505001068115,3.61605024337769,-5.05669975280762,-3.28404998779297,0.47148749232292,-6.25395011901855,-15.646050453186,-26.7540016174316,1.51731252670288,2.9467625617981,3.87763738632202,1.57052505016327,0.11302500218153,-0.85579997301102,-9.83505058288574,-9.61305046081543,-5.24805021286011,13.2379503250122,8.87100028991699,3.56100010871887,4.45555019378662,3.61872506141663,1.83136248588562,10.2730503082275,11.2090501785278,16.9200000762939,SHAKE
-0.40933749079704,-1.13258755207062,-2.31646251678467,-1.39328753948212,-1.77691245079041,-1.3309999704361,13.0780506134033,5.97900009155273,-2.25,0.44805002212524,0.30405002832413,1.75695013999939,-0.45210000872612,3.33272504806519,5.8825249671936,-23.1289520263672,-26.4090003967285,-18.4390506744385,3.7676374912262,4.36273765563965,3.7676374912262,-1.29442501068115,-1.34323751926422,-0.75446248054504,-2.9719500541687,3.34395027160645,12.5449504852295,7.63395023345947,1.58505010604858,-4.92105007171631,1.2167375087738,-0.97982501983643,-2.79290008544922,17.3749504089355,16.8370513916016,13.5340509414673,-3.42691254615784,-5.20327520370483,-5.43303728103638,0.15578749775887,-0.08607500046492,1.54247498512268,16.0930500030518,5.40900039672852,-11.3110504150391,-9.95505046844482,-6.51900053024292,14.9680509567261,2.88199996948242,6.57525014877319,4.91741228103638,-35.8660507202148,-2.55405020713806,10.9090509414673,0.86129999160767,-1.27558743953705,-2.38603758811951,0.90584999322891,1.05008745193481,0.6982250213623,23.5570507049561,24.8200511932373,21.3150005340576,-18.7230014801025,-16.6120510101318,-10.6969509124756,-4.33097505569458,-3.71401238441467,-1.56254994869232,7.67895030975342,-7.77795028686523,-16.7400016784668,1.84841251373291,3.31443738937378,3.99011254310608,1.30542504787445,1.31889998912811,0.45759999752045,-7.50405025482178,-5.84805011749268,-2.57505011558533,17.8200016021729,13.3909502029419,6.48000049591064,4.29921245574951,1.70912504196167,0.05252499878407,2.03205013275146,13.2400503158569,14.403000831604,SHAKE
-2.66337490081787,-1.51373744010925,-0.12223749607801,-0.17531250417233,-1.07690000534058,0.10202500224113,14.4109506607056,-1.97205007076263,-7.34895038604736,-2.84595012664795,11.6520004272461,15.8890504837036,1.59307503700256,4.17697477340698,4.80865001678467,-22.1860504150391,-18.8860511779785,-7.10100030899048,3.58929991722107,0.43243750929832,-0.87725001573563,0.22055000066757,0.90832501649857,0.58574998378754,4.51695013046265,18.5269508361816,21.6520519256592,-2.87205004692078,-14.6410503387451,-12.8959503173828,-1.41721248626709,-2.47637510299683,-3.23881244659424,12.9769506454468,10.0980005264282,7.34205055236816,-2.47032499313354,-3.02500009536743,-2.47651243209839,-1.22237503528595,-0.89856249094009,0.23883749544621,7.4239501953125,-1.22505009174347,-6.79605054855347,1.26195001602173,5.58105039596558,12.4360504150391,0.29067498445511,3.1825749874115,4.74265003204346,-22.7359504699707,-22.582950592041,-13.9500007629395,2.64371252059937,1.59912502765656,0.17710000276566,-0.10683749616146,0.254787504673,0.93527501821518,-0.10605000704527,6.99300050735474,14.076000213623,2.76705002784729,-4.99500036239624,-8.36205005645752,0.54243749380112,-0.90172499418259,-2.5558500289917,14.367000579834,13.3360509872437,8.34195041656494,-0.9675874710083,-1.5052125453949,-1.60654997825623,-0.66893750429153,-0.52346247434616,-0.12649999558926,12.4900503158569,3.43500018119812,-0.23505000770092,0.98205006122589,3.97305011749268,5.98305034637451,-1.92183744907379,2.41532492637634,4.13668727874756,-11.1949501037598,-17.4859504699707,-12.6529502868652,SHAKE
1.59912502765656,0.17710000276566,-0.95658749341965,0.254787504673,0.93527501821518,0.78856247663498,6.99300050735474,14.076000213623,21.1069507598877,-4.99500036239624,-8.36205005645752,-4.42095041275024,-0.90172499418259,-2.5558500289917,-3.2045750617981,13.3360509872437,8.34195041656494,6.09705018997192,-1.5052125453949,-1.60654997825623,-1.44773745536804,-0.52346247434616,-0.12649999558926,0.15207499265671,3.43500018119812,-0.23505000770092,-4.66605043411255,3.97305011749268,5.98305034637451,8.29905033111572,2.41532492637634,4.13668727874756,4.0511622428894,-17.4859504699707,-12.6529502868652,4.84095001220703,2.2980375289917,1.47702503204346,0.67925000190735,0.65174996852875,0.90351247787476,0.49046251177788,12.4870510101318,17.7019500732422,20.9269504547119,-3.10905003547669,-7.22295045852661,-8.45505046844482,-0.68419998884201,-1.97669994831085,-2.86494994163513,13.0459508895874,12.3280506134033,9.48105049133301,-1.39892494678497,-1.91331243515015,-2.34327507019043,-1.48623752593994,-1.62057495117188,-1.61204993724823,13.1790008544922,8.17094993591309,2.37495017051697,-3.13305020332336,0.52200001478195,4.62405014038086,-3.89730000495911,-2.10264992713928,0.64748752117157,-6.72795009613037,-14.22705078125,-19.8030014038086,0.96387499570847,2.16356253623962,2.75618743896484,0.9706124663353,0.37812501192093,0.01526249945164,-3.50595021247864,-2.32395005226135,0.58995002508163,14.8510503768921,11.0580005645752,6.23400020599365,3.2436249256134,2.28208756446838,1.21921253204346,6.17895030975342,9.22500038146973,10.1820001602173,SHAKE
1.90464997291565,1.1336874961853,0.78677499294281,-0.14726249873638,0.85827499628067,0.19855000078678,4.15500020980835,14.7649507522583,18.2760009765625,1.53405010700226,-4.74600028991699,-5.7199501991272,-1.56873750686646,-2.5618999004364,-4.14039993286133,11.9290504455566,9.77505016326904,5.08500003814697,-2.45451259613037,-1.42463743686676,-0.04399999976158,-1.30900001525879,-0.32065001130104,1.03289997577667,4.01205015182495,-8.18205070495605,-8.42805004119873,4.22895002365112,14.3320503234863,15.8530511856079,4.5801248550415,6.10857486724854,5.68576240539551,-26.2750511169434,-13.4280004501343,0.07395000010729,1.42683744430542,1.00168752670288,0.8233500123024,1.52528750896454,1.55457496643066,0.62246251106262,6.29505014419556,15.2989511489868,21.5059509277344,-1.34100008010864,-4.32300043106079,-5.62200021743774,-0.27981248497963,-2.08298754692078,-3.4183874130249,19.85205078125,17.0190010070801,13.47705078125,-2.56932497024536,-2.87842488288879,-2.53632497787476,-0.56141251325607,-0.65174996852875,-1.10385000705719,15.0550508499146,9.18000030517578,1.87500011920929,-6.04305028915405,0.60795003175735,7.56705045700073,-4.75736236572266,-2.32498741149902,1.29373753070831,-6.81405019760132,-18.6540012359619,-25.3639507293701,1.88622498512268,2.22461247444153,1.98769998550415,0.89980000257492,0.50146251916885,0.89608746767044,-7.34895038604736,-1.50495004653931,6.35700035095215,12.5560503005981,2.24700021743774,-2.04900002479553,3.7445375919342,0.05733750015497,-1.88141250610352,12.4909505844116,19.2510013580322,18.3270015716553,SHAKE
-3.83501243591309,-3.52096247673035,-2.57179999351501,-0.4476999938488,-0.54793751239777,-0.70551252365112,8.54400062561035,1.96800005435944,-6.13305044174194,0.76905006170273,8.25405025482178,14.7930011749268,-2.88695001602173,1.21316254138947,6.22696256637573,-18.3810005187988,-27.3589515686035,-12.9780006408691,2.60947489738464,2.15627503395081,2.04146242141724,0.29864999651909,0.93527501821518,0.57598751783371,-4.69500017166138,2.63100004196167,16.6630516052246,2.74500012397766,-1.14000010490417,-5.81595039367676,1.16297495365143,-2.27246260643005,-3.49772500991821,20.131950378418,16.3680000305176,13.5150003433228,-4.62550020217896,-4.19911241531372,-0.23223750293255,-0.65670001506805,-1.51923751831055,-1.00856244564056,5.38305044174194,-1.97895014286041,-9.32805061340332,1.4190000295639,9.59595012664795,23.2399501800537,2.02675008773804,6.09991264343262,5.78847503662109,-27.42405128479,-8.31405067443848,2.20395016670227,1.0506374835968,0.74277502298355,0.15510000288486,2.1264374256134,0.90227496623993,-0.58464998006821,13.9830007553101,20.0659503936768,23.941951751709,-3.72195029258728,-5.514000415802,-8.03400039672852,-1.86683750152588,-3.38415002822876,-4.63278770446777,20.1010513305664,17.9370002746582,14.4199504852295,-2.93947505950928,-2.63656258583069,-1.99636244773865,-0.59317499399185,-0.72503751516342,-0.518649995327,8.78595066070557,2.12100005149841,-5.50395011901855,2.67300009727478,8.7610502243042,13.7640008926392,-3.65543746948242,3.22767496109009,5.61989974975586,-15.5310010910034,-25.324951171875,-18.3910503387451,SHAKE
-2.74161243438721,-2.93947505950928,-2.63656258583069,-0.50517499446869,-0.59317499399185,-0.72503751516342,14.8399505615234,8.78595066070557,2.12100005149841,-3.77205014228821,2.67300009727478,8.7610502243042,-5.54785013198853,-3.65543746948242,3.22767496109009,-4.0620002746582,-15.5310010910034,-25.324951171875,1.3034999370575,1.38531243801117,1.76536250114441,1.07566249370575,0.50146251916885,1.19061243534088,-7.84200048446655,2.02995014190674,9.0100507736206,7.99005031585693,1.93905007839203,0.02205000072718,3.2386748790741,-0.86377501487732,-2.58513736724854,19.8970508575439,21.2280006408691,19.2150001525879,-2.91499996185303,-3.45991253852844,-2.26627492904663,-1.17589998245239,-1.14042496681213,0.99261248111725,11.9800510406494,3.48795008659363,-9.93105030059814,-0.34305000305176,4.80495023727417,17.1409511566162,-0.08552499860525,5.77005004882813,5.96433734893799,-27.8809509277344,-17.0509510040283,-4.2180004119873,1.69688749313354,1.40373754501343,1.29002499580383,1.29566252231598,1.77209997177124,1.17961251735687,7.85895013809204,14.3659505844116,19.6759510040283,-1.96995007991791,-3.17205023765564,-3.15705013275146,-0.14300000667572,-1.81788754463196,-3.15081238746643,19.3129501342773,18.4489517211914,15.3150005340576,-1.6970249414444,-2.88942503929138,-3.62614989280701,-1.54728746414185,-1.27723753452301,-0.81303751468658,13.8199510574341,7.26405048370361,-0.62205004692078,-5.22000026702881,-1.0200001001358,4.55700016021729,-5.27174997329712,-2.41656255722046,4.73893737792969,-7.98195028305054,-21.5350513458252,-23.0740509033203,SHAKE
-3.37081241607666,-4.29921245574951,-4.7060751914978,-0.6347000002861,-0.58822500705719,-0.65793746709824,12.9090003967285,5.7679500579834,-2.74005007743835,-6.66495037078857,-1.12995004653931,5.77200031280518,-5.78723764419556,-2.06717491149902,6.22943735122681,-10.032000541687,-25.6339511871338,-25.1530513763428,3.11162495613098,3.04686260223389,2.07556247711182,-0.28531250357628,-0.12526249885559,1.73428750038147,-9.91395092010498,-5.60205030441284,10.6780500411987,9.96495056152344,4.59195041656494,-4.22700023651123,2.4091374874115,-1.60902500152588,-4.68531227111816,22.6080017089844,22.9819507598877,16.1909999847412,-2.90771245956421,-3.19000005722046,-2.12341237068176,-1.24547493457794,-0.85208749771118,0.33660000562668,10.3030500411987,-6.10200023651123,-12.4819507598877,-1.22100007534027,10.6180505752563,16.7440509796143,3.43048739433289,7.1519250869751,7.4218373298645,-34.6050033569336,-26.8500003814697,3.18300008773804,3.48053741455078,0.97487497329712,-0.42886251211166,-0.07507500052452,0.96827501058578,0.36107498407364,2.14995002746582,18.7450504302979,23.1450004577637,-3.49500012397766,-14.3269510269165,-14.6530504226685,-2.43251252174377,-3.98282504081726,-5.04075002670288,24.6880512237549,19.9450511932373,15.2290506362915,-3.22176241874695,-3.32914996147156,-3.50996255874634,-1.1281875371933,-1.25894999504089,-0.99137496948242,9.65700054168701,2.76300024986267,-5.86995029449463,1.77600014209747,5.7460503578186,9.9529504776001,-5.58813762664795,-1.66526246070862,7.21049976348877,-13.4370002746582,-28.0920009613037,-26.1990013122559,SHAKE
-5.27903747558594,-5.02988767623901,0.17833749949932,-0.16060000658035,-0.43917500972748,1.07937502861023,5.95005035400391,-4.88895034790039,-10.7950506210327,-0.4870500266552,10.6630506515503,28.969051361084,4.10368728637695,5.70652484893799,4.28573751449585,-30.5010013580322,-0.21405000984669,9.17895030975342,2.36389994621277,0.90516251325607,-0.88948750495911,0.80451250076294,0.47464999556541,-0.7177500128746,14.5330505371094,20.9509506225586,22.9300518035889,-13.1479501724243,-16.0810508728027,-17.4019508361816,-3.45496249198914,-4.70854997634888,-5.5075626373291,20.3950500488281,14.6160011291504,9.75600051879883,-5.75066232681274,-4.75378751754761,-2.22970008850098,1.39699995517731,1.29442501068115,1.34447503089905,-0.41700002551079,-11.6010007858276,-17.0310001373291,6.39405012130737,15.0520505905151,23.7859516143799,1.24973750114441,5.72728729248047,7.33631229400635,-36.0529518127441,-31.1809520721436,-14.7270002365112,1.84593749046326,0.95658749341965,0.33591249585152,0.17531250417233,1.09284996986389,-0.25588750839233,4.00005006790161,14.0500507354736,24.6390018463135,-4.71300029754639,-5.2630500793457,-5.42805004119873,-2.68537497520447,-5.10317516326904,-6.00600004196167,20.90505027771,11.5290002822876,8.31795024871826,-2.26627492904663,0.06352499872446,3.81040000915527,0.96813750267029,1.15018749237061,-0.16431249678135,-12.5149507522583,-13.4269504547119,-11.0220003128052,16.3579502105713,22.276050567627,14.5330505371094,7.59165000915527,5.15198755264282,3.2289125919342,-10.9440002441406,11.5909509658813,17.7240009307861,SHAKE
-4.28340005874634,-3.87406253814697,-2.0121750831604,0.51370000839233,0.79351252317429,0.98037499189377,-2.73795008659363,-13.4629507064819,-16.0369510650635,6.33705043792725,11.7499504089355,19.9069499969482,1.50026249885559,5.73952484130859,7.73946237564087,-34.6840515136719,-29.7330017089844,-16.1100006103516,1.44278752803802,1.53807497024536,1.69083750247955,-0.37564998865128,0.81427496671677,1.06837499141693,1.94700014591217,13.2550506591797,22.0710010528564,1.22100007534027,-0.72105002403259,-3.07095003128052,-2.75618743896484,-3.9753999710083,-5.01765012741089,21.5910015106201,16.0999507904053,12.9409503936768,-4.87465000152588,-3.73725008964539,-0.44604998826981,0.17655000090599,0.42941248416901,0.2413125038147,-4.89405012130737,-13.4100008010864,-12.187050819397,6.83700037002563,16.5139503479004,26.9370021820068,3.18133759498596,6.29914999008179,7.17749977111816,-33.8149528503418,-24.28005027771,-10.7239503860474,2.42508745193481,1.06768751144409,0.48620000481606,0.65670001506805,1.64505004882813,1.88567495346069,-5.66700029373169,3.11205005645752,12.5830507278442,-0.76395004987717,-3.03300023078919,-2.7720000743866,2.22956252098084,0.18933749198914,-1.81431245803833,19.1269512176514,21.8449516296387,20.9380512237549,-0.20776249468327,-1.30363750457764,-2.50951242446899,-1.98838746547699,-1.66581249237061,-1.07937502861023,19.6489505767822,15.4789505004883,9.71205043792725,-5.23695039749146,-3.65505027770996,-0.66105002164841,-6.46291255950928,-6.81229972839355,-4.9576997756958,5.91105031967163,-2.72205018997192,-16.864049911499,SHAKE
-2.50951242446899,-3.66643738746643,-4.04511260986328,-1.07937502861023,-0.60293751955032,-0.1190750002861,9.71205043792725,1.82505011558533,-7.11195039749146,-0.66105002164841,3.22095012664795,9.77295017242432,-4.9576997756958,-0.63291251659393,3.94858741760254,-16.864049911499,-30.3619518280029,-31.4440517425537,2.97604990005493,1.74459993839264,0.96992498636246,0.20831249654293,0.88151252269745,1.37747502326965,-10.5240001678467,-2.48595023155212,6.73995018005371,12.8809509277344,0.2569500207901,-2.27700018882751,0.98339998722076,-1.25716245174408,-4.06092500686646,24.4870510101318,22.3450508117676,14.6400003433228,-4.16239976882935,-4.06463766098022,-1.49792504310608,-0.18026250600815,0.51988750696182,0.87779998779297,10.4749507904053,-6.99000024795532,-11.7280502319336,-1.58505010604858,15.0139503479004,24.3240013122559,0.78182500600815,5.20808744430542,7.50255012512207,-32.8770027160645,-30.1810512542725,-18.0750007629395,3.91558742523193,3.25091242790222,2.89052510261536,0.05555000156164,0.58451247215271,0.85084998607635,-7.99995040893555,-1.22505009174347,8.84805011749268,3.71400022506714,-0.05100000277162,-2.16705012321472,1.85941243171692,-0.16857500374317,-1.88388752937317,22.6710014343262,22.1149501800537,19.969051361084,-1.32192504405975,-2.74037504196167,-3.94006252288818,-1.44828748703003,-1.3249499797821,-0.89856249094009,18.6420001983643,14.248950958252,8.01000022888184,-11.1810007095337,-7.33800029754639,-2.31705021858215,-6.89534997940063,-6.87830018997192,-4.21973752975464,6.16200017929077,-5.69205045700073,-21.9060001373291,SHAKE
0.73053747415543,2.26503753662109,3.03228759765625,1.73786246776581,1.47276246547699,0.8289874792099,-11.1730508804321,-10.4449501037598,-10.1220006942749,17.5240516662598,14.6089506149292,8.66805076599121,5.94233751296997,5.28632497787476,4.63759994506836,3.92205023765564,7.83705043792725,11.7730503082275,1.45749998092651,1.14097499847412,-0.06118749827147,0.76546251773834,-0.31336250901222,-1.04390001296997,18.7969512939453,22.9129505157471,23.3920516967773,-6.61005020141602,-7.99095058441162,-11.5870504379272,-3.54914999008179,-4.59359979629517,-5.66389989852905,15.3169507980347,11.332950592041,8.08095073699951,-4.67431259155273,-3.93029999732971,-1.49668753147125,-0.67003750801086,-0.71046251058578,0.72503751516342,-2.61105012893677,-11.5480508804321,-11.131950378418,6.05205011367798,14.403000831604,20.5009517669678,2.75247502326965,5.55747509002686,5.97533750534058,-31.408052444458,-20.2999515533447,-4.96695041656494,1.9901750087738,0.84658747911453,1.00539994239807,1.22237503528595,1.29071247577667,0.29864999651909,2.82000017166138,19.4170513153076,24.4590015411377,-0.18300001323223,-2.78895020484924,-1.7980500459671,-0.84177500009537,-2.53756237030029,-3.73601245880127,22.8910503387451,18.1290016174316,13.9990510940552,-1.38668751716614,-1.08377504348755,-0.45457500219345,-0.44165000319481,-0.78127497434616,-1.04032504558563,9.74505043029785,2.67900013923645,-4.66200017929077,3.54900026321411,7.11900043487549,10.2010507583618,-4.74388742446899,-2.27480006217957,1.71888744831085,-11.3239507675171,-21.5490016937256,-29.5129508972168,SHAKE
0.856350004673,0.09886249899864,-0.74648749828339,-0.54670000076294,-0.50888746976852,-0.25836250185966,27.0769519805908,25.4260520935059,20.9080505371094,-3.44895005226135,-5.63895034790039,-3.92295026779175,-5.23998737335205,-5.69689989089966,-5.65042495727539,6.99705028533936,3.48900008201599,-3.16500020027161,-0.22852499783039,-0.53638750314713,-0.42638748884201,-0.55398750305176,0.5429875254631,1.10632503032684,-11.4169502258301,-14.451000213623,-12.2500505447388,8.83305072784424,5.67405033111572,6.83505010604858,5.59899997711182,7.12497472763062,6.53372478485107,-26.9860515594482,-11.731050491333,2.84505009651184,1.54412496089935,2.05727505683899,2.24180006980896,-0.88880002498627,-0.72751247882843,-0.5711749792099,5.9239501953125,15.7369508743286,21.9490509033203,5.44005012512207,3.62295007705688,1.07205009460449,-1.12282502651215,-3.34386253356934,-4.43478727340698,29.5999507904053,21.0120010375977,13.0969505310059,-1.38063752651215,-1.96212494373322,-2.72442507743835,-0.04702499881387,-0.2938374876976,0.43917500972748,11.2770004272461,1.92300009727478,-7.24095010757446,-2.18595004081726,1.38405001163483,2.03895020484924,-3.15809988975525,1.0066374540329,4.61188745498657,-21.0679512023926,-29.4820518493652,-26.2630519866943,1.30473744869232,2.22227501869202,2.48613739013672,-1.60352504253387,-2.14472508430481,-1.9406750202179,-4.52805042266846,-0.01200000010431,9.13500022888184,5.96400022506714,3.81195020675659,1.05105006694794,3.76034998893738,1.37321245670319,-1.33897495269775,13.1850004196167,21.1129512786865,23.9410514831543,SHAKE
0.65230000019073,0.00852499995381,-0.7429124712944,-0.50765001773834,-0.49169999361038,-0.39888748526573,26.0220012664795,27.7369518280029,25.0930519104004,-4.12905025482178,-4.62405014038086,-4.32300043106079,-4.48002481460571,-5.26679992675781,-5.72866249084473,14.0440502166748,9.80595016479492,4.95600032806396,-1.44773745536804,-1.27063751220703,-0.24805000424385,-0.34264999628067,0.72998750209808,0.90584999322891,-8.82000064849854,-11.4430503845215,-10.6750507354736,6.22200012207031,7.68900012969971,9.96495056152344,5.18484973907471,6.85492515563965,6.61553764343262,-28.8310508728027,-14.8039503097534,-1.17900002002716,1.74941253662109,1.19226253032684,0.58630001544952,-1.31271255016327,-0.55288749933243,0.06173750013113,4.72200012207031,14.8639507293701,21.9630012512207,-1.22595000267029,-3.07305026054382,-3.97305011749268,0.57172501087189,-1.69331252574921,-3.23138737678528,26.953950881958,22.8720016479492,17.4540004730225,-1.03482496738434,-1.45873749256134,-1.79836249351501,-1.27613747119904,-1.63157498836517,-1.38118743896484,14.1820507049561,5.35395002365112,-3.73095011711121,-0.51794999837875,3.3600001335144,7.20600032806396,-3.69943737983704,-0.74524998664856,2.29061245918274,-13.6000509262085,-22.6759510040283,-23.67405128479,1.26568746566772,1.54412496089935,0.60953748226166,-0.46970000863075,-1.14166247844696,-1.13561248779297,-7.08300018310547,-3.58005023002625,9.90795040130615,6.89700031280518,2.81205010414124,-2.11605000495911,2.9528124332428,-0.3103374838829,-1.42326247692108,16.4899501800537,17.026050567627,15.0540008544922,SHAKE
-0.83324998617172,0.46048748493195,1.26568746566772,0.4476999938488,0.01649999991059,-0.46970000863075,-9.85905075073242,-8.20305061340332,-7.08300018310547,11.4769506454468,11.5939502716064,6.89700031280518,4.6998872756958,4.44578742980957,2.9528124332428,-5.85900020599365,7.62195014953613,16.4899501800537,-0.60486251115799,-0.39338749647141,-0.49114999175072,-0.07631249725819,-0.80451250076294,-1.36771249771118,22.5060005187988,22.1670017242432,13.7629508972168,-0.91995006799698,0.78795003890991,0.13005000352859,-4.60102510452271,-0.30538749694824,3.4964873790741,3.75705027580261,-24.2959518432617,-26.0670013427734,2.92105007171631,2.63271260261536,-0.22481249272823,-1.92114996910095,-2.04448747634888,-0.07507500052452,0.74100005626678,10.5630006790161,25.2799510955811,5.41995048522949,-2.82705020904541,-8.93100070953369,-1.76288747787476,-3.3353374004364,-4.31392478942871,25.2169513702393,19.3849506378174,14.1060009002686,-0.49238750338554,-0.46915000677109,-1.02506244182587,-0.74951249361038,-1.27366244792938,-0.77027499675751,13.582950592041,6.23505020141602,-2.25705003738403,3.77205014228821,5.34405040740967,5.46795034408569,-4.3810248374939,-1.80936253070831,1.83741247653961,-11.2260007858276,-20.4630012512207,-26.1940517425537,0.67430001497269,1.32426249980927,1.83864998817444,1.72204995155334,0.52964997291565,-0.35488748550415,-11.3880004882813,-10.6390504837036,-6.01095008850098,8.25405025482178,4.98495006561279,2.66595005989075,6.40901231765747,5.06151247024536,2.52642488479614,10.8330001831055,19.9159507751465,28.4020519256592,SHAKE
2.11227488517761,2.11832499504089,1.73112499713898,-0.36217498779297,0.05431250110269,0.43917500972748,3.80100011825562,14.1960010528564,22.0969505310059,0.88800007104874,-0.86700004339218,-3.82500028610229,-0.20033749938011,-2.36279988288879,-4.79764986038208,29.1000022888184,23.9629516601563,11.6940002441406,-2.4227499961853,-2.933424949646,-1.68850004673004,-0.53322499990463,0.44536250829697,1.83686244487762,6.26595020294189,-9.84195041656494,-11.9839506149292,-0.56100004911423,9.05805015563965,13.4490003585815,6.11957502365112,7.26055002212524,6.66682481765747,-21.5160007476807,-6.53895044326782,7.35405015945435,2.57771253585815,2.06346249580383,0.8428750038147,-0.29988750815392,0.17778749763966,0.4281750023365,9.01995086669922,19.314001083374,25.8330020904541,0.34695002436638,-4.47300004959106,-8.99805068969727,-1.87536251544952,-3.73477506637573,-5.93505001068115,27.9520511627197,21.6370506286621,10.8330001831055,-2.36898756027222,-2.09041237831116,-1.69207501411438,-0.65917497873306,-0.75322496891022,0.23031249642372,5.11200046539307,-2.41500020027161,-9.53595066070557,5.59500026702881,7.93095016479492,9.81900024414062,-3.11176252365112,0.52525001764297,4.4152626991272,-18.1200008392334,-25.312952041626,-25.6720504760742,1.61259996891022,1.56983745098114,1.50136244297028,1.17589998245239,0.48193749785423,0.04331250116229,-9.96405029296875,-8.71305084228516,-3.03195023536682,4.61595010757446,2.06295013427734,1.10805010795593,5.58195018768311,3.78358745574951,1.43673753738403,15.5830507278442,21.7399501800537,26.8530006408691,SHAKE
-2.4777500629425,-2.49108743667603,-2.25651240348816,-1.13437497615814,-1.91509997844696,-1.63405001163483,6.00495052337646,-1.5289500951767,-8.50005054473877,3.62295007705688,6.94500017166138,11.0749502182007,-2.92599987983704,1.28273749351501,5.27903747558594,-20.9580001831055,-29.776050567627,-28.8190517425537,2.74518752098084,2.82947492599487,2.95157504081726,0.19731250405312,-0.38060000538826,-0.16183750331402,-9.94005012512207,-5.70000028610229,3.22200012207031,7.47405052185059,3.19995021820068,0.82605004310608,4.48978757858276,-1.20587503910065,-3.71277499198914,18.0619506835938,28.4350509643555,23.8069515228271,-3.87529993057251,-5.40608739852905,-4.54850006103516,0.24612499773502,0.10807500034571,0.35117501020432,16.8109512329102,-2.21595001220703,-11.086950302124,-11.6350507736206,4.34595012664795,13.4220008850098,1.92417502403259,5.60147476196289,7.09568738937378,-34.6669502258301,-27.4909515380859,-1.47300004959106,3.34619998931885,2.16974997520447,0.30414998531342,-0.7567999958992,-0.40988749265671,-0.13983750343323,4.11195039749146,14.110050201416,21.7930507659912,-4.94505023956299,-8.58705043792725,-12.5059509277344,-1.64078748226166,-3.61748743057251,-5.11898756027222,25.5760517120361,21.0859508514404,15.399001121521,-3.99134993553162,-4.37621259689331,-4.02806234359741,0.05555000156164,-0.63346248865128,0.09955000132322,9.11100006103516,0.73800003528595,-6.94200038909912,1.1869500875473,5.18400001525879,11.1349506378174,-2.40556240081787,1.92046248912811,5.10922479629517,-24.937952041626,-30.1639518737793,-24.8179512023926,SHAKE
2.38590002059937,-1.73607504367828,-3.13981246948242,-0.02749999985099,0.79598748683929,1.35176253318787,16.3399505615234,21.4369506835938,17.4240016937256,-8.19405078887939,-12.7500009536743,-8.625,-5.3695125579834,-6.10376262664795,-6.32486248016357,10.9290008544922,5.05200004577637,-2.22405004501343,-2.37875008583069,-0.44714999198914,1.6883624792099,-0.05926249921322,0.91327500343323,1.14785003662109,-6.80805015563965,-8.89905071258545,-8.2369499206543,12.7590007781982,17.5759506225586,17.4709510803223,5.17027473449707,6.63753747940063,6.90263748168945,-24.9070510864258,-14.6080503463745,-4.38705015182495,2.74628758430481,2.37737488746643,1.28645002841949,-0.90832501649857,-0.63827496767044,-0.10078749805689,2.19300007820129,10.4959506988525,18.6660003662109,0.04800000041723,-2.99895024299622,-6.46695041656494,-0.26386249065399,-2.54237508773804,-4.27363729476929,25.7550010681152,23.5969505310059,18.3990001678467,-2.63532495498657,-2.51061248779297,-2.41903758049011,0.81551247835159,0.07631249725819,-0.49293750524521,12.7150506973267,5.99505043029785,-0.50505000352859,-1.44405007362366,2.99895024299622,6.44505023956299,-6.23315000534058,-3.95958757400513,0.02076249942183,-9.01095008850098,-19.3459510803223,-29.7210006713867,0.66577500104904,1.77512502670288,2.75976252555847,0.71403747797012,-0.61998748779297,-1.6938624382019,-7.8870005607605,-7.52805042266846,-4.72905015945435,12.1300506591797,9.1560001373291,6.94500017166138,7.50365018844604,5.18361234664917,1.98398745059967,1.6800000667572,16.5229511260986,25.9699516296387,SHAKE
-0.29809999465942,-1.66526246070862,-2.40198755264282,0.59193748235703,0.93761247396469,1.06589996814728,22.6600513458252,22.5499515533447,18.4860000610352,-9.36900043487549,-8.2300500869751,-4.9830002784729,-5.48680019378662,-6.36886262893677,-6.80735015869141,12.4500007629395,6.15195035934448,-0.86700004339218,-2.32127499580383,-1.85707497596741,-0.71719998121262,0.39160001277924,2.02248740196228,2.11667490005493,-7.02795028686523,-10.5430507659912,-9.58905029296875,8.57400035858154,9.87405014038086,12.2190008163452,4.15373754501343,6.73406267166138,7.80065011978149,-30.8290519714355,-20.9580001831055,-9.68805027008057,3.84463739395142,4.04868745803833,2.47637510299683,-2.59187507629395,-2.54416251182556,-1.41652500629425,0.8479500412941,8.69700050354004,18.5130004882813,6.16500043869019,0.4120500087738,-7.88100051879883,-0.81001251935959,-3.1325249671936,-4.86736249923706,27.7000522613525,24.4939517974854,18.0090007781982,-2.50332498550415,-2.19064998626709,-2.13922500610352,1.85267496109009,0.69574999809265,0.30855000019073,12.1450510025024,5.26800012588501,-1.65900003910065,0.94095003604889,4.43505001068115,5.2219500541687,-5.36703729629517,-3.21309995651245,-0.54986250400543,-9.68295001983643,-17.5770015716553,-23.2650012969971,1.7384124994278,2.30780005455017,2.42013740539551,-0.7067499756813,-1.91620004177094,-2.07996249198914,-6.44700050354004,-6.29100036621094,-4.98900032043457,7.45695018768311,4.02495002746582,1.22295010089874,7.46831226348877,6.16591262817383,3.3706750869751,-5.55495023727417,8.9970006942749,21.6079502105713,SHAKE
1.02740001678467,-1.35739994049072,-2.61937499046326,-1.3309999704361,1.70981252193451,3.51174998283386,23.1570014953613,24.7080020904541,21.3199501037598,-9.2160005569458,-11.5870504379272,-7.14900016784668,-5.425612449646,-6.40420007705688,-6.44696235656738,12.5050506591797,2.83800005912781,-5.61495018005371,-1.23887503147125,0.34196248650551,1.85322499275208,0.75446248054504,0.77398747205734,-0.60046249628067,-5.37000036239624,-6.63300037384033,-7.45905017852783,8.16000080108643,9.9529504776001,9.36195087432861,4.99179983139038,6.3784875869751,6.98816251754761,-24.1600513458252,-15.7939510345459,-7.65405035018921,3.40243744850159,3.08357501029968,1.38297498226166,-3.01950001716614,-2.87045001983643,-1.10261249542236,3.8779501914978,13.3060503005981,21.457950592041,2.45595002174377,-1.61100006103516,-9.19200038909912,-1.57850003242493,-3.63948750495911,-5.00898742675781,30.1990509033203,20.6920509338379,11.0770502090454,-2.71713757514954,-2.64866256713867,-2.40803742408752,1.38242495059967,0.72874999046326,1.09037494659424,8.58000087738037,1.8600001335144,-3.8620502948761,-0.97500002384186,1.61805009841919,2.95305013656616,-3.02747488021851,0.21986250579357,3.47324991226196,-17.2660503387451,-25.2370510101318,-25.7920513153076,1.92170000076294,1.9852249622345,2.06951260566711,-2.49411249160767,-3.27841258049011,-3.22231245040894,-4.91505002975464,-1.7370001077652,4.73699998855591,2.63295006752014,1.08900010585785,2.37705016136169,4.0804500579834,0.91863751411438,-1.95965003967285,19.734001159668,29.9520015716553,27.9400520324707,SHAKE
0.69877499341965,-0.52043747901917,-1.12282502651215,-0.33536249399185,1.82710003852844,2.9913125038147,23.2530002593994,26.4829521179199,22.1380519866943,-0.75000005960464,-2.04000020027161,-1.37205004692078,-5.22898769378662,-5.60408735275269,-5.48061227798462,9.1960506439209,1.47900009155273,-3.62205028533936,-0.46557500958443,-0.55233746767044,-0.17723749577999,1.73304998874664,1.29442501068115,-0.10807500034571,-3.81195020675659,-6.26205015182495,-6.64305019378662,0.16095000505447,-1.89900004863739,-0.05595000088215,3.73106241226196,5.60147476196289,6.61553764343262,-23.8990516662598,-17.3860511779785,-9.59895038604736,0.9675874710083,1.32426249980927,1.72383749485016,-2.41834998130798,-2.87773752212524,-1.86367499828339,3.45195007324219,15.5020503997803,25.7010021209717,0.86205005645752,6.35100030899048,7.61895036697388,-1.97436249256134,-4.56926250457764,-6.05852508544922,37.9129524230957,24.0229511260986,12.0010509490967,-1.987837433815,-1.77402496337891,-1.23158752918243,2.03348755836487,1.28342497348785,1.4690500497818,8.25705051422119,0.44400003552437,-5.78595018386841,-1.9080001115799,0.94605004787445,2.47995018959045,-4.52155017852783,-1.47949993610382,2.31384992599487,-12.5740509033203,-22.8130512237549,-28.9390506744385,0.87463748455048,0.34567499160767,0.68282496929169,-2.48558759689331,-2.98526239395142,-3.15988755226135,-6.79800033569336,-1.86705005168915,5.11995029449463,-3.51405024528503,-1.75995004177094,2.6140501499176,4.92593765258789,0.70730000734329,-2.42027497291565,27.693000793457,37.5979499816895,30.5500507354736,SHAKE
0.63277500867844,-0.97130000591278,-1.69949996471405,1.35671246051788,2.65292501449585,2.41587495803833,31.1329517364502,24.9019508361816,15.5359506607056,-4.36094999313354,-7.24200057983398,-4.61700010299683,-6.30162477493286,-6.10610008239746,-5.73347473144531,2.29695010185242,-2.43195009231567,-5.03400039672852,-0.22605000436306,0.54724997282028,0.74634999036789,1.68162500858307,1.7635749578476,0.27788749337196,-9.16005039215088,-11.260950088501,-9.0600004196167,3.38895010948181,1.8600001335144,-0.8029500246048,4.18673753738403,6.70835018157959,8.28932476043701,-28.9480514526367,-20.2519512176514,-12.7579507827759,-0.62191247940063,0.52043747901917,2.0462749004364,-2.86178755760193,-2.96807503700256,-2.06291246414185,0.91800004243851,10.231050491333,23.5879516601563,0.50505000352859,9.20805072784424,14.2480506896973,-0.86006247997284,-3.46720004081726,-5.15927505493164,35.7480010986328,25.5970516204834,14.4630002975464,-0.96882498264313,-1.06906247138977,-1.13629996776581,2.2045373916626,1.14166247844696,0.9560375213623,12.72705078125,5.11005020141602,-2.33295011520386,-2.53500008583069,-1.05900001525879,-0.52500003576279,-5.69689989089966,-3.66519999504089,3.98639988899231,-6.74895048141479,-16.4209499359131,-28.3399505615234,0.54477500915527,0.24062499403954,0.43972501158714,-2.25101256370544,-2.96202492713928,-3.534987449646,-8.29395008087158,-5.16900014877319,0.6400500535965,-0.46005001664162,-1.00095009803772,2.81205010414124,6.11338758468628,1.80812501907349,-1.02506244182587,21.6340503692627,32.4859504699707,27.8490009307861,SHAKE
0.3616249859333,-1.26087498664856,-1.64450001716614,0.89485001564026,2.97921252250671,3.20388746261597,28.9290008544922,26.6610012054443,19.711950302124,-3.07800006866455,-4.6840500831604,-1.26705002784729,-5.31932497024536,-5.56242513656616,-5.65166234970093,5.41095018386841,0.53595000505447,-2.87505006790161,-0.83448749780655,-0.61586248874664,-0.11247500032187,0.90584999322891,1.90520000457764,1.05132496356964,-6.2790002822876,-9.14100074768066,-7.90200042724609,0.93600004911423,-0.16395001113415,0.30195000767708,4.24902486801147,6.78163766860962,8.36742496490479,-28.2850513458252,-19.8499507904053,-11.7700510025024,0.89911252260208,2.56671237945557,3.06404995918274,-3.42746257781982,-3.72308754920959,-2.89726257324219,1.08000004291534,10.4290504455566,22.6519508361816,4.23600006103516,11.0220003128052,7.67895030975342,-1.2804000377655,-3.79830002784729,-5.50384998321533,32.1199531555176,24.4480514526367,14.4460506439209,-2.5778501033783,-1.99993753433228,-1.41240000724792,2.57358741760254,1.21261250972748,0.81056249141693,11.0490007400513,4.39005041122437,-2.93400025367737,0.38595002889633,3.21195006370544,3.46305012702942,-5.92776250839233,-3.95587491989136,-0.45691248774529,-6.89805030822754,-15.4789505004883,-25.7130012512207,0.85882496833801,0.97968751192093,0.73053747415543,-1.41171252727509,-2.17525005340576,-2.3695375919342,-7.89405059814453,-8.28000068664551,-6.72195053100586,1.21800005435944,-1.35105001926422,-1.77195012569427,9.2470121383667,7.30949974060059,3.39625000953674,-4.57605028152466,15.8410511016846,29.9470520019531,SHAKE
-1.0225875377655,-2.26517510414124,-2.19064998626709,2.19477510452271,3.45812487602234,2.78740000724792,29.053050994873,22.4370002746582,14.3610010147095,-8.31599998474121,-4.7920503616333,0.02700000070035,-6.23810005187988,-6.29914999008179,-5.96323728561401,2.21399998664856,-1.70295011997223,-5.24700021743774,-0.03795000165701,0.32738751173019,0.56319999694824,1.27118754386902,1.77581250667572,0.50393748283386,-8.82495021820068,-9.20100021362305,-6.9060001373291,2.15205001831055,0.95805007219315,0.3790500164032,5.62347507476807,7.80051231384277,8.83052539825439,-26.7060012817383,-17.3790016174316,-8.1040506362915,1.78736245632172,2.81476259231567,1.86188745498657,-3.32859992980957,-2.97302508354187,-1.34942495822906,2.28900003433228,14.5189504623413,24.9949512481689,4.37505006790161,8.50695037841797,0.33300000429153,-1.76426243782043,-3.93758749961853,-5.3535623550415,27.3529510498047,20.053050994873,11.4739503860474,-1.53945004940033,-0.7539125084877,-0.32752498984337,1.79286253452301,0.42088750004768,-0.24365000426769,10.5400505065918,3.91800022125244,-2.60595011711121,2.42895007133484,3.27600026130676,2.44800019264221,-5.75313758850098,-3.88024997711182,-0.01952499896288,-5.92800045013428,-14.7580509185791,-27.4720516204834,-0.46186250448227,-0.30428749322891,-0.11852499842644,-0.86061251163483,-1.80015003681183,-2.53811240196228,-7.38495016098022,-8.11500072479248,-6.13095045089722,0.63495004177094,0.10305000841618,1.5940500497818,9.38877487182617,6.91363763809204,2.57290005683899,-1.82505011558533,19.9879512786865,32.1030006408691,SHAKE
-0.45691248774529,-1.98660004138947,-2.18569993972778,1.23695003986359,2.96697497367859,3.02073740959167,29.3310012817383,25.0140018463135,17.1730499267578,-6.86895036697388,-5.24895048141479,-0.94095003604889,-5.88994979858398,-6.08781242370605,-6.17086267471313,4.53495025634766,0.46005001664162,-2.33700013160706,-0.34457498788834,-0.53886252641678,-0.64762496948242,0.38417500257492,1.45928752422333,0.98656249046326,-8.38005065917969,-10.8690004348755,-9.06704998016357,0.3979500234127,-1.26705002784729,-0.85995006561279,4.23073768615723,7.10902500152588,8.828049659729,-30.810001373291,-21.738000869751,-12.7840509414673,0.72930002212524,2.49713754653931,3.13610005378723,-3.46293759346008,-3.29188752174377,-2.31577491760254,-0.62505000829697,6.90495014190674,20.5849514007568,6.08100032806396,11.1780004501343,8.30595016479492,-0.67443752288818,-2.93452501296997,-4.80507516860962,30.3660011291504,23.5660514831543,16.4010009765625,-1.53092503547668,-1.06053745746613,-0.7539125084877,2.18624997138977,0.91574996709824,0.11055000126362,14.6740503311157,8.12295055389404,1.29105007648468,0.2250000089407,2.31000018119812,2.2350001335144,-6.03528738021851,-5.05065011978149,-2.59380006790161,-4.25100040435791,-9.25695037841797,-18.6850509643555,-0.21628749370575,0.37372499704361,0.52648746967316,1.08185005187988,-0.7763249874115,-1.60352504253387,-8.80605030059814,-8.65799999237061,-8.70300006866455,2.23305010795593,2.0220000743866,-0.43905001878738,8.39313697814941,9.08819961547852,7.63565015792847,-11.788950920105,-3.24600005149841,13.4629507064819,SHAKE
-0.82225000858307,-1.68850004673004,-1.53092503547668,2.24001240730286,2.93755006790161,2.18624997138977,29.0460014343262,22.3080005645752,14.6740503311157,-7.34505033493042,-3.52095007896423,0.2250000089407,-6.14405012130737,-6.25886249542236,-6.03528738021851,2.68500018119812,-0.94395005702972,-4.25100040435791,-0.85030001401901,-0.72820001840591,-0.21628749370575,1.31642496585846,2.12024998664856,1.08185005187988,-8.78894996643066,-10.2970504760742,-8.80605030059814,1.14195001125336,0.69900006055832,2.23305010795593,4.63636255264282,6.92463731765747,8.39313697814941,-26.053050994873,-18.034049987793,-11.788950920105,0.25286251306534,1.07511246204376,1.9461749792099,-2.50387501716614,-2.67616248130798,-2.77873754501343,-1.36695003509521,5.4810004234314,18.1230010986328,1.28295004367828,6.59295034408569,9.56700038909912,0.73301249742508,-1.83383750915527,-3.85577487945557,31.0650005340576,27.3940505981445,20.1769504547119,-0.98106247186661,-0.78801250457764,-0.83943748474121,1.49105000495911,0.51370000839233,0.32683750987053,11.0160007476807,4.58100032806396,-1.79505014419556,2.51295018196106,2.15205001831055,1.90500009059906,-5.4733247756958,-3.40491247177124,0.3799124956131,-5.93805027008057,-15.6630010604858,-26.7640514373779,0.54724997282028,1.39878749847412,1.49407494068146,-0.76422500610352,-2.19106245040894,-2.35358738899231,-7.1100001335144,-6.95595026016235,-2.03205013275146,3.29100012779236,-0.18000000715256,0.73305004835129,7.05416250228882,3.95711255073547,0.63401252031326,12.5220003128052,24.8050518035889,30.8110523223877,SHAKE
-1.09835004806519,-2.14898753166199,-2.00612497329712,2.00667500495911,3.39088749885559,2.97921252250671,27.7090511322021,22.6740016937256,15.8640003204346,-6.85200023651123,-3.93195009231567,0.30705001950264,-5.84347486495972,-5.97781229019165,-5.95471239089966,4.65405035018921,0.05505000427365,-3.1189501285553,-0.92729997634888,-0.59496247768402,0.11838749796152,1.23090004920959,2.16548752784729,1.15390002727509,-6.76305055618286,-7.91100025177002,-6.79605054855347,1.52505004405975,1.2280501127243,2.21595001220703,4.20144987106323,6.47377490997314,7.73712491989136,-25.6939506530762,-17.9070014953613,-10.5610504150391,1.0396374464035,1.64559996128082,2.1513249874115,-3.08178758621216,-3.49098753929138,-3.06349992752075,-0.40905001759529,7.91895055770874,19.6609516143799,0.60600000619888,6.43995046615601,8.57400035858154,0.24681249260902,-4.16487503051758,-5.20203733444214,31.066951751709,17.8900508880615,9.72495079040527,-0.69519996643066,-0.28104999661446,-0.31528750061989,1.86615002155304,0.72503751516342,0.29012501239777,9.57300090789795,3.73395013809204,-1.86900007724762,2.52300000190735,1.87695014476776,0.79695004224777,-5.04446268081665,-3.45496249198914,0.07328750193119,-5.58195018768311,-11.8320007324219,-23.2819519042969,0.87835001945496,0.83311247825623,0.8758749961853,-0.39283749461174,-2.00419998168945,-3.254075050354,-4.58295011520386,-5.41800022125244,-3.9340500831604,-0.08505000174046,-2.53500008583069,-0.98895007371902,8.62276268005371,5.99128723144531,2.28332495689392,1.79205012321472,19.8370513916016,29.742000579834,SHAKE
-2.09041237831116,-1.67378747463226,-0.88948750495911,2.70297503471375,1.88333749771118,0.72022497653961,20.4769515991211,13.7029504776001,8.8210506439209,-1.71705007553101,1.28505003452301,2.83095002174377,-5.59913730621338,-5.70047473907471,-5.51485013961792,0.41400003433228,-1.63305008411407,-4.54500007629395,-1.38545000553131,-1.03482496738434,-0.27004998922348,1.11361253261566,1.81967496871948,0.44412499666214,-10.0579500198364,-9.07695007324219,-6.19995021820068,-0.37695002555847,1.75395011901855,3.3840000629425,6.36143732070923,8.64118766784668,9.88363742828369,-24.1909503936768,-16.0740013122559,-7.31400012969971,1.65907502174377,2.89176249504089,2.15380001068115,-3.29807496070862,-2.68221259117126,-1.17466247081757,1.06605005264282,12.5740509033203,23.8750514984131,5.7049503326416,8.67705059051514,-0.05400000140071,-1.11416244506836,-3.36833739280701,-5.00417518615723,28.1530513763428,22.9669513702393,15.3940505981445,-1.28411245346069,-0.74648749828339,-0.62191247940063,1.4470499753952,0.254787504673,-0.7262749671936,13.5160503387451,8.20200061798096,3.04995012283325,0.36405003070831,1.55805003643036,1.10805010795593,-6.02799987792969,-5.80800008773804,-4.53983736038208,-1.26195001602173,-4.37805032730103,-10.4370002746582,-1.10687494277954,0.00852499995381,0.69382500648499,2.19972491264343,1.13808751106262,-0.58574998378754,-8.92800045013428,-6.2790002822876,-6.99705028533936,4.73400020599365,5.71500015258789,3.82395029067993,8.8145751953125,9.6930627822876,8.7059497833252,-16.0980014801025,-6.74400043487549,8.12400054931641,SHAKE
-1.64821243286133,-1.28411245346069,-0.74648749828339,2.47335004806519,1.4470499753952,0.254787504673,19.8019504547119,13.5160503387451,8.20200061798096,-2.12805008888245,0.36405003070831,1.55805003643036,-5.99252510070801,-6.02799987792969,-5.80800008773804,0.99795007705688,-1.26195001602173,-4.37805032730103,-1.93159997463226,-1.10687494277954,0.00852499995381,1.35423743724823,2.19972491264343,1.13808751106262,-10.4020500183105,-8.92800045013428,-6.2790002822876,2.26395010948181,4.73400020599365,5.71500015258789,6.6643500328064,8.8145751953125,9.6930627822876,-24.9739513397217,-16.0980014801025,-6.74400043487549,1.8191249370575,2.78423738479614,2.21608757972717,-2.94002509117126,-2.57592487335205,-1.5020500421524,-1.05105006694794,9.94800090789795,21.4819507598877,4.13295030593872,7.3560004234314,0.90495002269745,-0.3603875041008,-2.69389986991882,-4.4763126373291,28.677001953125,24.0250511169434,17.3010005950928,-1.58702504634857,-1.07277500629425,-0.79048746824265,1.87714993953705,0.693274974823,-0.44165000319481,15.0090007781982,9.6709508895874,4.24905014038086,-0.00105000007898,1.70895004272461,2.29800009727478,-6.10486268997192,-5.57095003128052,-3.60043740272522,-1.35105001926422,-5.80395030975342,-14.4540004730225,-0.54133749008179,0.8038250207901,1.51236248016357,1.89667499065399,0.15702499449253,-1.18318748474121,-7.27500057220459,-6.64305019378662,-7.80795049667358,5.23605012893677,5.97105026245117,2.58495020866394,8.46161270141602,7.44507503509521,4.61560010910034,-11.8489503860474,12.1110010147095,22.7329502105713,SHAKE
-1.24987494945526,-1.81678748130798,-1.58702504634857,2.12877488136292,2.54416251182556,1.87714993953705,26.6650505065918,21.1810512542725,15.0090007781982,-6.72705030441284,-3.02295017242432,-0.00105000007898,-5.82518768310547,-6.02181243896484,-6.10486268997192,5.34600019454956,1.78800010681152,-1.35105001926422,-1.68355000019073,-1.64697504043579,-0.54133749008179,0.37564998865128,1.93572497367859,1.89667499065399,-6.84195041656494,-8.9209508895874,-7.27500057220459,0.57705003023148,1.83600008487701,5.23605012893677,4.04868745803833,6.86840009689331,8.46161270141602,-26.6749515533447,-19.8649501800537,-11.8489503860474,1.89241254329681,2.11956238746643,0.95287501811981,-2.72140002250671,-2.62611246109009,-0.94379997253418,2.86500024795532,15.7369508743286,23.5639514923096,3.93900012969971,5.08095026016235,-2.12595009803772,-1.13135004043579,-3.29738759994507,-4.70359992980957,28.4230518341064,22.2250518798828,14.4529504776001,-0.79420000314713,-0.31281250715256,-0.50214999914169,1.37871253490448,0.12883749604225,-0.64446252584457,13.0620002746582,7.65105056762695,1.8510000705719,2.83800005912781,2.60400009155273,1.43100011348724,-5.6736626625061,-4.49597501754761,-1.62854993343353,-3.07395005226135,-9.43905067443848,-19.4680500030518,-0.02571249939501,0.81111252307892,1.25826251506805,1.37376248836517,-0.62246251106262,-1.81486248970032,-5.77005004882813,-6.58305025100708,-6.60705041885376,4.65705013275146,3.26700019836426,1.29300010204315,8.12432479858398,7.17502498626709,4.51178741455078,-5.07705020904541,8.7649507522583,21.9049510955811,SHAKE
-1.57850003242493,-1.43797504901886,-0.79420000314713,2.75068759918213,2.58816242218018,1.37871253490448,24.6270008087158,18.8740501403809,13.0620002746582,-2.76705002784729,0.78300005197525,2.83800005912781,-5.52089977264404,-5.71271228790283,-5.6736626625061,3.35295009613037,0.30900001525879,-3.07395005226135,-1.51868748664856,-1.02382504940033,-0.02571249939501,1.45323753356934,2.67863750457764,1.37376248836517,-7.68600034713745,-7.36605024337768,-5.77005004882813,0.69195002317429,2.82600021362305,4.65705013275146,5.52461242675781,7.39750003814697,8.12432479858398,-22.5570011138916,-14.0809507369995,-5.07705020904541,2.19408750534058,2.8197124004364,2.03527498245239,-2.68111252784729,-2.5453999042511,-1.02561247348785,2.67900013923645,15.1699504852295,23.9449520111084,4.56405019760132,7.72005033493042,0.48600003123283,-1.0225875377655,-3.35486245155334,-4.93446254730225,27.8340015411377,23.8770008087158,15.8869504928589,-0.69643747806549,-1.18758749961853,-1.92431247234344,0.9560375213623,-0.03602499887347,0.08731249719858,11.8800001144409,5.22495031356812,-1.20600008964539,-1.83600008487701,-1.76205003261566,-1.41795003414154,-5.73594999313354,-3.88877487182617,-0.21133749186993,-5.33295011520386,-13.8199510574341,-24.7420520782471,0.48001250624657,1.48183751106262,1.94741249084473,-0.26455000042915,-2.01519989967346,-2.90702509880066,-4.86705017089844,-6.15000009536743,-4.71705007553101,5.10195016860962,2.11094999313354,0.37605002522469,8.66676235198975,3.13981246948242,0.22481249272823,-1.45395004749298,27.5760021209717,28.8040504455566,SHAKE
3.66753745079041,1.78736245632172,-0.66096252202988,-2.91802501678467,-0.67869997024536,1.49228751659393,17.9410514831543,25.443000793457,26.4790515899658,2.74005007743835,-8.75205039978027,-12.456000328064,-4.18068742752075,-5.6394248008728,-6.27591228485107,19.8780002593994,11.7730503082275,4.35495042800903,-3.34386253356934,-3.16428756713867,-2.05988740921021,0.89608746767044,1.82710003852844,2.62116241455078,0.00600000005215,-5.44905042648315,-7.71000051498413,1.50105011463165,3.41505026817322,6.27705049514771,2.86371254920959,5.87028741836548,7.57212495803833,-26.3880004882813,-20.998950958252,-12.5520009994507,2.18556237220764,1.902174949646,1.00787496566772,-2.61139988899231,-2.83497500419617,-2.29006242752075,-2.24700021743774,5.75895023345947,18.1540508270264,-3.46605014801025,-1.70205008983612,-2.14695000648499,0.25657498836517,-2.59613752365112,-4.61312484741211,31.7440509796143,27.7440013885498,18.5929508209229,-2.78795003890991,-2.03060007095337,-1.57121253013611,2.60535001754761,1.17218744754791,0.97184997797012,14.9040002822876,7.63200044631958,0.19005000591278,3.24495005607605,5.36100006103516,4.40805006027222,-5.28508758544922,-2.77571249008179,0.7928249835968,-7.72095060348511,-17.4580516815186,-24.6460514068604,2.38590002059937,2.58623743057251,2.14280009269714,-1.30171251296997,-2.314537525177,-2.47458744049072,-7.17900037765503,-7.59795045852661,-4.88205003738403,1.81905007362366,-2.54205012321472,-4.95405006408691,7.90569972991943,6.34672498703003,3.02733755111694,-0.0709500014782,14.5200004577637,28.8280506134033,SHAKE
-0.80877500772476,-2.69389986991882,-3.36586236953735,-0.02021249942482,2.57963752746582,3.53017497062683,26.0790004730225,27.2539520263672,21.9420013427734,-6.03795051574707,-6.8779501914978,-2.32695007324219,-5.80800008773804,-6.29791259765625,-6.24167490005493,9.88800048828125,3.19500017166138,-1.85595011711121,-0.95548748970032,-0.01718750037253,1.32054996490479,1.89186251163483,2.38177490234375,0.88880002498627,-5.00895023345947,-6.56595039367676,-6.10500049591064,4.47795009613037,4.21695041656494,4.6429500579834,4.15016269683838,6.3504376411438,7.62588739395142,-24.2920513153076,-17.0560512542725,-10.1929502487183,1.73593747615814,1.91922497749329,1.96322500705719,-2.78616237640381,-3.28336238861084,-2.68111252784729,0.47700002789497,9.89805030822754,21.070951461792,-2.97300004959106,2.73105001449585,4.09995031356812,-0.32504999637604,-2.90400004386902,-4.71831226348877,32.3910026550293,26.1240005493164,17.1289501190186,-1.60297501087189,-1.11787497997284,-0.91753751039505,2.5673999786377,1.24671244621277,0.71403747797012,13.546950340271,7.31400012969971,0.86295002698898,-0.07500000298023,2.07795000076294,1.26600003242493,-5.75299978256226,-4.45926237106323,-1.51978754997253,-3.6739501953125,-9.70200061798096,-20.0470504760742,0.43972501158714,1.01145005226135,1.23392498493195,-0.58588749170303,-2.06648755073547,-2.4342999458313,-5.40795040130615,-6.33900022506714,-5.51100015640259,-0.14205001294613,-1.26405000686646,-1.69800007343292,7.4988374710083,6.92092514038086,4.31997489929199,-4.67505025863647,7.2049503326416,22.7659511566162,SHAKE
2.19903755187988,0.81977498531342,-0.89196246862411,-2.47458744049072,0.75198751688004,3.24541258811951,23.4829502105713,27.892951965332,24.8370018005371,11.3430004119873,0.30000001192093,-3.91800022125244,-4.76107501983643,-5.52337503433228,-5.68713760375977,12.667950630188,4.93200016021729,-0.06105000153184,-0.34209999442101,0.36643749475479,0.75611251592636,2.31206250190735,2.13496255874634,0.83875000476837,-2.35500001907349,-4.98195028305054,-5.37900018692017,0.45495003461838,-1.29795002937317,-3.60705018043518,2.39085006713867,4.83917474746704,6.26738739013672,-22.0060501098633,-17.6989517211914,-11.1120004653931,0.60953748226166,1.30597496032715,1.85198748111725,-3.71951246261597,-4.32547473907471,-3.43722486495972,0.72105002403259,8.78595066070557,19.3000507354736,-0.12300000339746,5.02605009078979,7.64805030822754,0.67443752288818,-2.91871237754822,-5.08722496032715,33.8380508422852,31.0290012359619,19.1550006866455,-2.70366239547729,-2.00488758087158,-1.11911249160767,3.96989989280701,2.84968757629395,1.77457499504089,13.8750009536743,7.58700037002563,2.00595021247864,-1.27395009994507,2.34795022010803,3.08295011520386,-5.28632497787476,-4.23073768615723,-2.11117506027222,-4.96695041656494,-8.16300010681152,-15.4930505752563,0.40920001268387,0.2894375026226,0.27362498641014,0.13626250624657,-1.47152495384216,-2.45506238937378,-6.01095008850098,-6.14805030822754,-5.98200035095215,-3.17895007133484,-3.65700006484985,-2.74095010757446,7.3167872428894,7.99727487564087,7.212975025177,-10.032000541687,-2.77500009536743,10.2679500579834,SHAKE
-1.06301248073578,-2.52051258087158,-2.70366239547729,2.24729990959167,3.9028000831604,3.96989989280701,27.8400020599365,21.8479518890381,13.8750009536743,-5.26800012588501,-5.00895023345947,-1.27395009994507,-6.14515018463135,-5.85928726196289,-5.28632497787476,1.95000004768372,-1.86495006084442,-4.96695041656494,0.18191249668598,0.45691248774529,0.40920001268387,1.59500002861023,1.4777125120163,0.13626250624657,-5.89605045318604,-6.93195009231567,-6.01095008850098,0.67995005846024,-1.60395002365112,-3.17895007133484,4.01087474822998,6.00710010528564,7.3167872428894,-22.0879516601563,-15.5670003890991,-10.032000541687,0.57048749923706,1.47083747386932,2.55447506904602,-3.55822491645813,-3.73051238059998,-2.98773741722107,1.00905001163483,8.07194995880127,17.9359512329102,0.97695004940033,6.40905046463013,9.57405090332031,0.66577500104904,-2.19546246528625,-4.27473735809326,33.5580024719238,29.578950881958,20.6700000762939,-1.83383750915527,-1.20106244087219,-0.47409999370575,3.11107492446899,1.87220001220703,0.81551247835159,16.6819515228271,10.3549509048462,4.28894996643066,-1.99695014953613,1.83300006389618,2.95305013656616,-5.32303762435913,-4.30044984817505,-2.2210373878479,-3.28200006484985,-8.23995018005371,-15.3610506057739,0.08304999768734,0.39820000529289,0.65353751182556,0.38293749094009,-0.61269998550415,-1.39576244354248,-7.07595014572144,-6.90405035018921,-6.31695032119751,-0.40800002217293,-0.04395000264049,-0.43200001120567,6.28443765640259,6.97111225128174,6.88063764572144,-9.9529504776001,-4.00500011444092,5.16600036621094,SHAKE
-1.63473749160767,-1.83383750915527,-1.20106244087219,3.35788750648499,3.11107492446899,1.87220001220703,24.3780002593994,16.6819515228271,10.3549509048462,-6.23700046539307,-1.99695014953613,1.83300006389618,-5.6394248008728,-5.32303762435913,-4.30044984817505,0.12495000660419,-3.28200006484985,-8.23995018005371,-0.04523750022054,0.08304999768734,0.39820000529289,0.99989998340607,0.38293749094009,-0.61269998550415,-6.80295038223267,-7.07595014572144,-6.90405035018921,-1.00604999065399,-0.40800002217293,-0.04395000264049,5.09698724746704,6.28443765640259,6.97111225128174,-15.4279508590698,-9.9529504776001,-4.00500011444092,1.38407504558563,1.95593750476837,1.71641254425049,-2.6834499835968,-2.68963742256165,-1.4557124376297,8.30700016021729,16.9050006866455,24.2290515899658,3.1519501209259,5.29095029830933,1.93605005741119,-1.51126253604889,-5.08722496032715,-5.7164249420166,30.0340518951416,14.1250505447388,7.13805055618286,-1.04706251621246,-0.77824997901917,-0.75501251220703,0.94737499952316,0.43669998645782,0.74827498197556,6.14400005340576,1.12800002098084,-3.3550500869751,1.66605007648468,1.78305006027222,1.00995004177094,-3.95106244087219,-1.7080249786377,1.25950002670288,-9.70005035400391,-16.8709506988525,-22.0110015869141,0.20762500166893,0.28709998726845,0.39696249365807,-0.96332502365112,-1.67309999465942,-2.29748749732971,-6.31500053405762,-6.01395034790039,-3.08205008506775,-1.44405007362366,-1.8600001335144,-0.84600001573563,7.25078725814819,6.59601259231567,3.97416257858276,-1.86105012893677,9.03600025177002,23.6590518951416,SHAKE
-0.1515250056982,-1.55402493476868,-1.90355002880096,1.42023754119873,2.98897504806519,2.98650002479553,27.5100021362305,22.8529510498047,15.8179512023926,-5.36805009841919,-5.95395040512085,-2.61900019645691,-5.56118726730347,-5.44637489318848,-5.13369989395142,4.50600004196167,-0.05595000088215,-3.06195020675659,-0.79420000314713,-0.57062500715256,-0.16747500002384,1.43371248245239,2.18624997138977,1.39699995517731,-3.91500020027161,-5.86305046081543,-5.74305009841919,0.69900006055832,-0.4200000166893,-0.550950050354,2.63271260261536,4.96251249313354,6.35896253585815,-22.1070003509521,-17.7880516052246,-11.6550006866455,0.71953749656677,1.627312541008,2.31756258010864,-3.23331236839294,-3.82456254959106,-2.87278747558594,4.90694999694824,14.1030006408691,22.3099517822266,3.08505010604858,8.77995014190674,8.49795055389404,-0.57062500715256,-2.95652508735657,-4.67554998397827,31.3879508972168,25.0630512237549,16.4389514923096,-1.49297499656677,-1.04953753948212,-0.69396251440048,2.46111249923706,1.35918748378754,1.01461243629456,13.5210008621216,7.54395055770874,1.50195002555847,0.04800000041723,2.27100014686584,2.20395016670227,-5.22774982452393,-3.947350025177,-1.53573751449585,-3.91395020484924,-9.09899997711182,-17.0050506591797,0.22838750481606,-0.2065249979496,-0.80877500772476,0.09597499668598,-1.1368499994278,-1.64505004882813,-5.96805047988892,-5.69295024871826,-4.64205026626587,-4.41300010681152,-6.06900024414063,-5.54100036621094,6.93192481994629,6.36143732070923,4.54478740692139,-5.72505044937134,5.23305034637451,17.1379508972168,SHAKE
-0.73067498207092,-1.57121253013611,-1.49297499656677,2.49906253814697,3.27360010147095,2.46111249923706,26.8740005493164,20.3910007476807,13.5210008621216,-6.42600011825562,-3.49005007743835,0.04800000041723,-5.71395015716553,-5.63337516784668,-5.22774982452393,2.61795020103455,-0.78105002641678,-3.91395020484924,-0.02076249942183,0.22838750481606,0.22838750481606,2.1484375,1.73428750038147,0.09597499668598,-6.29595041275024,-6.79605054855347,-5.96805047988892,-0.71205002069473,-2.87505006790161,-4.41300010681152,4.45926237106323,6.23920011520386,6.93192481994629,-20.2480506896973,-13.3579502105713,-5.72505044937134,-0.59619998931885,0.68529999256134,1.07140004634857,-3.23812508583069,-3.78427505493164,-2.06896257400513,3.88995027542114,14.8560009002686,22.6879501342773,3.84795022010803,12.1129503250122,9.32805061340332,-0.66467499732971,-2.74766254425049,-4.2198748588562,26.9470520019531,20.9719505310059,13.278000831604,-0.52786248922348,0.05486249923706,0.43367499113083,2.18129992485046,1.21371245384216,0.6542249917984,13.3080005645752,7.37895011901855,2.11395001411438,3.73095011711121,3.31005024909973,2.24505019187927,-4.49831247329712,-3.34757494926453,-1.32687497138977,-4.68195009231567,-9.4150505065918,-15.2419509887695,-0.28228750824928,-0.20157499611378,-0.1552374958992,-0.06531249731779,-1.35671246051788,-2.01148748397827,-5.43900012969971,-4.97505044937134,-4.44405031204224,-3.88905024528503,-2.94705009460449,-2.10900020599365,6.85616254806519,6.94539976119995,5.48061227798462,-7.11495018005371,1.50300002098084,14.9029502868652,SHAKE
-0.98353749513626,-1.00553750991821,-0.52786248922348,2.57358741760254,2.94854998588562,2.18129992485046,25.4110507965088,19.276050567627,13.3080005645752,1.28295004367828,2.84295010566711,3.73095011711121,-4.9919376373291,-4.9308876991272,-4.49831247329712,1.57200002670288,-1.59495007991791,-4.68195009231567,0.08662500232458,-0.20047499239445,-0.28228750824928,1.31518745422363,1.13313746452332,-0.06531249731779,-4.81995010375977,-5.81295013427734,-5.43900012969971,-2.86800003051758,-4.32300043106079,-3.88905024528503,4.08416271209717,5.89833736419678,6.85616254806519,-19.159049987793,-13.6120510101318,-7.11495018005371,0.22591249644756,1.27902495861053,1.902174949646,-3.26617503166199,-3.90513753890991,-2.81421256065369,4.0639500617981,12.7549505233765,21.3409519195557,3.17295026779175,10.2900009155273,9.43800067901611,-0.19676250219345,-2.50332498550415,-4.25287485122681,28.7320518493652,24.4150505065918,16.5469512939453,-1.0592999458313,-0.42405000329018,-0.00618749996647,2.92173743247986,1.68162500858307,1.0060875415802,14.22705078125,8.19900035858154,2.46300005912781,2.01104998588562,3.03705024719238,1.88595008850098,-4.75255012512207,-3.50762486457825,-1.22292494773865,-5.13600015640259,-10.2070503234863,-17.659049987793,-0.34457498788834,-0.06118749827147,0.12333749979734,-0.25464999675751,-1.41652500629425,-2.15324997901917,-6.22695016860962,-6.37695026397705,-5.06805038452148,-2.15205001831055,-1.96800005435944,-0.75495004653931,7.24226236343384,6.82439994812012,4.4580249786377,-5.10105037689209,6.55005025863647,20.9569511413574,SHAKE
-0.88824999332428,-1.38297498226166,-1.0592999458313,2.54663753509521,3.52274990081787,2.92173743247986,26.4139518737793,20.6400012969971,14.22705078125,-2.52795004844666,-0.14505000412464,2.01104998588562,-5.35108757019043,-5.25332498550415,-4.75255012512207,2.71395015716553,-1.45905005931854,-5.13600015640259,-0.37633749842644,-0.59743750095367,-0.34457498788834,1.78186249732971,1.31394994258881,-0.25464999675751,-5.50395011901855,-6.88695049285889,-6.22695016860962,-3.26700019836426,-4.04295015335083,-2.15205001831055,4.46531248092651,6.3161997795105,7.24226236343384,-19.1710510253906,-12.9210004806519,-5.10105037689209,0.9589250087738,2.2760374546051,2.04503750801086,-3.56551241874695,-3.4568874835968,-1.6328125,4.82295036315918,16.125,23.6929512023926,5.83695030212402,11.8210506439209,4.38705015182495,-0.93348747491837,-3.07999992370605,-4.64254999160767,27.4180507659912,22.5460510253906,14.9059505462646,-0.78196251392365,-0.27610000967979,-0.02694999985397,1.8185750246048,0.78622502088547,0.28888750076294,13.1119508743286,7.27800035476685,1.07595002651215,1.00995004177094,1.79505014419556,1.09905004501343,-5.46713733673096,-4.35668754577637,-1.8191249370575,-3.56400012969971,-9.39795017242432,-18.7620010375977,-0.49967500567436,-0.03066249936819,0.30043751001358,-0.26565000414848,-1.54604995250702,-2.18020009994507,-6.38205051422119,-6.47805023193359,-5.55900049209595,-1.33605003356934,-0.83400005102158,-0.3120000064373,7.50983762741089,7.0602126121521,4.83188724517822,-6.67305040359497,5.40105009078979,19.8679504394531,SHAKE
-0.88701248168945,-1.1032999753952,-0.78196251392365,2.63587498664856,2.73363757133484,1.8185750246048,25.3729515075684,19.2280502319336,13.1119508743286,-3.307950258255,-0.50295001268387,1.00995004177094,-5.54537487030029,-5.67613744735718,-5.46713733673096,3.06795024871826,0.01905000023544,-3.56400012969971,-0.57791250944138,-0.76848751306534,-0.49967500567436,1.44471251964569,1.35918748378754,-0.26565000414848,-7.5949501991272,-7.81305027008057,-6.38205051422119,-2.92305016517639,-3.35805010795593,-1.33605003356934,4.63636255264282,6.5922999382019,7.50983762741089,-21.9130516052246,-14.8800010681152,-6.67305040359497,1.34021246433258,2.36761260032654,1.9852249622345,-3.67798757553101,-3.71456241607666,-2.0934374332428,4.82805013656616,15.5670003890991,23.988000869751,5.18805027008057,9.71100044250488,3.33405017852783,-1.02753746509552,-3.30838751792908,-4.78665018081665,28.5160522460938,22.2019519805908,13.195050239563,-2.01836252212524,-1.49545001983643,-0.87229996919632,2.47582507133484,1.59623754024506,1.31023752689362,11.6520004272461,5.81100034713745,0.13500000536442,0.24705001711845,2.74305009841919,2.94405007362366,-4.50202512741089,-2.80390000343323,-0.0622874982655,-6.22005033493042,-12.1050004959106,-19.8190517425537,0.5655375123024,0.30662500858307,0.16609999537468,-0.86432498693466,-1.94191253185272,-2.33034992218018,-4.80795001983643,-5.37195014953613,-4.01100015640259,-3.96795010566711,-4.23405027389526,-2.47305011749268,7.47188758850098,6.41643762588501,3.63082504272461,-2.36100006103516,11.017050743103,24.4960517883301,SHAKE
0.68406248092651,-1.42697501182556,-2.72442507743835,-0.92056250572205,1.9016250371933,3.4568874835968,25.7850017547607,27.6300010681152,22.2979507446289,-0.06300000101328,-4.99305009841919,-2.89905023574829,-5.23022508621216,-5.49889993667603,-5.31080007553101,10.4950504302979,3.11805009841919,-1.45905005931854,-0.30305001139641,0.39338749647141,1.04692494869232,0.82651251554489,0.71403747797012,-0.30841249227524,-1.52700006961823,-4.40595006942749,-7.08600044250488,3.73800015449524,2.32905006408691,-1.89405012130737,4.20502519607544,6.03886270523071,7.03463745117188,-20.1139507293701,-14.5240507125854,-7.35900020599365,0.42872500419617,1.96817493438721,2.5972375869751,-2.71040010452271,-3.81851243972778,-2.94854998588562,3.80595016479492,15.2419509887695,22.8370513916016,3.89400029182434,12.0439510345459,7.86600017547607,-0.69643747806549,-5.15322494506836,-6.05481243133545,31.6300506591797,17.4900016784668,8.98995018005371,-1.5772625207901,-1.03729999065399,-0.43862500786781,2.08724999427795,1.35794997215271,1.48252499103546,5.55495023727417,-0.59805005788803,-5.95905017852783,1.29300010204315,2.47200012207031,1.82595014572144,-3.76653742790222,-0.39462500810623,2.88323760032654,-13.9380006790161,-23.2339515686035,-24.4069519042969,0.18438750505447,0.20157499611378,0.08662500232458,-1.60228753089905,-2.10443758964539,-2.62721252441406,-7.1980504989624,-5.02995014190674,0.0949500054121,-2.64705014228821,-1.86300003528595,0.16800001263618,5.83605003356934,3.18738746643066,0.03052499890327,10.2990007400513,23.074951171875,28.94700050354,SHAKE
0.32986250519753,-0.84425002336502,-1.50150001049042,-0.40988749265671,2.26682496070862,3.53017497062683,26.9689521789551,27.3450012207031,21.256950378418,5.44695043563843,1.63995003700256,0.74895006418228,-5.19474983215332,-5.62842512130737,-5.49408769607544,8.00699996948242,2.0029501914978,-2.60205006599426,-0.42515000700951,-0.04042499884963,0.47767499089241,1.80015003681183,1.70733749866486,0.10202500224113,-4.03200006484985,-5.27205038070679,-5.71395015716553,-0.22095000743866,-1.42500007152557,-1.71405005455017,3.92782497406006,5.64300012588501,6.77187490463257,-20.4529514312744,-14.4810009002686,-8.97000026702881,1.00168752670288,1.20945000648499,1.47949993610382,-3.80984997749329,-4.10671234130859,-2.68221259117126,2.7240002155304,13.6770009994507,22.9399509429932,-0.91995006799698,5.62905025482178,8.33700084686279,-0.89924997091293,-3.15933752059937,-4.74154996871948,31.2319507598877,22.9620018005371,13.7899503707886,-1.4942125082016,-1.41597497463226,-1.22292494773865,2.80197501182556,2.2815375328064,2.21320009231567,11.8390502929688,4.64100027084351,-1.26600003242493,-0.42705002427101,0.32805001735687,0.02400000020862,-3.9010124206543,-1.50026249885559,1.38545000553131,-10.6519508361816,-17.3620510101318,-20.9220008850098,0.79653751850128,0.78677499294281,0.58025002479553,-1.5020500421524,-2.32430005073547,-3.17336249351501,-7.1100001335144,-6.01395034790039,-2.38394999504089,-3.06900024414063,-3.63300013542175,-2.12100005149841,6.98816251754761,5.29361248016357,2.0622251033783,2.04795002937317,17.7580509185791,30.5650520324707,SHAKE
0.24310000240803,-1.21440005302429,-1.84607493877411,1.30666244029999,3.21131253242493,3.49098753929138,27.2250003814697,22.6330509185791,15.8419504165649,-1.27905011177063,-3.83205008506775,-1.79595005512238,-5.48185014724731,-5.45380020141602,-4.83312511444092,3.39300012588501,-1.44405007362366,-5.7199501991272,0.21367499232292,0.88811248540878,1.06768751144409,1.56681251525879,0.60774999856949,-1.01337504386902,-4.37400007247925,-5.5090503692627,-5.77005004882813,1.80705010890961,-0.65400004386902,-2.9800500869751,3.51848745346069,5.30213737487793,6.48477506637573,-17.6800498962402,-13.5160503387451,-7.29495048522949,0.34938749670982,1.2974499464035,1.46726250648499,-2.39511251449585,-3.13059997558594,-2.08724999427795,4.9830002784729,15.7080011367798,23.8560009002686,1.57995009422302,8.99505043029785,6.10200023651123,-1.03111255168915,-3.2155749797821,-4.74636268615723,27.8269519805908,22.1200504302979,13.5889511108398,-1.4832124710083,-0.9872499704361,-0.56209999322891,2.68221259117126,1.70004999637604,1.27847504615784,12.0640506744385,6.05505037307739,-0.28005000948906,0.11100000888109,2.04900002479553,1.72095012664795,-5.01146268844604,-3.47819995880127,-0.63291251659393,-5.73705005645752,-12.0040502548218,-20.8909511566162,0.16609999537468,0.11481250077486,0.11481250077486,-1.05132496356964,-2.07143759727478,-2.53563737869263,-5.7529501914978,-6.22695016860962,-4.875,-3.59295010566711,-3.47805023193359,-2.18099999427795,7.46955013275146,6.91239976882935,4.59731245040894,-5.56995010375977,7.12095022201538,21.385950088501,SHAKE
-1.00801253318787,-1.59554994106293,-1.4832124710083,2.70187497138977,3.33093738555908,2.68221259117126,25.3330516815186,18.6589508056641,12.0640506744385,-3.1360502243042,-1.85295009613037,0.11100000888109,-5.59542512893677,-5.54785013198853,-5.01146268844604,1.182000041008,-2.09295010566711,-5.73705005645752,0.16486249864101,0.26743748784065,0.16609999537468,2.03843760490417,1.02561247348785,-1.05132496356964,-7.37805032730103,-6.72195053100586,-5.7529501914978,-1.15200006961823,-2.74605011940002,-3.59295010566711,5.15075016021729,6.65706253051758,7.46955013275146,-19.2450008392334,-12.5380506515503,-5.56995010375977,1.111687541008,2.42632508277893,2.14774990081787,-3.87103748321533,-4.15566253662109,-2.2375373840332,5.71095037460327,16.6219501495361,25.1170520782471,5.62395048141479,11.0940008163452,3.54000020027161,-1.51978754997253,-3.77272486686707,-5.13369989395142,30.2029514312744,22.1899509429932,12.8860502243042,-2.13441252708435,-1.638312458992,-1.14730000495911,2.62968754768372,1.74281251430511,1.47152495384216,11.2669506072998,5.4190502166748,-0.30405002832413,-0.04395000264049,1.87200009822845,2.27595019340515,-5.10193729400635,-3.28515005111694,-0.15633749961853,-5.90700006484985,-13.863000869751,-22.6810512542725,0.99440002441406,1.09340000152588,0.92111247777939,-0.89732497930527,-1.65481245517731,-2.0237250328064,-6.48495054244995,-7.27695035934448,-5.84805011749268,-0.3120000064373,-2.19300007820129,-2.68095016479492,7.9507999420166,7.470787525177,5.04570007324219,-5.86395025253296,6.05400037765503,21.4429512023926,SHAKE
-1.54921245574951,-2.30903744697571,-2.13441252708435,2.93273758888245,3.38112497329712,2.62968754768372,24.9090003967285,17.776050567627,11.2669506072998,-6.76605033874512,-3.7390501499176,-0.04395000264049,-5.85928726196289,-5.70913743972778,-5.10193729400635,0.96705007553101,-2.31495022773743,-5.90700006484985,-0.05018749833107,0.55343747138977,0.99440002441406,1.89543747901917,0.80575001239777,-0.89732497930527,-7.4850001335144,-6.82200050354004,-6.48495054244995,1.3050000667572,0.92895007133484,-0.3120000064373,5.72247505187988,7.16897487640381,7.9507999420166,-19.5420017242432,-12.8299503326416,-5.86395025253296,1.37073743343353,2.73294997215271,2.74271249771118,-3.02554988861084,-3.40917491912842,-2.14720010757446,4.14300012588501,14.8639507293701,23.8230018615723,3.03000020980835,9.10095024108887,2.40300011634827,-1.22416245937347,-3.50267505645752,-5.12269973754883,30.1699504852295,23.6730003356934,15.082950592041,-2.66337490081787,-2.35922503471375,-2.06236243247986,2.47335004806519,1.51304996013641,0.75927501916885,11.8270502090454,6.52905035018921,1.20000004768372,-3.27000021934509,0.05295000225306,1.92900013923645,-5.7934250831604,-4.51302480697632,-1.8130749464035,-4.94505023956299,-10.6110000610352,-19.594051361084,0.09404999762774,0.51424998044968,0.62672501802444,0.62246251106262,-1.00361251831055,-1.890625,-7.89405059814453,-8.0910005569458,-7.59795045852661,2.04900002479553,0.49305000901222,-0.61095005273819,7.61612510681152,8.06575012207031,6.78534984588623,-9.38400077819824,-1.05405008792877,13.1560506820679,SHAKE
-2.49851250648499,-2.66337490081787,-2.35922503471375,3.01578760147095,2.47335004806519,1.51304996013641,18.4939517974854,11.8270502090454,6.52905035018921,-7.30395030975342,-3.27000021934509,0.05295000225306,-6.05976247787476,-5.7934250831604,-4.51302480697632,-1.73895013332367,-4.94505023956299,-10.6110000610352,-0.60114997625351,0.09404999762774,0.51424998044968,2.01396250724792,0.62246251106262,-1.00361251831055,-8.53305053710938,-7.89405059814453,-8.0910005569458,2.43900012969971,2.04900002479553,0.49305000901222,6.42867517471313,7.61612510681152,8.06575012207031,-15.6010503768921,-9.38400077819824,-1.05405008792877,2.10732507705688,3.01028752326965,1.77017498016357,-3.24788737297058,-3.20031237602234,-1.39094996452332,7.71105051040649,18.7189502716064,25.7490005493164,7.91895055770874,8.09805011749268,-3.24795007705688,-1.80083751678467,-4.00234985351563,-5.31327486038208,29.4949512481689,22.4500503540039,13.5079507827759,-1.94260001182556,-1.47468745708466,-1.43550002574921,1.65604996681213,0.46117499470711,-0.04826249927282,11.121000289917,5.7199501991272,-0.26295000314713,0.12000000476837,2.05395007133484,1.80495011806488,-5.71999979019165,-3.87282490730286,-0.29438748955727,-5.49300003051758,-14.413950920105,-24.877950668335,0.27238750457764,0.99316251277924,1.32426249980927,0.00797499995679,-1.21261250972748,-1.91509997844696,-7.8870005607605,-8.70795059204102,-6.97605037689209,4.91505002975464,2.60895013809204,1.54095005989075,7.70041227340698,6.69982481002808,4.38473749160767,-3.58305025100708,9.4980001449585,21.1750507354736,SHAKE
-1.96459996700287,-2.31522488594055,-1.94260001182556,2.66268754005432,2.66021251678467,1.65604996681213,23.623950958252,17.0410499572754,11.121000289917,-7.70595026016235,-3.46800017356873,0.12000000476837,-5.95347499847412,-6.06704998016357,-5.71999979019165,2.33100008964539,-0.81495004892349,-5.49300003051758,-1.70183753967285,-0.83943748474121,0.27238750457764,1.58633744716644,1.58757495880127,0.00797499995679,-9.00195026397705,-7.97595024108887,-7.8870005607605,1.3860000371933,4.07595014572144,4.91505002975464,6.02057504653931,7.2899751663208,7.70041227340698,-20.2860012054443,-12.0570001602173,-3.58305025100708,2.25885009765625,2.90881252288818,2.03775000572205,-2.73968744277954,-2.58334994316101,-0.9620875120163,5.54805040359497,17.5390510559082,24.877950668335,6.35400009155273,7.59105014801025,-0.65895003080368,-1.38421249389648,-3.66877508163452,-5.02974987030029,28.5570011138916,22.336051940918,13.5679502487183,-1.4441624879837,-1.3281124830246,-2.08917498588562,1.48128747940063,0.39393749833107,0.38060000538826,11.9389505386353,5.6650505065918,-6.97095012664795,-1.33905005455017,0.05295000225306,0.34005001187325,-2.54113745689392,0.93334996700287,4.23197507858276,-19.0080013275146,-25.0260009765625,-24.2059516906738,1.53202497959137,1.86064994335175,2.34561252593994,-1.33471250534058,-2.33282494544983,-2.73239994049072,-7.68600034713745,-4.41795015335083,1.42695009708405,3.29100012779236,1.4190000295639,2.43600010871887,5.38408756256104,2.71713757514954,-0.08304999768734,15.3240003585815,24.984001159668,28.4160022735596,SHAKE
0.25038748979568,-1.3501124382019,-1.91688752174377,0.1545500010252,1.87343752384186,2.34753751754761,27.3229503631592,26.5980014801025,21.0250511169434,-6.69600009918213,-7.25595045089722,-3.62100028991699,-5.25332498550415,-5.58195018768311,-5.79947519302368,9.97605037689209,4.10400009155273,-0.13800001144409,-1.77154994010925,-1.92307496070862,-0.9675874710083,-0.3438875079155,1.0451375246048,1.38228750228882,-5.09700012207031,-8.68395042419434,-8.02095031738281,1.125,1.64400005340576,5.7529501914978,3.36586236953735,5.79947519302368,6.26738739013672,-26.0650520324707,-19.465051651001,-6.6340503692627,2.23932504653931,1.25826251506805,-0.36286249756813,-2.47335004806519,-1.82338750362396,-0.49169999361038,2.41800022125244,15.8179512023926,24.9540004730225,1.02705001831055,-1.36995005607605,-2.38905000686646,-1.25716245174408,-3.86911249160767,-5.41832494735718,29.5090522766113,23.4120006561279,13.8409509658813,-0.80396246910095,-0.07699999958277,-0.03671250119805,2.14596247673035,0.70798748731613,-0.05431250110269,12.7120504379272,5.42805004119873,-2.72595024108887,4.16700029373169,4.08494997024536,2.33805012702942,-4.35778760910034,-1.0616375207901,2.89052510261536,-13.7130002975464,-24.8280010223389,-29.1709518432617,1.20697498321533,1.92417502403259,2.65718746185303,-0.78856247663498,-2.02743744850159,-2.78368759155273,-11.2999505996704,-9.22005081176758,-3.1279501914978,3.5179500579834,1.72605013847351,1.73100006580353,6.50801229476929,4.18921232223511,0.95163750648499,10.4860506057739,21.0630016326904,29.9089508056641,SHAKE
0.60224997997284,-0.40933749079704,-1.02629995346069,-0.19731250405312,0.34636250138283,0.69574999809265,28.3159503936768,28.5559520721436,23.2030506134033,-3.26700019836426,-3.78900027275085,-2.68305015563965,-5.10069990158081,-5.44637489318848,-5.62842512130737,10.0380001068115,5.19300031661987,0.83295005559921,-1.37321245670319,-1.87907493114471,-0.94682496786118,-1.64257502555847,-0.14354999363422,1.51181244850159,-6.22395038604736,-12.7159509658813,-12.1440010070801,4.44195032119751,4.91805028915405,9.48105049133301,4.62178754806519,7.23126268386841,7.75417518615723,-29.5129508972168,-19.9339504241943,-6.01695013046265,2.79881238937378,2.27356243133545,0.4959625005722,-2.15572500228882,-1.21742498874664,-0.16554999351501,-0.36195001006126,11.3820009231567,22.3050003051758,1.75200009346008,-1.1779500246048,-6.50205039978027,-0.68419998884201,-3.14352488517761,-4.78417491912842,26.2770004272461,21.9979515075684,15.0349502563477,-1.43316245079041,-0.8259624838829,-0.75625002384186,0.66522496938705,-0.39036250114441,-1.22237503528595,14.5740003585815,7.14600038528442,-1.55805003643036,3.331050157547,4.84605026245117,5.5570502281189,-5.08227491378784,-1.74459993839264,3.40243744850159,-10.9320001602173,-24.435001373291,-33.7129516601563,2.28208756446838,3.50872492790222,3.89468741416931,-0.44412499666214,-1.59252500534058,-1.51923751831055,-10.5580501556396,-8.6650505065918,-0.43095001578331,10.6489505767822,7.78500032424927,2.53695011138916,4.82817506790161,2.40308737754822,-2.88447499275208,18.8989505767822,23.3380508422852,22.4190006256104,SHAKE
-0.45938751101494,1.71393752098084,2.76347494125366,1.7158625125885,0.41841250658035,-0.85703748464584,-12.4740009307861,-10.7779502868652,-11.0719509124756,12.2040004730225,13.3270502090454,6.4350004196167,8.0144624710083,7.36202478408813,5.55637502670288,-9.41295051574707,4.03200006484985,16.0609512329102,1.69688749313354,0.50077497959137,-0.8369625210762,-0.51012498140335,0.25231251120567,0.57351249456406,20.9179515838623,26.8260021209717,26.730001449585,-3.99195027351379,-7.00005054473877,-8.06700038909912,-4.7621750831604,-5.98152494430542,-6.67053747177124,17.8939514160156,12.4500007629395,7.44000053405762,-3.43309998512268,-3.34509992599487,-1.90836250782013,0.73122501373291,1.03908753395081,1.1281875371933,-0.97395002841949,-11.6419506072998,-13.6159505844116,2.87400007247925,5.27895021438599,11.8069505691528,2.51184988021851,6.76582479476929,8.54590034484863,-34.4400024414063,-27.8380508422852,-12.7240505218506,3.5795373916626,3.53677487373352,2.76952505111694,-1.96391248703003,-1.35918748378754,-0.42583748698235,-6.42495012283325,4.53600025177002,16.1719512939453,3.01095008850098,-0.75195002555847,-6.32100009918213,0.78072500228882,-1.95346248149872,-4.00468730926514,28.8730506896973,25.8790512084961,20.3830509185791,-3.36833739280701,-3.85577487945557,-3.64567494392395,0.76903748512268,0.77880001068115,0.54793751239777,18.1350002288818,11.0610008239746,3.3030002117157,-7.02195024490356,-1.97505009174347,4.52805042266846,-7.121262550354,-5.14098739624023,-0.38486251235008,-2.92995023727417,-17.6899509429932,-32.9250030517578,SHAKE
-0.05499999970198,1.72383749485016,2.46537494659424,0.61269998550415,-0.03973750025034,-0.75322496891022,-13.5060005187988,-12.1200008392334,-12.4150505065918,15.0370502471924,14.4319505691528,8.78999996185303,8.36989974975586,7.06763744354248,5.40980005264282,-6.33495044708252,6.80295038223267,15.1690511703491,2.38232493400574,1.41102504730225,0.32615000009537,0.46598750352859,0.74703747034073,0.08731249719858,18.373950958252,24.1600513458252,26.6460018157959,-4.12200021743774,-8.53395080566406,-9.56295013427734,-3.98639988899231,-5.47937488555908,-6.58624982833862,21.5700016021729,16.4149513244629,12.517050743103,-3.83872509002686,-3.84972500801086,-2.97247505187988,0.70179998874664,0.81303751468658,1.38228750228882,2.34405016899109,-10.16100025177,-18.6270008087158,1.07205009460449,5.93505048751831,10.7899503707886,0.0354750007391,6.03281259536743,8.76700019836426,-39.154052734375,-39.0060005187988,-21.0349502563477,4.06092500686646,3.55025005340576,2.32113742828369,-2.64811253547669,-1.96638751029968,-0.09597499668598,-11.6110506057739,-1.16805005073547,10.9800004959106,4.73805046081543,-0.87405002117157,-5.44005012512207,3.39514994621277,0.32381248474121,-2.4091374874115,22.8210010528564,28.3420505523682,25.1590518951416,-0.88220000267029,-2.08546257019043,-2.97618746757507,-0.31583750247955,0.08236250281334,0.3768875002861,22.9560012817383,16.9170017242432,9.84105014801025,-7.71795034408569,-6.52905035018921,-2.83905005455017,-7.61364984512329,-7.60636234283447,-5.26061248779297,6.42000007629395,-3.12600016593933,-20.4970512390137,SHAKE
-0.65243750810623,1.18992495536804,2.30780005455017,1.35547494888306,-0.2743124961853,-1.58647501468658,-13.3690509796143,-11.7250509262085,-12.0769510269165,12.2620506286621,13.1179504394531,8.80905055999756,7.85564994812012,6.83306264877319,5.95704984664917,-4.43805027008057,5.79105043411255,11.6389503479004,0.95782500505447,0.75501251220703,0.55948752164841,0.59922498464584,0.44522500038147,-0.29878750443459,17.6869506835938,24.4330520629883,28.0750522613525,-4.54305028915405,-4.74795007705688,-5.45400047302246,-3.7725875377655,-5.48294973373413,-7.00892496109009,24.4129505157471,19.8589515686035,16.0540504455566,-4.06339979171753,-4.13558769226074,-2.90289998054504,1.47152495384216,2.25224995613098,2.30835008621216,2.29395008087158,-10.2370500564575,-19.7869510650635,-0.66600000858307,5.0110502243042,10.5940504074097,-0.8758749961853,4.81841230392456,8.04251289367676,-40.498950958252,-40.0300521850586,-25.6630516052246,3.02733755111694,2.05480003356934,1.08721244335175,-1.79038751125336,-0.98051249980927,0.03973750025034,-15.0990009307861,-7.51395034790039,4.19805002212524,2.46000003814697,-2.18099999427795,-3.29595017433167,5.17880010604858,2.54484987258911,-0.49843749403954,19.6270503997803,28.312952041626,30.553050994873,-0.09295000135899,-1.66526246070862,-3.40614986419678,-0.47107499837875,-0.36712500452995,0.02859999984503,27.2470512390137,22.5970516204834,15.3370504379272,-8.88300037384033,-9.99900054931641,-7.52400016784668,-7.7076997756958,-8.70705032348633,-8.33084964752197,12.1080007553101,5.20005035400391,-9.70905017852783,SHAKE
2.34189987182617,3.28020000457764,3.02733755111694,-1.2919499874115,-1.79162502288818,-1.79038751125336,-16.9300498962402,-17.284049987793,-15.0990009307861,15.9439506530762,8.15295028686523,2.46000003814697,7.41454982757568,6.6657247543335,5.17880010604858,4.81500005722046,10.5649509429932,19.6270503997803,0.97968751192093,0.7732999920845,-0.09295000135899,0.30841249227524,-0.19978749752045,-0.47107499837875,23.0329513549805,27.5389518737793,27.2470512390137,-3.72195029258728,-6.50205039978027,-8.88300037384033,-5.07980012893677,-6.46648740768433,-7.7076997756958,21.1080017089844,15.939001083374,12.1080007553101,-4.92112493515015,-3.62491250038147,-0.61091250181198,1.92596244812012,2.61016249656677,1.33223748207092,-4.79805040359497,-17.8180503845215,-20.2110004425049,4.33905029296875,12.2329502105713,19.9410018920898,2.00612497329712,6.08409976959229,7.55878734588623,-43.1329536437988,-31.4700012207031,-15.2059507369995,2.35290002822876,1.60036253929138,1.61988747119904,-0.74717497825623,-0.09597499668598,0.26688748598099,-7.53795051574707,1.52805006504059,11.0350503921509,0.24000000953674,-0.2790000140667,0.59400004148483,4.57049989700317,1.58578753471375,-1.08116245269775,20.1840000152588,28.6939506530762,26.3149509429932,0.62672501802444,-2.57413744926453,-4.96636247634888,-1.68904995918274,-0.45759999752045,0.89003747701645,25.3609504699707,20.4030017852783,12.3199510574341,-17.7439498901367,-18.5170516967773,-11.5830001831055,-8.12803745269775,-8.64723777770996,-6.34425020217896,9.52905082702637,-2.28900003433228,-21.7620010375977,SHAKE
3.04328751564026,3.40120005607605,2.26737499237061,-1.35066246986389,-1.41171252727509,-0.74098747968674,-17.121000289917,-17.0710506439209,-13.7740507125854,16.8780002593994,7.22895050048828,-0.07800000160933,7.04811239242554,6.58748769760132,5.67490005493164,2.31195020675659,8.91600036621094,16.2580509185791,1.46478748321533,1.82641243934631,0.88082498311996,-0.12155000120401,-0.99879997968674,-0.98532497882843,21.6859512329102,27.0700511932373,27.820951461792,2.36700010299683,-2.58300018310547,-9.07005023956299,-4.14892482757568,-5.75904989242554,-6.84639978408813,21.1339511871338,16.9320011138916,11.2249507904053,-3.97058749198914,-2.93218755722046,-0.96277499198914,1.10261249542236,1.22718751430511,1.1978999376297,0.55200004577637,-10.2559509277344,-18.7410011291504,4.48695039749146,10.8190507888794,15.1549510955811,-0.4129124879837,4.59731245040894,7.14092493057251,-37.6939506530762,-36.7990531921387,-21.5230503082275,1.46850001811981,1.14221251010895,1.07140004634857,-1.05132496356964,-0.57969999313354,-0.11921250075102,-10.8780002593994,-1.1539500951767,8.625,3.47295022010803,1.87905013561249,2.03895020484924,4.4299750328064,1.68959999084473,-0.92729997634888,18.8370018005371,26.1859512329102,25.3120517730713,0.63401252031326,-0.88701248168945,-2.25527501106262,-0.58588749170303,-0.07768750190735,0.42693749070168,25.8709506988525,21.127950668335,14.6959505081177,-7.05000019073486,-8.41200065612793,-5.62905025482178,-6.64977502822876,-7.31073760986328,-6.7413501739502,8.56005001068115,1.71300005912781,-11.1690006256104,SHAKE
1.99993753433228,1.74693751335144,1.46850001811981,-0.80327498912811,-0.93651247024536,-1.05132496356964,-15.5850009918213,-14.9940004348755,-10.8780002593994,10.6560001373291,4.82505035400391,3.47295022010803,6.49591255187988,6.01700019836426,4.4299750328064,3.71400022506714,9.35205078125,18.8370018005371,1.82270002365112,1.60407495498657,0.63401252031326,-0.52236247062683,-0.76051247119904,-0.58588749170303,23.3389511108398,27.0960006713867,25.8709506988525,0.19695000350475,-3.54495024681091,-7.05000019073486,-4.51412487030029,-5.71395015716553,-6.64977502822876,17.1360015869141,12.8119506835938,8.56005001068115,-3.11299991607666,-2.25169992446899,-0.29081249237061,1.06342494487762,0.89237499237061,0.27059999108315,-3.00105023384094,-13.9819507598877,-15.3079509735107,3.78600025177002,9.32295036315918,14.5920009613037,2.66337490081787,6.87211227416992,8.50685024261475,-39.1420516967773,-30.681001663208,-14.788950920105,2.25279998779297,1.67612504959106,1.17149996757507,-1.65728747844696,-0.85579997301102,0.34264999628067,-8.15805053710938,2.04495000839233,12.1879501342773,1.95495009422302,0.71100002527237,-0.89595001935959,3.27909994125366,0.55220001935959,-2.16479992866516,22.0320014953613,26.8939514160156,25.2169513702393,-0.71348750591278,-2.03417491912842,-2.96147489547729,-0.81551247835159,-0.08373750001192,0.47698751091957,23.0470504760742,17.3260517120361,10.4149503707886,-7.69905042648315,-6.78495025634766,-2.91300010681152,-7.50131225585938,-7.99851226806641,-6.49948740005493,7.96605014801025,-1.69995009899139,-17.6269512176514,SHAKE
2.90757489204407,2.77571249008179,2.25279998779297,-1.46299993991852,-1.62428748607636,-1.65728747844696,-13.2829504013062,-12.6630010604858,-8.15805053710938,9.70395088195801,4.46595001220703,1.95495009422302,6.56424999237061,5.16903734207153,3.27909994125366,9.81795024871826,16.1809501647949,22.0320014953613,0.80506247282028,0.36891248822212,-0.71348750591278,0.25464999675751,-0.8289874792099,-0.81551247835159,24.9900016784668,26.0700016021729,23.0470504760742,-2.85795021057129,-5.09295034408569,-7.69905042648315,-5.27037477493286,-6.39801263809204,-7.50131225585938,15.4890003204346,12.151050567627,7.96605014801025,-2.83813738822937,-1.86807501316071,-0.09899999946356,0.99261248111725,1.49600005149841,0.92908751964569,-8.28194999694824,-17.60205078125,-14.3940010070801,7.00005054473877,10.2949504852295,13.8670511245728,4.10258769989014,7.37302494049072,8.01693725585938,-38.6040000915527,-24.8610019683838,-7.74900054931641,1.95593750476837,1.59788751602173,1.34997498989105,-1.00251245498657,-0.61269998550415,-0.06049999967217,-3.7020001411438,6.98400020599365,16.981050491333,1.27095007896423,-0.81000006198883,-1.94205009937286,1.70060002803802,-0.94435000419617,-3.16291236877441,25.6690521240234,26.1880512237549,22.3930511474609,-1.10577499866486,-2.10870003700256,-2.86123752593994,-0.07026249915361,0.24612499773502,0.71898752450943,21.0040512084961,14.7490510940552,7.15605020523071,-5.425950050354,-3.43200016021729,-0.43605002760887,-7.70522499084473,-7.58683729171753,-3.89963746070862,3.04395008087158,-8.65395069122314,-29.4460506439209,SHAKE
