gyro_x_0,gyro_y_0,gyro_z_0,acc_x_0,acc_y_0,acc_z_0,gyro_x_1,gyro_y_1,gyro_z_1,acc_x_1,acc_y_1,acc_z_1,gyro_x_2,gyro_y_2,gyro_z_2,acc_x_2,acc_y_2,acc_z_2,gyro_x_3,gyro_y_3,gyro_z_3,acc_x_3,acc_y_3,acc_z_3,gyro_x_4,gyro_y_4,gyro_z_4,acc_x_4,acc_y_4,acc_z_4,gyro_x_5,gyro_y_5,gyro_z_5,acc_x_5,acc_y_5,acc_z_5,gyro_x_6,gyro_y_6,gyro_z_6,acc_x_6,acc_y_6,acc_z_6,gyro_x_7,gyro_y_7,gyro_z_7,acc_x_7,acc_y_7,acc_z_7,gyro_x_8,gyro_y_8,gyro_z_8,acc_x_8,acc_y_8,acc_z_8,gyro_x_9,gyro_y_9,gyro_z_9,acc_x_9,acc_y_9,acc_z_9,gyro_x_10,gyro_y_10,gyro_z_10,acc_x_10,acc_y_10,acc_z_10,gyro_x_11,gyro_y_11,gyro_z_11,acc_x_11,acc_y_11,acc_z_11,gyro_x_12,gyro_y_12,gyro_z_12,acc_x_12,acc_y_12,acc_z_12,gyro_x_13,gyro_y_13,gyro_z_13,acc_x_13,acc_y_13,acc_z_13,gyro_x_14,gyro_y_14,gyro_z_14,acc_x_14,acc_y_14,acc_z_14,motion_type
-0.14396250247955,-0.14904999732971,-0.15578749775887,0.94200003147125,1.17195010185242,1.21005010604858,0.00206249998882,0.00137499999255,0.00096249999478,0.15798750519753,0.00659999996424,0.00481249997392,1.96305012702942,2.15400004386902,2.07795000076294,9.73500061035156,9.73500061035156,9.19905090332031,-0.00027499999851,0.00687499996275,0.18369999527931,1.1340000629425,0.78900003433228,0.90405005216599,-0.00013749999925,0.00013749999925,0.00041249999776,-0.00302499998361,-0.00261249998584,0.00082499999553,2.07795000076294,2.26905012130737,2.53695011138916,9.27600002288818,9.42900085449219,8.96895027160645,0.00371249997988,0.00137499999255,-0.00027499999851,-0.05295000225306,1.59300005435944,11.4000005722046,0.21683749556541,0.24337500333786,-0.0042624999769,0.33825001120567,0.30442500114441,-0.23168750107288,-33.9300003051758,-50.862003326416,-47.0689506530762,17.9710502624512,9.42900085449219,-6.3139500617981,2.19834995269775,3.71662497520447,5.05601263046265,-18.9379501342773,-32.881950378418,-31.6939506530762,-6.71220016479492,-7.41221237182617,-5.70844984054565,-4.16363763809204,-4.13943767547607,1.5020500421524,1.92495012283325,-2.47995018959045,-3.1690502166748,-31.1760005950928,3.07005023956299,13.03005027771,10.9826745986938,12.2913999557495,12.3813247680664,-0.05295000225306,-0.09105000644922,0.32895001769066,5.75052499771118,5.58098745346069,4.49625015258789,8.1386251449585,6.00586223602295,1.49765002727509,-1.21605002880096,-1.36905002593994,-0.94695001840591,15.0220508575439,12.3780002593994,10.7310009002686,SWING_RIGHT
0.75308752059937,0.78622502088547,0.80753749608994,1.63200008869171,1.32495009899139,1.78500008583069,0.42157500982285,0.45993748307228,0.48441249132156,-0.21477499604225,-0.19016249477863,-0.16114999353886,3.53295016288757,3.6870002746582,3.8779501914978,8.28000068664551,8.47095012664795,8.70105075836182,0.8320124745369,0.77536249160767,0.71885001659393,1.01895010471344,2.01495003700256,1.74705004692078,0.44536250829697,0.36519998311996,0.17655000090599,0.30731248855591,0.40796250104904,0.51150000095367,4.03095006942749,4.91295003890991,5.37195014953613,8.96895027160645,8.73900032043457,8.62395000457764,0.30167499184608,0.18411250412464,0.00343749998137,-2.35095000267029,-4.72605037689209,8.94795036315918,0.61187499761581,0.89567500352859,0.90997499227524,1.35451245307922,1.5879875421524,1.30116248130798,-31.0189514160156,-36.7650032043457,-30.4060516357422,0.9250500202179,-19.875,-19.875,0.68983751535416,-5.53891229629517,-4.22977495193481,-14.0350503921509,-16.6399517059326,-19.5510005950928,-15.1507120132446,-15.1806869506836,-13.6368370056152,-4.0937876701355,-4.984375,-4.12967491149902,1.00499999523163,-0.52605003118515,-1.02404999732971,10.3480501174927,14.7150011062622,7.47495031356812,2.56629991531372,7.50323724746704,7.06887483596802,1.86195003986359,1.32495009899139,1.78500008583069,10.9701623916626,10.6684875488281,10.0922250747681,2.3365375995636,1.83424997329712,0.88921248912811,3.72495007514954,4.52895021438599,3.72495007514954,10.8460502624512,9.16095066070557,7.39905023574829,SWING_RIGHT
0.28036248683929,0.40149998664856,0.52786248922348,1.8229501247406,2.43600010871887,3.12600016593933,0.00632499996573,0.35351249575615,0.49266248941422,0.17833749949932,-0.00343749998137,-0.14011250436306,3.8779501914978,3.72495007514954,3.57195019721985,8.8540506362915,8.58600044250488,8.58600044250488,0.97418749332428,1.01034998893738,1.01076245307922,2.89605021476746,1.66995012760162,1.70805013179779,0.60417497158051,0.37014999985695,0.21463750302792,0.00123749999329,0.26826250553131,0.56003749370575,4.22294998168945,3.91695022583008,2.88195013999939,8.28000068664551,7.81995058059692,6.36405038833618,0.66398751735687,0.64432501792908,0.65188747644424,0.67395001649857,-0.12900000810623,4.35195016860962,0.36822500824928,0.30689999461174,0.00288749998435,0.81784999370575,0.69451248645782,0.34966251254082,-15.5430011749268,-23.1270008087158,-26.613000869751,12.7230005264282,0.38805001974106,-8.26800060272217,1.98577499389648,-0.0027499999851,-2.04283738136292,-2.04495000839233,-11.5830001831055,-16.8310508728027,-13.8844747543335,-14.6766128540039,-14.0427370071411,-1.74528753757477,-1.83988749980927,-1.17768752574921,7.21095037460327,7.32600021362305,1.31205010414124,19.0440006256104,11.7270002365112,10.3870506286621,2.43759989738464,4.77276229858398,7.36298751831055,-5.10900020599365,-3.61500024795532,-2.23605012893677,10.2598371505737,11.3055248260498,11.4042501449585,5.64286231994629,5.40058755874634,4.87877511978149,2.65200018882751,2.53695011138916,2.15400004386902,10.2330007553101,10.2330007553101,10.2330007553101,SWING_RIGHT
0.37716248631477,0.4476999938488,0.55962496995926,2.05305004119873,2.206050157547,2.39805006980896,-0.31336250901222,-0.23759999871254,-0.15702499449253,0.22563749551773,0.17352500557899,0.00687499996275,2.99700021743774,3.45705008506775,3.80205011367798,9.19905090332031,9.23700046539307,9.23700046539307,0.73191249370575,0.75583750009537,0.78938752412796,2.58900022506714,2.58900022506714,2.58900022506714,0.00536249997094,0.1898874938488,0.25272500514984,0.00371249997988,0.0042624999769,0.00398749997839,3.30405020713806,4.45305013656616,4.2610502243042,8.20305061340332,8.16495037078857,8.54805088043213,0.87999999523163,0.90213751792908,0.90543746948242,2.01495003700256,5.19405031204224,34.1550025939941,0.58286249637604,0.47932499647141,-0.18796250224113,0.30841249227524,0.1861750036478,-0.62204998731613,-33.9300003051758,-39.5230522155762,-35.8069534301758,8.73900032043457,-20.9089508056641,-23.0929508209229,-0.55687499046326,-1.30432498455048,-0.9590625166893,-39.3559532165527,-41.8840522766113,-34.4910011291504,-12.0111751556396,-12.3939752578735,-9.19187450408936,-0.47753748297691,2.25623750686646,6.863450050354,1.1580001115799,-2.28795003890991,-0.56400001049042,-2.32995009422302,5.06205034255981,8.58600044250488,6.36941242218018,8.64847469329834,9.34587478637695,1.97700011730194,3.01095008850098,3.16395020484924,9.25718784332275,8.94341278076172,8.09916210174561,7.86390018463135,4.24751234054565,-1.01048743724823,2.26905012130737,2.23095011711121,1.92495012283325,11.8039503097534,11.8039503097534,11.6509504318237,SWING_RIGHT
0.95438748598099,1.09147500991821,1.2277375459671,2.70405006408691,2.47500014305115,2.24505019187927,-0.00082499999553,0.00054999999702,0.00398749997839,-0.46474999189377,-0.71458750963211,-0.69588750600815,4.22294998168945,4.22294998168945,4.10805034637451,8.8540506362915,8.70105075836182,9.23700046539307,1.283287525177,1.15458750724792,0.78320002555847,0.90405005216599,0.67395001649857,-3.49995017051697,0.68681252002716,0.74786251783371,0.79392498731613,0.42611250281334,0.70867496728897,0.99481248855591,7.59405040740967,6.86595010757446,5.25705003738403,9.73500061035156,9.73500061035156,8.0110502243042,-0.16046249866486,-0.37441250681877,-0.54711252450943,3.47100019454956,12.1660509109497,44.4210014343262,0.73039996623993,-0.17627499997616,-2.74009990692139,3.10681247711182,1.39851248264313,-1.90093743801117,-26.5750503540039,-45.5370025634766,-33.0870018005371,-4.39905023574829,-29.6050510406494,-29.6050510406494,-5.76496267318726,-6.29103755950928,-4.30856227874756,-30.2010021209717,-28.2090015411377,-27.5959510803223,-15.6362247467041,-15.0757751464844,-13.2266750335693,-7.88672494888306,-7.6203875541687,-5.14992475509644,5.18100023269653,4.03095006942749,1.50300002098084,9.08400058746338,9.08400058746338,9.04605007171631,11.0727376937866,11.3473253250122,10.7910003662109,3.01095008850098,4.35195016860962,4.62000036239624,11.6399250030518,11.3335752487183,9.82726287841797,4.15923738479614,3.08316254615784,0.25368750095367,-0.52605003118515,0.50700002908707,0.77505004405975,7.70505046844482,11.4210004806519,11.6509504318237,SWING_RIGHT
0.88027501106262,0.89196246862411,0.86680001020432,0.44400003552437,0.6360000371933,0.40605002641678,0.36863750219345,0.42734998464584,0.47533750534058,-0.31803750991821,-0.17476250231266,-0.00192499998957,3.80205011367798,3.95505023002625,3.99300026893616,8.93100070953369,9.08400058746338,9.16095066070557,0.8204625248909,0.80905002355576,0.80877500772476,-0.47400003671646,-1.20195007324219,-2.77305006980896,0.45031249523163,0.3452624976635,0.33192500472069,0.45663750171661,0.72462499141693,0.97528749704361,5.52495002746582,5.86995029449463,5.7940502166748,10.5010509490967,9.19905090332031,8.12595081329346,0.6210874915123,0.5154874920845,0.26303750276566,-3.99795007705688,10.1740503311157,56.4880523681641,0.6239749789238,0.49114999175072,-1.04678750038147,2.33516240119934,1.49393749237061,-1.48747503757477,-42.8940010070801,-54.4630508422851,-31.324951171875,-33.0529518127441,-33.0529518127441,-13.746000289917,-7.41523742675781,-6.82426261901855,-5.69854974746704,-31.2349510192871,-29.2810516357422,-29.0509510040283,-12.2520751953125,-11.2598752975464,-6.24992513656616,-8.25481224060059,-4.36562490463257,1.39947497844696,3.30405020713806,0.58395004272461,-0.14295001327991,7.85805034637451,5.90505027770996,5.06205034255981,10.9693374633789,11.5510997772217,10.0355749130249,3.66195011138916,4.00695037841797,1.40205001831055,8.60021209716797,8.26127529144287,6.85423755645752,5.27092504501343,3.03696250915527,-1.26651251316071,0.16200000047684,-0.25800001621246,-0.10500000417233,10.5400505065918,11.3830509185791,11.4970502853394,SWING_RIGHT
0.5460125207901,0.49334999918938,0.43243750929832,1.90005004405975,1.8229501247406,1.63200008869171,0.16211250424385,0.15881249308586,0.15922500193119,0.14464999735355,0.21628749370575,0.28723749518394,2.99700021743774,3.07395005226135,2.99700021743774,9.08400058746338,9.31395053863525,9.42900085449219,0.14753749966621,0.00316249998286,0.00137499999255,0.25304999947548,-7.67595052719116,-11.6220006942749,0.21642500162125,0.33137500286102,0.48881250619888,0.78058749437332,1.13464999198914,2.42096257209778,5.14200019836426,-0.64095002412796,-8.91495037078857,15.1750507354736,12.9910507202148,7.16895055770874,-0.83407497406006,-1.73607504367828,-3.54461240768433,40.0159530639649,47.4469528198242,27.0679512023926,-1.31436252593994,-4.16693735122681,-6.36748743057251,-0.88357502222061,-3.67166256904602,-7.19290018081665,-49.9810523986816,-28.3750514984131,-13.1290502548218,-33.7420501708984,-28.8010520935059,6.97695016860962,-9.52572536468506,-6.41300010681152,-2.49397492408752,-27.4039516448975,-26.3700008392334,-24.5689506530762,-7.50873756408691,-3.62779998779297,8.00745010375977,-9.98607540130615,-6.94127511978149,1.69798743724823,5.21895027160645,3.18900012969971,-2.9389500617981,12.9150009155273,9.73500061035156,5.67495012283325,11.6025247573853,11.1764125823975,9.93121242523193,7.6080002784729,6.03705024719238,3.96900010108948,13.2144374847412,10.2726249694824,5.5324501991272,2.34533739089966,-0.66934996843338,-5.12366247177124,-0.33495002985001,0.12405000627041,0.27705001831055,11.9569501876831,11.9569501876831,11.5360507965088,SWING_RIGHT
0.68667501211166,0.77165001630783,0.8729875087738,2.81895017623901,2.93400025367737,2.70405006408691,-0.00371249997988,-0.00481249997392,-0.00467499997467,-0.30126249790192,-0.70235002040863,-0.87793749570847,2.38394999504089,4.7590503692627,6.10005044937134,9.23700046539307,8.81595039367676,9.65895080566406,1.18016254901886,1.14441251754761,0.77962499856949,-3.99795007705688,-3.7300500869751,-2.50395011901855,0.86844998598099,1.04170000553131,1.09615004062653,0.98628747463226,1.73277497291565,2.41642498970032,0.92895007133484,-1.1010000705719,-3.01605010032654,10.2330007553101,10.0420503616333,8.8540506362915,-0.46846249699593,-0.47863748669624,-0.43340000510216,41.8930511474609,40.6669502258301,19.9429512023926,-2.2710874080658,-12.3091373443604,-15.4539003372192,-1.65343749523163,-4.44991254806519,-5.53286266326904,-50.8230018615723,-19.1430015563965,-18.7219505310059,-43.0890007019043,11.076000213623,20.6149501800537,-4.99056243896484,-4.03301239013672,-1.449387550354,-30.4300518035889,-29.3580017089844,-12.1200008392334,-11.2146377563477,-3.75196242332459,7.08358764648438,-7.04673767089844,-5.96640014648438,-3.03806257247925,0.58395004272461,-1.52205002307892,-3.20805025100708,8.47095012664795,4.87005043029785,3.87405014038086,7.09678745269775,6.09014987945557,5.07044982910156,8.18205070495605,5.80695009231567,4.8880500793457,15.5208625793457,9.67477512359619,3.03778743743896,1.39741253852844,-4.40948724746704,-9.73032474517822,-0.06599999964237,0.66000002622604,0.66000002622604,12.7999505996704,11.9569501876831,11.9569501876831,SWING_RIGHT
0.21161249279976,0.00467499997467,-0.00068749999627,1.8229501247406,1.86195003986359,1.86195003986359,0.2729375064373,0.23333749175072,0.18809999525547,0.65793746709824,0.59235000610352,0.45883750915527,3.18900012969971,3.30405020713806,3.03495025634766,9.27600002288818,10.0800008773804,10.5010509490967,-0.00178749999031,0.00302499998361,0.00481249997392,1.47900009155273,0.06105000153184,-3.76905012130737,-0.00027499999851,0.00082499999553,0.26097500324249,0.21986250579357,0.33041250705719,0.96579998731613,7.67100048065186,6.63600015640259,-1.36905002593994,11.2680006027222,11.4210004806519,10.6549501419067,-0.00632499996573,-0.24969999492168,-0.38431251049042,11.5530004501343,38.6749534606934,42.7740020751953,-0.6540874838829,-2.6727249622345,-6.73048734664917,1.76934993267059,-0.00467499997467,-1.90753746032715,-39.7140007019043,-15.8110504150391,-11.9800510406494,-53.2020034790039,-12.5970001220703,16.4010009765625,-4.51577520370483,-2.9635374546051,-1.32921254634857,-29.0899505615234,-25.0290012359619,-19.090950012207,-13.7073745727539,-11.4263877868652,5.32908725738525,-5.56820011138916,-4.05625009536743,3.07518744468689,3.6870002746582,-0.52605003118515,-3.62895011901855,10.6930503845215,8.8540506362915,2.07405018806458,10.1184873580933,9.56436252593994,8.5460376739502,9.10200023651123,6.95595026016235,4.35195016860962,13.085599899292,10.5909376144409,4.74485015869141,1.41831254959106,-2.28538751602173,-8.36618709564209,-0.33495002985001,-0.33495002985001,0.27705001831055,11.076000213623,11.1529502868652,11.9190006256104,SWING_RIGHT
0.34251248836517,0.36849999427795,0.40177500247955,-0.58905005455017,-0.62700003385544,-0.58905005455017,0.2953499853611,0.31281250715256,0.30744999647141,0.51122498512268,0.57571250200272,0.56911247968674,2.76705002784729,3.30405020713806,3.41895008087158,9.39105033874512,10.7700004577637,11.5740003585815,0.5823125243187,0.62493747472763,0.6484500169754,-3.38505005836487,-5.07105016708374,-4.72605037689209,0.3740000128746,0.39875000715256,0.41745001077652,0.94751250743866,1.18002498149872,1.40635001659393,0.66000002622604,-0.44895002245903,0.27705001831055,9.00705051422119,9.00705051422119,8.8540506362915,0.16211250424385,0.00384999997914,0.00412499997765,14.9239511489868,51.3160514831543,34.6140022277832,-0.62672501802444,-6.73062515258789,-13.3846626281738,-0.61751252412796,-4.34857511520386,-4.40893745422363,-69.0580520629883,-23.7019519805908,-11.9800510406494,-46.8820533752441,-23.0929508209229,28.0840511322021,-6.9800500869751,-5.67641258239746,-1.34351253509521,-38.0920524597168,-37.8240013122559,-16.4479503631592,-16.1089496612549,-10.9401874542236,-0.25616249442101,2.96257495880127,8.39877510070801,9.45106220245361,-3.51405024528503,-3.36105012893677,-4.16505002975464,7.70505046844482,5.94300031661987,3.52995014190674,15.3074626922607,13.9552869796753,11.6287870407104,13.3540506362915,9.6379508972168,4.65795040130615,11.0430374145508,4.64268732070923,0.82073748111725,4.13778734207153,-7.25243759155273,-9.13770008087158,1.81005012989044,1.6560001373291,0.73695003986359,9.50505065917969,14.4090003967285,12.4549503326416,SWING_RIGHT
-1.96459996700287,-2.44433736801147,-2.62487506866455,0.94200003147125,0.71205002069473,0.55905002355576,0.00357499998063,0.00247499998659,0.00371249997988,-1.3527250289917,-1.4137749671936,-1.27407503128052,2.95905017852783,2.88195013999939,2.80605006217957,9.16095066070557,9.00705051422119,9.81195068359375,-2.42357492446899,-2.24441242218018,-2.04476237297058,1.17195010185242,1.44000005722046,1.17195010185242,0.19470000267029,0.16046249866486,0.00646249996498,-0.57213747501373,-0.52195000648499,-0.51163750886917,5.71695041656494,7.13400030136108,8.78205013275146,10.2330007553101,11.4589509963989,11.4589509963989,-1.42793750762939,-1.42009997367859,-1.46176254749298,-6.52695035934448,40.7820014953613,64.9150543212891,0.77398747205734,0.52112501859665,-5.1874623298645,0.80822497606277,0.52112501859665,-2.58224987983704,-66.4150543212891,-46.6099510192871,-5.35305023193359,-47.0350532531738,-47.0350532531738,14.907000541687,-0.18383750319481,1.3113374710083,3.2153000831604,-40.0840530395508,-46.5190505981445,-27.1740016937256,-12.941499710083,-11.0731496810913,-6.67754983901978,-7.17956256866455,-6.30684995651245,-4.77248764038086,-3.55200028419495,-4.31895017623901,-7.19205045700073,8.73900032043457,4.44900035858154,1.92105007171631,12.7267246246338,10.7871503829956,8.68120002746582,16.840051651001,8.91000080108643,1.1340000629425,6.53523731231689,5.67049980163574,-0.00398749997839,-2.48819994926453,-4.95109987258911,-6.91597509384155,4.56795024871826,3.37995004653931,2.03895020484924,15.903000831604,15.903000831604,13.03005027771,SWING_RIGHT
-2.49658751487732,-3.22258758544922,-3.54186248779297,0.40605002641678,1.32495009899139,1.70805013179779,0.28833749890327,0.22632500529289,-0.00054999999702,-1.45846247673035,-1.52432501316071,-1.58372497558594,1.77105009555817,2.00100016593933,2.99700021743774,10.3870506286621,10.2720003128052,9.65895080566406,-3.88024997711182,-3.5543749332428,-3.12372493743896,-0.01395000051707,-0.01395000051707,-0.20595000684261,-0.22742499411106,-0.00219999998808,0.18906250596046,-1.01282501220703,-0.6767749786377,-0.29809999465942,3.45705008506775,4.45305013656616,4.3759503364563,10.3099508285522,10.3099508285522,10.1569509506226,-0.8397125005722,-0.44192498922348,-0.35007500648499,0.86595004796982,35.4570007324219,47.6389541625977,0.70922499895096,0.00536249997094,-5.30516242980957,0.81290000677109,0.00508749997243,-3.48053741455078,-55.3440017700195,-56.2249526977539,3.57195019721985,-50.9809532165527,-50.9809532165527,6.13395023345947,2.78134989738464,3.8035249710083,4.93693733215332,-65.7499542236328,-25.795051574707,-19.1680507659912,-11.9131374359131,-10.5665998458862,-6.41093730926514,-9.54703712463379,-8.1107120513916,-6.1505126953125,-3.39900016784668,-4.54800033569336,-6.50205039978027,9.65895080566406,3.37605023384094,2.03595018386841,13.0516376495361,12.5100250244141,10.6024875640869,15.421950340271,7.6080002784729,3.77700018882751,8.82199954986572,8.45514965057373,0.50943750143051,-3.76749992370605,-6.71453762054443,-5.52584981918335,1.57995009422302,2.38394999504089,1.23495006561279,10.5780000686646,10.7310009002686,9.96495056152344,SWING_RIGHT
-4.14177513122559,-4.46036243438721,-4.3489875793457,0.59700000286102,1.21005010604858,2.24505019187927,-0.61435002088547,-0.47561249136925,-0.26702499389648,-1.54096245765686,-1.30047500133514,-1.03441250324249,2.38394999504089,2.65200018882751,2.84400010108948,8.16495037078857,8.16495037078857,9.23700046539307,-1.65756249427795,-1.28727495670319,-1.01804995536804,1.86195003986359,1.93800008296967,1.93800008296967,0.49211248755455,0.59097498655319,0.6434999704361,-0.82788747549057,-0.92056250572205,-0.82637500762939,4.1850004196167,7.17300033569336,5.83200025558472,9.08400058746338,9.46695041656494,11.5740003585815,-0.37922498583794,-0.2939749956131,-0.17462499439716,8.48895072937012,29.7109508514404,30.0559520721436,0.4160749912262,-1.1035749912262,-3.52673745155334,0.49829998612404,-0.80217498540878,-2.45355010032654,-54.846004486084,-29.5249519348145,-4.4719500541687,-45.8860511779785,-45.8860511779785,-2.71395015716553,2.2152624130249,3.40009999275208,4.9002251625061,-32.191951751709,-29.5489521026611,-20.6620502471924,-10.8062620162964,-7.34854984283447,-5.34737491607666,-0.5546749830246,2.22062492370605,3.43598747253418,-2.25,-5.54400014877319,-5.92695045471191,10.6930503845215,2.99295020103455,-0.91305005550385,14.4727001190186,13.980037689209,10.5375871658325,8.18205070495605,6.42000007629395,0.67395001649857,-1.08666253089905,-2.43773746490479,-0.00027499999851,-4.3356499671936,-7.55548763275146,-14.2602624893188,3.95505023002625,1.92495012283325,0.8520000576973,14.4850511550903,15.7500009536743,15.7500009536743,SWING_RIGHT
1.02162504196167,0.63511252403259,0.52703750133514,-0.28305000066757,-0.74205005168915,-0.32100000977516,0.42638748884201,0.38692501187325,0.25602498650551,1.17218744754791,1.27654993534088,1.55223751068115,2.15400004386902,2.00100016593933,2.57595014572144,9.00705051422119,10.1179504394531,10.9230003356934,1.7491375207901,2.72277498245239,4.02008724212646,-3.11700010299683,-4.68795013427734,-4.42005014419556,-0.78196251392365,-1.12447500228882,-1.41776251792908,3.14544987678528,3.54433751106262,3.81081247329712,1.54095005989075,0.46905001997948,-0.7180500626564,10.3870506286621,9.00705051422119,8.47095012664795,10.2110252380371,9.60575008392334,8.93474960327148,8.14395046234131,45.9150009155273,35.6490020751953,-2.20618748664856,-2.5972375869751,-3.60236239433289,1.09119999408722,-1.025750041008,-6.59381246566772,-56.0329513549805,-37.0710029602051,-8.95395088195801,-47.7250518798828,-47.7250518798828,19.5420017242432,10.1769247055054,11.0987253189087,12.3737621307373,-29.8170013427734,-32.7289505004883,-22.5010509490967,-1.65164995193481,0.73232501745224,1.88471245765686,-3.8226375579834,-0.37083750963211,2.40487504005432,0.16200000047684,-0.44895002245903,-1.1010000705719,8.31795024871826,7.70505046844482,5.75100040435791,11.3825244903564,9.0246753692627,7.02418756484985,7.56900024414063,5.5770001411438,5.04105043411255,4.63457489013672,2.70957493782043,2.11791253089905,1.2586749792099,-4.16790008544922,-11.2198619842529,-0.37305000424385,0.77505004405975,1.96305012702942,9.77400016784668,8.89305019378662,10.9609508514404,SWING_RIGHT
-0.67691248655319,-0.79199999570847,-0.92839998006821,-1.39305007457733,-1.50795006752014,-1.50795006752014,0.27871251106262,0.44192498922348,0.52277499437332,0.64363747835159,0.73837500810623,0.73122501373291,2.49900007247925,2.15400004386902,2.53695011138916,9.50505065917969,9.77400016784668,10.3480501174927,-1.77086246013641,-2.11846256256104,-2.99254989624023,-1.77705013751984,-2.69595003128052,-5.45400047302246,0.79035001993179,0.90420001745224,1.0396374464035,-0.23058749735355,-0.42748749256134,-0.49321249127388,4.22294998168945,1.96305012702942,-1.29195010662079,10.195050239563,10.1569509506226,10.1569509506226,-4.96595001220703,-5.02851247787476,-5.35865020751953,13.7370004653931,37.1040000915527,47.1409530639649,1.12199997901917,-1.96253752708435,-5.23105001449585,-0.28847500681877,-3.05882501602173,-5.02933740615845,-47.4139518737793,-16.5390014648438,4.10805034637451,-47.4559516906738,-25.3909511566162,10.7310009002686,-4.57572507858276,-3.46335005760193,1.93476247787476,-41.998950958252,-32.7670516967773,-14.4559507369995,-10.9174995422363,-9.24192523956299,-6.27605009078979,-4.13751268386841,-3.14201259613037,-2.28222489356995,-1.75200009346008,-1.82895004749298,-1.78995013237,8.20305061340332,2.11199998855591,-0.14699999988079,13.7988128662109,13.0572748184204,11.1493253707886,11.4000005722046,9.3319501876831,4.73505020141602,1.99897503852844,4.32162475585938,5.35865020751953,-5.77500009536743,-18.4724369049072,-19.9590873718262,4.2610502243042,4.45305013656616,3.57195019721985,9.65895080566406,14.2939510345459,14.2939510345459,SWING_RIGHT
-1.04073750972748,-1.12804996967316,-1.44856250286102,-0.16800001263618,-0.12900000810623,0.40605002641678,-0.92757499217987,-0.73273748159409,-0.42556250095367,-2.77653741836548,-2.23877501487732,-1.48926246166229,3.91695022583008,4.06995010375977,3.95505023002625,9.61995029449463,9.35205078125,8.93100070953369,-2.79207491874695,-2.16589999198914,-1.59802496433258,-0.62700003385544,-1.96800005435944,-1.62300002574921,1.03014993667603,1.01103746891022,0.81468749046326,1.60985004901886,1.52556252479553,0.82761251926422,4.03095006942749,4.03095006942749,4.95105028152466,9.16095066070557,8.96895027160645,9.39105033874512,-2.91403746604919,-5.10661268234253,-7.82828760147095,-1.77705013751984,11.4000005722046,42.4669532775879,1.54439997673035,0.96415001153946,-1.16655004024506,-3.90458750724792,-4.99372482299805,-6.87087488174438,-54.6540031433105,-48.7549514770508,-19.6410007476807,-43.5490531921387,-43.5490531921387,-31.0230007171631,-9.09796237945557,-3.4964873790741,-0.50118750333786,-43.9909515380859,-26.2549514770508,-19.3980007171631,-12.0599870681763,-11.7818250656128,-11.6778745651245,-1.67254996299744,-1.01928746700287,-3.50597500801086,-0.98595005273819,-0.14295001327991,-3.39900016784668,10.7310009002686,9.19905090332031,-0.79800003767014,15.164324760437,15.631275177002,15.447850227356,9.29295063018799,5.15595006942749,0.09900000691414,-4.7858247756958,-5.14456224441528,-1.99787497520447,-9.94344997406006,-10.7764253616333,-11.5227746963501,3.95505023002625,2.57595014572144,0.66000002622604,16.0939502716064,16.0939502716064,15.0220508575439,SWING_RIGHT
-0.00109999999404,-0.2043250054121,-0.24474999308586,-1.08705008029938,-0.74205005168915,-0.97200006246567,0.38609999418259,0.24612499773502,0.00041249999776,0.89622497558594,0.95438748598099,0.9094250202179,2.88195013999939,2.95905017852783,3.45705008506775,9.12195014953613,9.35205078125,9.77400016784668,0.29713749885559,0.4989874958992,0.67704999446869,-2.38905000686646,-3.80700016021729,-7.25400018692017,0.15702499449253,0.22990000247955,0.22866250574589,0.78182500600815,0.97638750076294,1.41542494297028,3.30405020713806,-0.67905002832413,-4.39499998092651,12.6469507217407,11.6509504318237,11.6509504318237,1.59967494010925,2.76760005950928,3.13472509384155,13.3150510787964,40.5900001525879,21.3220500946045,-2.29762506484985,-3.65351247787476,-8.98631286621094,1.45777499675751,-0.40369999408722,-5.07416248321533,-57.7570533752441,-38.7180023193359,7.09605026245117,-46.498950958252,-42.4380035400391,13.3360509872437,-7.85661268234253,-7.4391622543335,-7.17007493972778,-34.6440010070801,-23.2669506072998,-14.2260007858276,-0.64789998531342,1.71778750419617,5.01531267166138,-35.0752868652344,-34.7293357849121,-33.5549507141113,-2.17305016517639,-2.59500002861023,-2.05800008773804,8.4330005645752,5.8279504776001,0.88605004549026,10.8399496078491,8.7282247543335,7.79006242752075,12.1660509109497,5.5770001411438,2.01495003700256,1.31449997425079,1.85817503929138,2.80348753929138,-11.2587747573853,-14.9879121780396,-16.520486831665,4.03095006942749,3.7630500793457,2.92095017433167,10.9609508514404,11.7270002365112,11.0380506515503,SWING_RIGHT
0.00632499996573,0.2411749958992,0.3948999941349,0.17595000565052,0.71205002069473,0.90405005216599,0.25836250185966,0.27362498641014,0.25093749165535,0.55687499046326,0.35681250691414,0.22797499597073,3.26505017280579,3.37995004653931,3.34200024604797,9.31395053863525,9.31395053863525,9.81195068359375,1.54701244831085,1.84786248207092,2.31275010108948,1.44000005722046,-0.01395000051707,-2.96400022506714,0.16183750331402,0.26441249251366,0.39063748717308,-0.18383750319481,0.00316249998286,0.55027496814728,4.22294998168945,3.61005020141602,2.34600019454956,10.7310009002686,9.50505065917969,7.74300050735474,3.37878751754761,3.77904987335205,4.60900020599365,20.0580005645752,47.1409530639649,37.7170524597168,-0.21078750491142,-5.46837520599365,-12.8126621246338,3.87763738632202,-0.48523750901222,-0.88192498683929,-59.9020538330078,2.92095017433167,6.55995035171509,-60.2509536743164,5.2150502204895,20.15505027771,2.13949990272522,2.55131244659424,1.98440003395081,-33.6859512329102,-27.2890510559082,-3.38505005836487,-17.0053119659424,-16.5162258148193,-9.88459968566894,-21.7669372558594,-24.1111755371094,-24.1009998321533,-3.20805025100708,-2.51805019378662,-2.17305016517639,3.49095010757446,-0.03195000067353,-3.21195006370544,7.1831374168396,6.05756235122681,4.91232490539551,8.71905040740967,5.15595006942749,1.90005004405975,-2.68564987182617,2.09660005569458,1.724524974823,-19.2223625183105,-18.0820751190186,-17.3064365386963,5.25705003738403,3.45705008506775,2.95905017852783,15.2899503707886,12.7620010375977,11.7660007476807,SWING_RIGHT
-0.00192499998957,-0.00288749998435,-0.00467499997467,-0.28305000066757,-0.62700003385544,-0.85695004463196,0.17022499442101,0.24103750288486,0.31982499361038,0.19648750126362,0.38238748908043,0.59386247396469,4.95105028152466,4.64400005340576,3.95505023002625,9.08400058746338,9.04605007171631,8.81595039367676,-0.00206249998882,-0.00027499999851,0.00247499998659,3.24105024337769,4.12200021743774,4.00695037841797,0.2924624979496,-0.34966251254082,-0.7596874833107,0.8398500084877,-0.31501248478889,-1.00677502155304,2.11605000495911,3.95505023002625,5.25705003738403,12.1489505767822,9.96495056152344,8.66295051574707,0.56374996900558,0.66178750991821,0.6678375005722,2.62800002098084,20.1720008850098,18.7549514770508,-1.28053748607636,-1.98178744316101,-4.16597509384155,-2.44681239128113,-2.44626259803772,-2.54402494430542,-57.9100532531738,-46.1500511169434,-27.4180507659912,-40.9060516357422,-40.9060516357422,3.22305011749268,3.70191240310669,4.17862510681152,4.52883768081665,-39.202953338623,-39.0109519958496,-21.4279518127441,-12.2806749343872,-6.96574974060059,0.7206375002861,13.0508127212524,19.0612125396729,23.5250129699707,-0.7180500626564,-6.19605016708374,-6.15705013275146,16.0180511474609,11.3059501647949,3.682950258255,8.42379951477051,8.37801265716553,7.06708765029907,12.3199510574341,13.9669504165649,3.50895023345947,11.2051496505737,8.82227516174316,3.79073739051819,4.44496250152588,-1.5714875459671,-9.84073734283447,1.77105009555817,2.46105003356934,1.96305012702942,9.50505065917969,11.8039503097534,11.8039503097534,SWING_RIGHT
1.05916249752045,1.16503751277924,1.24341249465942,2.16795015335083,3.16395020484924,3.20205020904541,0.29851248860359,0.18246249854565,-0.00494999997318,0.56663751602173,0.29452499747276,-0.33907499909401,2.07795000076294,2.57595014572144,3.45705008506775,8.73900032043457,8.93100070953369,9.27600002288818,1.92733752727509,2.00007510185242,1.96679997444153,1.40205001831055,1.44000005722046,0.78900003433228,0.00673749996349,0.37290000915527,0.6209499835968,-0.59496247768402,-0.22852499783039,0.21394999325275,4.49100017547607,6.2920503616333,7.47900056838989,9.16095066070557,8.89305019378662,8.89305019378662,0.56003749370575,0.0,-0.00577499996871,-3.00195002555847,42.7350006103516,41.8540534973145,1.05077505111694,-0.18507499992847,-8.27337455749512,2.04489994049072,1.13794994354248,-2.06497502326965,-52.5469512939453,-34.3510513305664,-2.28795003890991,-46.8820533752441,-46.8820533752441,13.4890508651733,-0.98669999837875,0.00219999998808,1.66938745975494,-39.586051940918,-32.881950378418,-17.9809513092041,-16.5017871856689,-7.05278730392456,-0.57832497358322,2.19326257705688,12.012412071228,14.7389001846313,-4.4719500541687,-4.01205015182495,-2.17305016517639,10.7700004577637,5.90505027770996,3.33795022964478,14.3646249771118,13.2822246551514,11.0109996795654,11.0940008163452,5.11800003051758,2.05305004119873,11.494312286377,8.37705039978027,2.33282494544983,3.71016240119934,-8.1449499130249,-15.7231245040894,2.72895002365112,2.11605000495911,0.69900006055832,14.8680009841919,14.8680009841919,9.5440502166748,SWING_RIGHT
2.90070009231567,3.47462487220764,3.68321251869202,1.21005010604858,1.36395001411438,0.67395001649857,-0.20253749191761,-0.00137499999255,0.40768748521805,-0.21573749184608,-0.17723749577999,0.00563749996945,3.03495025634766,2.72895002365112,3.41895008087158,9.61995029449463,9.5440502166748,9.27600002288818,3.57706236839294,3.42237496376038,3.25187492370605,-0.20595000684261,0.21405000984669,-0.58905005455017,1.0095249414444,0.98216247558594,0.91066247224808,1.11732494831085,1.24547493457794,1.38503754138947,6.2920503616333,6.44505023956299,3.84000015258789,10.6159505844116,12.1099510192871,12.4170007705688,2.59861254692078,2.46070003509521,2.51968741416931,-1.47000002861023,56.6410522460938,50.1670532226563,-0.25011250376701,-1.47661244869232,-5.69002485275269,2.88667488098145,1.54054999351501,-4.28601264953613,-58.561954498291,-43.3540534973145,-12.7080001831055,-35.8879508972168,-37.8799514770508,12.5700006484985,4.84275007247925,4.81373739242554,3.45702505111694,-23.344051361084,-23.6119518280029,-23.803050994873,-15.3206624984741,-12.9540128707886,-6.46153736114502,2.73624992370605,6.51241254806519,15.9359750747681,1.42695009708405,-0.90900003910065,-1.6750500202179,19.2349510192871,10.4629507064819,4.71705007553101,6.3269248008728,7.53623723983765,7.57377481460571,9.56100082397461,3.89205026626587,3.31695008277893,11.7628498077393,11.9785871505737,5.25524997711182,9.17771244049072,6.29268741607666,-9.09108734130859,0.54495000839233,0.73695003986359,0.58395004272461,10.7700004577637,11.8039503097534,11.2680006027222,SWING_RIGHT
6.85354995727539,6.08038759231567,4.12211227416992,0.21405000984669,0.06105000153184,0.32895001769066,0.70606249570847,0.72311252355576,0.73892498016357,0.50325000286102,0.64418751001358,0.76835000514984,3.03495025634766,3.18900012969971,3.30405020713806,7.81995058059692,7.9350004196167,8.35605049133301,1.90299999713898,1.79877495765686,1.77663743495941,0.25304999947548,0.06105000153184,-0.09105000644922,0.86803752183914,0.76986247301102,0.65119999647141,0.80148750543594,0.79763752222061,0.83723747730255,3.07395005226135,4.06995010375977,4.83600044250488,9.88905048370361,11.2680006027222,11.3059501647949,1.93833744525909,2.03005003929138,2.1379873752594,-5.68395042419434,-2.61900019645691,39.786003112793,-0.26936250925064,-0.5986750125885,-1.57162499427795,1.85693752765656,1.93476247787476,0.99907499551773,-43.85205078125,-50.4019508361816,-29.601001739502,-38.683952331543,-38.683952331543,-26.8849506378174,2.14403748512268,1.32838749885559,0.82307499647141,-30.6990013122559,-28.0170021057129,-26.2930507659912,-11.8934745788574,-11.3572244644165,-12.1323127746582,-3.14957499504089,-3.51257491111755,-7.7864875793457,2.84400010108948,2.92095017433167,1.12005007266998,11.0380506515503,4.14195013046265,6.78600025177002,13.4220628738403,15.7782621383667,17.4931621551514,4.62000036239624,5.46300029754639,5.19405031204224,-7.51368761062622,-7.03381252288818,-6.62956237792969,-14.846287727356,-16.2204627990723,-17.6625633239746,1.27305006980896,0.81405001878738,0.27705001831055,9.00705051422119,10.0800008773804,10.6549501419067,SWING_RIGHT
10.6173372268677,9.17867469787598,4.8850998878479,-1.24005007743835,-1.89105010032654,0.06105000153184,0.86157500743866,0.73094999790192,0.59276247024536,1.24011254310608,1.23323750495911,1.28466248512268,-0.75600004196167,-1.29195010662079,-1.13895010948181,9.5440502166748,9.77400016784668,10.3480501174927,2.37737488746643,2.59627509117126,2.96449995040894,6.57300043106079,6.15195035934448,5.65395021438599,-0.97968751192093,-0.88494998216629,-0.32945001125336,-0.41126251220703,-2.09701251983643,-2.78478741645813,3.18900012969971,3.84000015258789,4.06995010375977,8.16495037078857,6.63195037841797,6.63195037841797,4.52732515335083,4.27418756484985,3.11533737182617,2.70405006408691,5.3860502243042,35.9170532226563,3.46403741836548,3.37314987182617,1.4719375371933,-1.36083745956421,-0.93940001726151,-1.2364000082016,-73.5780029296875,-57.1819534301758,-30.9040508270264,-47.5710029602051,-47.5710029602051,-10.8349504470825,1.09807503223419,1.52954995632172,3.46926259994507,-38.628002166748,-42.1909523010254,-38.9730033874512,-15.5487747192383,-21.496337890625,-21.7331123352051,1.2725625038147,-8.84413719177246,-11.7111501693726,2.84400010108948,-4.93095016479492,-5.39100027084351,2.30400013923645,2.38005018234253,-0.52995002269745,10.5177869796753,11.7602376937866,8.59759998321533,10.9399509429932,13.3540506362915,6.88005018234253,-8.31847476959229,-7.03628730773926,0.31941249966621,-15.5183877944946,-13.5783996582031,-4.73687505722046,1.77105009555817,1.88595008850098,1.35000002384186,9.12195014953613,11.8039503097534,14.5240507125854,SWING_RIGHT
0.96607500314713,1.06878745555878,1.60201251506805,0.44400003552437,0.82695001363754,0.21405000984669,0.00673749996349,0.00384999997914,0.00178749999031,0.8595125079155,0.85745000839233,0.87271249294281,3.15000009536743,3.11205005645752,2.92095017433167,9.8500509262085,9.46695041656494,9.31395053863525,3.87392497062683,4.12554979324341,4.29357481002808,-0.66600000858307,-1.89105010032654,-3.88305020332336,0.28545001149178,0.44659999012947,0.51039999723434,1.33141243457794,1.65206253528595,2.00282502174377,5.44905042648315,1.31205010414124,-2.36505007743835,10.3099508285522,10.6930503845215,10.3099508285522,3.65158748626709,3.53815007209778,3.62779998779297,5.27100038528442,24.8080520629883,36.8359527587891,-1.93338751792908,-3.65543746948242,-6.14377498626709,3.34716248512268,1.47688746452332,-1.40566253662109,-55.995002746582,-45.844051361084,-25.9999504089355,-42.4759521484375,-42.4759521484375,-23.0160007476807,0.75844997167587,0.76587498188019,1.28301250934601,-35.7930030822754,-33.5719528198242,-26.1019515991211,-14.4607372283936,-14.1805124282837,-14.9485874176025,-8.47728729248047,-15.4332752227783,-18.6924381256104,3.34200024604797,-2.32695007324219,-2.9389500617981,8.73900032043457,4.83195018768311,2.95500016212463,5.82188749313354,6.81257486343384,4.58039999008179,12.7030506134033,9.67605018615723,4.00695037841797,-3.80311250686646,-3.02472496032715,3.2407374382019,-20.9746627807617,-21.8853244781494,-18.8743495941162,2.07795000076294,2.03895020484924,1.81005012989044,8.12595081329346,9.81195068359375,10.4629507064819,SWING_RIGHT
2.60053753852844,2.07501244544983,1.70527493953705,1.09500002861023,1.17195010185242,2.35995006561279,0.87807500362396,0.77990001440048,0.68873751163483,0.00687499996275,0.3962749838829,0.4644750058651,2.19300007820129,3.37995004653931,3.03495025634766,9.96495056152344,8.778000831604,8.5090503692627,1.09573745727539,1.1281875371933,1.15610003471375,2.24505019187927,1.8229501247406,-2.23605012893677,0.27967500686646,0.34581249952316,0.47574999928474,0.00453749997541,0.00041249999776,0.0027499999851,6.21495008468628,5.9089503288269,2.95905017852783,10.6549501419067,12.1489505767822,13.8720006942749,0.98037499189377,0.88302499055862,0.95438748598099,6.49695014953613,30.1710014343262,49.2480010986328,0.00096249999478,-2.73171257972717,-5.58758735656738,2.8969874382019,0.83737498521805,-1.59596252441406,-55.2289543151855,-33.1639518737793,-17.6880016326904,-45.1579513549805,-31.2520523071289,2.30400013923645,1.41267502307892,1.08955001831055,2.82686257362366,-36.5209503173828,-32.4990005493164,-21.4279518127441,-12.4233999252319,-11.3584623336792,-14.9382753372192,-5.2047872543335,-6.5388126373291,-16.0930004119873,4.83600044250488,2.38394999504089,-0.06599999964237,9.73500061035156,9.31395053863525,6.74700021743774,13.5184497833252,14.1319751739502,13.4891624450684,10.9789505004883,8.6419506072998,4.65795040130615,-6.3963623046875,-2.11777496337891,2.34794998168945,-19.186336517334,-15.8793249130249,-12.5547122955322,1.77105009555817,1.27305006980896,0.73695003986359,7.16895055770874,10.7700004577637,11.6119508743286,SWING_RIGHT
1.19487500190735,1.88856244087219,2.29886245727539,0.82695001363754,1.28700006008148,1.51695013046265,0.00618749996647,0.00233749998733,0.00027499999851,0.31377500295639,0.30841249227524,0.24956250190735,1.77105009555817,2.11605000495911,2.88195013999939,9.5440502166748,9.5440502166748,8.66295051574707,4.96911239624023,5.32509994506836,5.47882509231567,0.78900003433228,0.32895001769066,-1.69995009899139,0.81949996948242,1.03083753585815,1.25042498111725,0.32188749313354,0.48606249690056,0.82499998807907,7.01895046234131,6.13800048828125,1.96305012702942,13.2979507446289,13.7190008163452,13.7190008163452,3.34427499771118,1.84593749046326,1.47647500038147,-9.97395038604736,48.4050025939941,43.2330017089844,-0.57667499780655,-2.80376243591309,-8.57656288146973,4.96636247634888,4.43217515945435,-0.90887498855591,-50.4400520324707,-35.1559524536133,-10.9840507507324,-43.7790031433105,-40.3699531555176,20.2309513092041,1.57093751430511,1.23021245002747,1.627312541008,-30.5449523925781,-28.8210010528564,-24.9139518737793,-10.9330377578735,-8.39849948883057,-11.5053119659424,-7.53486251831055,-8.08816242218018,-17.5104866027832,3.22695016860962,2.65200018882751,1.54095005989075,7.51305055618286,7.4370002746582,7.12995052337646,12.6310253143311,15.24049949646,14.9899749755859,6.76500034332275,4.39005041122437,2.62800002098084,-4.50766229629517,-3.99396252632141,2.54320001602173,-16.836462020874,-18.424861907959,-10.6317749023438,1.35000002384186,0.50700002908707,0.69900006055832,10.0420503616333,10.0420503616333,8.24100017547607,SWING_RIGHT
-0.00164999999106,0.00027499999851,0.00247499998659,0.02295000106096,-1.77705013751984,-3.69195008277893,0.17531250417233,0.32972499728203,0.49486249685287,0.0027499999851,0.28902500867844,0.61778748035431,2.69100022315979,1.42695009708405,0.58395004272461,9.19905090332031,11.2680006027222,11.2680006027222,-0.18108749389648,-0.19016249477863,-0.00109999999404,0.59700000286102,1.09500002861023,2.66595005989075,0.00412499997765,-0.9149249792099,-1.38998746871948,1.75628745555878,1.0477499961853,0.5545374751091,0.8520000576973,3.53295016288757,3.84000015258789,8.66295051574707,10.9609508514404,12.3400506973267,5.0098123550415,6.23933744430542,7.49388742446899,-14.5710010528564,-0.47400003671646,54.0739517211914,-0.48138749599457,-0.78333747386932,-2.07528758049011,1.04252505302429,1.49586248397827,0.38719999790192,-45.0010528564453,-45.5370025634766,-40.3270530700684,-57.2629508972168,-57.2629508972168,-33.5130004882813,6.01809978485107,4.8373875617981,4.65286254882813,-47.745002746582,-44.7570037841797,-27.9400520324707,-10.7173004150391,-9.60354995727539,-10.9221754074097,-6.87857484817505,-10.4537124633789,-19.1630992889404,0.8520000576973,-1.71405005455017,-1.94295012950897,4.02795028686523,8.73900032043457,2.91705012321472,7.71333742141724,9.78147506713867,10.0674753189087,12.8940010070801,13.123950958252,6.72705030441284,-4.92442512512207,-4.14273738861084,-2.99254989624023,-21.1059741973877,-23.5701122283936,-22.7154121398926,0.58395004272461,0.92895007133484,0.92895007133484,10.4629507064819,12.6469507217407,12.6469507217407,SWING_RIGHT
0.55192500352859,0.54505002498627,0.53363752365112,2.7810001373291,2.16795015335083,1.28700006008148,0.23801249265671,0.34457498788834,0.36726251244545,0.35254999995232,0.47451248764992,0.54395002126694,2.69100022315979,2.15400004386902,2.95905017852783,9.77400016784668,8.16495037078857,8.16495037078857,0.77852499485016,0.9589250087738,1.38201248645782,-0.05295000225306,-1.27905011177063,-2.16000008583069,0.45732501149178,0.48592498898506,0.49816250801086,0.98175001144409,1.27998745441437,1.72796249389648,2.88195013999939,3.37995004653931,3.80205011367798,11.8420505523682,9.69705009460449,9.19905090332031,2.70875000953674,3.06597495079041,3.67400002479553,30.7069511413574,51.1249542236328,32.661003112793,-0.26757499575615,-4.08443737030029,-7.20926237106323,3.29243755340576,-0.54807502031326,-2.16232490539551,-53.0070037841797,-13.243950843811,-0.29595002532005,-29.7970504760742,21.5340003967285,21.5340003967285,1.68217504024506,1.14358747005463,2.53618741035461,-32.6520004272461,-29.1660022735596,-8.86305046081543,-15.3444499969482,-6.96066236495972,0.59771251678467,3.3764500617981,12.8984622955322,18.0493507385254,1.57995009422302,-0.02805000171065,-1.63695013523102,13.9870510101318,13.9870510101318,13.7959508895874,12.1339626312256,11.7741250991821,10.6218748092651,6.34395027160645,4.15995025634766,1.93800008296967,11.0908870697021,-0.41635000705719,-1.98866248130798,6.72292518615723,-10.6695871353149,-12.1049499511719,0.62205004692078,0.73695003986359,1.08195006847382,10.3870506286621,10.2330007553101,9.39105033874512,SWING_RIGHT
1.21770000457764,1.38091254234314,1.47551250457764,2.66595005989075,2.28299999237061,1.93800008296967,0.22852499783039,0.30579999089241,0.41786250472069,-0.52689999341965,-0.69093751907349,-0.9646999835968,3.18900012969971,2.88195013999939,2.65200018882751,9.39105033874512,9.27600002288818,8.89305019378662,1.57410001754761,1.46162497997284,1.33581244945526,2.81895017623901,3.01095008850098,2.89605021476746,0.46309998631477,0.41566249728203,0.38403749465942,-0.33398750424385,-0.16142499446869,-0.00041249999776,3.37995004653931,4.06995010375977,5.9850001335144,9.31395053863525,9.31395053863525,9.31395053863525,0.94655001163483,0.85896247625351,0.70894998311996,-5.45400047302246,-0.85695004463196,25.8040504455566,0.87064999341965,1.10632503032684,-0.00632499996573,1.03908753395081,1.53065001964569,1.61370003223419,-32.5890007019043,-41.170051574707,-21.2500514984131,5.98095035552979,-14.4360008239746,-30.984001159668,1.6218124628067,1.29153752326965,0.93582499027252,-30.8899517059326,-35.4490509033203,-20.3940010070801,-10.7720251083374,-10.6650495529175,-8.94011211395264,0.7012500166893,1.28548753261566,3.33410000801086,3.99300026893616,2.49900007247925,0.58395004272461,10.6159505844116,13.4890508651733,13.4890508651733,1.74831247329712,1.54508745670319,1.9181250333786,5.0029501914978,7.26300048828125,6.72705030441284,11.5753002166748,11.3232622146606,7.82760000228882,8.32205009460449,6.25666236877441,-2.30202507972717,0.69900006055832,1.23495006561279,1.61805009841919,7.55205059051514,9.04605007171631,11.6119508743286,SWING_RIGHT
0.22274999320507,0.21559999883175,0.21532499790192,0.21405000984669,-0.24405001103878,-0.66600000858307,0.29438748955727,0.33357501029968,0.36602500081062,0.62851250171661,0.82307499647141,0.94201248884201,3.22695016860962,2.76705002784729,2.49900007247925,9.65895080566406,9.50505065917969,9.50505065917969,0.31762498617172,0.39531248807907,0.56870001554489,-1.16400003433228,-1.08705008029938,0.02295000106096,0.34787499904633,0.20899999141693,0.00096249999478,1.48472499847412,1.46808743476868,1.37059998512268,2.11605000495911,3.57195019721985,6.2920503616333,11.076000213623,11.6890506744385,12.7620010375977,1.59885001182556,1.90107500553131,2.27356243133545,-7.3690505027771,7.83795022964478,49.4010009765625,-0.54436248540878,-1.17466247081757,-3.48892498016357,0.91176247596741,0.42748749256134,-1.01887500286102,-37.7220001220703,-34.5810012817383,-12.2860507965088,-4.62900018692017,-17.9599514007568,20.4229507446289,2.40198755264282,1.47812497615814,1.87591254711151,-39.3940505981445,-35.4100532531738,-19.0150508880615,-12.4260120391846,-12.1138877868652,-8.09462451934814,-2.62473750114441,-2.67190003395081,1.34708750247955,2.57595014572144,2.19300007820129,1.27305006980896,7.28400039672852,10.2720003128052,12.2640008926392,9.4785623550415,10.7271995544434,10.6008377075195,7.7989501953125,6.99495029449463,5.30895042419434,11.9780378341675,11.625075340271,2.85766243934631,7.53802490234375,1.8298499584198,-10.4920749664307,2.07795000076294,2.15400004386902,2.00100016593933,6.21105051040649,10.5010509490967,10.0420503616333,SWING_RIGHT
0.17668749392033,0.19813749194145,0.19786250591278,-0.85695004463196,0.36795002222061,0.21405000984669,0.39861249923706,0.43821248412132,0.45429998636246,0.6349750161171,0.77742499113083,1.01502501964569,2.49900007247925,2.30805015563965,2.72895002365112,8.4330005645752,8.89305019378662,10.3480501174927,0.45581248402596,0.5820375084877,0.72228747606277,-1.89105010032654,-1.96800005435944,-2.65800023078919,-0.19910000264645,-0.30579999089241,-0.37056249380112,1.07346248626709,1.13918745517731,1.26348745822906,5.41095018386841,7.09605026245117,7.09605026245117,11.3440504074097,11.3440504074097,11.5360507965088,1.20560002326965,1.22993743419647,1.2227874994278,-13.7280006408691,34.078052520752,63.4600524902344,-0.0042624999769,-0.75267499685287,-6.37188768386841,2.90179991722107,2.81792497634888,-0.66467499732971,-52.279052734375,-33.4699516296387,-6.57900047302246,-61.3999519348145,-61.3999519348145,27.3570003509521,0.91258752346039,0.45732501149178,0.81840002536774,-32.6520004272461,-33.9550514221191,-26.4850521087646,-10.8981122970581,-6.6426248550415,2.75976252555847,-4.18371248245239,1.65041244029999,10.0146751403809,1.19700002670288,0.20100000500679,-0.29595002532005,10.6549501419067,10.7700004577637,10.7700004577637,4.44551229476929,6.26408767700195,5.90259981155396,9.9060001373291,5.80695009231567,2.93400025367737,12.4239501953125,11.606650352478,2.38631248474121,10.2815628051758,5.03607511520386,-11.195387840271,2.95905017852783,2.76705002784729,1.732950091362,9.92700004577637,10.3099508285522,10.1569509506226,SWING_RIGHT
-0.00192499998957,-0.00604999996722,-0.1891999989748,0.67395001649857,0.82695001363754,0.52095001935959,0.2954874932766,0.17806249856949,0.00316249998286,0.90158748626709,0.8984249830246,0.85236251354218,3.53295016288757,3.8779501914978,4.33800029754639,8.5090503692627,8.5090503692627,8.5090503692627,0.00618749996647,0.18878750503063,0.2404875010252,-0.62700003385544,-1.27905011177063,-2.35095000267029,0.33797499537468,0.56155002117157,0.57034999132156,0.595787525177,0.80739998817444,1.04403746128082,4.56795024871826,5.14200019836426,5.94705009460449,11.3059501647949,10.6930503845215,11.9569501876831,0.46543750166893,0.53556251525879,0.54711252450943,-13.4599504470825,-9.5149507522583,30.094051361084,-0.36396250128746,-0.98326247930527,-2.13606238365173,3.30632495880127,3.76323747634888,3.65846252441406,-37.9519500732422,-49.8660011291504,-38.6800537109375,6.09600019454956,-27.3070507049561,-43.8940505981445,2.10828757286072,1.67433750629425,1.19377493858337,-37.4410514831543,-33.0349502563477,-29.6260509490967,-11.9319753646851,-10.6642246246338,-7.02336263656616,-4.61766242980957,-4.04139995574951,0.33412501215935,2.46105003356934,4.2610502243042,2.53695011138916,14.3700008392334,15.0979509353638,15.0979509353638,0.00453749997541,0.57365000247955,2.65182495117188,6.53505039215088,8.94795036315918,5.8840503692627,11.8399877548218,12.1059122085571,11.5196123123169,12.1785125732422,10.2286252975464,6.31578731536865,3.03495025634766,3.07395005226135,2.80605006217957,4.48695039749146,6.24900007247925,7.70505046844482,SWING_RIGHT
-0.00082499999553,-0.00467499997467,-0.41263750195503,-5.49195003509521,-4.22805023193359,-0.81900006532669,0.78058749437332,0.72503751516342,0.50709998607635,2.16397500038147,2.64852499961853,2.99763751029968,-0.25800001621246,-1.13895010948181,-1.02404999732971,9.46695041656494,9.42900085449219,8.24100017547607,-0.20116250216961,0.53363752365112,1.62800002098084,7.1100001335144,6.53505039215088,5.30895042419434,-2.95941257476807,-2.95336246490479,-2.18707489967346,-0.72668749094009,-3.58462500572205,-4.49020004272461,3.72495007514954,4.1850004196167,3.8779501914978,6.82395029067993,7.01505041122437,8.70105075836182,5.36442518234253,5.2733998298645,3.90334987640381,3.96900010108948,1.74705004692078,-0.20595000684261,4.027512550354,0.16830000281334,0.21051250398159,-1.23475003242493,-0.00219999998808,-0.00109999999404,-6.11895036697388,3.61005020141602,3.6870002746582,9.16095066070557,9.08400058746338,9.31395053863525,0.00041249999776,0.00027499999851,0.00013749999925,1.05705010890961,0.98100006580353,1.09500002861023,0.00522499997169,0.00219999998808,-0.00082499999553,-0.00261249998584,-0.00343749998137,-0.00412499997765,3.6870002746582,3.61005020141602,3.49500012397766,9.16095066070557,9.08400058746338,9.04605007171631,-0.0027499999851,-0.00384999997914,-0.0042624999769,0.90405005216599,0.94200003147125,0.98100006580353,-0.00494999997318,-0.00439999997616,-0.00357499998063,-0.00371249997988,-0.00302499998361,-0.00192499998957,3.45705008506775,3.49500012397766,3.53295016288757,9.08400058746338,9.04605007171631,8.96895027160645,SWING_RIGHT
0.26798748970032,0.31446251273155,0.29617500305176,1.36395001411438,1.36395001411438,0.67395001649857,-0.00302499998361,0.00013749999925,0.00329999998212,0.00618749996647,0.14176249504089,0.16651250422001,4.79805040359497,5.25705003738403,5.52495002746582,8.73900032043457,8.73900032043457,7.97295045852661,-0.00412499997765,-0.21133749186993,-0.30483749508858,-1.39305007457733,-0.35895001888275,3.12600016593933,0.51590001583099,0.54738748073578,0.34540000557899,0.8592374920845,1.33924996852875,1.42491245269775,0.16200000047684,1.77105009555817,3.11205005645752,8.62395000457764,11.9569501876831,11.3830509185791,1.00828754901886,1.97780001163483,4.19168758392334,1.55505001544952,1.59300005435944,22.6240501403809,-1.50603747367859,-1.50672495365143,-1.35987496376038,0.75913751125336,0.59441250562668,0.41222500801086,-28.5289516448975,-43.6219520568848,-46.4560508728027,12.3019504547119,8.73900032043457,-18.4200000762939,6.63877487182617,7.7299747467041,9.89051246643066,-22.0410003662109,-31.8480014801025,-28.0549507141113,-3.82648754119873,-4.90366268157959,-5.18567514419556,-11.3640995025635,-16.8100624084473,-16.5473003387451,-2.13495016098022,7.86195039749146,3.64800024032593,10.0030508041382,3.7590000629425,5.36805009841919,18.7611865997314,18.2587623596191,12.9020376205444,-6.18195009231567,-0.58905005455017,7.1100001335144,8.1552619934082,9.37639999389648,10.0643119812012,3.39776253700256,5.0142126083374,4.41677474975586,-1.86705005168915,-1.06200003623962,0.16200000047684,3.87405014038086,3.87405014038086,6.90105009078979,SWING_RIGHT
0.97033751010895,1.08803749084473,1.22017502784729,-0.85695004463196,-0.97200006246567,-0.74205005168915,-0.00261249998584,-0.00687499996275,-0.14891250431538,0.55935001373291,0.28696250915527,0.19126249849796,1.23495006561279,2.34600019454956,3.18900012969971,8.73900032043457,11.0380506515503,11.0380506515503,1.62800002098084,1.72493743896484,1.82833743095398,-3.19395017623901,-3.19395017623901,-2.54295015335083,-0.21298749744892,-0.25671249628067,-0.31446251273155,0.57997500896454,0.80423748493195,1.02409994602203,2.46105003356934,3.99300026893616,5.44905042648315,12.3780002593994,11.8810501098633,11.8420505523682,1.91042494773865,1.93572497367859,2.050950050354,-1.04895007610321,50.5879516601563,52.3510513305664,-0.40534999966621,-2.38919997215271,-4.88276243209839,1.49586248397827,-0.14575000107288,-1.76178753376007,-46.9540519714355,-3.01605010032654,2.57595014572144,-39.4879531860351,6.13395023345947,23.0280017852783,-0.60788750648499,-1.6299250125885,-0.87807500362396,-19.2060012817383,-19.8580513000488,-7.44600057601929,-9.8223123550415,-7.07272481918335,-1.87426245212555,0.76917499303818,3.2106249332428,6.35965013504028,2.49900007247925,1.88595008850098,-0.02805000171065,6.24900007247925,10.5780000686646,11.8420505523682,5.90383768081665,5.9417872428894,5.29443740844727,5.5009503364563,2.47500014305115,1.66995012760162,10.0468502044678,6.18942499160767,2.79344987869263,1.60957503318787,-4.89238739013672,-7.20101261138916,0.8520000576973,1.19700002670288,1.19700002670288,11.4210004806519,11.076000213623,10.3870506286621,SWING_RIGHT
0.62273746728897,0.5626500248909,0.51906251907349,-0.09105000644922,-0.16800001263618,-0.20595000684261,0.70606249570847,0.56045001745224,0.51727497577667,0.35172501206398,0.3408625125885,0.35956248641014,4.1850004196167,3.99300026893616,4.22294998168945,9.00705051422119,8.778000831604,9.35205078125,0.36959999799728,0.37441250681877,0.41978749632835,-0.47400003671646,-0.78105002641678,0.06105000153184,0.28352499008179,0.21133749186993,0.00659999996424,0.51590001583099,0.55233746767044,0.60046249628067,3.80205011367798,5.14200019836426,6.63600015640259,10.5400505065918,10.5400505065918,10.3870506286621,0.96332502365112,1.0757999420166,1.22319996356964,4.54305028915405,49.3240509033203,61.3530044555664,-0.1717374920845,-1.75230002403259,-3.86567497253418,1.21041250228882,0.7071624994278,-0.0015124999918,-57.6420021057129,5.75505018234253,-1.21605002880096,-44.0470504760742,27.8160018920898,27.8160018920898,0.43202498555183,-0.00604999996722,1.06012499332428,-15.1840505599976,-18.0949516296387,-10.5490503311157,-8.79243755340576,-3.62958741188049,2.50882506370544,4.48222494125366,7.5286750793457,9.38643741607666,4.64400005340576,2.6140501499176,-0.67905002832413,9.81195068359375,10.0420503616333,8.8540506362915,3.95642495155334,4.14370012283325,3.62422490119934,2.70405006408691,2.70405006408691,2.47500014305115,12.2551002502441,3.70947504043579,0.3632749915123,1.87316250801086,-6.2529501914978,-8.07798767089844,1.23495006561279,1.35000002384186,1.88595008850098,9.96495056152344,10.8460502624512,11.0380506515503,SWING_RIGHT
1.02808749675751,1.10962498188019,1.17246246337891,-1.54695010185242,-1.31700003147125,-1.04895007610321,0.17655000090599,0.1876875013113,0.17929999530315,0.35640001296997,0.43285000324249,0.50366252660751,1.57995009422302,1.38795006275177,1.35000002384186,9.08400058746338,9.08400058746338,9.42900085449219,1.20092499256134,1.16888749599457,1.18992495536804,1.09500002861023,0.44400003552437,-1.93005013465881,-0.14451250433922,-0.20267499983311,0.00013749999925,-0.21147499978542,-0.46997499465942,-0.57529997825623,5.37195014953613,5.83200025558472,1.77105009555817,10.2720003128052,10.8079509735107,10.0030508041382,1.69578754901886,1.80441248416901,1.91454994678497,-1.66200006008148,9.86805057525635,45.4549522399902,0.56306248903275,-0.27527499198914,-3.17803740501404,2.6166250705719,2.48627495765686,1.1672375202179,-55.5739517211914,-24.928050994873,-8.03400039672852,-55.7310028076172,-55.7310028076172,9.8500509262085,0.33577498793602,-2.03527498245239,-1.58867502212524,-24.4159507751465,-22.8840007781982,-21.8500518798828,-12.5277624130249,-11.5050373077393,-1.3668874502182,0.25286251306534,0.64308750629425,6.88407516479492,4.83600044250488,4.2610502243042,0.88995003700256,13.4890508651733,14.3320503234863,13.2600002288818,4.53516244888306,5.43028736114502,5.22389984130859,6.22905015945435,7.91400051116943,6.15195035934448,12.1177377700806,11.1457500457764,8.79573726654053,3.45386242866516,1.1061874628067,-2.82108759880066,2.69100022315979,2.57595014572144,2.07795000076294,11.0380506515503,11.0380506515503,10.5400505065918,SWING_RIGHT
0.40122500061989,0.39985001087189,0.41635000705719,0.36795002222061,0.25304999947548,0.02295000106096,-0.00137499999255,-0.00013749999925,0.00192499998957,0.34278750419617,0.43367499113083,0.48633748292923,2.53695011138916,2.88195013999939,3.03495025634766,9.39105033874512,8.54805088043213,9.69705009460449,0.55302500724792,0.62218749523163,0.74909996986389,-1.62300002574921,-2.00595021247864,-3.8449501991272,0.53088748455048,0.66659998893738,0.76628750562668,0.96896249055862,1.14977502822876,1.35588753223419,4.33800029754639,5.33400011062622,4.45305013656616,13.03005027771,13.6429510116577,13.6429510116577,0.8486499786377,0.64721250534058,0.45141249895096,-9.16995048522949,4.96500015258789,51.355052947998,-0.00068749999627,-1.68726253509521,-3.61212491989136,3.05745005607605,3.1605749130249,2.59833741188049,-36.457950592041,-47.8740005493164,-18.9520511627197,-10.452000617981,-51.2869529724121,2.4190502166748,-3.19164991378784,-5.62567520141602,-6.16371250152588,-27.8640022277832,-30.3150005340576,-23.5729503631592,-12.2324123382568,-10.9982128143311,-8.60626220703125,-0.40796250104904,-1.19116246700287,-0.81730002164841,2.57595014572144,1.732950091362,0.16200000047684,9.12195014953613,6.32595014572144,5.56005048751831,4.88936233520508,6.63135004043579,6.9310998916626,5.07900047302246,4.46700000762939,4.62000036239624,14.5323753356934,13.6966495513916,11.9303245544434,2.40267491340637,0.00109999999404,-4.01623725891113,1.38795006275177,0.39195001125336,0.50700002908707,8.66295051574707,8.96895027160645,9.61995029449463,SWING_RIGHT
0.95480000972748,0.84727501869202,0.77109998464584,0.82695001363754,0.09900000691414,-0.51195001602173,0.74332499504089,0.77591252326965,0.7899374961853,0.3785375058651,0.61407500505447,1.04321253299713,2.65200018882751,2.42295002937317,2.65200018882751,9.08400058746338,8.05005073547363,10.0800008773804,0.54092502593994,0.56746250391006,0.62617498636246,-1.69995009899139,-1.43205010890961,-1.73805010318756,0.48193749785423,0.33123749494553,0.15510000288486,1.64037501811981,1.66182494163513,1.60778748989105,3.99300026893616,4.30005025863647,3.8779501914978,13.4130010604858,15.3660011291504,16.1710510253906,1.03729999065399,0.87752497196198,0.71733748912811,-17.8660507202148,29.9029521942139,62.2720527648926,-0.63511252403259,-1.28273749351501,-4.56788730621338,2.2094874382019,2.22268748283386,0.4464625120163,-39.2550010681152,-51.4750518798828,1.77105009555817,-47.9539527893066,-47.9539527893066,5.36805009841919,-2.54086256027222,-3.93387508392334,-3.86732506752014,-17.0610008239746,-18.0190505981445,-17.2909507751465,-11.9343128204346,-9.88033771514893,-2.70847487449646,-4.38583755493164,-4.37071228027344,0.44068750739098,4.14600038528442,4.33800029754639,2.84400010108948,13.03005027771,12.1489505767822,11.6890506744385,3.9782874584198,7.50681257247925,7.47298765182495,5.42400026321411,5.5770001411438,4.31295013427734,16.9202003479004,16.5312118530273,5.23792505264282,3.8032500743866,2.95803737640381,-6.97826242446899,2.88195013999939,3.41895008087158,1.88595008850098,9.42900085449219,9.42900085449219,8.70105075836182,SWING_RIGHT
0.8485124707222,1.39919996261597,1.51387500762939,-0.39705002307892,-1.43205010890961,-0.01395000051707,1.7742999792099,1.98137497901917,1.81885004043579,-0.51590001583099,0.28146249055862,1.75284993648529,2.38394999504089,1.81005012989044,1.57995009422302,7.16895055770874,6.90105009078979,6.97695016860962,1.25042498111725,1.61122500896454,2.37599992752075,6.72705030441284,5.65395021438599,4.62000036239624,-0.23100000619888,-0.00041249999776,0.60706251859665,0.95548748970032,0.39160001277924,0.00178749999031,4.91295003890991,5.29605007171631,4.33800029754639,10.6549501419067,9.65895080566406,9.08400058746338,9.46082496643066,9.31617450714111,8.52266216278076,13.6990509033203,22.4710502624512,-1.69995009899139,2.55832505226135,0.58726251125336,-5.62704992294312,1.40208745002747,1.20821249485016,-1.0752500295639,-46.4560508728027,-47.7589530944824,-12.3250503540039,-36.3090019226074,-33.8959503173828,12.2640008926392,4.99936246871948,5.62168741226196,6.14666223526001,-22.1179504394531,-31.3500022888184,-14.1109504699707,-8.3685245513916,-3.81809997558594,2.97041249275208,-4.65478754043579,-1.54742503166199,2.84611248970032,-2.09700012207031,-4.39499998092651,-4.12695026397705,15.2520008087158,9.61995029449463,9.5440502166748,8.60117530822754,7.08606243133545,5.9608998298645,7.76100015640259,9.60000038146973,7.45395040512085,11.5555000305176,10.3581495285034,3.07202506065369,2.8833749294281,-0.27706250548363,-9.78051280975342,0.35400000214577,0.73695003986359,1.54095005989075,7.81995058059692,7.81995058059692,7.12995052337646,SWING_RIGHT
0.37619999051094,0.35997501015663,0.36011248826981,-0.51195001602173,-0.32100000977516,-0.47400003671646,0.36382499337196,0.38376250863075,0.40878748893738,0.56471252441406,0.37441250681877,0.16912500560284,3.84000015258789,3.95505023002625,4.14600038528442,8.96895027160645,8.4330005645752,8.62395000457764,0.6873624920845,0.76945000886917,0.84644997119904,-1.20195007324219,-2.04495000839233,-4.03695011138916,0.65009999275208,0.78828752040863,0.87463748455048,-0.14698749780655,0.24983750283718,0.6599999666214,7.24905014038086,8.09205055236816,2.72895002365112,9.73500061035156,10.5400505065918,6.82395029067993,0.76243752241135,0.49142500758171,-0.20638750493526,-8.21205043792725,6.42000007629395,65.0299530029297,0.25891250371933,-1.04183745384216,-4.34224987030029,4.3267126083374,4.47741270065308,2.97096252441406,-48.4480514526367,-39.9060020446777,-2.09700012207031,-57.8760032653809,-57.8760032653809,-34.3170013427734,-4.4197998046875,-4.54121255874634,-3.81053757667542,-26.5999507904053,-27.0589504241943,-22.3860015869141,-14.1347246170044,-8.93887519836426,1.25056254863739,-5.28962516784668,-1.91248750686646,5.34366226196289,0.39195001125336,1.81005012989044,2.11605000495911,13.8720006942749,7.39905023574829,4.87005043029785,6.65609979629517,8.37979984283447,7.77108764648438,8.68005084991455,8.75699996948242,3.62400007247925,12.7930002212524,12.1243371963501,8.36481285095215,5.60683727264404,1.78873753547668,-6.09523725509644,4.14600038528442,3.57195019721985,2.65200018882751,10.4629507064819,10.8850507736206,10.8850507736206,SWING_RIGHT
0.00604999996722,0.14891250431538,0.16018749773502,-4.45800018310547,-1.16400003433228,0.13800001144409,0.57090002298355,0.52854996919632,0.007012499962,2.12231254577637,2.17827486991882,1.60517501831055,0.69900006055832,0.88995003700256,2.30805015563965,7.24500036239624,9.50505065917969,10.6159505844116,0.56086248159409,0.75638747215271,0.94985002279282,0.09900000691414,-2.23605012893677,-3.76905012130737,-1.01364994049072,-0.78663748502731,-0.3605250120163,-1.76261246204376,-1.79299998283386,-1.3446124792099,6.82800054550171,6.21495008468628,4.52895021438599,8.4330005645752,6.01905012130737,3.83595013618469,1.96033751964569,1.91413748264313,1.81747496128082,-0.62700003385544,56.028003692627,19.6360511779785,1.62676250934601,-0.51026248931885,-12.4863748550415,3.49607491493225,2.36018753051758,-1.63776254653931,-51.4360542297363,-48.9079513549805,-3.62895011901855,-43.7410507202149,-43.7410507202149,16.2090015411377,-1.17411243915558,-0.66976249217987,0.00384999997914,-35.7169532775879,-24.5689506530762,-19.1299514770508,-16.0021133422852,-10.0520753860474,5.5712251663208,-6.07323741912842,-1.9600625038147,7.46858739852905,0.81405001878738,-0.02805000171065,-0.56400001049042,11.5740003585815,5.67495012283325,-0.68295001983643,13.5634126663208,13.4567127227783,12.6000871658325,10.7490005493164,6.34395027160645,3.35595011711121,14.9565620422363,14.9054126739502,3.04837489128113,3.83583736419678,0.76931250095367,-17.1725120544434,3.91695022583008,3.95505023002625,3.15000009536743,8.54805088043213,11.5740003585815,11.3830509185791,SWING_RIGHT
0.26358750462532,0.22329999506474,0.21477499604225,-1.43205010890961,-0.62700003385544,-0.09105000644922,0.43023750185966,0.44371250271797,0.35694998502731,1.25963747501373,1.38297498226166,1.28562498092651,2.92095017433167,2.99700021743774,3.18900012969971,9.00705051422119,8.54805088043213,9.19905090332031,0.54326248168945,0.7206375002861,0.9094250202179,0.02295000106096,-1.27905011177063,-4.87905025482178,0.00371249997988,0.00687499996275,0.22261250019073,-0.00618749996647,-0.00604999996722,0.22632500529289,6.06195020675659,1.27305006980896,-6.08100032806396,12.5700006484985,10.2330007553101,9.58200073242188,1.40896248817444,1.2919499874115,1.35959994792938,18.0270004272461,46.0300521850586,26.2249507904053,-2.19037508964539,-4.50862503051758,-12.0031995773315,0.99316251277924,-1.66649997234344,-5.04721260070801,-61.5880546569824,-49.4059524536133,9.31800079345703,-56.1520538330078,-37.9560012817383,14.8300504684448,-0.36355000734329,0.44398748874664,1.42807495594025,-33.3799514770508,-24.8760013580322,-7.86705017089844,-11.6619253158569,-10.6532249450684,-12.2567501068115,-9.30283737182617,-12.1897878646851,-18.5690994262695,-2.63295006752014,-1.13895010948181,-1.02404999732971,3.98895025253296,-1.48800003528595,-3.59505009651184,6.67617511749268,5.68149995803833,4.98052501678467,20.3640003204346,4.27500009536743,-0.28305000066757,-13.3798503875732,-14.2496747970581,-6.31523752212524,-34.2633514404297,-33.4659881591797,-21.2279376983643,4.87395000457764,4.83600044250488,3.41895008087158,11.8039503097534,11.8039503097534,11.9950504302979,SWING_RIGHT
0.27073749899864,0.27500000596046,0.33412501215935,1.97700011730194,2.70405006408691,3.62400007247925,0.3948999941349,-0.29136249423027,-0.52016252279282,0.98353749513626,0.41635000705719,0.00206249998882,3.84000015258789,4.45305013656616,5.52495002746582,6.24900007247925,7.12995052337646,7.09200048446655,1.14661252498627,1.25510001182556,1.13808751106262,-3.76905012130737,-4.03695011138916,-2.69595003128052,1.43907499313354,1.78199994564056,1.85253751277924,0.73273748159409,1.48527503013611,2.17414999008179,4.06995010375977,3.8779501914978,2.26905012130737,10.8460502624512,7.01505041122437,5.8279504776001,-0.17998750507832,-0.00412499997765,0.4115374982357,29.0209522247314,41.2800025939941,32.506950378418,-1.19336247444153,-5.02012491226196,-15.9780502319336,0.93967497348785,-5.31107473373413,-2.21058750152588,-55.3819541931152,-14.7000007629395,6.4830002784729,-24.0510005950928,9.00705051422119,27.2029514312744,1.90643751621246,2.98993754386902,5.69552516937256,-33.6859512329102,-25.0290012359619,-7.3690505027771,-12.9490623474121,-8.75517463684082,3.47833752632141,-4.63086271286011,0.37014999985695,5.0556001663208,2.26905012130737,0.92895007133484,0.81405001878738,8.778000831604,8.778000831604,7.24500036239624,13.5403127670288,12.7443246841431,11.7075748443604,9.6379508972168,8.79495048522949,7.49295043945313,13.2347869873047,5.02273750305176,-1.02753746509552,0.73122501373291,-11.065037727356,-13.6976127624512,1.38795006275177,2.15400004386902,1.77105009555817,6.67095041275024,9.08400058746338,9.77400016784668,SWING_RIGHT
0.0042624999769,0.00439999997616,0.00453749997541,1.17195010185242,1.21005010604858,1.17195010185242,0.60197502374649,0.56113749742508,0.4796000123024,0.48620000481606,0.51342499256134,0.51603752374649,2.84400010108948,2.92095017433167,2.99700021743774,9.8500509262085,9.8500509262085,9.81195068359375,0.23003749549389,0.32326251268387,0.36629998683929,0.94200003147125,-1.43205010890961,-3.38505005836487,0.20308749377728,0.3257375061512,0.88921248912811,0.25822499394417,0.30442500114441,0.92248749732971,7.40205049514771,7.40205049514771,-0.7180500626564,9.58200073242188,11.2680006027222,12.9910507202148,0.31294998526573,0.00357499998063,-0.23773749172688,-10.0510501861572,6.49695014953613,44.2680015563965,-0.00178749999031,-1.96047496795654,-5.13301229476929,4.62316226959229,4.53296232223511,3.37837505340576,-54.1950035095215,-50.7850532531738,-5.00805044174194,-61.7070045471191,-61.7070045471191,-5.58705043792725,-1.73456251621246,-3.25324988365173,-2.83978748321533,-41.1949501037598,-20.0110511779785,-15.1840505599976,-13.376275062561,-11.8485126495361,1.82558751106262,-3.60016250610352,-4.0283374786377,2.82301259040833,3.03495025634766,3.45705008506775,3.18900012969971,9.42900085449219,4.33395004272461,4.21905040740967,4.65368747711182,6.53867483139038,7.21063756942749,6.88005018234253,6.72705030441284,6.03705024719238,16.3745994567871,16.1026248931885,12.7545003890991,2.0124499797821,-1.06369996070862,-5.96598768234253,3.30405020713806,3.07395005226135,2.76705002784729,8.4330005645752,8.39505004882813,8.20305061340332,SWING_RIGHT
0.16307500004768,0.22055000066757,0.28792500495911,-0.35895001888275,-0.12900000810623,0.32895001769066,0.26675000786781,0.38073748350143,0.50050002336502,0.49417498707771,0.67127501964569,0.87711250782013,3.6870002746582,4.30005025863647,4.10805034637451,10.3870506286621,9.88905048370361,9.39105033874512,0.6873624920845,0.80836248397827,0.85497498512268,-3.69195008277893,-2.27505016326904,-2.16000008583069,0.56237500905991,0.30373749136925,-0.47286251187325,2.05301237106323,2.18597507476807,2.14403748512268,0.73695003986359,0.77505004405975,4.14600038528442,11.8420505523682,10.6930503845215,8.66295051574707,0.81633746623993,0.8592374920845,0.97624999284744,-6.33495044708252,-4.26705026626587,10.8259506225586,-1.62951254844666,-1.38269996643066,-1.81733751296997,0.28998750448227,-0.00123749999329,-1.31889998912811,-44.3110504150391,-54.9990043640137,-28.5670509338379,-39.9100532531738,-45.2730026245117,-45.2730026245117,1.95786249637604,0.79516249895096,1.22581243515015,-55.7130012512207,-26.3310012817383,-13.8430509567261,-9.58622455596924,-9.4873628616333,-4.69562482833862,-4.89156246185303,-4.47892475128174,2.20989990234375,-1.02404999732971,-0.83295005559921,1.57995009422302,14.5999507904053,14.5999507904053,9.65895080566406,3.91132497787476,4.58631229400635,4.85677480697632,10.7869501113892,9.17805004119873,6.61200046539307,11.9785871505737,11.8254127502441,10.718674659729,4.47232484817505,1.39865005016327,-2.39277505874634,2.69100022315979,3.15000009536743,3.26505017280579,6.36405038833618,8.58600044250488,9.12195014953613,SWING_RIGHT
0.31432500481606,0.38101249933243,0.49802500009537,-0.20595000684261,0.94200003147125,1.63200008869171,0.4159374833107,-0.59922498464584,-1.17177498340607,2.30917501449585,1.76261246204376,1.10123753547668,0.08595000207424,0.62205004692078,1.54095005989075,9.00705051422119,9.5440502166748,10.0420503616333,1.27668750286102,1.28823745250702,1.09711253643036,0.82695001363754,-0.01395000051707,-2.00595021247864,-1.56736254692078,-0.87174999713898,-0.00481249997392,-2.13757491111755,-1.99498748779297,-1.47949993610382,5.83200025558472,7.36395025253296,8.59005069732666,11.2680006027222,11.2290000915527,11.2290000915527,1.30487501621246,1.33141243457794,1.3000625371933,-2.65800023078919,20.0580005645752,55.6450538635254,2.35386252403259,0.95617496967316,-2.08807492256165,3.82043743133545,3.66519999504089,1.32797503471375,-48.8320541381836,-44.5789527893066,-11.4820508956909,-35.1599998474121,-35.4660034179688,-1.90905010700226,-3.31319999694824,-4.2091498374939,-2.06593751907349,-43.4550018310547,-36.4450531005859,-22.9219512939453,-12.5735502243042,-11.1171503067017,-3.2850124835968,-4.78981256484985,-2.64316248893738,4.77619981765747,1.31205010414124,-0.75600004196167,-2.7480001449585,3.07005023956299,3.07005023956299,3.682950258255,11.3921499252319,11.9097003936768,10.9166746139526,11.9359502792358,9.86805057525635,6.26700019836426,13.1158494949341,7.61639976501465,1.57863748073578,8.67982482910156,-4.03617477416992,-13.6498994827271,3.26505017280579,3.53295016288757,2.95905017852783,6.09600019454956,10.9609508514404,10.1569509506226,SWING_RIGHT
0.34650000929832,0.31446251273155,0.39283749461174,3.20205020904541,3.04905009269714,-2.73405003547669,0.53336250782013,0.48826250433922,0.4281750023365,1.24849998950958,1.08239996433258,1.05682504177094,5.67900037765503,4.3759503364563,3.45705008506775,8.31795024871826,9.04605007171631,13.5660009384155,0.97982501983643,0.96387499570847,0.92757499217987,-2.42805004119873,-2.50395011901855,-1.54695010185242,-0.2396624982357,-0.85401248931885,-1.31889998912811,2.87952494621277,3.259850025177,2.9585874080658,-1.17705011367798,-2.09700012207031,-1.71405005455017,10.9990501403809,6.67095041275024,5.3299503326416,1.09944999217987,1.42078745365143,2.10649991035461,13.4689502716064,26.1480007171631,35.9550018310547,-3.2386748790741,-3.18518757820129,-3.96041250228882,-3.89427495002747,-6.46717500686646,-8.13477516174316,-69.786003112793,-60.4770011901855,-35.0029525756836,-36.9220504760742,-36.9220504760742,-29.988000869751,0.31707498431206,0.97281247377396,2.03472495079041,-46.4809532165527,-39.9310531616211,-26.752950668335,-15.0356245040894,-14.4414873123169,-1.80688750743866,-3.74068737030029,-1.50562500953674,0.169537499547,3.22695016860962,-2.47995018959045,-3.47595024108887,5.75100040435791,7.16895055770874,4.44900035858154,13.7862997055054,13.9710998535156,12.1983127593994,17.6830501556396,14.4649505615234,8.56500053405762,9.04199981689453,7.73533725738525,6.07639980316162,-1.89090001583099,-8.72245025634766,-11.9161624908447,0.8520000576973,1.96305012702942,2.53695011138916,5.3299503326416,6.44100046157837,7.32195043563843,SWING_RIGHT
0.46915000677109,0.50297498703003,0.48812499642372,1.17195010185242,0.90405005216599,1.59300005435944,0.68296247720718,0.79158747196198,0.74634999036789,0.00109999999404,0.26344999670982,0.60403752326965,2.49900007247925,2.34600019454956,2.72895002365112,8.66295051574707,7.59000015258789,8.93100070953369,0.42129999399185,0.48922500014305,0.59262502193451,2.47500014305115,3.31695008277893,3.66195011138916,-0.00687499996275,-0.25547498464584,-0.29782500863075,-0.24337500333786,-0.48688748478889,-0.60362499952316,2.6140501499176,3.45705008506775,4.68300008773804,9.8500509262085,9.96495056152344,10.0030508041382,1.20395004749298,1.24272501468658,1.18978750705719,-1.62300002574921,-0.78105002641678,18.1420516967773,0.34099999070168,0.59661251306534,-0.48688748478889,0.4959625005722,0.93706250190735,0.61572498083115,-27.4180507659912,-36.1519508361816,-17.6110515594482,8.28000068664551,-9.91500091552734,-3.25005006790161,-0.00109999999404,-1.22223746776581,-1.46492505073547,-45.8299522399902,-42.3060035705566,-29.3190021514893,-12.2920875549316,-12.2237501144409,-10.7765626907349,-0.42061248421669,-0.39036250114441,0.94489997625351,3.49500012397766,0.88995003700256,-1.98195004463196,12.4549503326416,8.4330005645752,6.51705026626587,5.77747488021851,7.66012477874756,7.6146125793457,14.6560506820679,8.22105026245117,5.11800003051758,13.5013999938965,13.1341371536255,9.89614963531494,3.72281241416931,1.38324999809265,-7.77493762969971,2.92095017433167,2.84400010108948,1.732950091362,11.5360507965088,11.6119508743286,10.5400505065918,SWING_RIGHT
1.06837499141693,1.03441250324249,0.90901249647141,2.93400025367737,2.97300004959106,2.58900022506714,0.25822499394417,0.30813750624657,0.34897500276566,-0.168850004673,-0.17929999530315,-0.174899995327,2.23095011711121,2.46105003356934,2.65200018882751,8.89305019378662,8.89305019378662,8.70105075836182,0.59702497720718,0.53583747148514,0.48289999365807,1.78500008583069,1.8229501247406,1.66995012760162,0.58382499217987,0.72036248445511,0.74153751134872,0.00604999996722,0.3631374835968,0.48413750529289,2.72895002365112,2.88195013999939,3.99300026893616,9.65895080566406,10.6159505844116,11.2290000915527,0.30318748950958,0.32504999637604,0.35103750228882,-2.77305006980896,-5.18595027923584,48.2520027160645,0.31762498617172,0.18026250600815,-0.38101249933243,1.16531252861023,1.29992496967316,1.15568745136261,-36.6880531311035,-46.2649536132813,-28.0309505462646,-26.1580505371094,-39.6799507141113,-39.6799507141113,-0.36492499709129,-1.01241254806519,-1.10137498378754,-36.7129516601563,-25.3350009918213,-15.1069507598877,-8.55153751373291,-8.10933780670166,-5.31863737106323,0.59138751029968,2.34272503852844,5.00871229171753,0.73695003986359,4.22294998168945,4.10805034637451,6.36405038833618,1.57605004310608,1.57605004310608,0.42006251215935,0.4116750061512,1.22512495517731,4.96500015258789,5.65395021438599,5.30895042419434,12.7876377105713,13.2615995407104,12.2401123046875,7.40478754043579,4.15140008926392,-1.04733753204346,2.38394999504089,2.88195013999939,3.26505017280579,9.96495056152344,9.8500509262085,8.81595039367676,SWING_RIGHT
0.8454874753952,0.82115000486374,0.80465000867844,-0.81900006532669,-1.16400003433228,-1.16400003433228,0.65601247549057,0.73906248807907,0.66481250524521,0.69918751716614,1.43082499504089,1.67117500305176,2.03895020484924,1.77105009555817,1.35000002384186,9.46695041656494,11.1529502868652,11.3830509185791,1.02093744277954,1.18731248378754,1.57354998588562,-1.16400003433228,-2.00595021247864,-1.89105010032654,-0.59606248140335,-0.81344997882843,-0.95782500505447,1.57602500915527,1.39988744258881,1.24781250953674,1.50300002098084,2.19300007820129,2.15400004386902,11.8420505523682,11.8420505523682,12.1489505767822,2.0491623878479,1.91056251525879,1.71737504005432,1.40205001831055,49.9369506835938,68.0569534301758,-0.512875020504,-2.00791239738464,-4.69713735580444,1.62401247024536,1.08116245269775,0.70289999246597,-68.2530059814453,-13.5510005950928,4.56795024871826,-56.803050994873,-33.4740028381348,18.201000213623,-2.71177506446838,-2.91225004196167,-1.62964999675751,-25.8330020904541,-17.1760501861572,-2.581050157547,-8.7883129119873,-6.51708745956421,-1.40057504177094,0.6209499835968,2.0517749786377,4.03741264343262,1.00499999523163,1.08195006847382,1.46505010128021,4.98495006561279,-0.37695002555847,-0.37695002555847,4.37249994277954,3.84697508811951,3.19659996032715,4.12200021743774,2.97300004959106,2.09100008010864,11.5050373077393,9.22377490997314,5.89751243591309,-0.48468750715256,-9.31397533416748,-11.2469501495361,2.57595014572144,2.19300007820129,1.88595008850098,10.6930503845215,10.5400505065918,9.5440502166748,SWING_RIGHT
0.73521250486374,0.84026247262955,0.93912500143051,1.21005010604858,0.82695001363754,0.82695001363754,-0.15193749964237,-0.21119999885559,-0.00646249996498,0.00247499998659,-0.33412501215935,-0.40878748893738,2.42295002937317,2.84400010108948,3.18900012969971,9.35205078125,9.96495056152344,10.3480501174927,1.20724999904633,1.24987494945526,1.28163754940033,-1.20195007324219,-2.54295015335083,-3.96000027656555,0.68351250886917,0.79722499847412,0.83806252479553,0.56471252441406,1.00594997406006,1.466437458992,3.49500012397766,3.53295016288757,4.03095006942749,11.7660007476807,14.064001083374,14.064001083374,0.72503751516342,0.46090000867844,0.19030000269413,-8.82495021820068,14.7709503173828,71.0440521240234,0.28297498822212,-0.81400001049042,-3.25998759269714,3.18628740310669,2.51900005340576,0.86336249113083,-56.9910011291504,-27.8770503997803,2.76705002784729,-70.5169525146484,-29.5290012359619,18.2400016784668,-1.99608743190765,-2.86467504501343,-1.11993753910065,-27.6720008850098,-22.5390014648438,-15.9889507293701,-11.5783252716064,-10.0959377288818,-7.21998739242554,10.4695253372192,12.8772878646851,14.0354499816895,3.53295016288757,2.65200018882751,1.35000002384186,8.70105075836182,7.28400039672852,4.94700002670288,9.70681285858154,9.87937450408936,9.15117454528809,9.48495006561279,6.49695014953613,3.39405012130737,9.45573711395264,7.46927499771118,6.46635007858276,10.0139875411987,-8.03096199035645,-10.5510625839233,3.64800024032593,2.88195013999939,2.11605000495911,7.12995052337646,12.8760004043579,11.19105052948,SWING_RIGHT
-0.4100250005722,-0.48702499270439,-0.57763749361038,0.36795002222061,0.90405005216599,1.28700006008148,0.00398749997839,-0.00494999997318,-0.28421249985695,0.262212485075,-0.16706250607967,-0.64899998903275,1.732950091362,2.00100016593933,2.57595014572144,9.77400016784668,9.96495056152344,9.96495056152344,-1.56323754787445,-2.12093758583069,-2.32594990730286,0.98100006580353,0.67395001649857,0.09900000691414,-0.43848749995232,-0.21326249837875,0.40892499685287,-1.84937500953674,-1.68313753604889,-0.93637502193451,4.49100017547607,5.75505018234253,7.05795049667358,9.19905090332031,9.5440502166748,12.07200050354,-1.80716252326965,-1.61755001544952,-1.53752493858337,-13.498950958252,0.483000010252,46.4509506225586,1.21343743801117,0.00412499997765,-2.78244996070862,3.18697500228882,3.63549995422363,2.67685008049011,-59.5189514160156,-37.6459503173828,-8.45595073699951,-58.9870529174805,-58.9870529174805,-10.4899501800537,-3.168137550354,-8.06176280975342,-6.82742500305176,-48.6649513244629,-33.2269515991211,-21.1219501495361,-15.1548376083374,-15.4995498657227,-11.1432752609253,1.77649998664856,-1.04087495803833,-1.76508748531342,-1.33095002174377,-1.82895004749298,-0.02805000171065,8.81595039367676,5.17695045471191,1.07805001735687,7.41083765029907,10.9612245559692,10.5578002929688,14.1199502944946,14.0430002212524,9.86805057525635,3.13115000724792,4.76547479629517,9.57687473297119,-7.35982513427734,-15.2400875091553,-18.4193630218506,3.61005020141602,4.22294998168945,3.8779501914978,12.9910507202148,12.9910507202148,10.4250001907349,SWING_RIGHT
-1.51841247081757,-1.4968249797821,-1.47564995288849,0.90405005216599,0.90405005216599,0.75105005502701,-0.00219999998808,-0.0027499999851,-0.00371249997988,-0.00027499999851,0.00522499997169,0.14904999732971,3.72495007514954,3.99300026893616,3.8779501914978,8.96895027160645,9.04605007171631,9.04605007171631,-1.23378753662109,-1.3639999628067,-1.47991251945496,-0.28305000066757,-0.20595000684261,-0.05295000225306,0.0,-0.00164999999106,-0.20391249656677,0.00137499999255,0.00123749999329,0.00219999998808,2.57595014572144,3.15000009536743,5.75505018234253,9.92700004577637,10.4629507064819,11.4210004806519,-1.78254997730255,-1.63597500324249,-1.44539999961853,5.96100044250488,40.3219528198242,46.1449508666992,-0.97996246814728,-2.36706256866455,-3.61363744735718,-0.26578751206398,-1.94012498855591,-4.52209997177124,-49.5979537963867,-8.03400039672852,2.76705002784729,-38.8759536743164,-3.17295026779175,15.5580005645752,5.68603754043579,8.36549949645996,9.80375003814697,-35.9470520019531,-10.2810001373291,-3.23205018043518,-6.4435248374939,-5.04391241073608,-0.64198750257492,-5.72783756256104,-3.74440002441406,1.27682495117188,1.69500005245209,1.84800004959106,2.6140501499176,2.30400013923645,1.61400008201599,3.64395022392273,14.6650619506836,13.694037437439,12.5307874679565,3.62400007247925,2.01495003700256,0.75105005502701,7.28186225891113,6.76747512817383,5.47401237487793,-10.2247753143311,-12.049674987793,-11.9411878585815,2.57595014572144,1.96305012702942,1.732950091362,11.076000213623,9.77400016784668,8.12595081329346,SWING_RIGHT
-2.06552505493164,-2.39071249961853,-3.15397500991821,0.86595004796982,1.17195010185242,1.28700006008148,-0.37950000166893,-0.46351251006126,-0.58313751220703,-1.13726246356964,-1.30075001716614,-1.44168746471405,2.46105003356934,2.46105003356934,2.92095017433167,10.0030508041382,10.0030508041382,9.96495056152344,-5.1429123878479,-5.18787479400635,-5.19516229629517,0.86595004796982,0.6360000371933,0.06105000153184,-0.99715000391006,-0.77467501163483,-0.56099998950958,-1.42463743686676,-1.15871250629425,-1.04005002975464,4.1850004196167,5.94705009460449,5.10405015945435,9.35205078125,10.0030508041382,10.0030508041382,-5.22472476959229,-5.44472503662109,-5.24548768997192,3.66195011138916,35.0740509033203,28.0639514923096,0.27994999289513,-1.17672502994537,-4.01335000991821,-0.32133749127388,-1.60641252994537,-4.13490009307861,-56.8759536743164,-48.4480514526367,-4.35705041885376,-45.847053527832,-26.6940021514893,-5.47200012207031,4.64268732070923,4.29605007171631,1.60503745079041,-34.298999786377,-19.7809505462646,-7.63800048828125,0.69753748178482,1.6524749994278,3.73133754730225,-38.516773223877,-41.1464614868164,-38.7916374206543,-2.9389500617981,-0.60300004482269,1.88595008850098,9.23700046539307,0.3120000064373,0.3120000064373,0.83256250619888,1.26761245727539,6.30093765258789,8.83395004272461,6.72705030441284,2.01495003700256,3.86347508430481,7.29726266860962,8.37485027313232,-20.8868007659912,-21.0566120147705,-19.2729625701904,4.06995010375977,3.7630500793457,3.41895008087158,9.12195014953613,10.2720003128052,9.00705051422119,SWING_RIGHT
-0.84452497959137,-0.9675874710083,-0.93252497911453,0.90405005216599,2.13000011444092,2.47500014305115,0.95810002088547,0.342375010252,0.00054999999702,0.509850025177,0.0042624999769,-0.14409999549389,2.07795000076294,3.11205005645752,3.15000009536743,9.39105033874512,9.81195068359375,9.81195068359375,0.33852499723434,0.55742502212524,0.69464999437332,0.94200003147125,1.40205001831055,0.52095001935959,-0.60073751211166,-0.4811125099659,-0.33233749866486,-0.36396250128746,-0.21340000629425,-0.00178749999031,3.53295016288757,3.95505023002625,4.10805034637451,9.81195068359375,9.35205078125,9.88905048370361,-0.28118750452995,-0.50833749771118,-0.71376252174377,-3.61500024795532,3.8539502620697,37.0279502868652,0.49816250801086,0.00357499998063,-1.94411253929138,0.88536250591278,0.82981246709824,0.3408625125885,-37.5690002441406,-14.5470008850098,8.97300052642822,5.44500017166138,-22.2499504089355,19.8870010375977,-0.00563749996945,0.93101251125336,-0.00343749998137,-38.2450523376465,-25.795051574707,-8.36505031585693,-9.59447479248047,-11.1446495056152,-11.6879119873047,2.63614988327026,-0.52071249485016,-2.0952250957489,2.30805015563965,0.43095001578331,0.20100000500679,5.90505027770996,5.90505027770996,4.90905046463013,12.7771873474121,12.8584499359131,14.4727001190186,9.4079999923706,7.76100015640259,6.76500034332275,-3.06542491912842,0.00591249996796,1.58757495880127,-9.98593711853027,-10.5166873931885,-10.5208120346069,1.23495006561279,2.30805015563965,2.30805015563965,9.65895080566406,9.58200073242188,9.16095066070557,SWING_RIGHT
0.00357499998063,0.00632499996573,0.14368750154972,1.78500008583069,1.28700006008148,1.28700006008148,-0.00082499999553,-0.00027499999851,0.00013749999925,0.00164999999106,-0.0015124999918,-0.00316249998286,3.49500012397766,3.26505017280579,3.61005020141602,9.08400058746338,9.12195014953613,8.4330005645752,0.18892499804497,0.14148749411106,0.00384999997914,1.1340000629425,1.17195010185242,1.24905002117157,0.00371249997988,0.00398749997839,0.00357499998063,0.00412499997765,0.00439999997616,0.00439999997616,3.07395005226135,3.30405020713806,4.14600038528442,9.16095066070557,9.42900085449219,9.50505065917969,-0.20019999146461,-0.18933749198914,-0.19910000264645,-2.27505016326904,2.47500014305115,34.8439521789551,-0.00508749997243,-0.16664999723434,-2.66956257820129,0.23553749918938,0.29479998350143,-0.45539999008179,-31.5930023193359,-44.2729530334473,-11.367000579834,-6.4680004119873,-27.0769519805908,-1.44900012016296,2.41958737373352,5.72563743591309,10.1809120178223,-37.3639526367188,-27.9400520324707,-29.3959522247314,-6.26642513275146,-5.18801259994507,-3.15947508811951,-10.0157747268677,-6.81174993515015,-5.28522491455078,8.7049503326416,3.30405020713806,1.31205010414124,6.32595014572144,5.90505027770996,5.90505027770996,17.6870365142822,13.3926372528076,9.95321273803711,5.99895048141479,7.53105020523071,6.76500034332275,7.5700626373291,8.17354965209961,6.84323740005493,4.80961227416992,-0.61998748779297,-11.1897497177124,1.35000002384186,2.15400004386902,2.76705002784729,1.07805001735687,8.47095012664795,11.6119508743286,SWING_RIGHT
-3.47352504730225,-3.76021242141724,-4.13682508468628,-3.19395017623901,-2.65800023078919,-1.93005013465881,0.84920001029968,1.35918748378754,1.3362250328064,0.42570000886917,1.02478754520416,1.04018747806549,1.00499999523163,0.96705007553101,1.00499999523163,11.2290000915527,11.3059501647949,9.92700004577637,-4.69122505187988,-4.22331237792969,-2.71370005607605,0.09900000691414,0.06105000153184,-1.20195007324219,-0.19868749380112,-0.33357501029968,-0.22096249461174,-0.97941249608994,-1.33347499370575,-1.53229999542236,4.64400005340576,5.75505018234253,5.41095018386841,8.8540506362915,10.2330007553101,11.1139507293701,-1.20986247062683,-1.79767501354218,-2.45753741264343,25.6500015258789,63.3060035705566,37.7560501098633,1.8495124578476,-2.03197503089905,-5.21661233901978,-0.39173749089241,-1.22347497940063,-3.60153746604919,-61.5499534606934,15.1020011901855,11.4250507354736,-51.0960006713867,4.21905040740967,13.9489507675171,4.45582485198975,7.21586227416992,9.28743743896484,-18.0949516296387,-12.081000328064,-1.31700003147125,-7.63730001449585,-5.23187494277954,-0.93183749914169,-4.85581254959106,-4.0715126991272,-2.26682496070862,2.88195013999939,2.53695011138916,1.69500005245209,0.65595000982285,0.65595000982285,3.30000019073486,10.7254123687744,9.70172500610352,10.3600749969482,4.15995025634766,2.43600010871887,1.8229501247406,5.42904996871948,3.28734993934631,1.45186245441437,-5.66554975509644,-8.86159992218018,-9.07156276702881,2.76705002784729,2.07795000076294,1.42695009708405,11.4970502853394,9.16095066070557,8.47095012664795,SWING_RIGHT
-2.2508749961853,-2.06690001487732,-1.7323625087738,0.29100000858307,1.21005010604858,0.82695001363754,-0.43312498927116,-0.5020124912262,-0.46612501144409,-0.2238499969244,-0.36217498779297,-0.46805000305176,2.26905012130737,2.57595014572144,2.99700021743774,9.23700046539307,8.778000831604,8.778000831604,1.01846253871918,1.70500004291534,1.80124998092651,0.29100000858307,0.40605002641678,0.29100000858307,0.73809999227524,1.00292503833771,1.31766247749329,-0.56374996900558,-0.44659999012947,-0.2563000023365,3.72495007514954,4.10805034637451,4.68300008773804,9.31395053863525,9.31395053863525,10.9990501403809,-0.17861250042915,-1.01488745212555,-1.92499995231628,-3.80700016021729,-2.65800023078919,19.252950668335,0.88247501850128,0.60706251859665,-0.35365000367165,-0.23003749549389,-0.28366249799728,-0.79488748311996,-39.5989532470703,-51.3979530334473,-32.2440032958984,-28.4560508728027,-32.2480506896973,-32.2480506896973,-2.17827486991882,-0.65119999647141,-1.37555003166199,-45.9060020446777,-25.6039505004883,-21.7350006103516,-10.4665002822876,-11.2299003601074,-11.2088623046875,0.58038747310638,-3.32598757743835,-5.52337503433228,4.14600038528442,2.72895002365112,0.20100000500679,10.9609508514404,4.83195018768311,-2.90505003929138,12.9358625411987,13.5641002655029,15.0097751617432,9.44595050811768,6.30495023727417,2.97300004959106,0.99233746528625,3.02568745613098,4.96086263656616,-6.6412501335144,-4.17518758773804,-6.52437496185303,5.41095018386841,4.45305013656616,4.06995010375977,8.54805088043213,13.2210006713867,13.2210006713867,SWING_RIGHT
-0.77701246738434,-1.37170004844666,-1.8356249332428,0.75105005502701,0.98100006580353,1.40205001831055,1.44581246376038,1.20724999904633,0.93431252241135,0.68846249580383,0.88934999704361,0.95438748598099,2.76705002784729,3.15000009536743,2.99700021743774,9.46695041656494,9.69705009460449,9.69705009460449,-0.94943749904633,-0.37125000357628,-0.22838750481606,1.1340000629425,1.05705010890961,0.86595004796982,-0.00137499999255,-0.00013749999925,0.00481249997392,0.2743124961853,0.14685000479221,-0.00027499999851,3.03495025634766,3.26505017280579,4.10805034637451,9.65895080566406,9.46695041656494,9.35205078125,-0.24750000238419,-0.30855000019073,-0.40397500991821,-3.46200013160706,-4.68795013427734,4.73505020141602,0.35268750786781,0.37578749656677,-0.29699999094009,0.59551250934601,0.73301249742508,0.27362498641014,-51.5899505615234,-48.4870529174805,-29.1799507141113,-39.0289535522461,-39.0289535522461,-35.5429534912109,0.97721248865128,5.33857488632202,6.71371269226074,-52.8400535583496,-27.8250007629395,-19.3980007171631,-7.56511259078979,-7.96565008163452,-6.57868766784668,-3.51436257362366,-2.28002500534058,-2.71246242523193,2.34600019454956,1.61805009841919,1.46505010128021,8.62395000457764,12.6469507217407,6.09600019454956,13.6740999221802,12.6773624420166,11.6150369644165,11.2090501785278,11.2090501785278,8.48895072937012,2.88007497787476,3.32818746566772,4.11688756942749,-4.98657512664795,-8.07331275939941,-10.4740629196167,3.64800024032593,3.37995004653931,3.15000009536743,5.59800004959106,10.6159505844116,10.6159505844116,SWING_RIGHT
-4.45527505874634,-4.9015998840332,-5.1669750213623,0.6360000371933,1.32495009899139,1.86195003986359,0.43903750181198,0.15743750333786,-0.00646249996498,-0.59606248140335,-1.13231253623962,-1.69716250896454,2.23095011711121,2.03895020484924,2.03895020484924,9.46695041656494,9.00705051422119,9.00705051422119,-3.42718744277954,-3.17693758010864,-3.3882749080658,1.86195003986359,0.55905002355576,-0.24405001103878,-0.30318748950958,-0.0027499999851,0.47025001049042,-3.12812495231628,-2.85395002365112,-1.74858748912811,3.53295016288757,3.91695022583008,4.83600044250488,10.5010509490967,10.4250001907349,9.88905048370361,-3.32626247406006,-2.69362497329712,-1.89763748645782,-0.35895001888275,7.30095052719116,47.5620040893555,0.91121250391006,0.46172499656677,-1.19033753871918,1.41212499141693,1.24657499790192,0.434087485075,-55.9180526733398,-47.4139518737793,-23.8170013427734,-45.8860511779785,-45.8860511779785,-17.0790004730225,3.6614875793457,7.17145013809204,7.99548768997192,-56.7469520568848,-27.9019508361816,-23.6500511169434,-10.2550249099731,-10.3827629089355,-3.39336252212524,-12.0254745483398,-12.135612487793,-6.64771223068237,2.23095011711121,-0.29595002532005,-2.21205019950867,9.23700046539307,5.79000043869019,-0.10905000567436,13.7834119796753,13.4832496643066,12.9056119918823,9.52305030822754,9.06300067901611,7.53105020523071,10.5692129135132,10.2386627197266,7.47037506103516,-0.00398749997839,-4.10080003738403,-11.9523248672485,1.61805009841919,1.96305012702942,1.84800004959106,8.73900032043457,15.0220508575439,15.0220508575439,SWING_RIGHT
-2.05782508850098,-1.93435001373291,-1.80977499485016,-2.04495000839233,-1.39305007457733,-0.43605002760887,0.19676250219345,0.26537498831749,0.22563749551773,0.40053749084473,0.64913749694824,0.5876749753952,1.04295003414154,1.27305006980896,1.31205010414124,9.58200073242188,8.31795024871826,7.89705038070679,-0.7566624879837,-0.55508750677109,-0.35791251063347,3.39405012130737,3.62400007247925,3.04905009269714,-0.15881249308586,-0.17682500183582,-0.00577499996871,-1.95676243305206,-2.59668755531311,-3.03819990158081,3.22695016860962,3.95505023002625,4.56795024871826,8.89305019378662,9.00705051422119,9.35205078125,-0.87051248550415,-0.85030001401901,-0.7873250246048,5.73105049133301,41.9310035705566,25.381950378418,0.77165001630783,-1.0839124917984,-3.46224999427795,-1.32563745975494,-0.88811248540878,-3.10598754882813,-46.1500511169434,-34.3129501342773,8.43705081939697,-39.1050033569336,-25.6980018615723,5.13795042037964,7.31472492218018,8.00827503204346,9.98635005950928,-42.3060035705566,-27.0979518890381,-11.8129501342773,-5.65413761138916,-2.49370002746582,1.89241254329681,-12.5856494903564,-8.02766227722168,-6.70381259918213,-0.18105000257492,-1.1010000705719,-1.75200009346008,10.1569509506226,2.99295020103455,-3.82395029067993,15.8852376937866,15.5458869934082,14.6746873855591,8.87205028533936,7.37805032730103,4.58100032806396,10.4882249832153,6.49989986419678,6.64193725585938,0.34113749861717,-14.0184001922607,-16.0873622894287,2.6140501499176,2.30805015563965,1.92495012283325,9.46695041656494,12.07200050354,12.07200050354,SWING_RIGHT
-8.7254753112793,-8.26622486114502,-7.61557483673096,-0.51195001602173,-1.73805010318756,-1.20195007324219,0.00577499996871,0.2578125,0.35296249389648,0.26991251111031,0.3799124956131,0.49059998989105,0.54495000839233,0.27705001831055,0.54495000839233,11.1139507293701,11.1139507293701,11.9950504302979,-2.53220009803772,-1.69496250152588,-0.96112501621246,0.17595000565052,-0.12900000810623,-0.09105000644922,-0.00288749998435,-0.0015124999918,0.00371249997988,0.00054999999702,-0.16348749399185,-0.32037499547005,2.30805015563965,3.03495025634766,4.1850004196167,8.28000068664551,8.28000068664551,9.27600002288818,1.08597505092621,0.94462502002716,0.776462495327,-3.00195002555847,45.1489524841309,36.2230529785156,1.15417504310608,0.98229998350143,-1.75862503051758,-0.40218749642372,-0.61503750085831,-4.55798768997192,-56.4930038452149,-43.3540534973145,11.4250507354736,-37.5349502563477,-37.5349502563477,22.185001373291,8.38818740844727,9.61922454833984,10.6855373382568,-23.5350017547607,-18.2869510650635,-16.4479503631592,-5.36043739318848,-3.10158753395081,4.02668762207031,-12.9846744537354,-9.93038749694824,-5.92418766021729,0.77505004405975,-1.17705011367798,-1.63695013523102,6.47895050048828,-0.26205000281334,-1.67895007133484,16.2058868408203,14.4104127883911,13.6256999969482,8.06700038909912,5.76900005340576,4.12200021743774,12.024787902832,11.5055875778198,4.26497507095337,-0.68598747253418,-3.96151256561279,-12.9001121520996,2.46105003356934,2.26905012130737,0.96705007553101,9.46695041656494,13.3740005493164,12.187050819397,SWING_RIGHT
-3.69778752326965,-2.56561255455017,-1.91317498683929,1.17195010185242,0.82695001363754,1.1340000629425,0.42322498559952,0.68612498044968,1.21398746967316,-1.35973751544952,-0.88797497749329,0.15042500197887,3.30405020713806,3.53295016288757,3.53295016288757,8.12595081329346,8.24100017547607,8.73900032043457,1.11870002746582,1.7019749879837,2.23822498321533,1.86195003986359,1.86195003986359,1.40205001831055,1.30212497711182,1.13189995288849,0.91245001554489,1.26293754577637,1.18497502803802,0.98243749141693,4.64400005340576,5.21895027160645,5.67900037765503,8.89305019378662,9.65895080566406,10.9609508514404,2.04874992370605,-2.87636256217957,-7.21173763275146,-7.71405029296875,43.1950531005859,44.2680015563965,-0.18095000088215,-0.93720000982285,-4.93487501144409,-3.1160249710083,-3.86388754844666,-7.09114980697632,-46.8010520935059,-35.6920509338379,10.0840501785278,-17.9980506896973,-23.3989505767822,22.2229518890381,-6.57744979858398,-3.09457492828369,2.18845009803772,-24.4540519714355,-22.7689514160156,-17.0610008239746,-5.34778738021851,-2.62872505187988,1.31147503852844,-9.53328704833984,-7.69449996948242,-5.38711261749268,-0.37305000424385,-1.33095002174377,-1.02404999732971,6.47895050048828,-3.21195006370544,-3.21195006370544,14.6601123809814,11.7577629089355,10.205249786377,7.22505044937134,1.28700006008148,0.29100000858307,6.99572515487671,5.85296249389648,4.0225625038147,-1.69716250896454,-6.40736246109009,-12.035924911499,2.03895020484924,1.732950091362,1.31205010414124,15.2130002975464,15.2130002975464,10.3099508285522,SWING_RIGHT
0.00068749999627,0.29177498817444,0.39572501182556,1.86195003986359,1.63200008869171,1.90005004405975,1.14785003662109,1.28865003585815,1.31284999847412,-0.00192499998957,0.00577499996871,0.53391247987747,2.99700021743774,3.57195019721985,2.26905012130737,10.3099508285522,10.3099508285522,10.0800008773804,1.27022504806519,1.48981249332428,1.67516243457794,1.74705004692078,1.44000005722046,0.02295000106096,0.86900001764297,0.8622624874115,0.87958747148514,1.09449994564056,1.04101252555847,0.98711252212524,4.06995010375977,3.80205011367798,3.84000015258789,8.4330005645752,8.4330005645752,8.47095012664795,1.22265005111694,0.47341248393059,0.00398749997839,-1.66200006008148,3.08700013160706,59.5140037536621,0.81977498531342,0.64913749694824,-2.90578746795654,0.81331247091293,0.77439999580383,0.1876875013113,-57.1819534301758,-75.3019561767578,-0.37305000424385,5.17695045471191,-23.2459506988525,-27.5370006561279,0.18823750317097,1.59224998950958,4.68984985351563,-62.1100540161133,-39.5089530944824,-25.8330020904541,-14.7764377593994,-14.3148498535156,-10.4406499862671,-11.1247119903564,-9.17757511138916,-6.90084981918335,-1.94295012950897,-4.35705041885376,-4.16505002975464,-12.1750507354736,-0.18495000898838,7.05405044555664,17.2191257476807,16.5207614898682,13.687162399292,9.02505016326904,5.23305034637451,2.43600010871887,4.05762481689453,6.86565017700195,12.781587600708,5.60559988021851,3.00093746185303,-9.03031253814697,0.88995003700256,2.03895020484924,2.15400004386902,12.8380508422852,13.068000793457,11.9569501876831,SWING_RIGHT
-0.43601250648499,-0.27871251106262,-0.17159999907017,1.70805013179779,1.90005004405975,1.51695013046265,-0.00522499997169,-0.16128750145435,-0.15344999730587,-0.0042624999769,-0.00659999996424,-0.16623750329018,1.84800004959106,1.732950091362,2.19300007820129,9.61995029449463,9.5440502166748,10.3099508285522,0.00508749997243,0.00522499997169,0.00522499997169,0.6360000371933,0.483000010252,0.02295000106096,0.35420000553131,0.45168748497963,0.53624999523163,0.0054999999702,0.25712499022484,0.46708750724792,5.64000034332275,5.02695035934448,1.08195006847382,10.2720003128052,10.3480501174927,10.3480501174927,0.00577499996871,-0.00371249997988,-0.17366249859333,3.70005011558533,54.4960517883301,42.3910522460938,0.00109999999404,-1.67543745040894,-5.63901233673096,1.91111254692078,0.85772502422333,-3.84463739395142,-64.9210510253906,-2.21205019950867,22.840051651001,-46.6900520324707,-46.6900520324707,30.6889514923096,4.62604999542236,6.75124979019165,9.42039966583252,-23.9560508728027,-16.1800498962402,-0.05295000225306,-11.1443748474121,-9.90728759765625,-8.67570018768311,-22.0706748962402,-21.0517997741699,-18.9271507263184,3.57195019721985,1.84800004959106,-1.98195004463196,0.8479500412941,14.4469509124756,14.4469509124756,16.9588375091553,12.9643249511719,10.368462562561,9.06300067901611,3.50895023345947,-0.01395000051707,-19.9978618621826,-21.0200366973877,-16.8602504730225,-14.3466119766235,-14.443962097168,-13.1520128250122,3.53295016288757,2.00100016593933,0.81405001878738,13.2979507446289,13.2979507446289,8.28000068664551,SWING_RIGHT
0.21133749186993,0.26399999856949,0.32298749685287,3.16395020484924,2.85795021057129,2.39805006980896,0.00494999997318,0.19538749754429,0.32793748378754,-0.16527499258518,-0.00192499998957,0.15565000474453,3.11205005645752,3.37995004653931,3.30405020713806,9.81195068359375,8.70105075836182,8.73900032043457,0.48413750529289,0.16458749771118,-0.00261249998584,0.36795002222061,-0.43605002760887,0.25304999947548,1.08432495594025,1.17878746986389,1.05599999427795,1.46286249160767,1.63185000419617,1.65055000782013,0.58395004272461,-1.13895010948181,-1.44495010375977,7.47495031356812,8.93100070953369,9.77400016784668,-0.27610000967979,0.00371249997988,0.52992498874664,4.69605016708374,4.54305028915405,13.3150510787964,-1.82187497615814,-2.38809990882874,-3.28968739509583,-0.72393751144409,-1.34653747081757,-1.94947493076324,-74.5360565185547,-39.8290519714355,4.56795024871826,-12.1750507354736,-41.6719512939453,-41.6719512939453,3.2153000831604,4.33661270141602,1.96487498283386,-56.7090034484863,-27.3660011291504,-3.96000027656555,-4.41031265258789,-4.18508768081665,-0.67484998703003,14.6550245285034,17.2192630767822,20.1364631652832,0.58395004272461,3.99300026893616,0.50700002908707,-19.6840515136719,-8.11500072479248,11.6509504318237,8.8412504196167,11.0229625701904,12.1090745925903,6.38205051422119,5.11800003051758,1.51695013046265,14.4684371948242,18.8808116912842,15.1387500762939,2.08862495422363,-10.2143249511719,-14.9712753295898,3.07395005226135,3.34200024604797,3.53295016288757,13.1830501556396,12.1489505767822,11.2680006027222,SWING_RIGHT
0.15482500195503,0.25891250371933,0.33742499351501,3.50895023345947,3.35595011711121,3.31695008277893,-0.54546248912811,-0.50875002145767,-0.42652499675751,-0.46887499094009,-0.54449999332428,-0.5515124797821,0.77505004405975,0.96705007553101,0.77505004405975,9.46695041656494,9.08400058746338,9.12195014953613,0.00508749997243,-0.00192499998957,-0.24639999866486,3.70005011558533,3.43200016021729,3.12600016593933,0.00027499999851,0.00096249999478,0.00054999999702,-0.27376249432564,-0.20116250216961,-0.00687499996275,0.62205004692078,0.54495000839233,1.38795006275177,9.46695041656494,9.39105033874512,9.5440502166748,-0.16775000095367,-0.00563749996945,-0.00384999997914,0.86595004796982,3.01095008850098,21.973051071167,0.00027499999851,-0.27073749899864,-1.0781375169754,0.24213749170303,0.36410000920296,0.0054999999702,-18.5689506530762,-28.9879512786865,-4.74000024795532,11.5740003585815,-8.95800018310547,-8.95800018310547,0.9257875084877,1.39645004272461,1.33952498435974,-13.8430509567261,-14.2650003433228,-7.59900045394897,-5.36442518234253,-4.73591232299805,-2.8802125453949,2.34575009346008,4.20213747024536,5.88981246948242,5.06595039367676,6.2920503616333,5.52495002746582,6.13395023345947,6.13395023345947,6.17295026779175,3.9368999004364,11.0452375411987,13.4909496307373,-0.43605002760887,1.44000005722046,2.09100008010864,-4.3975248336792,-6.03088760375977,-7.92343759536743,10.5809001922607,6.0361123085022,3.81548738479614,2.19300007820129,0.43095001578331,0.46905001997948,10.5010509490967,11.3830509185791,11.9950504302979,SWING_RIGHT
-0.00673749996349,-0.18369999527931,-0.24337500333786,3.89205026626587,3.62400007247925,3.16395020484924,0.00316249998286,0.00494999997318,0.16114999353886,0.23952500522137,0.20514999330044,0.16857500374317,2.23095011711121,2.03895020484924,2.26905012130737,8.93100070953369,9.50505065917969,9.58200073242188,-0.39091250300407,-0.21064999699593,-0.00453749997541,1.40205001831055,1.17195010185242,0.71205002069473,0.51204997301102,0.51906251907349,0.4463250041008,0.59331250190735,0.89333748817444,1.5078250169754,2.46105003356934,3.11205005645752,2.00100016593933,11.2290000915527,11.7660007476807,9.69705009460449,0.77948749065399,1.04610002040863,1.37582504749298,-0.74205005168915,14.5410003662109,53.3080520629883,-0.16967499256134,-1.21838748455048,-3.52783751487732,2.8804874420166,1.90561246871948,0.00123749999329,-70.2070541381836,-37.1479530334473,-3.74400019645691,-37.5349502563477,-32.1340522766113,22.4149513244629,5.70996236801147,7.88521242141724,8.50753784179688,-46.6339530944824,-17.2140007019043,-6.60300016403198,-5.90521240234375,-5.42382478713989,-2.26049995422363,-13.5320625305176,-22.8373756408691,-28.022087097168,2.49900007247925,7.78605031967163,1.42695009708405,3.95100021362305,12.2640008926392,12.4930505752563,16.573974609375,19.9021625518799,21.4506874084473,6.42000007629395,6.34395027160645,4.04505014419556,-8.76535034179688,-8.30142498016357,-8.19719982147217,-22.2197246551514,-12.1939125061035,-10.203462600708,-0.10500000417233,-0.67905002832413,-0.29595002532005,9.8500509262085,9.8500509262085,8.93100070953369,SWING_RIGHT
-0.00109999999404,-0.00288749998435,-0.00384999997914,1.86195003986359,2.81895017623901,3.54705023765564,-0.00384999997914,-0.1885125041008,-0.23801249265671,-0.77701246738434,-0.92771250009537,-1.05792498588562,0.43095001578331,1.35000002384186,1.92495012283325,10.0420503616333,9.50505065917969,9.12195014953613,0.37276250123978,0.53734999895096,0.77385002374649,1.86195003986359,1.90005004405975,1.8229501247406,0.18631249666214,0.41414999961853,0.63208746910095,-1.07249999046326,-0.81551247835159,-0.44385001063347,2.30805015563965,2.53695011138916,4.2610502243042,10.3099508285522,10.3099508285522,10.5400505065918,0.55000001192093,0.46860000491142,0.50283747911453,4.58100032806396,44.7270011901855,52.3120536804199,0.96249997615814,-1.19459998607636,-3.15974998474121,1.10522496700287,0.72517502307892,-0.36465001106262,-70.5900039672852,21.6910514831543,20.3500518798828,-32.5930519104004,12.3780002593994,12.3780002593994,7.92618751525879,11.4212999343872,19.1972007751465,-10.9320001602173,-2.0830500125885,1.63200008869171,-11.0501871109009,-11.5858879089355,-10.3530626296997,-16.855712890625,-18.1499996185303,-18.1245632171631,1.84800004959106,2.76705002784729,1.88595008850098,5.713050365448,9.31395053863525,14.5999507904053,22.3866500854492,20.6076755523682,17.59326171875,0.06105000153184,0.44400003552437,0.36795002222061,-7.10971260070801,-4.96897506713867,-4.92937517166138,-7.15880012512207,-5.28824996948242,-5.29306268692017,0.35400000214577,-0.14295001327991,0.20100000500679,10.5400505065918,8.93100070953369,8.08800029754639,SWING_RIGHT
0.43161249160767,0.32766249775887,0.21670000255108,1.93800008296967,1.90005004405975,1.40205001831055,0.3573625087738,0.34127500653267,0.36739999055862,-0.33467498421669,-0.55825001001358,-0.65243750810623,3.15000009536743,3.30405020713806,3.11205005645752,9.19905090332031,8.4330005645752,9.04605007171631,0.00109999999404,0.00302499998361,0.14849999547005,1.21005010604858,1.40205001831055,1.05705010890961,0.60390001535416,0.59729999303818,0.54092502593994,-0.43532499670982,-0.259187489748,-0.00467499997467,3.37995004653931,3.80205011367798,4.60605001449585,9.77400016784668,9.77400016784668,9.77400016784668,0.30373749136925,0.30731248855591,0.31611248850822,-2.1979501247406,6.57300043106079,46.6810531616211,0.21188749372959,-0.15743750333786,-1.63542497158051,0.50050002336502,0.25299999117851,-0.45911249518394,-40.7869529724121,-42.5110511779785,-7.69005060195923,-5.35695028305054,-34.7380523681641,-22.2889518737793,3.72088742256165,7.5829873085022,15.5526247024536,-38.1300010681152,-25.756950378418,-20.7769508361816,-2.40377497673035,-3.72748756408691,-5.91016244888306,-25.0541496276855,-28.3218364715576,-31.5485496520996,6.67500019073486,2.92095017433167,0.12405000627041,5.2150502204895,7.89705038070679,8.54805088043213,23.0169506072998,19.919075012207,15.9567375183105,7.83795022964478,8.02905082702637,4.92600011825562,-10.1843500137329,-9.27904987335205,-6.70917510986328,-13.34987449646,-10.3584251403809,-9.83372497558594,-0.29595002532005,1.04295003414154,0.73695003986359,8.47095012664795,13.8720006942749,13.8720006942749,SWING_RIGHT
3.39913749694824,3.74673748016357,4.08017492294312,-0.550950050354,-0.78105002641678,-0.89505004882813,-0.00646249996498,-0.00481249997392,0.0,1.08707499504089,1.02121245861053,0.92331248521805,2.46105003356934,2.34600019454956,2.84400010108948,9.96495056152344,9.77400016784668,9.77400016784668,3.72487497329712,2.46056246757507,1.81953752040863,-0.89505004882813,-2.65800023078919,-5.2630500793457,0.74566251039505,0.88109999895096,1.09793746471405,0.340725004673,0.28737500309944,0.71857500076294,6.7900505065918,5.60205030441284,-1.36905002593994,9.77400016784668,10.1179504394531,14.4090003967285,0.00357499998063,0.54793751239777,1.51992499828339,3.31695008277893,10.7110500335693,37.794002532959,-1.20449995994568,-2.10828757286072,-3.84010004997253,3.03806257247925,1.92458748817444,-0.69410002231598,-65.3800506591797,-55.7269515991211,-27.2650508880615,-47.6860504150391,-47.6860504150391,-31.3290023803711,6.44517517089844,7.31857490539551,8.09654998779297,-50.3500518798828,-24.8760013580322,-17.1760501861572,-13.4679870605469,-13.2182874679565,-9.92887496948242,-8.65397453308105,-7.22493743896484,-5.49711227416992,4.52895021438599,5.10405015945435,0.81405001878738,1.38405001163483,12.6079502105713,9.77400016784668,14.0527753829956,14.9555997848511,14.8053121566772,5.61600017547607,7.14795017242432,6.68805027008057,-1.65880000591278,-1.78062498569489,-2.22873759269714,-12.0166749954224,-13.6566371917725,-14.0331125259399,2.6140501499176,2.53695011138916,2.23095011711121,6.74700021743774,10.3870506286621,10.3870506286621,SWING_RIGHT
1.01254999637604,1.21247494220734,1.44897496700287,0.94200003147125,0.98100006580353,1.28700006008148,0.00453749997541,0.0042624999769,0.00604999996722,0.86487501859665,0.91643750667572,0.90901249647141,2.11605000495911,1.46505010128021,1.46505010128021,8.73900032043457,9.19905090332031,9.35205078125,2.57991242408752,2.94497489929199,3.6374249458313,2.28299999237061,1.8229501247406,1.51695013046265,0.27678748965263,0.29741248488426,0.30538749694824,0.47533750534058,0.41813749074936,0.40631249547005,0.77505004405975,0.39195001125336,0.20100000500679,9.08400058746338,9.08400058746338,8.73900032043457,5.02342510223389,5.16023731231689,5.35920000076294,30.400951385498,52.5040512084961,43.7310028076172,-0.00439999997616,-3.29037499427795,-5.65180015563965,-0.00343749998137,-4.58686256408691,-6.69666242599487,-73.0420532226563,-29.1420021057129,-6.73200035095215,-55.3860015869141,-31.5970516204834,4.37205028533936,7.09912490844727,8.13395023345947,9.36649990081787,-42.037052154541,-34.5289497375488,-11.7360010147095,-11.4386253356934,-10.0517997741699,-8.2722749710083,-4.71721267700195,-4.5222373008728,-4.7189998626709,-0.90900003910065,-1.17705011367798,0.12405000627041,16.9369506835938,11.2680006027222,7.74300050735474,10.6184377670288,9.6102876663208,8.63224983215332,12.5490007400513,13.4299507141113,11.7829504013062,-2.0376124382019,-1.78942501544952,0.62356251478195,-14.1747369766235,-17.2940616607666,-17.8858623504639,3.8779501914978,5.06595039367676,4.68300008773804,5.02395009994507,12.5320501327515,12.5320501327515,SWING_RIGHT
0.66054999828339,1.11911249160767,2.16424989700317,2.66595005989075,3.35595011711121,2.13000011444092,-0.00206249998882,-0.00123749999329,0.00247499998659,0.50242501497269,0.29741248488426,0.00659999996424,2.72895002365112,2.69100022315979,3.18900012969971,10.2330007553101,10.0420503616333,9.8500509262085,4.32423734664917,4.30182504653931,4.22991228103638,0.21405000984669,-0.05295000225306,-1.00995004177094,1.21838748455048,1.57396245002747,1.58702504634857,0.72751247882843,1.46423745155334,1.81183743476868,3.18900012969971,1.50300002098084,3.15000009536743,8.778000831604,8.31795024871826,8.16495037078857,3.83583736419678,4.35751247406006,6.61663722991943,4.00695037841797,10.9399509429932,54.9550514221191,1.47468745708466,1.51483750343323,0.36973750591278,2.6784999370575,2.06703758239746,0.00041249999776,-74.8420562744141,-61.4730033874512,-32.2060508728027,-57.0330009460449,-57.0330009460449,-2.32995009422302,16.0256252288818,15.8013620376587,15.5045003890991,-39.4710006713867,-50.8860015869141,-39.9310531616211,-8.27392482757568,-8.73523712158203,-7.83722496032715,3.50556254386902,6.6363000869751,7.34194993972778,3.6870002746582,-5.23800039291382,-3.28395009040833,-2.13900017738342,10.4250001907349,4.37205028533936,12.2267751693726,12.5234994888306,10.9738750457764,14.0820007324219,12.2050504684448,6.15195035934448,-1.76495003700256,-3.49016237258911,-0.95191252231598,-4.8570499420166,-11.4745121002197,-20.2163505554199,3.07395005226135,4.33800029754639,4.1850004196167,7.16895055770874,10.1179504394531,12.8380508422852,SWING_RIGHT
-0.86583751440048,-0.95617496967316,-0.77302497625351,3.81495022773743,4.42799997329712,3.54705023765564,0.33948749303818,-0.00522499997169,-0.25451248884201,1.18538749217987,0.20776249468327,-0.28462499380112,3.26505017280579,4.72095012664795,4.56795024871826,8.58600044250488,9.31395053863525,9.81195068359375,1.59252500534058,1.62923753261566,0.89333748817444,0.78900003433228,1.09500002861023,0.13800001144409,0.55398750305176,0.87119996547699,1.11732494831085,-0.39324998855591,0.00219999998808,0.50008749961853,4.7590503692627,5.02695035934448,6.75105047225952,9.5440502166748,9.92700004577637,9.92700004577637,-1.53834998607636,-1.45241248607636,-1.19377493858337,-3.61500024795532,38.6370010375977,55.6450538635254,0.86597502231598,-1.05820000171661,-3.56138753890991,1.47798752784729,0.8846749663353,-1.43233752250671,-69.1339569091797,2.72895002365112,24.3340511322021,-65.8060531616211,-29.7970504760742,23.0659503936768,6.0174126625061,7.22562503814697,9.73183727264404,-32.1160507202148,-6.48795032501221,9.1399507522583,-13.9770126342773,-13.8194370269775,-12.1405620574951,-9.79123783111572,-11.9634628295898,-14.2345495223999,0.39195001125336,4.33800029754639,4.98900032043457,3.56805014610291,3.56805014610291,4.02795028686523,12.2474002838135,12.3392496109009,13.7829999923706,4.92600011825562,4.81095027923584,4.27500009536743,-2.37627506256104,0.00329999998212,0.90557497739792,-19.8759002685547,-17.3490619659424,-13.877875328064,4.68300008773804,4.72095012664795,4.1850004196167,5.63595008850098,7.01505041122437,7.59000015258789,SWING_RIGHT
4.13297510147095,3.7202000617981,2.91829991340637,1.8229501247406,1.8229501247406,1.86195003986359,1.14358747005463,1.26953744888306,1.26279997825623,-0.40136250853539,0.00123749999329,0.43230000138283,3.80205011367798,4.10805034637451,4.10805034637451,9.00705051422119,9.50505065917969,9.92700004577637,-0.97611248493195,-0.98917502164841,-0.83283752202988,1.24905002117157,-0.24405001103878,-1.35495007038116,0.34430000185966,0.2239875048399,0.2593249976635,0.83819997310638,0.79681247472763,0.89622497558594,6.59805011749268,7.21095037460327,3.99300026893616,9.35205078125,9.27600002288818,7.70505046844482,-1.07992494106293,-1.49146246910095,-1.88086247444153,-0.35895001888275,15.8440504074097,45.4549522399902,0.63937497138977,-1.01241254806519,-4.01761245727539,2.22722506523132,2.44639992713928,0.98285001516342,-67.10400390625,-37.3780517578125,-2.40300011634827,-50.253002166748,-50.253002166748,18.775951385498,8.11786270141602,10.2143249511719,11.9997625350952,-43.6849517822266,-26.2549514770508,-16.678050994873,-12.7452878952026,-11.3920125961304,-9.60190010070801,-5.42602491378784,-7.29437494277954,-9.55803775787354,4.7590503692627,2.38394999504089,0.77505004405975,6.28800010681152,-0.03195000067353,2.4190502166748,17.5206623077393,18.1555004119873,17.5700244903564,9.8299503326416,7.49295043945313,6.61200046539307,-4.31640005111694,-3.80984997749329,-0.61283749341965,-9.86617469787598,-10.5858497619629,-9.95458698272705,1.84800004959106,1.77105009555817,1.732950091362,7.51305055618286,9.77400016784668,9.77400016784668,SWING_RIGHT
