gyro_x_0,gyro_y_0,gyro_z_0,acc_x_0,acc_y_0,acc_z_0,gyro_x_1,gyro_y_1,gyro_z_1,acc_x_1,acc_y_1,acc_z_1,gyro_x_2,gyro_y_2,gyro_z_2,acc_x_2,acc_y_2,acc_z_2,gyro_x_3,gyro_y_3,gyro_z_3,acc_x_3,acc_y_3,acc_z_3,gyro_x_4,gyro_y_4,gyro_z_4,acc_x_4,acc_y_4,acc_z_4,gyro_x_5,gyro_y_5,gyro_z_5,acc_x_5,acc_y_5,acc_z_5,gyro_x_6,gyro_y_6,gyro_z_6,acc_x_6,acc_y_6,acc_z_6,gyro_x_7,gyro_y_7,gyro_z_7,acc_x_7,acc_y_7,acc_z_7,gyro_x_8,gyro_y_8,gyro_z_8,acc_x_8,acc_y_8,acc_z_8,gyro_x_9,gyro_y_9,gyro_z_9,acc_x_9,acc_y_9,acc_z_9,gyro_x_10,gyro_y_10,gyro_z_10,acc_x_10,acc_y_10,acc_z_10,gyro_x_11,gyro_y_11,gyro_z_11,acc_x_11,acc_y_11,acc_z_11,gyro_x_12,gyro_y_12,gyro_z_12,acc_x_12,acc_y_12,acc_z_12,gyro_x_13,gyro_y_13,gyro_z_13,acc_x_13,acc_y_13,acc_z_13,gyro_x_14,gyro_y_14,gyro_z_14,acc_x_14,acc_y_14,acc_z_14,motion_type
0.588558614254,0.35420042276382,0.06977482140064,-1.18031299114227,-1.11799502372742,-0.69561767578125,2.93289709091187,2.90416669845581,2.44687414169312,8.59997272491455,8.72207641601563,8.00142192840576,-2.12733316421509,-2.5086977481842,-2.97794675827026,1.73579621315002,0.72065472602844,0.2537853717804,-1.26659941673279,-1.82266747951508,-2.67594432830811,0.39361521601677,0.5629922747612,0.41438788175583,-1.61608612537384,-5.18105268478394,-5.18105268478394,9.05965900421143,6.38054752349854,6.38054752349854,-6.40330457687378,-4.78836393356323,0.52837115526199,-3.0550012588501,-19.986795425415,-47.2974548339844,6.53965854644775,3.89460682868958,1.34542906284332,0.72118401527405,7.78868103027344,5.50635194778442,-35.7382469177246,-73.9521026611328,-78.4508056640625,29.9730110168457,12.1218433380127,14.853627204895,17.4421081542969,15.8149156570435,3.5702338218689,38.7597312927246,64.8589248657227,29.0177249908447,2.0160129070282,0.05006742849946,0.68123662471771,4.14121580123901,2.6674222946167,1.0061422586441,-4.96557426452637,-5.15950489044189,-4.34787034988403,-12.4450607299805,3.9384617805481,6.87614727020264,-0.43995422124863,-0.45912897586823,-0.37497308850288,7.58961915969849,6.3087215423584,2.60489153862,-0.11877698451281,-0.22956448793411,-0.72917354106903,-0.28495824337006,-0.26312032341957,0.40373522043228,2.16914677619934,2.65756392478943,2.13802218437195,9.89523601531982,8.19535255432129,8.06127738952637,-0.46285739541054,-0.57311224937439,-0.58483016490936,0.56981998682022,0.56981998682022,0.6224924325943,SWING_LEFT
-0.94009590148926,-1.16007304191589,-1.31347107887268,0.54861122369766,0.87617999315262,0.82291680574417,3.64158082008362,3.07654929161072,2.14281058311462,7.8457989692688,9.0476884841919,9.31823348999023,-4.32603883743286,-4.6024751663208,-4.91513013839722,-2.36547136306763,-3.35188245773315,-3.99352836608887,-2.00749087333679,-2.00216460227966,-1.5409049987793,1.38537645339966,1.22665202617645,0.74302196502686,-5.9711389541626,-5.9711389541626,-11.7100400924683,6.4667387008667,6.4667387008667,9.66299819946289,-4.0543966293335,-2.95877194404602,0.14221280813217,-10.0508584976196,-13.9605903625488,-28.0600433349609,1.12918031215668,2.99871945381165,2.88047504425049,-3.56970119476318,-1.92919397354126,-3.34919142723084,-23.2022094726563,-65.1653823852539,-78.4508056640625,19.5821762084961,8.29351425170898,2.06619596481323,17.4421081542969,15.4463348388672,4.139084815979,28.0815925598145,51.5639228820801,55.5095672607422,0.62424498796463,-1.33211314678192,0.18375812470913,1.29589426517487,1.64210510253906,-0.02396845072508,-4.96796846389771,-3.77805018424988,-3.15795207023621,-11.1306438446045,-1.17794728279114,13.0292453765869,0.11664646118879,-0.15233281254768,-0.10546118021011,9.13866806030273,5.66228723526001,4.53222370147705,0.44474792480469,0.496413230896,0.43143209815025,0.21358552575111,0.37017938494682,0.49747851490974,0.87148940563202,1.31202256679535,1.31202256679535,9.81622695922852,9.36851119995117,9.36851119995117,-0.49694585800171,-0.33289512991905,0.13422332704067,2.65038132667542,1.40539634227753,0.23702596127987,SWING_LEFT
-1.1515508890152,-1.0189254283905,-0.71372717618942,-1.113201379776,-0.94062852859497,-0.70999878644943,3.1890766620636,2.9855694770813,2.80361008644104,10.2495775222778,11.6453971862793,11.7315883636475,-4.51512336730957,-5.16706514358521,-6.47734069824219,2.54024791717529,1.37666594982147,4.41490793228149,-1.95049917697906,-3.4381411075592,-4.1779670715332,0.84741789102554,0.80960100889206,-0.68869346380234,-12.0284690856934,-19.3882446289063,-17.0012264251709,3.31596946716309,-0.59855043888092,14.0683288574219,-2.32227659225464,1.23943519592285,8.71119976043701,-21.5693626403809,-23.4655704498291,-20.3291664123535,2.0548951625824,1.97926139831543,3.04772162437439,1.18457412719727,0.01278317347169,-3.79766774177551,-37.622486114502,-51.3221092224121,-66.9131469726563,13.8791875839233,11.4897737503052,9.92875480651856,17.4421081542969,17.2668724060059,9.78818225860596,12.5025215148926,43.837833404541,57.8846130371094,6.6605658531189,3.24852395057678,-2.25942587852478,-0.1065264493227,1.84770119190216,2.32387447357178,-9.76834297180176,-5.24090766906738,-4.92487287521362,-13.8863697052002,-21.1312236785889,-4.45560932159424,-0.15552860498428,0.05645901709795,0.19600865244865,10.8888292312622,6.04775333404541,5.9017071723938,0.02556634694338,-0.09108011424541,-0.15180018544197,-0.42131209373474,-0.03142530098557,0.324373036623,-0.95049810409546,-0.13646949827671,0.97444009780884,10.5895538330078,10.5751886367798,10.9534730911255,0.31904670596123,0.21891184151173,0.124103307724,1.944091796875,2.10210919380188,1.62326872348785,SWING_LEFT
-1.02638232707977,-0.79948097467422,-0.50227218866348,0.51239222288132,0.21411815285683,-0.18642127513885,1.21864867210388,0.47884035110474,0.36391866207123,9.94072532653809,9.63666152954102,9.46667385101318,-1.7427726984024,-1.73531579971313,-1.80615592002869,-1.13245737552643,0.27293899655342,0.27293899655342,-0.22636869549751,-0.53156697750092,-1.23464155197144,-0.37017938494682,0.2418150305748,0.83143889904022,0.98401689529419,-0.24181437492371,-4.03183555603027,9.74200630187988,8.12113189697266,6.84023427963257,-5.4706654548645,-5.2917013168335,-4.58223485946655,-2.68629431724548,-2.68629431724548,-9.68933391571045,-1.79177486896515,-0.10279802232981,1.91428017616272,-0.65460503101349,-1.20161831378937,0.60666811466217,-14.3005666732788,-15.6844148635864,-28.1606006622314,9.00219821929932,22.6299953460693,22.369026184082,17.4421081542969,17.4421081542969,13.9368553161621,1.98718738555908,29.8102054595947,52.0595207214355,3.09352803230286,3.78062343597412,1.23836994171143,-5.24323177337646,1.00507700443268,1.53344821929932,-13.4889326095581,-7.46751499176025,1.89620769023895,14.9398183822632,-3.91451978683472,4.57531929016113,-0.35739621520042,-1.16326880455017,-1.36353850364685,15.3564100265503,9.65102672576904,5.832275390625,-0.59068912267685,-0.19707392156124,0.10865697264671,0.02556634694338,0.25885927677155,0.32277512550354,0.7972691655159,0.87867200374603,0.67995327711105,10.6685628890991,11.310209274292,10.9630498886108,-1.00454437732697,-0.88896316289902,-0.80054622888565,0.89064306020737,1.66636443138123,2.09492659568787,SWING_LEFT
-2.62268114089966,-2.32760286331177,-1.86740863323212,1.13770246505737,0.82078623771667,0.41332259774208,0.53390699625015,0.02394201606512,-0.21308395266533,7.64468622207642,10.6206789016724,11.8177795410156,-2.51455664634705,-2.46715259552002,-2.59711480140686,-1.06541979312897,-0.00478840339929,0.68713587522507,-0.68443238735199,-0.88736528158188,-1.00294649600983,0.14594122767448,-0.02556634694338,-0.248206615448,-1.73579621315002,-1.56341373920441,-2.91374349594116,9.80186176300049,10.4147777557373,9.78270816802978,-5.52765703201294,-5.65815210342407,-5.08504009246826,2.0829553604126,-1.48919343948364,-5.32470464706421,-2.32227659225464,3.84081101417542,5.91061973571777,-0.50493532419205,-0.97684752941132,0.3371562063694,-16.8503913879395,-24.1670722961426,-44.8146667480469,15.483302116394,29.2810859680176,17.3651447296143,17.4421081542969,17.4421081542969,10.8582401275635,-9.0644474029541,-9.0644474029541,64.8325881958008,3.46743583679199,3.93242383003235,2.24930596351624,-3.54733061790466,-0.16777914762497,2.71322846412659,-1.67833542823792,-3.29920983314514,-3.46440982818604,9.56723022460938,-1.06063139438629,-6.36618232727051,0.45753109455109,-0.69188928604126,-0.87937581539154,16.5582981109619,11.1330375671387,4.90571928024292,-0.77870833873749,-0.08468852192163,-0.08149272948503,0.53955644369125,-0.23968450725079,-0.19600865244865,-1.9943699836731,-1.01274728775024,-0.20111294090748,11.4921684265137,11.4514665603638,11.1402206420898,0.44155210256577,0.31052458286285,0.08948221802711,1.8171991109848,1.89381349086761,2.25054955482483,SWING_LEFT
-0.20293287932873,-0.23755396902561,-0.43782368302345,-0.64448499679565,-0.76752305030823,-0.91559481620789,2.72220730781555,3.48356342315674,3.77086758613586,9.10993766784668,8.38210010528564,8.45871448516846,-2.21574997901917,-2.25836062431335,-2.40217137336731,3.52905321121216,2.73896670341492,3.43328523635864,0.08149272948503,0.2146507948637,-0.2242381721735,-0.63862603902817,-0.63915866613388,-0.47830373048782,4.51307010650635,3.60087943077087,3.60087943077087,10.0867719650269,8.2528133392334,8.2528133392334,-4.84695339202881,-5.57346343994141,-5.78172302246094,3.15795207023621,3.20583605766296,2.22181916236877,-4.69195747375488,-6.9828085899353,-6.01874399185181,2.1491711139679,4.18808698654175,2.6626284122467,-8.10197830200195,-21.5454216003418,-23.575704574585,0.28251579403877,1.10612118244171,19.0434799194336,1.83704853057861,10.1045656204224,15.3067846298218,-60.7528686523438,-42.1211891174316,-22.0912990570068,1.37206065654755,-0.1272991001606,6.40650033950806,-0.88310420513153,-3.13454055786133,-7.40358781814575,-59.5605545043945,-55.0905799865723,-43.8521995544434,-9.35175228118896,12.7419414520264,32.5635375976563,6.82142114639282,-1.11799502372742,-2.20403218269348,29.3074226379395,31.0408248901367,15.1912097930908,-6.95883989334106,-7.70292711257935,-2.81762456893921,3.75931835174561,5.09143161773682,1.59842932224274,-5.54975938796997,-7.05571222305298,-0.92895025014877,-1.31441676616669,13.5296335220337,40.5434112548828,0.43995422124863,0.15020228922367,-0.2258360683918,1.81959331035614,1.81959331035614,6.83784008026123,SWING_LEFT
-1.77845895290375,-1.31613421440125,-0.5821670293808,-0.61252707242966,-0.87564736604691,-1.16113829612732,0.50517654418945,0.60573303699493,1.06541979312897,11.2096519470215,12.2343702316284,13.2806367874146,-2.4234766960144,-2.30949330329895,-1.86474537849426,0.39264908432961,0.50757074356079,0.57221418619156,-0.89801794290543,-1.88125705718994,-3.08926701545715,1.5627429485321,1.81787383556366,2.3547670841217,-0.68474167585373,-3.16034626960754,-13.771448135376,5.84903478622437,4.4532151222229,9.82341003417969,-2.79951500892639,2.5433189868927,9.84730434417725,-25.0553207397461,-44.9607124328613,-40.5481986999512,5.16227149963379,1.56966722011566,0.98856544494629,-1.69856417179108,-0.18322548270226,-0.84209156036377,-49.3684387207031,-69.1421508789063,-69.1421508789063,8.83939266204834,-1.20667767524719,-1.20667767524719,12.5626640319824,6.77721261978149,0.1304948925972,62.476692199707,47.2280235290527,40.6607284545898,0.86552739143372,-1.97020661830902,-3.65492224693298,1.13344132900238,2.62374639511108,2.95238041877747,0.0454898327589,0.0454898327589,-1.15400516986847,-11.1306438446045,-11.1306438446045,3.5960910320282,-3.3177661895752,-2.39151859283447,-1.90575814247131,-5.47314500808716,-6.60320806503296,-2.99035787582397,-1.05035078525543,-0.29294773936272,0.29507824778557,-0.32064458727837,-0.46392267942429,-0.60986387729645,1.2258312702179,0.43574470281601,1.1372457742691,7.97747993469238,13.6301898956299,11.6118783950806,-0.89908319711685,-0.740891456604,-0.74888092279434,-0.49081134796143,0.55306059122086,2.01112937927246,SWING_LEFT
-0.3211772441864,-0.24927188456059,-0.27590349316597,0.27004453539848,0.18375812470913,-0.04846953228116,3.28245043754578,3.33272886276245,3.33272886276245,9.51455783843994,8.927978515625,8.927978515625,-1.92440021038055,-1.41307330131531,-1.49083757400513,-1.64242231845856,-1.77170920372009,0.52672439813614,0.04367584362626,-0.6743124127388,-1.47166287899017,-0.13741911947727,-1.42053020000458,-0.78456729650497,3.8187518119812,-1.06302559375763,-6.6056022644043,9.01656341552734,6.91924285888672,5.8514289855957,-6.0879864692688,-4.67597818374634,-3.59580016136169,-6.05014753341675,-10.6948986053467,-9.51934623718262,-3.17555332183838,-2.23066377639771,-0.09906959533691,-1.19362878799438,-1.63411569595337,-0.2450108230114,-14.8464450836182,-23.7313270568848,-31.7590847015381,10.3477401733398,14.8703870773315,25.0337734222412,17.4421081542969,17.4421081542969,17.4421081542969,-45.9471244812012,-45.9471244812012,46.900016784668,1.48817443847656,3.2234902381897,5.197425365448,2.12307214736938,1.62612617015839,-0.08522115647793,-33.291374206543,-16.5463275909424,-5.15232229232788,8.74362468719482,21.1408004760742,-5.5138463973999,0.58589547872543,-0.40693101286888,-1.28683948516846,18.9046173095703,14.2957782745361,9.35414600372314,-0.85593998432159,-0.48895639181137,-0.6077333688736,0.99016332626343,0.42983421683311,0.43729105591774,0.79008656740189,0.70150107145309,0.88824880123138,8.88009452819824,9.7396125793457,9.7396125793457,-1.00454437732697,-0.81066626310349,-0.48629322648048,0.1963245421648,-0.6703764796257,-0.41898530721664,SWING_LEFT
-0.41065946221352,-0.65194183588028,-0.59974390268326,-0.55553543567657,0.50120693445206,0.71798825263977,4.5920786857605,2.70305371284485,3.50271701812744,9.01177501678467,8.95910263061523,11.4227361679077,-5.64323854446411,-5.22565460205078,-4.97691535949707,0.09337386488914,-1.3407529592514,-0.22984336316586,-2.14118146896362,-3.15531325340271,-3.93295645713806,0.680703997612,1.43331336975098,2.23812055587769,-1.11569797992706,-4.64475107192993,-8.71728801727295,2.31040453910828,1.79325711727142,1.86508309841156,-4.95134925842285,-3.56490755081177,6.72661256790161,-6.7851676940918,-15.7322998046875,-45.3653335571289,4.20885992050171,3.98408913612366,2.61895275115967,-0.70680296421051,-0.7835019826889,-2.87994241714478,-43.8617744445801,-67.7702713012695,-78.4508056640625,17.2885303497314,3.78044438362122,-1.83395850658417,16.1781711578369,8.14820766448975,5.07278919219971,73.4780502319336,55.7872924804688,32.4845275878906,1.39176797866821,1.04076337814331,1.00294649600983,3.6133770942688,2.10389733314514,0.92678010463715,-3.96240377426147,-0.0526724383235,2.62643933296204,0.90500825643539,7.64468622207642,6.84262847900391,0.53636068105698,-0.15286545455456,-0.32703620195389,11.0947303771973,8.09000778198242,5.43723201751709,0.09640643000603,0.31585091352463,0.340351998806,-0.02769687585533,-0.18109495937824,-0.16192018985748,0.16759411990643,0.54108959436417,0.66798228025436,12.1936693191528,10.2256355285645,9.34217548370361,-1.08550453186035,-1.26766467094421,-1.47805440425873,3.42610263824463,2.8012158870697,2.55700731277466,SWING_LEFT
-0.09108011424541,-0.49161955714226,-0.88044106960297,-0.34834146499634,-0.26205506920815,0.18588864803314,3.82832860946655,4.41490793228149,5.50666379928589,7.34541082382202,7.3885064125061,8.92079544067383,-4.61152982711792,-4.92578268051147,-5.27838516235352,1.69270062446594,1.69270062446594,-1.22822546958923,-2.20030379295349,-2.68926000595093,-2.92574882507324,0.90068107843399,0.67005133628845,0.50173956155777,-1.99676418304443,-5.06134223937988,-9.90241813659668,5.11640882492065,4.3837833404541,4.95839166641235,-6.16042423248291,-3.29060196876526,1.75395786762238,-2.51151752471924,-10.2926731109619,-42.6000289916992,3.62669277191162,3.11483335494995,2.57101583480835,-1.03596973419189,0.5028048157692,-3.48394751548767,-33.9569625854492,-78.4508056640625,-78.4508056640625,19.273323059082,4.26646757125854,-1.47482824325562,17.4421081542969,17.1566162109375,10.5130949020386,26.1398944854736,51.939811706543,56.1464233398438,5.77373313903809,3.67889070510864,1.62719142436981,-0.9076052904129,2.19710803031921,3.20005440711975,-14.7099752426147,-7.05331802368164,-6.20816516876221,-4.87698888778687,-10.1035308837891,-8.01339340209961,-0.11558119207621,-0.50972902774811,-0.99282646179199,17.4369716644287,11.7220115661621,11.7220115661621,-1.20800983905792,-1.17392146587372,-0.82877576351166,1.37791955471039,1.10521185398102,0.73876088857651,-2.26012635231018,-3.2776620388031,-3.3231520652771,9.03571701049805,10.6565914154053,11.5065336227417,-0.75260931253433,-0.65247446298599,-0.50813114643097,1.79086291790009,1.79086291790009,2.28885674476624,SWING_LEFT
0.50227218866348,0.60347229242325,0.68762820959091,0.30573090910912,-0.06924218684435,-0.27324032783508,1.52750062942505,2.36547136306763,2.94247388839722,9.2033109664917,9.184157371521,9.15303325653076,-1.89563810825348,-2.72015285491943,-5.46960020065308,4.07971954345703,6.1507043838501,3.92888498306274,-2.03731822967529,-3.61177921295166,-4.74948167800903,-1.65914940834045,-3.20591330528259,-4.48210000991821,-2.82515811920166,-7.98945093154907,-17.0012264251709,3.33751726150513,5.71495962142944,9.90720653533936,-5.03497266769409,2.04051399230957,6.51568984985352,-13.7810249328613,-23.1303825378418,-19.3092365264893,4.66852140426636,7.47975444793701,7.38973951339722,3.52815580368042,1.46101021766663,1.53557872772217,-57.087345123291,-78.4508056640625,-78.4508056640625,17.8535614013672,10.8960123062134,2.94486808776855,16.8727245330811,4.77344989776611,4.12630176544189,72.5682525634766,28.0576496124268,26.1758079528809,1.51587128639221,1.47379338741302,0.72278195619583,3.51590538024902,2.98060989379883,0.92784535884857,-6.88332986831665,-3.16513466835022,-0.59376204013824,-1.05584299564362,3.11006808280945,-2.72460150718689,-0.62104916572571,-0.49055427312851,-0.50227218866348,7.98945093154907,5.09486103057861,5.16668748855591,-0.82451468706131,-0.27909928560257,-0.21092236042023,0.26152241230011,-0.10173275321722,-0.16032229363918,0.85712420940399,1.36948335170746,1.21146607398987,12.2631015777588,10.3477401733398,8.59278964996338,-0.95500957965851,-1.35608160495758,-1.62079989910126,4.60883808135986,3.32075786590576,3.56496644020081,SWING_LEFT
0.41225734353065,0.69401979446411,1.04395914077759,-1.18191087245941,-1.52705657482147,-1.97127187252045,4.16830539703369,4.62320327758789,5.68622922897339,12.3947820663452,12.0763530731201,11.1833162307739,-3.07914686203003,-3.82163619995117,-4.39102029800415,5.1068320274353,5.60482597351074,5.01345825195313,-1.98512029647827,-3.24373030662537,-3.9212384223938,0.72384721040726,0.77497988939285,1.15847504138947,0.0,-4.41490793228149,-9.98621559143066,2.88261890411377,3.33991146087646,6.20816516876221,-6.03951692581177,-1.90469288825989,5.35614967346191,-4.5920786857605,-34.2322959899902,-48.6501770019531,7.43075227737427,2.97421836853027,2.23758792877197,-1.22026038169861,6.11781358718872,3.84294152259827,-44.7428398132324,-78.4508056640625,-78.4508056640625,14.2622594833374,11.0851535797119,17.7984962463379,17.4421081542969,15.8367538452148,9.45635223388672,31.2299671173096,31.2299671173096,46.0404968261719,6.45390462875366,2.47940301895142,1.89617073535919,-3.16063952445984,2.48259878158569,1.66607356071472,-31.3137645721436,-8.48026275634766,-3.79959797859192,-0.77332717180252,-1.21864867210388,1.49158763885498,0.01651159860194,-0.07989483326674,0.08096009492874,10.6470146179199,6.81150388717651,5.14992809295654,-0.37177729606628,-0.31904670596123,-0.19867181777954,0.21518342196941,0.18322548270226,0.20506340265274,-2.24336695671082,-0.68234747648239,0.73980832099915,7.80988597869873,7.94396114349365,7.90804815292358,-0.80267679691315,-0.96246641874313,-0.97045594453812,6.45476770401001,5.52581739425659,5.21217727661133,SWING_LEFT
-0.2833603322506,-0.35206991434097,-0.23116238415241,-0.34461304545403,-0.46871635317802,-0.96140116453171,3.88578939437866,2.9664158821106,4.67348194122314,9.28710842132568,9.57441234588623,10.6541976928711,-3.91964054107666,-3.91751003265381,-4.1305627822876,2.33434677124023,1.01992988586426,0.32321724295616,-2.226402759552,-2.32387447357178,-2.62960529327393,3.1292142868042,2.13905096054077,0.06231797114015,-2.166752576828,-4.13718032836914,-13.283031463623,5.06373643875122,4.75967311859131,4.28083276748657,-6.2850604057312,-5.44030570983887,-1.32678687572479,-4.52504110336304,-14.6740617752075,-40.1316070556641,4.7356333732605,7.16922998428345,3.98835015296936,-5.26773262023926,-0.51558798551559,-0.53955644369125,-27.9594879150391,-75.5107269287109,-75.5107269287109,30.5380420684814,-2.69108271598816,-2.69108271598816,17.4421081542969,6.84858512878418,5.25494956970215,38.4796104431152,39.9927444458008,21.2533283233643,2.72494649887085,0.97844541072845,1.42745435237885,2.61895275115967,2.69192337989807,0.99495702981949,-7.86734676361084,-4.01268196105957,2.17632937431335,-11.9087591171265,2.98078107833862,3.21062445640564,-2.55343890190125,-2.64878010749817,-2.49058818817139,11.7794723510742,11.7794723510742,2.782062292099,-1.38537645339966,-0.83090627193451,-0.51026165485382,0.91985583305359,0.85700523853302,0.47990164160728,-1.86029469966888,-1.24019646644592,-0.70868372917175,11.0564231872559,11.7387704849243,10.089165687561,-1.7555558681488,-1.61813676357269,-1.5110776424408,0.92655605077744,0.30406361818314,0.30406361818314,SWING_LEFT
-0.41811630129814,-0.77338200807571,-1.30228579044342,-0.28921929001808,-0.16192018985748,-0.40693101286888,2.07337856292725,1.75255560874939,1.87944829463959,10.1107139587402,9.40681838989258,8.96149730682373,-2.25037121772766,-2.34358191490173,-2.39577984809875,2.23379015922546,0.51954174041748,-2.24097275733948,-1.70282518863678,-1.07325398921967,-0.20293287932873,2.47780513763428,1.32146060466766,-0.07084008306265,-2.67671751976013,-4.73812532424927,-6.93121385574341,12.088324546814,11.8680582046509,11.7555303573608,-2.17207431793213,-1.85356020927429,-0.01970739290118,-4.04380655288696,-5.1786584854126,-8.46350288391113,1.52492606639862,2.27860069274902,4.93430519104004,-0.52677327394485,-0.78776305913925,-1.94144451618195,-19.2086811065674,-28.5963459014893,-58.3586654663086,7.4770917892456,8.13549709320068,12.3373212814331,17.4421081542969,17.4421081542969,8.85074996948242,-14.951789855957,14.7123699188232,45.3461799621582,6.51675510406494,1.86261487007141,0.82078623771667,-3.80246138572693,3.95372891426086,3.77796030044556,-18.4904193878174,-9.01656341552734,-5.23611927032471,-5.82509279251099,-5.00866985321045,2.5091233253479,1.45674920082092,1.03916549682617,-0.372309923172,13.2423295974731,11.9183359146118,9.91199493408203,0.02024002373219,0.00319579336792,-0.07669904083014,0.98004329204559,0.94329166412354,0.57630807161331,-1.27132105827332,-1.27132105827332,0.09337386488914,8.14746856689453,8.14746856689453,7.52018737792969,-0.87298423051834,-1.16539931297302,-1.31506896018982,6.46195030212402,5.76523780822754,4.82431650161743,SWING_LEFT
0.51399010419846,0.34780883789063,0.08202536404133,0.03728425502777,0.47244477272034,0.72384721040726,-0.89543145895004,-1.04626619815826,-0.50038814544678,10.7954559326172,10.1514148712158,10.1322612762451,-2.63972520828247,-2.71695709228516,-2.78992772102356,-2.57137250900269,-2.57137250900269,-3.80199241638184,-1.14249610900879,-1.9909793138504,-2.27433967590332,0.33875408768654,-0.3339604139328,-0.58802598714828,-2.20027136802673,-6.69897651672363,-8.31745624542236,7.85537576675415,6.02620553970337,6.78756189346313,-2.6461169719696,-2.3206787109375,0.02450108155608,-3.71580100059509,-4.1659107208252,-10.4578733444214,3.94787001609802,5.35828018188477,4.50287294387817,-1.30707943439484,1.5153386592865,1.34649431705475,-20.8941974639893,-26.8222408294678,-78.4508056640625,14.3604221343994,14.8775691986084,7.89128875732422,17.4421081542969,9.00681114196777,5.70875215530396,25.0696868896484,50.187255859375,29.3600959777832,2.58486413955688,-0.28655612468719,-0.864994764328,1.44130277633667,4.09487676620483,2.6285400390625,-4.26646757125854,-3.004723072052,-0.87627780437469,-16.3476085662842,-8.20253467559814,1.91775560379028,-0.1320927888155,-0.48469531536102,-0.59015649557114,10.1274728775024,8.39646530151367,4.83389329910278,-1.20055305957794,-1.01253390312195,-0.69135665893555,1.25914263725281,0.16298545897007,0.1177117228508,-0.75656771659851,-0.5243301987648,-1.33357036113739,10.582371711731,10.3309803009033,11.0564231872559,-0.19760656356812,-0.05858954414725,-0.11558119207621,1.7980455160141,3.05260705947876,4.44603252410889,SWING_LEFT
-1.58191776275635,-1.80615592002869,-1.91481280326843,0.79415464401245,0.83783048391342,0.88150632381439,-2.60728573799133,-3.29202723503113,-4.45082092285156,8.37252330780029,7.92959594726563,9.44991397857666,-2.39950823783875,-2.12413740158081,-2.38779020309448,-4.89374828338623,-3.79002118110657,-2.31040453910828,1.65542101860046,-0.14114753901958,-0.65993130207062,-1.07591712474823,0.61678814888,0.87351685762405,-6.45955610275269,-5.56173038482666,-5.94001436233521,7.9152307510376,7.3885064125061,7.68059921264648,-1.09668970108032,-0.3339604139328,2.08845090866089,-4.0270471572876,-5.09725522994995,-6.12436771392822,1.52758920192719,3.31243991851807,4.95987129211426,-0.6785734295845,-0.09853696078062,-0.53582799434662,-19.5678100585938,-30.5452251434326,-49.6150436401367,14.7961664199829,18.6292839050293,15.617377281189,17.4421081542969,13.0905027389526,5.28051567077637,42.8059310913086,71.8906936645508,42.9543724060059,5.28850555419922,3.62243175506592,1.37578904628754,-4.21099042892456,-0.80161148309708,2.19923853874207,-5.86818838119507,-11.1474027633667,-6.81868648529053,-0.75896191596985,-9.62469100952148,-4.51785850524902,2.42560720443726,0.3371562063694,-1.1387677192688,24.9834938049316,19.3499374389648,8.58321285247803,-0.97738015651703,-0.62850600481033,-0.51452273130417,-0.35579833388329,-0.58483016490936,-0.5502091050148,-0.80205756425858,-0.38067805767059,0.39983168244362,9.95269680023193,11.0324811935425,9.88326454162598,-0.87191897630692,-1.01626229286194,-1.05141603946686,3.48356342315674,3.57214903831482,2.69587111473084,SWING_LEFT
-1.37206065654755,-1.3656690120697,-1.18883514404297,0.18002969026566,0.53582799434662,0.35366779565811,0.65840548276901,-1.87226569652557,-2.09253239631653,8.95910263061523,9.18894577026367,9.76594829559326,-3.2021849155426,-3.19579339027405,-3.33800625801086,0.97922849655151,1.33357036113739,1.13245737552643,-1.69057464599609,-2.51242613792419,-2.79525399208069,1.08017814159393,0.56565541028976,0.13422332704067,-2.83952331542969,-7.18260526657104,-10.5057573318481,6.58884286880493,4.86980628967285,5.28400325775146,-4.72657823562622,-4.27863454818726,-2.40483450889587,-3.17471146583557,-5.19541788101196,-17.5494976043701,5.97879695892334,7.25498342514038,5.67306566238403,-0.7856325507164,1.18510675430298,2.66688966751099,-28.5724029541016,-46.3924446105957,-71.5962066650391,26.8605480194092,13.3357038497925,2.69587111473084,16.9893703460693,7.03287601470947,4.73882913589478,71.5100173950195,55.0786094665527,20.2429752349854,4.0975399017334,0.89535474777222,0.63969129323959,-2.3158848285675,1.40774703025818,0.35420042276382,-7.8457989692688,-2.90177249908447,0.53630119562149,0.11971008777618,2.28406834602356,6.07408952713013,-0.13315805792809,-0.58376491069794,-0.4420847594738,11.0444526672363,6.50025749206543,3.46440982818604,-0.2370213419199,-0.1129180341959,-0.07989483326674,-0.62211441993713,-0.57524281740189,-0.7792409658432,-1.13485157489777,-0.20350714027882,0.5147533416748,9.93593692779541,9.61511421203613,8.60236644744873,-0.71159666776657,-0.86819052696228,-0.84741789102554,4.03422975540161,2.35350036621094,2.77009129524231,SWING_LEFT
-1.93878126144409,-2.26741528511047,-2.38459444046021,2.35796284675598,3.07115745544434,3.17555332183838,-1.61129772663116,-3.04781866073608,-3.27526783943176,6.86657047271729,6.50265169143677,7.26640224456787,-4.59874677658081,-4.81393003463745,-4.64934682846069,-0.82839381694794,-2.71023631095886,-4.04380655288696,-1.2069445848465,-0.71532505750656,1.01626229286194,-0.99122858047485,-1.47113025188446,-2.23652267456055,-9.46188545227051,-9.78989028930664,-13.6397666931152,9.56483554840088,10.9415016174316,12.0069217681885,-0.18535602092743,2.33559226989746,5.61394357681274,-11.197681427002,-15.128960609436,-15.2151517868042,5.36094331741333,6.10503053665161,5.86001968383789,1.61281037330627,0.56032907962799,-0.17523600161076,-42.8418464660645,-63.9443397521973,-78.4508056640625,14.7961664199829,9.13866806030273,3.92409658432007,17.4421081542969,6.29944133758545,4.32603883743286,38.5681953430176,44.1754150390625,44.1754150390625,4.40380334854126,0.22796659171581,-1.08124339580536,0.28176245093346,2.92628145217896,1.94623816013336,-4.57053089141846,-2.05422496795654,-0.02154781483114,-8.58321285247803,-5.24090766906738,-1.46285724639893,-0.58802598714828,-0.40693101286888,-0.47830373048782,7.47230339050293,7.84101057052612,4.52982950210571,0.1145159304142,0.13635385036469,-0.18002969026566,-0.44794371724129,-0.69934612512589,-0.57684069871902,0.33997663855553,0.6033388376236,0.33518823981285,12.1529674530029,9.20091724395752,8.40125370025635,-0.31425300240517,-0.31904670596123,-0.37603834271431,3.8690299987793,3.64158082008362,4.37899494171143,SWING_LEFT
-0.71532505750656,-1.09775507450104,-1.62399566173553,-1.5712651014328,-2.38992071151733,-2.31748270988464,4.28562116622925,2.76769709587097,-1.09654438495636,6.98867464065552,6.73010110855103,8.00381660461426,-8.1130542755127,-8.39428424835205,-8.01291942596436,5.49948120117188,2.79642748832703,-3.56736063957214,-2.68553161621094,-4.35533380508423,-4.56625604629517,-0.23329292237759,-1.42106282711029,-2.00269722938538,-4.92487287521362,-7.61356163024902,-10.8433399200439,5.82988119125366,6.92642545700073,8.9064302444458,-2.81442880630493,-1.85249483585358,-0.2514024078846,-3.88818359375,-6.72531270980835,-11.7004632949829,5.14149904251099,7.13088035583496,2.44797778129578,1.30281841754913,2.60563683509827,4.83896398544312,-33.5379791259766,-39.4995384216309,-63.805477142334,27.025749206543,20.1352367401123,3.00711727142334,17.4421081542969,10.9722242355347,3.11003947257996,47.2615432739258,77.8139495849609,43.5720748901367,2.55130839347839,1.54037237167358,1.4343786239624,4.24454641342163,1.0274475812912,-0.05113269388676,-3.02387666702271,-3.00951147079468,-1.07499659061432,3.2776620388031,5.34864664077759,6.75164890289307,-1.11000561714172,-1.07112336158752,-0.80747044086456,10.1370496749878,5.53539419174194,4.57292509078979,-0.19760656356812,-1.04875290393829,-1.38058269023895,-1.08656978607178,-0.75260931253433,-0.75101143121719,2.08534979820251,2.73896670341492,2.73896670341492,5.75087261199951,6.39251852035522,6.39251852035522,-1.57286298274994,-1.80296003818512,-1.56487345695496,4.61841487884521,3.84748220443726,1.14682257175446,SWING_LEFT
-1.793905377388,-2.24504494667053,-3.11536598205566,0.52411013841629,1.24103307723999,1.3912353515625,0.31842881441116,1.01992988586426,-1.46285724639893,6.6654577255249,6.23689556121826,6.8545994758606,-4.11298608779907,-4.06931018829346,-4.06771230697632,-0.78529816865921,-1.04626619815826,-1.30244576931,-0.98164117336273,-0.04740426689386,0.85913580656052,-2.06608033180237,-2.8389298915863,-2.88899731636047,-9.46188545227051,-14.0874824523926,-18.0020027160645,13.869610786438,14.5016794204712,14.6142072677612,-2.42454195022583,5.38864040374756,9.16873073577881,-16.8288440704346,-20.4895782470703,-15.5359745025635,2.03838348388672,3.06423330307007,4.46665382385254,1.85462546348572,0.680703997612,-0.67164921760559,-44.9990196228027,-61.5094375610351,-78.4508056640625,13.8815813064575,15.9166526794434,12.5073099136353,17.4421081542969,11.12828540802,5.52499389648438,54.192756652832,54.192756652832,37.2944793701172,4.16571664810181,2.75424122810364,1.5840482711792,-1.74916422367096,1.47326076030731,3.23733878135681,-7.30949783325195,-8.22647666931152,-8.22647666931152,-3.70143580436707,-3.40216064453125,-3.40216064453125,2.45383667945862,1.86953914165497,1.06100344657898,18.401834487915,18.401834487915,10.7499656677246,0.10546118021011,0.03515372797847,-0.26844665408134,-0.69508504867554,-0.72970616817474,-0.35846149921417,0.88106620311737,0.88106620311737,2.78924489021301,6.59602546691895,6.59602546691895,7.50103378295898,-0.66845345497131,-0.81545996665955,-0.7898935675621,5.33428144454956,4.14675712585449,3.65355181694031,SWING_LEFT
-0.9416937828064,-0.90281164646149,-1.11000561714172,-0.62744075059891,-0.280164539814,0.02130528911948,0.50996494293213,-0.35194763541222,-1.35751235485077,12.3373212814331,11.389217376709,9.6989107131958,-5.74497127532959,-7.22036266326904,-7.8259654045105,-0.217872351408,-0.51235914230347,-0.51235914230347,-3.67356443405151,-2.96143507957459,-0.51292484998703,-3.07169008255005,-1.32891738414764,0.19494339823723,-21.3155784606934,-20.0729866027832,-24.4184627532959,12.2511301040649,15.7322998046875,18.8639144897461,3.5835497379303,7.41157722473145,11.2230939865112,-18.2964897155762,-15.0882587432861,-11.0971250534058,2.69618439674377,2.80590653419495,3.8317563533783,1.60162508487701,-0.5054680109024,-2.99019742012024,-69.628173828125,-78.4508056640625,-78.4508056640625,8.81066226959229,5.60722017288208,3.08373188972473,17.4421081542969,14.9967927932739,8.49175548553467,34.8811264038086,41.735725402832,31.4981174468994,6.43579530715942,4.97265434265137,1.91268229484558,-0.29933932423592,1.23144567012787,1.38271331787109,-22.4815540313721,-17.6356887817383,-6.6271505355835,-5.65031623840332,-5.91846656799316,-4.21140098571777,1.9350528717041,1.45355331897736,0.57897120714188,15.0762882232666,13.0962829589844,10.5440645217896,-2.21788048744202,-2.00056672096252,-1.85409283638,0.71159666776657,0.44900897145271,0.22849921882153,0.69910687208176,2.06619596481323,2.06619596481323,7.28555583953857,8.09718990325928,8.09718990325928,-1.26127314567566,-1.67992210388184,-1.71294522285461,9.30147361755371,7.30470943450928,6.14831018447876,SWING_LEFT
-1.50149023532867,-1.44077014923096,-1.06846022605896,-2.59178853034973,-3.29379773139954,-2.47620725631714,3.91212558746338,2.02549457550049,0.57221418619156,10.1322612762451,12.5384340286255,13.9581956863403,-4.40167284011841,-5.21020841598511,-6.00063467025757,2.97359848022461,0.23463176190853,-0.72065472602844,-3.57556009292603,-3.26290512084961,-2.09271192550659,1.01786017417908,-0.62264704704285,-1.54942715167999,-12.830527305603,-13.5631523132324,-11.2312002182007,5.20020627975464,11.9997386932373,15.1193838119507,-0.33449304103851,1.70016205310822,3.46317481994629,-14.9302415847778,-7.36217021942139,-11.7459535598755,1.41467118263245,2.95770668983459,5.445631980896,-1.29642689228058,-0.80054622888565,-2.76223063468933,-29.0943393707275,-39.2888488769531,-78.4508056640625,17.6476612091064,16.979679107666,10.4842090606689,17.4421081542969,11.5666418075562,8.31066036224365,48.2144355773926,73.6528244018555,10.4770269393921,5.13830327987671,3.37049674987793,2.31109118461609,-1.12172341346741,0.4836300611496,1.06526446342468,-18.0403099060059,-11.1402206420898,-3.65355181694031,-8.87769985198975,-7.55610036849976,-3.52187061309814,1.88019180297852,1.57765662670136,1.43118274211884,13.170503616333,7.97029733657837,7.97029733657837,-0.41705104708672,0.08415589481592,0.20772656798363,-0.20985709130764,-0.2130528986454,-0.10759171098471,-0.23223756253719,1.37427175045013,1.93451499938965,9.32062721252441,9.46906757354736,8.10197830200195,0.03941478580236,-0.22317290306091,-0.62424498796463,7.06528902053833,7.34062242507935,8.10676670074463,SWING_LEFT
-0.44794371724129,-0.48522797226906,-0.52411013841629,-0.14114753901958,0.16937704384327,-0.11025486886501,2.02788877487183,3.05978965759277,2.3319525718689,9.2440128326416,9.67736339569092,8.29351425170898,-5.41420650482178,-5.53671216964722,-5.54203844070435,2.26491475105286,-4.98951625823975,-4.04380655288696,-3.01949214935303,-3.80352663993835,-3.93988060951233,0.36112466454506,-1.38644170761108,-3.30924391746521,-8.48505115509033,-10.3261919021606,-13.8720045089722,1.21386027336121,3.03584766387939,7.02458763122559,-1.81254744529724,0.19707392156124,3.63095378875732,-11.5185041427612,-14.1353664398193,-24.8326606750488,3.82376670837402,4.58063697814941,1.14622449874878,2.43040084838867,2.80643916130066,1.73957681655884,-34.2203254699707,-44.2400588989258,-67.9857482910156,27.1143341064453,16.9892559051514,6.40209531784058,17.4421081542969,13.5512294769287,6.0102219581604,10.4435081481934,65.1845321655273,48.5735626220703,3.21656608581543,1.75768637657166,1.27725207805634,1.73158740997314,0.83410209417343,-0.15819177031517,-6.54814147949219,-6.65827512741089,-4.69981813430786,-5.4061074256897,-1.71664261817932,1.93930339813232,0.75101143121719,1.01306653022766,1.32518899440765,13.0771293640137,9.84735202789307,8.86094093322754,0.56512278318405,0.28389298915863,-0.3787015080452,-1.31613421440125,-1.28364372253418,-0.30360037088394,3.35427665710449,3.38779544830322,2.40617275238037,6.447585105896,5.02542924880981,5.09964942932129,-0.35153725743294,-0.41971418261528,-0.77125144004822,5.15471649169922,4.66869354248047,6.93360805511475,SWING_LEFT
-1.1813782453537,-0.45113950967789,-0.51931643486023,-1.49776184558868,-1.13610458374023,-0.46871635317802,4.62320327758789,5.72693061828613,5.70059442520142,9.33738708496094,9.01416969299316,7.66862821578979,-4.1183123588562,-4.67757606506348,-4.92525005340576,1.43412685394287,-1.58256733417511,-1.85311210155487,-3.50312209129334,-3.93348908424377,-3.80246138572693,-0.08841694891453,0.1352885812521,0.71372717618942,-4.33111095428467,-8.32463932037354,-9.28710842132568,5.7628436088562,7.80270338058472,10.8696756362915,-4.23762178421021,-3.523362159729,2.34944081306458,-5.23372507095337,-9.67257499694824,-24.4735298156738,1.46580386161804,3.73907828330994,4.72284984588623,-0.68336713314056,1.15847504138947,2.7015106678009,-31.5771255493164,-47.4650497436523,-72.2282791137695,29.3888263702393,25.268404006958,18.6412544250488,17.4421081542969,7.70665550231934,6.49545001983643,42.8801536560059,49.9382591247559,22.7544937133789,2.89805197715759,1.98778343200684,2.08418989181519,0.77444726228714,2.09164667129517,1.51480603218079,-13.2519063949585,-12.993332862854,-9.64144992828369,-1.4484920501709,2.74136090278625,4.94163227081299,2.27966594696045,1.43331336975098,1.15634453296661,22.4839477539063,15.2989492416382,11.049241065979,-0.10333064943552,0.05113269388676,0.05166532471776,-0.86233156919479,-0.94755274057388,-0.89269161224365,0.81163436174393,1.3718775510788,2.55461311340332,6.70376491546631,7.17063426971436,7.0317702293396,-0.41758367419243,-1.38058269023895,-1.44822704792023,9.84495735168457,7.78594398498535,5.32709884643555,SWING_LEFT
-1.09029817581177,-1.18670463562012,-1.41041016578674,-0.92731273174286,-0.44634580612183,-0.17150758206844,3.8187518119812,3.50750541687012,3.50750541687012,9.01177501678467,8.81305599212646,8.81305599212646,-4.8384313583374,-5.41900014877319,-6.49331951141357,-0.20590133965015,-0.61291563510895,-1.24737906455994,-3.13294267654419,-2.37127876281738,-1.55954718589783,1.21919512748718,-1.16007304191589,-2.26741528511047,-13.2926082611084,-14.4083061218262,-16.187198638916,3.69664740562439,10.788272857666,10.773907661438,-2.55929780006409,3.4716968536377,7.14739179611206,-12.265495300293,-16.6253356933594,-15.8711633682251,5.4541540145874,7.19426345825195,7.96391725540161,-1.38431119918823,-0.93636745214462,-0.6743124127388,-34.9792861938477,-51.0300140380859,-74.2561645507813,16.3643684387207,12.6653270721436,5.77002620697021,17.4421081542969,13.6268625259399,6.80917024612427,46.308650970459,59.548583984375,45.3940658569336,3.86477947235107,2.00908875465393,0.62424498796463,-0.99495702981949,1.39709436893463,1.84557068347931,-8.50181007385254,-9.33020401000977,-8.56166553497314,-4.43166732788086,-5.1978120803833,-1.36469495296478,2.50603461265564,2.06288456916809,0.89428949356079,17.8990516662598,14.7578592300415,13.6517381668091,0.2466087192297,-0.108124345541,-0.5693838596344,-1.4897723197937,-0.83250415325165,-0.14594122767448,0.90740245580673,1.18273568153381,1.39342534542084,6.01902294158936,6.01423454284668,6.62236213684082,-0.69135665893555,-0.97471696138382,-1.13237607479095,5.71256542205811,5.62637376785278,4.85065269470215,SWING_LEFT
-0.35153725743294,-0.58962386846542,-1.28098046779633,-0.64555025100708,0.27590349316597,1.08816766738892,7.05331802368164,6.74925470352173,6.01184034347534,8.52575206756592,7.40287160873413,5.11162042617798,-4.37344312667847,-6.04644107818604,-6.83260631561279,1.87465989589691,0.09337386488914,-2.56179571151733,-4.49754667282104,-4.23655652999878,-2.52680730819702,4.55027723312378,2.92521619796753,-2.20296692848206,-15.5407629013062,-15.5407629013062,-19.8407497406006,4.17069959640503,4.17069959640503,12.8185558319092,-1.18990039825439,5.57559394836426,10.0518350601196,-20.1639671325684,-25.0241966247559,-23.5445804595947,3.21177244186401,2.71748971939087,2.30469965934753,-1.57499349117279,-0.85540735721588,-0.74781566858292,-50.3165435791016,-65.9171600341797,-78.4508056640625,3.80199241638184,2.86825370788574,1.73579621315002,17.4421081542969,17.4421081542969,11.7168436050415,18.997989654541,42.3917350769043,56.1847305297851,2.00855612754822,2.07833099365234,1.39762699604034,-5.15801048278809,-4.11937761306763,-0.69828087091446,-14.2838077545166,-14.2838077545166,-8.58321285247803,7.80509757995605,7.80509757995605,3.36864185333252,3.7673077583313,3.38594317436218,2.72601175308228,16.8312377929688,16.2135334014893,15.7634239196777,0.41119208931923,0.31691616773605,0.04101268202066,0.52624064683914,-1.67459571361542,-1.37152802944183,-3.53623580932617,-1.1180921792984,-0.0526724383235,7.42441940307617,6.43800830841064,6.32548093795776,0.6593986749649,0.31425300240517,-0.02609897963703,6.60799646377563,6.04535913467407,6.04535913467407,SWING_LEFT
-0.1065264493227,-0.14381070435047,-0.00798948295414,-0.91026848554611,-1.15900778770447,-0.86765789985657,6.73010110855103,7.14908647537231,7.06768321990967,8.31506252288818,8.73165321350098,9.02374649047852,-2.52094841003418,-3.96544694900513,-4.90873861312866,1.87465989589691,0.26096799969673,-1.06781399250031,-1.30281841754913,-3.17821645736694,-4.14174842834473,1.53717660903931,0.4261057972908,0.1432780623436,0.57939678430557,-14.6309661865234,-28.6921138763428,3.42370843887329,2.62643933296204,1.79565131664276,-8.36232566833496,-4.00859022140503,4.56945180892944,-12.0380458831787,-12.0380458831787,-61.6818199157715,-2.27700281143188,-4.44481611251831,-5.10048627853394,1.01786017417908,0.64448499679565,-2.42454195022583,-78.1826553344727,-78.4508056640625,-78.4508056640625,1.53707754611969,0.44771572947502,6.79474449157715,17.4421081542969,16.6894989013672,11.3679695129395,29.2308082580566,37.9911918640137,41.0198593139649,5.88718414306641,4.44268560409546,2.93267297744751,0.48096689581871,3.73428463935852,1.62452828884125,-27.6386642456055,-19.5295028686523,-7.10599040985107,2.64798712730408,4.63756847381592,4.00310516357422,3.51963376998901,3.19526076316834,3.07435321807861,13.977349281311,10.3070383071899,8.32224464416504,-0.21891184151173,0.38722363114357,0.68816083669662,-0.05326322466135,-0.3147856593132,-0.13422332704067,-1.48919343948364,-1.52989482879639,-0.70389527082443,10.4363250732422,9.94551372528076,8.89924812316895,1.35395109653473,1.51161026954651,1.64743149280548,5.1786584854126,4.57292509078979,4.96078586578369,SWING_LEFT
-0.21198762953281,-0.41332259774208,-0.72864091396332,-1.68844413757324,-0.94968324899673,-0.05752427875996,3.22498965263367,3.22977805137634,1.96085119247437,8.5712423324585,8.20014095306396,6.23450136184692,-6.8144965171814,-7.43128490447998,-7.24539613723755,-0.98880529403687,-3.22259545326233,-8.29830265045166,-4.33029985427856,-3.09619116783142,-1.27458894252777,-0.03408846259117,-1.98565292358398,-3.73588252067566,-18.4042282104492,-19.3164196014404,-21.63161277771,10.7786960601807,15.6245603561401,19.0793933868408,1.22611939907074,4.89915132522583,9.21773338317871,-17.5351333618164,-19.1344604492188,-16.0435447692871,4.22111034393311,4.50713396072388,5.71940469741821,0.58536279201508,-1.20374882221222,-3.62030124664307,-46.0620460510254,-78.4508056640625,-78.4508056640625,9.4020299911499,7.19457626342773,2.59052634239197,17.4421081542969,6.24244976043701,5.17825031280518,58.2269859313965,34.560302734375,28.0576496124268,2.26528477668762,0.99655491113663,0.16085493564606,1.99417507648468,0.80640518665314,0.06498113274574,-12.6725091934204,-9.2440128326416,-6.73728370666504,-6.9814920425415,-2.9664158821106,-0.95768070220947,0.86659264564514,0.2226402759552,-0.39414784312248,14.4729490280151,12.6509618759155,10.9941740036011,-1.1558119058609,-1.13184344768524,-0.98377174139023,-0.31585091352463,-0.19068233668804,-0.04367584362626,0.5434837937355,-0.17956513166428,-1.30483996868134,9.69172859191894,10.4650554656982,10.625467300415,-2.20243430137634,-2.21947860717773,-2.28818798065186,4.18027639389038,4.31195735931396,4.51067590713501,SWING_LEFT
-0.2577939927578,-0.07882957160473,0.28602349758148,-0.19068233668804,0.04474110901356,0.40266996622086,4.6303858757019,3.14598107337952,1.95366859436035,10.0245227813721,9.7396125793457,12.0571994781494,-2.76915502548218,-2.50124096870422,-2.79525399208069,-7.98705673217773,-7.83382797241211,-8.44913768768311,0.63809341192245,-0.44794371724129,-2.6242790222168,-2.99925208091736,-2.74891495704651,-1.56167769432068,1.66636443138123,-0.78290396928787,-6.47870969772339,7.94635534286499,4.53940629959106,-0.76375031471252,-7.0216908454895,-4.71486043930054,0.87884318828583,0.49320554733276,-18.0858001708984,-44.2352714538574,-0.68389976024628,2.04370975494385,4.95454502105713,-0.9012137055397,-1.79603588581085,-2.7526433467865,-35.7861328125,-60.6738586425781,-70.4685363769531,30.2411613464355,19.278112411499,8.48744487762451,17.4421081542969,17.4421081542969,6.86243343353271,20.4033870697021,41.3622283935547,42.3055458068848,4.22430610656738,2.70044541358948,1.38164794445038,1.66660618782043,2.67807483673096,2.55184102058411,-13.4506254196167,-6.84023427963257,-6.83065748214722,-5.00627565383911,-5.00388145446777,-2.35589456558228,3.54520010948181,0.81865572929382,-0.88949584960938,14.6692733764648,26.8485774993896,17.6835746765137,-1.02691495418549,-1.41893219947815,-1.45568382740021,0.20825919508934,-0.36964675784111,-0.56192702054977,1.98239898681641,1.09654438495636,0.15801730751991,5.3558292388916,7.73087739944458,9.31583881378174,-0.55127435922623,-0.86179894208908,-1.56913459300995,5.60003757476807,6.98628044128418,6.48828649520874,SWING_LEFT
-0.3787015080452,-0.78137147426605,-1.14675724506378,-0.36325517296791,-0.18269285559654,-0.26312032341957,6.81389808654785,6.43321990966797,5.29836845397949,6.8737530708313,7.27119064331055,6.81868648529053,-5.85895442962646,-6.39744567871094,-6.48799324035645,-1.10851538181305,-4.43884992599487,-4.79319190979004,-4.14121580123901,-4.64402055740356,-4.25093793869019,-0.41598576307297,-0.65300709009171,-1.32359111309052,-13.7522945404053,-17.9517250061035,-16.2877540588379,4.79558610916138,6.59123706817627,14.032416343689,-1.79443800449371,1.36034274101257,10.9131021499634,-17.7889194488525,-21.9931373596191,-21.2269916534424,2.83626651763916,2.13585519790649,1.38218069076538,2.63493156433105,3.49087166786194,1.58085250854492,-37.3064498901367,-73.7150726318359,-78.4508056640625,15.5934352874756,12.9526309967041,10.1466264724731,17.4421081542969,10.4747457504272,8.13435935974121,34.4597434997559,38.7573356628418,38.7573356628418,2.71109795570374,0.18002969026566,-1.17605197429657,0.24767398834229,1.34276580810547,1.80935168266296,-9.5600471496582,-6.81629228591919,-6.67742872238159,-2.88501310348511,-3.04063606262207,-0.1508347094059,0.47297742962837,1.18670463562012,1.18510675430298,6.6463041305542,6.22971296310425,6.63193893432617,-0.27909928560257,-0.22157500684261,-0.16085493564606,-1.18350875377655,-0.80054622888565,0.14966966211796,-0.03351882472634,-0.03351882472634,0.89543145895004,10.8146095275879,10.8146095275879,10.8744640350342,0.04740426689386,-0.29774141311646,-0.70360720157623,6.52419948577881,6.54574728012085,6.88093566894531,SWING_LEFT
-1.08124339580536,-0.72757560014725,-0.63276708126068,-1.7209347486496,-0.73503249883652,-0.56831860542297,3.24174904823303,4.01028776168823,3.73974299430847,11.197681427002,10.3142213821411,10.0867719650269,-3.77796030044556,-3.9345543384552,-4.97691535949707,1.43891525268555,0.31842881441116,-0.48602294921875,-1.40242063999176,-2.17686796188354,-2.89059519767761,1.65861678123474,0.85380947589874,0.86286419630051,-3.4117374420166,-7.78354978561401,-10.3692874908447,6.21055936813354,6.66785192489624,7.81467437744141,-5.04615783691406,-2.68446636199951,-0.10386328399181,-7.2616138458252,-14.238317489624,-20.4991550445557,0.58749336004257,3.23840403556824,5.33377933502197,-1.32625424861908,-0.13475595414639,1.2117383480072,-26.0848274230957,-37.6416397094727,-58.6914596557617,21.6747074127197,24.8230838775635,18.4449291229248,17.4421081542969,17.4421081542969,8.56312847137451,20.6452007293701,20.6452007293701,38.0702018737793,1.17179095745087,0.54328489303589,1.91747605800629,4.01924276351929,3.66717290878296,1.21599936485291,-13.3237323760986,-11.5041389465332,-8.36773490905762,-2.28885674476624,10.9247426986694,13.3572511672974,0.96353167295456,0.74248933792114,0.87351685762405,13.9007349014282,13.9007349014282,7.94156694412232,1.03224122524261,1.14143085479736,0.81492727994919,0.59867864847183,-0.28655612468719,-0.56405752897263,-2.62883353233337,1.00077629089355,2.3319525718689,9.01177501678467,6.21774196624756,5.66228723526001,0.36538571119308,0.02343581803143,-0.15978966653347,8.22168827056885,7.64468622207642,6.91206026077271,SWING_LEFT
-0.54967647790909,-0.83569997549057,-1.54942715167999,-1.23996782302856,0.26258769631386,1.43065011501312,5.216965675354,3.43328523635864,1.51074123382568,10.1538095474243,8.03972911834717,6.74446630477905,-3.91857528686523,-3.93615221977234,-4.15240097045898,-0.55306059122086,-0.99359369277954,-1.70706582069397,-4.11245346069336,-3.07754898071289,-1.51214289665222,2.99126267433167,1.14462661743164,-0.35792887210846,-9.37569427490234,-12.442666053772,-13.496114730835,10.1825399398804,14.6549081802368,15.0475578308105,-0.82611256837845,4.97851324081421,9.71947288513184,-15.3803520202637,-23.4751472473145,-29.4223442077637,0.29880666732788,0.60507023334503,2.90763926506042,-0.46445530653,-3.44666314125061,-7.91598033905029,-49.8951644897461,-73.906608581543,-78.4508056640625,5.63116216659546,6.79474449157715,0.5746083855629,17.4421081542969,5.73272085189819,5.4541540145874,57.997142791748,37.8619041442871,18.0953769683838,2.17527008056641,0.70733559131622,0.49108690023422,1.17125821113586,1.43011748790741,1.08337390422821,-12.6126546859741,-8.73404788970947,-6.75643730163574,-5.78439140319824,1.15879356861115,6.35899972915649,1.83172225952148,1.60322296619415,1.08390653133392,13.3883762359619,9.63905620574951,9.96227359771728,0.08575379103422,-0.49215218424797,-0.92145377397537,-0.86446207761765,-0.4708468914032,-0.55500280857086,0.77093297243118,1.81241071224213,1.62805712223053,5.69820022583008,5.94719696044922,7.27358484268188,-0.2354234457016,-0.46871635317802,-0.53902381658554,6.42603731155396,5.34864664077759,6.11479091644287,SWING_LEFT
-0.74834829568863,-0.71479243040085,-0.7344998717308,-0.01651159860194,-0.14221280813217,-0.19600865244865,3.67749381065369,3.43807363510132,3.05739545822144,9.0859956741333,8.71489429473877,8.05170059204102,-4.23921966552734,-6.14870643615723,-7.53568077087402,2.34871196746826,6.2584433555603,6.13155078887939,-4.9923620223999,-5.65602159500122,-4.48955726623535,1.06846022605896,0.81972098350525,-1.61547350883484,-15.8208847045898,-14.7291288375854,-17.8248310089111,1.60411512851715,5.26963806152344,14.8775691986084,0.81279677152634,4.39368343353271,8.04647541046143,-18.6963214874268,-21.8566665649414,-18.6412544250488,6.81715965270996,7.91651296615601,7.50159215927124,-2.87994241714478,-2.69085812568665,-2.9928605556488,-43.2057647705078,-78.4508056640625,-78.4508056640625,16.979679107666,5.88973617553711,-3.70861840248108,17.4421081542969,12.4353647232056,6.5721492767334,52.6437072753906,52.6437072753906,39.7796630859375,2.73187065124512,1.13930034637451,0.19281286001205,2.57634210586548,2.86769199371338,-0.17363810539246,-11.0444526672363,-10.448296546936,-6.39012432098389,-9.45470237731934,-3.54581260681152,1.57059633731842,0.29188245534897,-0.20559604465961,-0.2290318608284,15.7490587234497,11.1785278320313,6.88572406768799,-1.33530902862549,-0.85167890787125,-0.53636068105698,-0.2769687473774,-0.29933932423592,-0.2226402759552,0.87627780437469,0.44771572947502,0.36631286144257,12.5623760223389,12.1409969329834,11.7842607498169,-0.52783852815628,-0.85114628076553,-1.09136343002319,4.49152231216431,4.92487287521362,5.41329002380371,SWING_LEFT
-0.25619611144066,-0.4932174384594,-0.35153725743294,-0.50227218866348,0.85487473011017,1.70282518863678,4.86741209030151,5.71256542205811,4.06296014785767,7.40766000747681,7.13472127914429,7.83143377304077,-4.59075736999512,-5.26240634918213,-6.97694969177246,0.72783732414246,-0.10773907601833,-2.26730895042419,-4.83150672912598,-5.52765703201294,-4.8629322052002,1.67566096782684,1.21120572090149,-0.68603032827377,-16.1321315765381,-19.6540012359619,-19.4911956787109,1.30723416805267,6.61757326126099,13.2734546661377,-4.35693168640137,6.10716104507446,12.0635871887207,-12.0835361480713,-38.5610122680664,-23.7528743743896,2.32653760910034,-1.26127314567566,-2.50816512107849,3.57396221160889,3.13613843917847,-3.06316804885864,-54.8751029968262,-78.0964660644531,-78.4508056640625,3.26569104194641,2.30322194099426,7.10838460922241,17.4421081542969,15.8857564926147,10.0555639266968,36.770149230957,52.658073425293,40.2201957702637,2.64931273460388,3.32948398590088,3.22934913635254,3.45305466651917,0.8948221206665,-0.60400491952896,-12.9909381866455,-7.80749177932739,-5.50426959991455,5.5832781791687,5.97832155227661,-0.49081134796143,-0.88683265447617,-0.41385525465012,0.70200926065445,17.9493293762207,8.82263278961182,3.46440982818604,-0.5118595957756,-0.30679616332054,-0.62584286928177,-1.36194062232971,-1.13077819347382,-0.66951870918274,-2.01112937927246,1.08217918872833,2.21463656425476,11.2838726043701,8.70531749725342,7.57525396347046,-0.37763625383377,-0.50227218866348,-0.47777110338211,6.6056022644043,5.70059442520142,4.17309379577637,SWING_LEFT
-0.97524958848953,-1.55954718589783,-0.98803275823593,-1.20800983905792,-0.31638354063034,0.42184472084045,4.36223554611206,4.43884992599487,6.99585723876953,6.9431848526001,8.85615253448486,10.0724067687988,-4.16997766494751,-4.94389247894287,-6.33725833892822,1.4867992401123,1.4867992401123,-0.16519992053509,-3.07967948913574,-3.72309923171997,-5.87013959884644,-1.15687716007233,0.09001484513283,1.86634337902069,-7.2304892539978,-15.8687686920166,-20.9253234863281,6.2201361656189,5.25527286529541,4.93444967269897,-4.66745615005493,0.73396718502045,9.64064311981201,-19.4528884887695,-46.8210067749023,-50.388370513916,1.33158051967621,-0.59122174978256,1.03330647945404,2.27487230300903,1.52599132061005,-5.75668907165527,-77.6750869750977,-78.4508056640625,-78.4508056640625,10.8624935150146,9.03332328796387,11.1928930282593,17.2839164733887,9.8510332107544,8.43476390838623,59.7113914489746,47.4865951538086,28.3952312469482,3.86371421813965,2.66688966751099,1.68524837493896,1.40082275867462,0.49108690023422,-0.02716424316168,-11.9374895095825,-5.15471649169922,-3.12682747840881,0.04070143029094,-0.85712420940399,-1.17794728279114,0.2370213419199,1.19575929641724,1.63305044174194,14.0012912750244,5.98310995101929,6.4164605140686,0.48842376470566,0.17470337450504,-0.36059200763702,-0.69455242156982,-1.61760401725769,-1.1558119058609,2.65038132667542,2.75333189964294,3.53863000869751,9.11711978912354,5.14992809295654,5.66707563400269,0.00798948295414,-0.16458335518837,-0.80320942401886,6.009446144104,6.13873338699341,7.16584587097168,SWING_LEFT
-0.68922609090805,-0.67324715852737,-0.76965355873108,-0.9763149023056,-0.45007422566414,-0.25086978077888,2.39180755615234,3.48356342315674,1.98000478744507,8.28154373168945,7.61595582962036,6.5361704826355,-5.49197101593018,-5.48078584671021,-6.08479070663452,-1.41497325897217,-3.3734302520752,-3.02866506576538,-3.95319628715515,-5.21074104309082,-4.41605377197266,2.76329588890076,1.70122730731964,-2.73826217651367,-7.97987413406372,-11.6382141113281,-20.0945339202881,-2.42293214797974,-1.05823719501495,14.853627204895,-3.25012183189392,0.07936219871044,4.56199502944946,-19.5797805786133,-25.5317668914795,-29.515718460083,6.69358921051025,3.21070718765259,3.13507318496704,0.42237734794617,2.75583910942078,-1.4343786239624,-45.8010787963867,-70.4182586669922,-78.4508056640625,17.6189308166504,6.78995609283447,11.0157222747803,17.4421081542969,5.68957757949829,3.32522296905518,36.9425315856934,59.6275939941406,30.7319736480713,2.94918465614319,0.66525763273239,-0.16085493564606,5.34709501266479,4.22430610656738,2.42028093338013,-8.69813442230225,-4.56095409393311,-4.56095409393311,-14.0850887298584,-5.27442646026611,-5.27442646026611,0.96939063072205,0.90707266330719,0.96353167295456,11.3341512680054,9.05247688293457,6.26083755493164,-1.30654680728912,-1.22984778881073,-0.89002847671509,-0.49481534957886,-0.67271453142166,-0.94702011346817,1.14203417301178,1.00795888900757,0.34715923666954,8.31506252288818,9.60553741455078,10.8672819137573,0.388288885355,0.20133498311043,0.07936219871044,6.56011247634888,6.16746377944946,6.08366632461548,SWING_LEFT
-0.02982740476727,-0.18588864803314,-1.35608160495758,-1.58085250854492,-2.03944873809814,-1.92120444774628,7.15626907348633,7.15626907348633,7.49624538421631,5.90888977050781,5.90888977050781,4.96557426452637,-5.60542154312134,-6.38998889923096,-7.46164464950562,9.05965900421143,7.56807136535645,2.36547136306763,-3.17289018630981,-3.50738310813904,-4.31325578689575,3.06742906570435,3.81630992889404,1.58191776275635,-5.99268674850464,-7.22570085525513,-8.24323654174805,6.43082571029663,2.73417830467224,-0.37110126018524,-3.60059380531311,-3.41790103912354,0.90174633264542,-4.75009632110596,-3.89536619186401,-12.7060279846191,7.0174298286438,6.40916347503662,0.05379585549235,-1.68631362915039,-0.57151436805725,2.2951123714447,-48.0157165527344,-64.3417739868164,-78.4508056640625,13.6972274780273,-0.19153612852097,-3.3925838470459,17.4421081542969,16.7555446624756,9.51600742340088,34.0982208251953,54.5997695922851,47.8672752380371,4.83310461044312,3.523362159729,2.98114252090454,-3.11057209968567,0.60986387729645,0.33023199439049,-13.3428859710693,-12.9215068817139,-9.84735202789307,-0.20350714027882,-3.03105926513672,0.71347212791443,2.34571242332459,0.04740426689386,-1.38111531734467,31.8835849761963,23.9994773864746,6.892906665802,-2.03998136520386,-2.13958358764648,-1.92493283748627,0.39414784312248,0.74834829568863,-0.36378780007362,-1.29526317119598,-0.61770403385162,-0.34955343604088,6.06930112838745,8.46589756011963,10.2687311172485,0.00159789668396,-0.51345747709274,-0.80054622888565,5.96874475479126,5.96874475479126,4.57292509078979,SWING_LEFT
-0.2418150305748,-0.29507824778557,-0.30519825220108,-0.56405752897263,0.7664577960968,1.9734023809433,4.92726707458496,6.06930112838745,4.92726707458496,8.46350288391113,7.52258157730103,5.60482597351074,-7.22089529037476,-7.99054861068726,-8.32717227935791,5.43483781814575,0.35434186458588,-4.45800352096558,-2.53639459609985,-3.4594464302063,-5.01739549636841,1.32625424861908,0.98590224981308,0.19920445978642,-6.80192708969116,-15.2726125717163,-22.3043823242188,1.27610945701599,1.00795888900757,5.88973617553711,-5.7289924621582,-2.72814226150513,4.78676605224609,-10.9438962936401,-26.8246364593506,-51.4801254272461,3.79926562309265,3.39126944541931,1.54410088062286,-0.57684069871902,0.69295454025269,-0.18429075181484,-50.1321907043457,-78.4508056640625,-78.4508056640625,21.4735946655273,1.36708915233612,-3.14358687400818,17.4421081542969,8.26432132720947,7.43927431106567,68.5316314697266,25.3019237518311,28.7759094238281,4.0874195098877,2.93107509613037,1.03011071681976,0.73716300725937,1.70069468021393,1.06792759895325,-14.1569147109985,-8.41801357269287,-6.16746377944946,0.07661445438862,0.43335050344467,0.73501992225647,0.55873119831085,0.83569997549057,1.00827276706696,8.18098735809326,6.78277349472046,6.84502267837524,-0.54008907079697,-0.64661550521851,-0.55606806278229,-1.09828770160675,-1.10254871845245,-0.99176120758057,-1.39342534542084,0.68713587522507,1.23301386833191,6.64390993118286,8.00381660461426,8.86812305450439,-0.54967647790909,-0.76113146543503,-0.89748531579971,6.96952104568481,6.96952104568481,6.33984613418579,SWING_LEFT
-0.10492854565382,-0.01384843792766,-0.48256480693817,-0.28442561626434,1.15847504138947,2.16461730003357,4.52504110336304,1.91296720504761,1.91296720504761,8.21929454803467,4.28562116622925,4.28562116622925,-7.0216908454895,-7.31517124176025,-7.52609348297119,-2.98317527770996,-4.26886177062988,-3.19147086143494,-4.84375762939453,-5.505286693573,-5.15481472015381,2.22800064086914,1.13503932952881,-1.62719142436981,-18.7633590698242,-23.0130672454834,-26.9084320068359,2.95683908462524,3.52426481246948,12.3612632751465,-5.21979570388794,-0.30626353621483,7.27682161331177,-19.1440372467041,-37.5817832946777,-37.5817832946777,1.34809219837189,-1.42745435237885,-2.27593755722046,0.7344998717308,2.10016894340515,-1.78325271606445,-71.380729675293,-78.4508056640625,-78.4508056640625,0.63206923007965,-0.41419690847397,9.48343276977539,17.4421081542969,14.2058343887329,9.45901584625244,42.7341079711914,47.37646484375,37.4860153198242,5.12605237960815,2.21148896217346,0.42397525906563,0.02183792181313,2.9630331993103,3.01736164093018,-18.8160305023193,-10.5296993255615,-7.04852962493896,-10.8098211288452,-8.87051773071289,-3.13640427589417,1.63198518753052,1.58724403381348,1.50628399848938,11.4442844390869,9.33978080749512,8.00860500335693,-0.5480785369873,-0.31318774819374,-0.30093720555305,-1.16752982139587,-0.83783048391342,-0.36804887652397,1.45088624954224,1.6903064250946,2.32237553596497,10.9965686798096,10.5368814468384,10.3764705657959,0.30626353621483,0.20293287932873,-0.09853696078062,5.14274501800537,5.14274501800537,4.79558610916138,SWING_LEFT
-2.23279428482056,-2.52627468109131,-2.17527008056641,-2.48046827316284,-0.18375812470913,1.90788865089417,0.20111294090748,-6.79474449157715,-9.39245319366455,10.8409452438354,9.80665016174316,8.47547435760498,-6.65310907363892,-6.37454271316528,-5.83498620986938,-2.05901336669922,-3.08373188972473,-3.83551120758057,-3.52282953262329,-3.31350517272949,-2.90870451927185,0.59974390268326,-0.25406557321548,-0.57098174095154,-10.3381633758545,-12.0356521606445,-13.9055233001709,7.6375036239624,9.74440097808838,10.8193979263306,-1.67779147624969,4.79795122146606,7.69600296020508,-15.277400970459,-20.2214279174805,-13.7618713378906,3.37049674987793,4.76439523696899,4.46452331542969,-1.14728987216949,-0.84581995010376,-2.23172903060913,-30.99294090271,-71.7901382446289,-78.4508056640625,12.9143238067627,8.44434928894043,1.54186594486237,17.4421081542969,8.54768180847168,7.70026397705078,53.9389686584473,42.4037055969238,27.5189552307129,4.24348115921021,3.83868050575256,2.88846468925476,-0.77018618583679,-0.91506218910217,-0.49747851490974,-14.1569147109985,-10.1466264724731,-5.91367816925049,2.79642748832703,0.24420857429504,-2.32237553596497,-0.45060685276985,-0.30200245976448,0.06764429062605,11.9207305908203,7.02937602996826,6.11718511581421,-2.15289950370789,-1.61707139015198,-1.09935295581818,-0.34141725301743,-0.53689330816269,-0.54275226593018,-0.73023152351379,0.54108959436417,0.35434186458588,8.9255838394165,10.2543659210205,11.1067018508911,-0.19228023290634,-0.34248253703117,-0.36325517296791,6.95036745071411,5.42286682128906,5.42286682128906,SWING_LEFT
-0.79788309335709,-1.17125821113586,-1.64583361148834,-1.5201324224472,-0.56459015607834,0.42557314038277,4.76206731796265,2.06859016418457,2.06859016418457,8.55927085876465,6.73010110855103,6.73010110855103,-5.29915809631348,-5.2304482460022,-5.76148271560669,-4.93684387207031,-1.34554135799408,-1.34554135799408,-4.4916877746582,-5.9590892791748,-7.02754974365234,4.47198009490967,5.31566953659058,4.53642845153809,-10.1059255599976,-16.34521484375,-18.2964897155762,1.29526317119598,-0.90500825643539,3.5003228187561,-3.85465931892395,-0.47830373048782,5.2528190612793,-17.5973815917969,-24.593240737915,-37.3136329650879,-0.28229507803917,1.26926255226135,2.78140544891357,-1.88551807403564,-1.02957808971405,-8.37670707702637,-41.8506469726563,-62.5844306945801,-78.4508056640625,22.8957500457764,15.3803520202637,1.44609785079956,17.4421081542969,9.0020170211792,5.61767196655273,39.3080024719238,46.7204513549805,36.6935348510742,2.8080370426178,1.73531579971313,-0.80107885599136,1.49350070953369,0.29134982824326,1.44023752212524,-9.47864437103272,-7.01501083374023,-5.39413642883301,1.45328044891357,-1.24977326393127,-0.50757074356079,0.66046398878098,0.93690007925034,1.04928553104401,8.53772354125977,8.53772354125977,7.12993288040161,-0.10066749155521,-0.16937704384327,-0.47830373048782,-1.45568382740021,-1.82746112346649,-1.76940429210663,-1.46285724639893,-0.55306059122086,0.47884035110474,8.93994903564453,7.88650035858154,7.59201335906982,0.11824435740709,-0.32490566372871,-1.04981815814972,7.43639039993286,7.07486581802368,5.97353315353394,SWING_LEFT
-0.9225190281868,-1.10947299003601,-1.12438666820526,-1.25861001014709,-1.39869225025177,-1.87912654876709,2.76051449775696,3.14358687400818,4.2951979637146,8.00142192840576,8.14507389068604,8.46350288391113,-4.72498035430908,-4.75960159301758,-5.39343404769897,9.45949077606201,7.54891777038574,8.76996040344238,-1.61121249198914,-2.83679914474487,-3.45411992073059,1.86154961585999,2.06448245048523,1.65968203544617,-0.50278234481812,-4.41490793228149,-11.8943939208984,6.43800830841064,3.21301865577698,2.75572609901428,-7.61930418014526,-4.1183123588562,-0.28069719672203,-2.03028297424316,-16.4170417785645,-26.7384452819824,3.74653506278992,2.16834568977356,1.79763376712799,0.91133373975754,2.22320699691772,-2.1875205039978,-39.2936401367188,-78.4508056640625,-78.4508056640625,19.4696483612061,7.51539897918701,1.86508309841156,17.4421081542969,8.48376655578613,6.57587766647339,65.7950592041016,36.1979370117188,30.2411613464355,3.58461499214172,0.19068233668804,0.21252025663853,2.0548951625824,1.34063529968262,0.96033591032028,-9.13387966156006,-5.55933618545532,-5.07570743560791,-7.06050062179565,1.58974993228912,10.3836526870728,1.11533188819885,-0.29774141311646,-0.60453760623932,12.2846488952637,11.7028579711914,7.58243656158447,-0.89748531579971,-1.10521185398102,-0.45540055632591,-0.60826599597931,-0.58642810583115,-0.3531351685524,-0.95768070220947,-0.73023152351379,-0.12928688526154,6.79474449157715,9.03571701049805,11.8848171234131,-0.70094400644302,-0.93743270635605,-1.04502439498901,5.1786584854126,5.01585245132446,4.10366153717041,SWING_LEFT
-0.18588864803314,-0.75420725345612,-1.30921006202698,-3.65971612930298,-3.6772928237915,-2.98167514801025,6.51701688766479,6.75643730163574,6.72052431106567,7.89847135543823,5.98071575164795,7.00303983688354,-5.06639766693115,-6.03632116317749,-6.85710716247559,8.24802494049072,8.07803630828857,5.39174222946167,-2.74998021125793,-3.33853888511658,-4.06345129013062,1.91747605800629,1.96488034725189,2.37713766098022,-4.23773717880249,-5.56891298294067,-10.8505220413208,6.5744776725769,5.20020627975464,2.81079268455505,-8.01877784729004,-5.28957080841064,-1.29909002780914,-2.68629431724548,-18.8184261322021,-34.6608581542969,-1.65861678123474,1.38590908050537,1.98671817779541,-2.28445959091187,-2.31854820251465,-2.35636496543884,-23.4009265899658,-47.5320854187012,-64.9068069458008,19.3978214263916,12.1936693191528,8.98065090179443,17.4421081542969,17.4421081542969,8.19827556610107,0.62728083133698,0.62728083133698,58.514289855957,4.59342050552368,3.80938577651978,2.01548027992249,-0.11398329585791,1.46793437004089,2.47620725631714,-10.0915603637695,-5.73890161514282,-6.00705194473267,6.6463041305542,-0.31842881441116,-3.65834021568298,2.59711480140686,2.95930457115173,2.99392580986023,12.1697273254395,8.09718990325928,9.4020299911499,-0.17310547828674,-0.2354234457016,-0.62531024217606,-1.12012553215027,-1.07059073448181,-0.75793564319611,-1.78368031978607,-0.11731588095427,1.04626619815826,10.3812589645386,8.61433792114258,10.0508584976196,0.23808661103249,-0.28442561626434,-0.69242191314697,7.75242519378662,7.37892961502075,5.28400325775146,SWING_LEFT
0.04953479766846,-0.23435817658901,-0.41864892840385,-1.86154961585999,-2.05968880653381,-0.35686358809471,3.13161587715149,4.18745899200439,3.71819519996643,7.21612405776978,7.60637903213501,7.62792682647705,-6.0757360458374,-6.77667999267578,-8.76020240783691,1.42455005645752,2.15478157997131,-1.54186594486237,-2.1789984703064,-2.35103869438171,-2.21841311454773,3.65865087509155,3.21283769607544,2.88367080688477,-13.6301898956299,-13.9151000976563,-14.0635404586792,1.95606279373169,4.88177728652954,4.39096593856812,-6.27547311782837,-2.99126267433167,5.14682531356812,-12.7922201156616,-32.7766227722168,-54.6620178222656,-2.7137610912323,-1.13610458374023,2.33026599884033,-3.57769060134888,-7.49307012557983,-13.1618747711182,-64.8110427856445,-78.4508056640625,-78.4508056640625,10.2543659210205,3.00711727142334,1.26892685890198,17.4421081542969,7.61930418014526,5.37745475769043,50.3404846191406,50.6014518737793,41.5417938232422,3.95799016952515,3.23254489898682,0.08309062570333,3.04665637016296,1.23623943328857,0.46339005231857,-5.96874475479126,-1.09654438495636,1.12527477741241,4.55137729644775,0.24420857429504,-1.76452660560608,-0.84102630615234,-0.89375686645508,-0.57257962226868,10.0724067687988,6.3781533241272,3.34709405899048,-1.09882032871246,-0.70041137933731,-0.37976679205894,-0.16298545897007,-0.59335231781006,-0.72224932909012,-0.3687070608139,0.82121115922928,0.96965169906616,10.9774150848389,11.9039707183838,11.7267999649048,-0.60507023334503,-1.03064334392548,-1.20907521247864,4.5920786857605,4.09408473968506,3.63679242134094,SWING_LEFT
-0.99335908889771,-0.42344263195992,0.34141725301743,-1.48497867584229,-1.5025554895401,-1.05194866657257,1.68791222572327,1.29047477245331,1.24019646644592,11.1904983520508,11.4131593704224,10.2783079147339,-4.95241451263428,-5.86747646331787,-6.39371728897095,1.04387199878693,-0.54827219247818,-0.54827219247818,-2.06821084022522,-3.30498290061951,-3.82110357284546,1.22239100933075,4.05386400222778,6.49651527404785,-3.45722723007202,-21.8446960449219,-21.8446960449219,5.76523780822754,5.65989303588867,5.65989303588867,-4.68290233612061,0.91506218910217,9.18364524841309,-29.403190612793,-44.5249671936035,-48.3485107421875,-3.13187742233276,-0.69615030288696,3.95852279663086,-0.72331458330154,-8.14820766448975,-11.2726287841797,-52.9453773498535,-78.4508056640625,-78.4508056640625,7.3501992225647,8.88248825073242,-0.8451532125473,16.0199794769287,8.67604637145996,4.8757152557373,74.8307723999023,51.7961578369141,33.5260047912598,3.81684255599976,2.15982365608215,0.68549770116806,-0.61146181821823,0.28176245093346,0.70467245578766,-6.0405707359314,-3.69185900688171,-3.2776620388031,-3.56975483894348,-3.77565598487854,-1.71664261817932,1.05035078525543,1.03543710708618,0.58056914806366,8.58560752868652,9.65820980072022,9.99100399017334,-0.34621095657349,-0.9033442735672,-1.29536151885986,-1.56966722011566,-1.04928553104401,-0.83996105194092,2.22421336174011,2.79163908958435,2.27688574790955,6.44519090652466,6.09563732147217,7.16824007034302,-0.89535474777222,-1.50947976112366,-1.69110727310181,7.56567716598511,7.44117879867554,6.24407815933228,SWING_LEFT
-0.59974390268326,-0.64501762390137,-0.81812310218811,-1.88178968429565,-1.93292236328125,-1.04395914077759,5.0182466506958,4.69502973556519,3.59848523139954,9.12430286407471,8.29830265045166,7.12753868103027,-5.13031339645386,-5.61234569549561,-7.01103782653809,5.30794525146484,2.45166254043579,-0.62967503070831,-1.65115988254547,-2.38672494888306,-3.59153914451599,4.78143930435181,3.59313702583313,1.81734120845795,-2.96402168273926,-9.36851119995117,-9.36851119995117,2.21942496299744,-0.04788403213024,-0.04788403213024,-7.71358013153076,-5.43604469299316,1.30281841754913,-6.13633918762207,-21.2940292358398,-44.4842681884766,2.39471459388733,6.4123592376709,6.2584285736084,-4.29621171951294,-3.55532002449036,-5.15534734725952,-37.9600677490234,-78.4508056640625,-78.4508056640625,26.2691802978516,3.85466480255127,-5.30076265335083,17.4421081542969,8.45979785919189,5.87333536148071,44.8649444580078,44.5680656433105,31.538818359375,4.16358613967896,3.35398507118225,1.61494088172913,-1.03543710708618,-0.86925578117371,0.25619611144066,-15.0595283508301,-14.8799638748169,-7.26879644393921,1.02950668334961,-1.43412685394287,2.0135235786438,2.16301941871643,1.51640391349792,0.81066626310349,12.4330892562866,12.7754602432251,10.335768699646,-0.47457531094551,-1.21919512748718,-1.22079300880432,-0.97418433427811,-0.67591029405594,-0.36112466454506,2.72938990592957,-0.01436521019787,-0.66798228025436,5.19541788101196,7.95114374160767,10.0843772888184,-1.20161831378937,-1.37206065654755,-1.43970489501953,4.75009632110596,5.04697704315186,4.51067590713501,SWING_LEFT
-0.8713863492012,-1.00827276706696,-1.421595454216,-1.00880539417267,-0.90920323133469,-0.47137951850891,2.62883353233337,3.32075786590576,2.8969841003418,7.06768321990967,7.03655862808228,6.07169532775879,-6.14231491088867,-6.37347745895386,-6.1684136390686,6.05254173278809,-0.59615623950958,-3.02627086639404,-2.06022143363953,-1.93452024459839,-2.68340110778809,0.95341169834137,-1.177117228508,-1.00880539417267,-0.94092124700546,-3.91930818557739,-3.91930818557739,6.45476770401001,6.08845472335815,6.08845472335815,-5.7188720703125,-5.76041746139526,-4.51032972335815,-2.26730895042419,-2.4899697303772,-10.3788642883301,-1.71827161312103,6.15829372406006,5.71514368057251,-2.226402759552,-0.36325517296791,3.92336893081665,-24.3155117034912,-37.1915283203125,-54.8559494018555,26.5564861297607,27.7152786254883,11.9566431045532,17.4421081542969,17.4421081542969,16.0455455780029,-16.5726642608643,8.73644161224365,59.1679077148438,5.23577499389648,4.56199502944946,3.49300217628479,-1.20161831378937,1.19948780536652,-0.05113269388676,-26.8198471069336,-19.4935894012451,-12.4235124588013,4.74291372299194,1.19949507713318,-0.13168109953403,4.36545372009277,1.19362878799438,0.99655491113663,29.1446170806885,23.8007583618164,8.55927085876465,0.32863408327103,0.44794371724129,0.20666129887104,0.05486112087965,-0.65886604785919,-0.55340486764908,-0.9241618514061,1.47961664199829,2.04464817047119,7.1921820640564,6.43082571029663,6.21774196624756,-0.71479243040085,-1.04608964920044,-1.14835512638092,6.83065748214722,5.27682065963745,4.56813669204712,SWING_LEFT
-0.65034395456314,-0.63702815771103,-0.9416937828064,0.30413299798965,0.62104916572571,0.62690812349319,1.10851538181305,0.9433154463768,0.47405192255974,9.62947940826416,8.37252330780029,7.04613542556763,-3.12069225311279,-3.41150951385498,-4.0362868309021,0.33758243918419,0.84275901317596,1.41018486022949,-1.18563938140869,-1.34969007968903,-1.9563581943512,-0.9161274433136,-0.43516051769257,-0.16724652051926,-6.58405447006226,-6.81629228591919,-8.34618759155273,9.49061584472656,9.23922443389893,7.41484260559082,-2.38512706756592,-1.4295848608017,0.56245964765549,-4.71657752990723,-6.86417627334595,-14.1808567047119,1.19469404220581,2.722815990448,4.61099720001221,0.46711847186089,2.02986145019531,-1.66181254386902,-37.7158584594727,-37.7158584594727,-78.4508056640625,31.1365928649902,31.1365928649902,22.9388465881348,17.4421081542969,11.1352090835571,8.54288864135742,56.7928581237793,55.3084526062012,24.7440738677979,2.62108325958252,1.77366530895233,-0.13954964280128,-0.13102753460407,-0.77125144004822,0.17097494006157,-10.8289747238159,-7.51539897918701,-5.55933618545532,-0.66079968214035,-5.96874475479126,-4.49631071090698,1.36886477470398,0.70200926065445,0.67164921760559,14.3747873306274,9.86650562286377,9.86650562286377,-0.62371236085892,-0.28069719672203,-0.23009711503983,0.07243798673153,-0.21731394529343,-0.3818973004818,-0.09576806426048,0.08858546614647,0.62728083133698,11.8632698059082,11.0420579910278,10.0029745101929,0.17204020917416,-0.21837921440601,-0.56245964765549,6.55053567886353,6.17225217819214,5.95916795730591,SWING_LEFT
-0.68176925182343,-0.59015649557114,-0.69934612512589,-0.60347229242325,-0.75047880411148,-0.7856325507164,3.87860679626465,3.02148246765137,0.98401689529419,9.76594829559326,9.45949077606201,8.24084186553955,-4.9145975112915,-4.48316526412964,-4.12896490097046,-0.43813890218735,-1.37906014919281,-0.3687070608139,-1.76194739341736,-2.21574997901917,-3.99367642402649,1.38590908050537,2.43785762786865,2.92521619796753,-3.61285042762756,-4.92247867584229,-9.4235782623291,8.4323787689209,6.53138208389282,2.99514627456665,-2.4788703918457,-1.32945001125336,2.05010151863098,-8.82263278961182,-10.8074264526367,-29.5229015350342,4.49807929992676,3.49886107444763,1.45568382740021,-1.06632971763611,2.83520126342773,1.43544387817383,-53.8958740234375,-78.4508056640625,-78.4508056640625,14.578293800354,7.59919595718384,7.65186882019043,17.4421081542969,10.618556022644,6.95031785964966,38.6831169128418,61.0377769470215,41.2425193786621,3.08447313308716,1.6953684091568,0.41012680530548,2.76862239837646,1.54995977878571,-0.432497382164,-13.7259578704834,-12.4690027236938,-4.87459468841553,1.55144274234772,0.20829555392265,3.53863000869751,1.96274971961975,1.53238296508789,1.2799152135849,16.019603729248,11.6238489151001,8.37252330780029,0.11078750342131,-0.16245283186436,-0.2705771625042,0.34514567255974,0.1384843736887,0.01118527725339,2.56897830963135,2.95923328399658,1.77170920372009,8.17859268188477,8.10437297821045,8.83221054077148,-0.648746073246,-0.64661550521851,-0.63702815771103,4.07493114471436,3.01429986953735,3.41652584075928,SWING_LEFT
0.09640643000603,-0.11185276508331,-0.08149272948503,-0.08362326025963,0.12037488073111,0.23915186524391,3.54581260681152,2.88980150222778,1.84353530406952,6.97909784317017,8.51138687133789,7.60398483276367,-4.68716382980347,-5.24962329864502,-6.1641526222229,1.58974993228912,0.95768070220947,-2.3702597618103,-4.34521389007568,-3.84453940391541,-2.94439101219177,0.58269965648651,-0.57044911384583,-2.21894598007202,-18.1408653259277,-22.1439723968506,-22.1439723968506,5.99986934661865,11.8321447372437,11.8321447372437,5.93618631362915,10.9205589294434,16.5115985870361,-29.5947265625,-26.6426773071289,-20.1304473876953,0.96353167295456,1.84237492084503,3.51856851577759,0.94968324899673,-2.18379211425781,-4.40327072143555,-78.4508056640625,-78.4508056640625,-78.4508056640625,15.2486705780029,10.2184524536133,7.7572135925293,16.9611415863037,8.43210124969482,4.53003692626953,72.8435897827148,62.4168395996094,37.6799468994141,0.82824313640594,1.30388367176056,1.73425054550171,2.18485736846924,0.51771855354309,-0.22317290306091,-14.484920501709,-11.6406087875366,-6.77559089660645,2.57376670837402,7.35977602005005,5.29118585586548,2.10389733314514,0.65673553943634,0.23329292237759,13.1657152175903,8.40843677520752,7.2807674407959,-0.06125270575285,0.03568635880947,0.00745685119182,-0.83303678035736,-0.80800306797028,-0.56032907962799,1.52031803131104,1.01992988586426,0.99838209152222,9.10993766784668,9.25837802886963,9.31105041503906,-1.26659941673279,-1.37898480892181,-1.64796411991119,5.04458284378052,4.45560932159424,4.66629934310913,SWING_LEFT
-0.39947417378426,0.04154531285167,0.1193096190691,-2.01761078834534,-2.25995850563049,-1.84130966663361,1.88423669338226,2.34631776809692,2.34631776809692,12.5647706985474,11.3533048629761,11.3533048629761,-2.35956072807312,-2.87887716293335,-3.47222948074341,2.13562798500061,3.28723883628845,2.4899697303772,-2.13106155395508,-2.63173580169678,-3.17075967788696,0.99282646179199,1.23144567012787,0.88150632381439,-2.13802218437195,-5.47314500808716,-8.20253467559814,8.49702167510986,5.90410137176514,7.50103378295898,-3.75718784332275,-1.00134861469269,0.57098174095154,-7.00782823562622,-13.4745674133301,-14.3388738632202,-0.91186636686325,2.62907266616821,1.44662916660309,0.1113201379776,-0.28176245093346,-2.16834568977356,-25.3737487792969,-52.3013343811035,-78.4508056640625,17.4058456420898,14.061146736145,2.63362193107605,17.4421081542969,13.2620096206665,4.84322500228882,50.9079093933105,60.6762542724609,33.1740570068359,3.43228197097778,1.79497063159943,-0.83197152614594,0.24873925745487,0.02290318533778,0.21411815285683,-6.84502267837524,-4.03662395477295,-6.52659368515015,-3.04781866073608,-3.89057779312134,1.94648599624634,1.0748518705368,1.22132575511932,1.12864768505096,7.27597904205322,6.33745193481445,6.39491271972656,0.01917476020753,-0.17630127072334,-0.3147856593132,-0.72065138816833,-0.36804887652397,-0.34088462591171,1.67354702949524,1.8866308927536,1.72382521629334,7.81467437744141,8.30787944793701,8.43956089019775,-0.17470337450504,-0.74461984634399,-0.91879057884216,5.56173038482666,5.59524917602539,5.55933618545532,SWING_LEFT
-0.80853569507599,-0.90440952777863,-0.98590224981308,-0.00479369005188,0.22370553016663,0.28868666291237,0.8930372595787,1.51552963256836,1.86268889904022,8.42280197143555,7.99902772903442,8.03494071960449,-3.80352663993835,-3.48767590522766,-3.45571780204773,1.80043971538544,-1.19949507713318,0.05985504388809,-1.40668165683746,-1.73957681655884,-2.93054246902466,1.49403345584869,1.85515809059143,1.00507700443268,-0.91219085454941,-3.03345346450806,-7.27119064331055,7.00782823562622,5.22175407409668,4.4723687171936,-5.05574512481689,-4.82618045806885,-0.1352885812521,-3.57214903831482,-5.3175220489502,-28.8118228912354,4.91566276550293,3.24000191688538,0.89642006158829,2.76862239837646,4.48423051834106,-1.84024429321289,-52.20556640625,-74.9720306396484,-78.4508056640625,17.5494976043701,6.96712684631348,0.36631286144257,17.4421081542969,12.9434957504272,6.68613243103027,58.4352798461914,72.122932434082,46.6893272399902,2.17473745346069,0.35260254144669,-0.20506340265274,1.66660618782043,1.27831733226776,0.1065264493227,-12.8568630218506,-12.8568630218506,-9.59356594085693,-3.62482142448425,-3.62482142448425,7.55131196975708,2.19231414794922,0.77284938097,0.27963191270828,15.1313543319702,12.3588695526123,9.11711978912354,0.31744879484177,0.04793690145016,-0.42876893281937,-0.14434333145618,-0.3627225458622,-0.74195671081543,-0.45489832758904,1.82438170909882,0.67516487836838,6.84262847900391,6.59123706817627,7.33343982696533,-1.13610458374023,-1.28790473937988,-1.33317852020264,5.53299999237061,4.90571928024292,4.54419469833374,SWING_LEFT
-1.4471617937088,-1.35448372364044,-1.23836994171143,1.38750696182251,1.70761895179749,1.93878126144409,-1.56820213794708,-2.12126278877258,-2.4899697303772,9.30386734008789,9.35414600372314,8.88967132568359,-3.15051960945129,-3.27515554428101,-3.14572596549988,-1.07260239124298,-0.38546648621559,-1.83635270595551,0.0042610578239,0.77018618583679,-1.01519703865051,0.96779274940491,-0.91932320594788,0.45060685276985,-1.66397023200989,-4.02225875854492,-7.42681360244751,11.6118783950806,6.53377628326416,5.1786584854126,-4.60833406448364,-5.15801048278809,0.72597771883011,-0.07900865375996,-2.40856695175171,-45.9423370361328,4.88583564758301,8.09814071655273,7.27575635910034,-2.70204329490662,-0.99282646179199,-0.21198762953281,-34.885913848877,-65.9339218139648,-78.4508056640625,30.2746810913086,17.6213245391846,-6.99106884002686,17.4421081542969,10.346381187439,6.70956802368164,72.0678634643555,60.6906204223633,29.1877136230469,6.49704790115356,2.07939624786377,1.66607356071472,-0.05645901709795,0.77977359294891,0.18961706757545,-16.4768962860107,-0.61291563510895,0.93852704763412,-17.1640319824219,0.428562104702,-1.16597628593445,-1.18191087245941,-0.91346424818039,-0.36485308408737,12.5982894897461,0.66319388151169,0.66319388151169,-0.4932174384594,0.29667615890503,-0.08415589481592,-0.32969933748245,-1.11160349845886,-0.55500280857086,0.1268926858902,0.25139117240906,2.27927994728088,14.4226713180542,10.8936176300049,6.61996793746948,-0.20453077554703,-0.46179214119911,-0.71692299842834,4.33829355239868,4.47955131530762,4.4340615272522,SWING_LEFT
0.01651159860194,0.02609897963703,-0.06391586363316,2.00429511070251,2.13372468948364,1.36673426628113,1.26892685890198,1.84832370281219,1.77410340309143,8.03733539581299,7.97987413406372,7.41244840621948,-3.45731568336487,-3.71724033355713,-3.9254994392395,-0.02633621916175,-0.02633621916175,0.13886369764805,-1.23517417907715,-1.70122730731964,-2.39844298362732,1.59043979644775,2.0117518901825,1.86101698875427,-2.46842193603516,-4.57531929016113,-7.67102241516113,6.42124891281128,4.98472785949707,5.05655384063721,-4.37291049957275,-4.44481611251831,-3.68474984169006,-5.55454778671265,-4.12760353088379,-17.6907558441162,1.42798697948456,3.2708945274353,2.22107648849487,-2.51988315582275,-1.64103984832764,-1.93665075302124,-20.9803886413574,-56.8311653137207,-72.6999359130859,15.6054067611694,4.16351652145386,-2.8012158870697,17.4421081542969,16.4008121490479,9.15807819366455,32.8987274169922,32.8987274169922,58.598087310791,4.63762903213501,2.75903487205505,2.13745307922363,1.47539126873016,3.00724148750305,1.44130277633667,-14.0012912750244,-9.10754299163818,-8.06127738952637,-7.65665721893311,-2.44208574295044,-4.54658889770508,-1.41413855552673,-3.11589860916138,-3.76038360595703,29.8221759796143,17.6668148040771,7.59201335906982,-1.99843609333038,-0.712661921978,-0.10013485699892,1.47113025188446,1.32252585887909,0.87724530696869,-3.62003302574158,-2.75572609901428,-1.73100781440735,14.2646541595459,13.9917144775391,13.5439987182617,-1.1004182100296,-0.78882831335068,-0.73982614278793,-0.24420857429504,0.11971008777618,0.87627780437469,SWING_LEFT
-0.12836436927319,-0.28975194692612,-0.54008907079697,0.61998391151428,0.71372717618942,0.7962851524353,0.02633621916175,-0.06703764945269,0.04309562966228,9.23922443389893,8.65743350982666,8.31985092163086,-3.72256660461426,-6.79585456848145,-7.62516307830811,1.73340201377869,7.85776996612549,-0.09337386488914,-2.11827826499939,-1.8620822429657,-1.43011748790741,1.39815962314606,1.75662112236023,-0.73556512594223,-9.7013053894043,-10.3740758895874,-14.3723926544189,6.84502267837524,7.18260526657104,7.38132381439209,-4.00539445877075,-0.85327684879303,6.2850604057312,-14.3819694519043,-28.5053653717041,-49.9167098999023,-2.76436138153076,-4.55773401260376,-3.23254489898682,3.01310062408447,-0.1113201379776,-5.07385444641113,-44.2448463439941,-75.1539916992188,-78.4508056640625,1.22822546958923,3.78762698173523,15.1409311294556,17.4421081542969,10.0550308227539,5.59796476364136,28.9339275360107,58.9380645751953,42.2744178771973,3.57342958450317,2.62161588668823,0.86126631498337,1.89137709140778,1.00880539417267,0.4548679292202,-4.63278007507324,-5.68144083023071,-4.00789356231689,0.25857377052307,-5.4444146156311,-6.29196214675903,-1.29962265491486,-0.89855057001114,-0.75580513477325,4.72854852676392,1.55623114109039,4.06774854660034,-0.69082397222519,-0.18695391714573,-0.29028457403183,-0.75793564319611,-1.12012553215027,-1.15474665164948,1.07499659061432,1.30244576931,0.83557641506195,13.7068042755127,10.9031944274902,8.13070869445801,-2.30629754066467,-2.49964308738709,-2.76702451705933,4.6303858757019,4.04141235351563,5.03261184692383,SWING_LEFT
-1.07751500606537,-1.54303550720215,-1.47911965847015,2.60670208930969,2.57154846191406,1.84344017505646,-1.89860188961029,-2.49475812911987,-3.82354021072388,5.50905799865723,5.55215358734131,7.81706857681274,-5.27092838287354,-4.96839332580566,-4.88583564758301,-3.51468801498413,-5.1978120803833,-4.97275686264038,0.55713331699371,0.72810822725296,-1.20321619510651,-0.4676510989666,-1.84130966663361,-2.5555694103241,-10.433931350708,-11.6765213012695,-18.452112197876,7.83143377304077,6.10521411895752,3.87142419815064,0.94382429122925,4.89755344390869,9.3631420135498,-19.4816188812256,-23.4009265899658,-22.9843368530273,1.71933686733246,1.91694343090057,2.71589183807373,-1.0104033946991,-2.57900524139404,-5.3433666229248,-60.5948524475098,-78.4508056640625,-78.4508056640625,8.12352657318115,3.1387984752655,0.44053310155869,17.4421081542969,13.6838541030884,4.95454502105713,57.0179138183594,76.3175735473633,16.2757835388184,1.84450542926788,1.02584969997406,1.57765662670136,1.34276580810547,0.588558614254,-0.73769563436508,-15.3420448303223,-15.4880905151367,-5.29597425460815,-3.0550012588501,3.36145925521851,4.33829355239868,-0.47617322206497,-0.81066626310349,-1.45781445503235,13.5751237869263,13.5751237869263,7.08683681488037,-1.45674920082092,-1.45089018344879,-1.60748410224915,-0.12357068061829,-0.42504051327705,-0.57524281740189,0.4525041282177,0.04070143029094,-1.92733240127563,9.18176364898682,9.2416181564331,9.74440097808838,-2.20776057243347,-2.16621518135071,-2.17154169082642,2.32716393470764,3.2776620388031,3.21062445640564,SWING_LEFT
-0.41172471642494,-0.79468727111816,-1.30122053623199,-0.79735046625137,-0.53476274013519,0.42184472084045,-3.29920983314514,-1.96563959121704,-1.6136919260025,10.8529167175293,7.50582218170166,7.37414121627808,-4.45600128173828,-4.72498035430908,-4.83097410202026,-0.12928688526154,0.53869539499283,-2.09971499443054,-1.43118274211884,-1.87539803981781,-2.28552484512329,-0.24447819590569,-0.53209960460663,-0.91452956199646,-4.78361511230469,-8.29830265045166,-15.7251167297363,7.59919595718384,6.43561410903931,6.35899972915649,-1.13184344768524,5.73751449584961,13.1549510955811,-27.1119403839111,-27.1119403839111,-35.7837371826172,3.82962560653687,2.52840518951416,1.1084076166153,2.33346176147461,1.54782927036285,-0.33822146058083,-59.4336624145508,-76.0374526977539,-78.4508056640625,11.1545858383179,4.08929634094238,1.60411512851715,17.4421081542969,9.37166404724121,4.36758422851563,62.5916137695313,66.489372253418,31.2491207122803,4.79741859436035,2.78513383865356,1.08550453186035,-2.27487230300903,-0.51399010419846,0.01864212751389,-6.89769506454468,-3.99113416671753,-1.16358196735382,-2.22660756111145,-3.67270541191101,-0.27293899655342,1.40827965736389,-0.42344263195992,-1.15634453296661,15.0906534194946,12.2391586303711,10.7858781814575,-1.06686234474182,-1.31506896018982,-1.43597650527954,-0.16564862430096,0.27537086606026,0.32384037971497,1.10133278369904,1.5179238319397,1.78607451915741,5.94719696044922,6.99825143814087,8.10676670074463,-0.836765229702,-0.60400491952896,-0.57098174095154,1.99915838241577,2.7126305103302,3.84269380569458,SWING_LEFT
-1.45035755634308,-1.36833214759827,-1.37632167339325,0.11504855751991,0.27217507362366,0.78882831335068,2.31758713722229,2.70305371284485,0.37349545955658,8.13070869445801,8.58321285247803,7.58483076095581,-6.05070209503174,-6.24458026885986,-6.65577220916748,2.2361843585968,0.05506663769484,0.05506663769484,-3.26610088348389,-3.78648257255554,-3.83015823364258,2.15609526634216,1.11533188819885,-0.29348036646843,-13.6613149642944,-15.1098070144653,-18.9548950195313,2.85388851165771,3.95043277740479,7.26879644393921,-6.40916347503662,-3.76784038543701,7.94420957565308,-11.063606262207,-22.699426651001,-39.6168556213379,5.29809284210205,3.79926562309265,1.17232358455658,2.07513523101807,3.06476593017578,-3.26716613769531,-50.4482231140137,-76.1739196777344,-78.4508056640625,12.9167184829712,4.4532151222229,-0.02873042039573,16.7209243774414,5.62832498550415,3.16916179656982,78.4508056640625,64.7463989257813,28.3186168670654,2.10283207893372,-0.24767398834229,-0.10599381476641,2.32760286331177,0.90014845132828,-0.00319579336792,-7.18260526657104,-8.66940402984619,-4.71178913116455,-10.7978496551514,7.07247161865234,7.33104562759399,-1.18670463562012,-0.83623260259628,-0.33928671479225,7.69496440887451,2.80839848518372,1.27850365638733,-0.1384843736887,-0.09587380290031,-0.07403588294983,-0.51984906196594,-0.6785734295845,-0.77870833873749,-0.0454898327589,0.13646949827671,0.18674772977829,10.625467300415,9.76594829559326,9.5217399597168,-1.11586451530457,-1.19842255115509,-1.33530902862549,2.0829553604126,3.04303026199341,3.04303026199341,SWING_LEFT
-0.57044911384583,-0.9416937828064,-1.26446890830994,0.02077265642583,0.09853696078062,0.01225054077804,2.64080452919006,3.3231520652771,-0.97922849655151,6.39012432098389,8.50181007385254,9.01656341552734,-6.4208812713623,-6.81556177139282,-7.38015222549438,2.46602773666382,2.44447994232178,0.89064306020737,-1.53131771087646,-2.08525514602661,-2.85703921318054,0.87191897630692,0.53955644369125,-0.16192018985748,-7.81706857681274,-7.14429807662964,-7.58483076095581,4.4723687171936,2.76530289649963,3.18428826332092,-5.73644924163818,-4.43682622909546,-1.83438539505005,-2.74614930152893,-9.51455783843994,-25.2540397644043,6.11568307876587,7.64753341674805,7.62622833251953,-2.05862355232239,-1.60375559329987,-3.54786324501038,-47.6948928833008,-75.058219909668,-78.4508056640625,20.7912483215332,7.6375036239624,-5.48990440368652,17.4421081542969,13.2593469619751,6.35430240631104,41.3718070983887,78.4508056640625,26.8940677642822,3.69540238380432,2.98753428459167,2.34890818595886,0.91985583305359,1.21599936485291,0.50866377353668,-12.181697845459,-7.22330665588379,-2.79403328895569,-1.83395850658417,2.38941335678101,2.40617275238037,-0.22636869549751,-0.8239820599556,-1.01572966575623,13.962984085083,9.24640655517578,4.72376012802124,-0.29294773936272,0.19654129445553,0.41545313596725,1.34702694416046,0.37603834271431,-0.43995422124863,-2.70065951347351,-1.6903064250946,-0.73980832099915,10.3621053695679,10.2854900360107,8.51617527008057,-0.04048004746437,-0.05858954414725,-0.10066749155521,2.90416669845581,3.07654929161072,3.79720377922058,SWING_LEFT
-1.42905223369598,-1.73478317260742,-1.88658332824707,-0.30786141753197,0.36218991875648,1.54836189746857,-1.57059633731842,-3.92409658432007,-7.75003099441528,9.14585018157959,9.28471374511719,7.63510942459106,-8.26805019378662,-8.27284336090088,-7.2906699180603,3.00711727142334,-3.71580100059509,-8.7268648147583,-2.75743699073792,-1.81041693687439,-0.95980328321457,0.99442434310913,-0.19228023290634,-0.95234644412994,-12.4857616424561,-14.7003984451294,-15.8256731033325,8.89685344696045,11.1785278320313,10.321403503418,-3.72949075698853,-1.98671817779541,1.38590908050537,-8.7484130859375,-14.6309661865234,-23.2668514251709,3.64000868797302,2.98913216590881,2.76169800758362,0.08948221802711,1.04608964920044,0.02130528911948,-34.0575180053711,-46.3182258605957,-67.0017318725586,6.79953289031982,6.47631549835205,5.48751020431519,17.4421081542969,13.9011688232422,6.56096363067627,44.6710166931152,74.2034912109375,49.2080268859863,4.5982141494751,4.21365356445313,1.66447567939758,-0.52624064683914,-0.17843179404736,-0.66046398878098,-10.9750204086304,-8.71968269348145,-3.84508800506592,6.85699367523193,0.01675941236317,-0.35673606395721,-0.48203217983246,-2.32334184646606,-2.84478878974915,26.6139469146729,15.6748380661011,6.84981107711792,-0.98004329204559,-0.96140116453171,-0.73077142238617,0.2498045116663,0.1272991001606,-0.31372037529945,-1.70946002006531,-0.87627780437469,-0.89543145895004,8.37252330780029,9.31823348999023,10.0843772888184,-1.51054501533508,-1.609614610672,-1.83545064926147,3.35667085647583,3.80917501449585,4.58489608764648,SWING_LEFT
0.50600063800812,0.25619611144066,-0.08681905269623,-1.50468599796295,-1.34649431705475,-1.22558677196503,6.99825143814087,6.23689556121826,5.80593919754028,9.10275459289551,8.4299840927124,8.99022769927979,-5.56121301651001,-7.02595186233521,-7.33221530914307,6.98867464065552,3.60806202888489,1.32878196239471,-2.03252458572388,-4.13375854492188,-4.5327000617981,1.70335781574249,2.79418873786926,1.19309616088867,-6.66306352615356,-14.3843641281128,-14.7411003112793,3.73734879493713,0.58897364139557,7.55370616912842,-5.30874538421631,-3.58674550056458,-0.75101143121719,-9.68694019317627,-12.6940574645996,-23.5900688171387,1.6522251367569,3.59526753425598,3.48341488838196,-2.10123419761658,-0.84848314523697,-1.76567578315735,-29.6210632324219,-64.7440032958984,-78.4508056640625,19.8407497406006,7.38371801376343,3.04781866073608,17.4421081542969,8.79695415496826,5.7369818687439,73.2577819824219,64.0161666870117,32.3289070129395,2.44637989997864,1.69856417179108,0.0042610578239,-1.57499349117279,-0.80374205112457,-0.29507824778557,-5.14513921737671,-7.60877323150635,-3.99352836608887,4.33589935302734,1.51074123382568,8.74362468719482,1.09349393844604,0.02716424316168,-0.04580637067556,18.0450973510742,12.3995704650879,3.8690299987793,0.2609897851944,0.05858954414725,-0.41971418261528,-0.28122982382774,-0.48842376470566,-0.83143889904022,0.43574470281601,1.04387199878693,1.05823719501495,7.42441940307617,7.07007741928101,8.79390239715576,-0.06498113274574,-0.21518342196941,-0.2210423797369,4.16351652145386,3.29442143440247,2.53545951843262,SWING_LEFT
0.87404948472977,0.82930839061737,0.69508504867554,-1.14249610900879,-0.84049367904663,-0.58962386846542,3.85227060317993,3.85227060317993,3.36385345458984,11.6334257125854,11.6334257125854,10.4554786682129,-2.43839025497437,-3.15850901603699,-4.1737060546875,2.4588451385498,2.60967993736267,3.48835182189941,-4.07836484909058,-4.75534057617188,-3.76038360595703,1.29323101043701,0.58163440227509,0.2370213419199,-6.20098257064819,-17.0826282501221,-19.1512203216553,1.65199911594391,9.71088218688965,14.2526826858521,-3.64586758613586,-0.81705784797668,4.53110218048096,-13.7546892166138,-21.9787712097168,-31.0408248901367,3.17555332183838,2.21468472480774,-1.16220355033875,2.80377602577209,4.83416986465454,2.15822577476501,-39.0039405822754,-56.412181854248,-78.4508056640625,13.5583639144897,10.251971244812,10.6733512878418,17.4421081542969,11.1703634262085,3.60592007637024,74.2753219604492,78.4508056640625,31.5962791442871,1.58511352539063,1.06153607368469,1.86581075191498,-0.1177117228508,1.3486248254776,0.65140920877457,-8.89924812316895,-7.80749177932739,-5.05415964126587,4.14915132522583,9.99339771270752,11.4706201553345,2.29937338829041,1.19256353378296,1.15421402454376,19.5031661987305,9.23682975769043,7.34301662445068,0.4356931746006,0.19813919067383,-0.0042610578239,-0.07563377916813,0.03994741663337,-0.25033715367317,3.665522813797,4.51785850524902,4.57771348953247,6.41406631469727,7.05331802368164,7.39329481124878,-0.87085372209549,-1.03224122524261,-0.9033442735672,5.00388145446777,5.00388145446777,2.04225397109985,SWING_LEFT
0.11345066130161,0.47990164160728,0.44421526789665,0.85008102655411,0.74888092279434,1.58245038986206,1.43173265457153,0.37588965892792,-2.05661916732788,9.76594829559326,9.61511421203613,8.06845951080322,-5.86481332778931,-5.80569124221802,-5.12871551513672,0.70868372917175,-1.13963997364044,-4.60883808135986,-2.11241936683655,-2.84798455238342,-3.41790103912354,0.29614353179932,0.432497382164,0.03781688958406,-4.32632255554199,-8.40843677520752,-8.40843677520752,3.63918662071228,3.65834021568298,3.65834021568298,-2.67061805725098,0.31585091352463,6.34205198287964,-12.3564748764038,-28.2084846496582,-46.1338729858398,2.27114391326904,3.47542524337769,3.77902555465698,-1.2671320438385,-0.75900089740753,-2.54172110557556,-48.2814712524414,-75.38623046875,-78.4508056640625,19.4696483612061,11.3221797943115,5.45399141311646,17.4421081542969,8.73623371124268,7.39772891998291,49.986141204834,46.8760757446289,34.7111358642578,4.267982006073,3.10631108283997,1.30441629886627,-0.13422332704067,-0.140082269907,0.69508504867554,-3.26569104194641,-0.27533319592476,1.61129772663116,2.04704236984253,-0.69431847333908,-0.62009823322296,-0.47883638739586,-0.39308258891106,0.09534116834402,8.53054046630859,1.9632453918457,1.55623114109039,0.34514567255974,0.44634580612183,-0.06924218684435,-0.69401979446411,-0.680703997612,-0.25992453098297,-0.6703764796257,-0.75177931785583,2.44687414169312,8.94473743438721,7.45314979553223,6.68461132049561,-0.08255799859762,-0.52996909618378,-0.88576740026474,7.47948598861694,6.97430944442749,5.09486103057861,SWING_LEFT
-2.43466186523438,-3.15637850761414,-3.44027161598206,-3.21443557739258,-3.06263542175293,-1.27192580699921,0.23702596127987,-1.56580793857574,-5.26963806152344,6.93600225448608,9.22725296020508,10.3740758895874,-4.37770414352417,-3.77849292755127,-3.38487792015076,3.15076947212219,-0.14365209639072,-0.45729252696037,-3.45891380310059,-3.51750326156616,-1.94197714328766,2.86023497581482,3.34706091880798,1.70974946022034,-4.80276870727539,-6.44040250778198,-11.9590377807617,8.6095495223999,7.9152307510376,12.5360403060913,0.4293015897274,3.31403779983521,12.0513372421265,-8.5880012512207,-18.0403099060059,-24.6243648529053,4.09114837646484,4.35107278823853,3.48128414154053,0.39947417378426,-1.17285621166229,-2.04637312889099,-38.0175285339355,-78.4508056640625,-78.4508056640625,13.6373729705811,2.21942496299744,-7.97269153594971,17.4421081542969,4.32657146453857,3.57822322845459,70.5523376464844,37.2178649902344,22.3498725891113,2.22267436981201,-0.39734363555908,0.28229507803917,2.12094163894653,2.58273363113403,-0.19973708689213,-6.07169532775879,-3.50750541687012,-2.98317527770996,-3.02627086639404,8.18816947937012,9.83538055419922,1.01999068260193,0.90867060422897,0.57950389385223,7.05810642242432,6.18182897567749,7.04374122619629,-0.05006742849946,-0.22849921882153,-0.24394555389881,-1.15900778770447,-1.2287825345993,-1.10201609134674,1.14203417301178,1.11330378055573,0.15801730751991,7.68059921264648,8.23605346679688,8.84657573699951,-0.84741789102554,-0.88576740026474,-0.89908319711685,5.0876784324646,4.50588750839233,4.60644388198853,SWING_LEFT
-1.17232358455658,-1.28577423095703,-1.4295848608017,-1.10201609134674,-0.04580637067556,0.54168695211411,0.67755907773972,-4.90811347961426,-5.48511600494385,11.1833162307739,8.30309104919434,8.42519569396973,-8.20573234558105,-8.84169483184814,-8.90987205505371,-3.3423056602478,-2.7126305103302,-6.97191524505615,-4.34042024612427,-4.38995504379272,-3.32415771484375,0.46818372607231,-1.23144567012787,-2.80324339866638,-15.3133144378662,-15.3133144378662,-15.8544034957886,1.50355863571167,1.50355863571167,14.1664915084839,-3.25012183189392,-0.78936094045639,1.40934491157532,-15.2941608428955,-16.7450466156006,-14.0060796737671,2.02080678939819,2.52307891845703,3.55585265159607,-0.81226414442062,0.76752305030823,0.45593318343163,-21.1168594360352,-25.2803764343262,-48.3437194824219,13.6780738830566,12.619836807251,11.2551422119141,17.4421081542969,17.4421081542969,4.4139232635498,-12.8736228942871,-12.8736228942871,59.790397644043,2.65197587013245,2.08738565444946,0.95500957965851,0.16618125140667,1.20534670352936,1.13344132900238,1.25216746330261,-1.83156430721283,-5.655104637146,4.56334829330444,-0.31842881441116,-0.85712420940399,1.52119767665863,1.25647938251495,0.84581995010376,9.59835433959961,8.83460426330566,7.70932960510254,0.10279802232981,0.14381070435047,0.2338255494833,-0.72118401527405,-0.72384721040726,-0.88683265447617,0.96007490158081,0.83557641506195,1.44370365142822,9.54568195343018,10.2400007247925,10.0484647750854,-0.24074976146221,-0.67058396339417,-1.06899285316467,5.63595056533813,5.61679697036743,4.76206731796265,SWING_LEFT
-1.25275099277496,-0.75900089740753,-0.5502091050148,1.48817443847656,1.28470897674561,1.05248129367828,-2.36547136306763,-2.90656089782715,-4.44124412536621,10.8505220413208,10.8409452438354,8.71489429473877,-5.5873122215271,-5.83818197250366,-5.48025321960449,1.43891525268555,-0.55784898996353,-4.25689077377319,-2.36914825439453,-2.65517163276672,-2.23812055587769,0.63383233547211,0.53636068105698,-0.17363810539246,-9.7180643081665,-12.0955066680908,-13.1178312301636,6.4858922958374,7.18499946594238,12.018892288208,-1.14995300769806,4.83576822280884,9.03876876831055,-15.2223348617554,-18.5933704376221,-19.6779441833496,2.02560043334961,4.29514646530151,7.24433088302612,-0.63223445415497,-5.00194931030273,-4.81233215332031,-39.473201751709,-78.4508056640625,-78.4508056640625,5.72932481765747,9.34217548370361,9.34217548370361,15.0926666259766,6.47414493560791,6.16042423248291,71.6440887451172,47.7834777832031,7.42441940307617,0.93263900279999,-0.50440269708633,-0.648746073246,1.33903741836548,1.49137020111084,0.64768075942993,-10.172963142395,-10.172963142395,-4.89853668212891,-7.18739366531372,-7.18739366531372,4.35505294799805,1.88605070114136,-0.00639158673584,-0.9139968752861,16.8456039428711,18.1672019958496,12.3253507614136,0.35047200322151,-0.20612867176533,-0.12783172726631,0.10120012611151,-0.19600865244865,-0.41012680530548,-1.05105459690094,-0.28969839215279,-0.94570964574814,10.2567596435547,8.71010589599609,11.3628816604614,-0.7344998717308,-1.06047081947327,-1.45302069187164,3.30639243125916,5.57609558105469,6.04535913467407,SWING_LEFT
0.74408721923828,0.28122982382774,-0.06657902896404,-0.95500957965851,-0.91293162107468,-1.07325398921967,5.27682065963745,5.57609558105469,5.85382318496704,7.07965421676636,6.73967790603638,7.98705673217773,-5.36733484268188,-6.07467079162598,-6.69838285446167,2.93050289154053,1.23301386833191,1.23301386833191,-0.02503371424973,-1.43224811553955,-3.54147171974182,0.62158179283142,1.28417634963989,0.97045594453812,-4.07253694534302,-7.03895282745361,-10.8193979263306,1.60650932788849,-3.37821865081787,-5.30076265335083,-7.84940099716187,-7.050452709198,-2.75903487205505,-7.36695861816406,-9.29907894134522,-21.1910800933838,0.69029134511948,2.19710803031921,2.30683016777039,-2.86396360397339,-2.1321268081665,-2.31109118461609,-38.4436950683594,-51.5591354370117,-73.5929718017578,19.3355731964111,12.6509618759155,4.7213659286499,17.4421081542969,17.4421081542969,12.303804397583,23.7265396118164,23.7265396118164,63.1494636535645,5.13883590698242,3.48181676864624,2.28126382827759,-1.55049240589142,0.94542223215103,1.297492146492,-39.5522117614746,-12.9885444641113,-9.18655204772949,9.9191780090332,-0.35194763541222,0.98401689529419,2.69032549858093,0.87032103538513,1.24316358566284,24.3346652984619,10.4075946807861,5.79157400131226,0.76912093162537,0.40746363997459,-0.45273739099503,-0.16458335518837,-0.77338200807571,-0.97844541072845,-2.17154097557068,-0.45010992884636,2.00873517990112,4.58010768890381,3.80917501449585,5.11880302429199,0.09427590668201,-0.40480050444603,-1.03543710708618,8.4515323638916,8.20014095306396,6.79474449157715,SWING_LEFT
-0.22210763394833,-0.12783172726631,-0.23648871481419,-1.64157247543335,-1.19522666931152,-0.08681905269623,5.19062948226929,4.93923807144165,4.25210237503052,9.3828763961792,8.84178733825684,7.86016416549683,-3.41364002227783,-4.81233215332031,-5.42805480957031,5.20260047912598,5.12837982177734,3.4117374420166,-1.64583361148834,-3.65066123008728,-4.6189866065979,0.75420725345612,0.86872315406799,1.34329843521118,-3.93606758117676,-10.4123830795288,-10.4123830795288,6.27759695053101,2.21942496299744,2.21942496299744,-6.54125642776489,-0.58642810583115,6.30316972732544,-2.3511061668396,-27.5644435882568,-41.2497024536133,7.9575252532959,6.121009349823,3.23840403556824,1.3401026725769,4.34255075454712,3.89833521842957,-64.9882125854492,-78.4508056640625,-78.4508056640625,6.10281991958618,2.07337856292725,2.70065951347351,17.4421081542969,9.22039604187012,5.9116849899292,42.3486404418945,36.2170906066895,21.7225914001465,1.1558119058609,-1.31666684150696,-0.71798825263977,1.50308811664581,1.12385404109955,-0.06018744036555,-9.57441234588623,-11.063606262207,-11.063606262207,-5.88494777679443,6.5361704826355,6.5361704826355,2.25250172615051,2.25729537010193,2.01548027992249,12.526463508606,10.8193979263306,11.8680582046509,0.86126631498337,0.17363810539246,-0.3275688290596,-0.93849796056747,-0.79948097467422,-0.4420847594738,1.34554135799408,3.11485648155212,2.67911171913147,4.69742393493652,5.77002620697021,7.22091245651245,-1.27778470516205,-1.33797216415405,-1.36513638496399,5.67186403274536,3.73734879493713,3.74692559242249,SWING_LEFT
-1.13290870189667,-1.3102753162384,-1.14196348190308,-2.20509743690491,-1.81521058082581,-1.24742472171783,2.6240451335907,3.87621259689331,5.02782344818115,7.53215837478638,8.60236644744873,9.40681838989258,-5.00407981872559,-6.87681484222412,-7.96072149276733,9.50498104095459,4.81473970413208,3.21541285514832,-2.78619909286499,-4.11511659622192,-5.62353086471558,1.18830251693726,1.44023752212524,1.90788865089417,-3.56496644020081,-18.6460437774658,-22.5845050811768,2.42532634735107,-1.7597382068634,-4.80755710601807,-8.38949012756348,-6.11728096008301,3.80192875862122,-12.7395467758179,-15.538369178772,-39.8945846557617,3.99474167823792,4.89542293548584,3.23574090003967,-2.54811263084412,0.7536746263504,0.89855057001114,-43.5672874450684,-58.957218170166,-78.4508056640625,25.6395053863525,10.6589860916138,2.08774399757385,17.4421081542969,16.9073448181152,7.75299453735352,33.3488349914551,65.9267349243164,56.4672470092773,4.94016408920288,2.05596041679382,0.54008907079697,-1.65009462833405,2.06448245048523,1.71187996864319,-12.2774667739868,-8.80108547210693,-9.84735202789307,3.7038300037384,-3.35906505584717,0.54827219247818,2.94652152061462,2.3803334236145,1.78005695343018,17.4106349945068,15.7634239196777,14.9493951797485,0.04846953228116,-0.20506340265274,-0.64821344614029,-1.08710241317749,-1.09029817581177,-0.75154405832291,-0.10295066982508,0.82121115922928,1.08217918872833,5.69580602645874,5.04458284378052,5.2480902671814,-0.48309743404388,-0.72597771883011,-0.92092114686966,7.32146883010864,5.96395635604858,5.32709884643555,SWING_LEFT
-1.54569876194,-1.20108568668365,-0.88044106960297,0.45753109455109,0.84795051813126,1.38644170761108,1.78368031978607,1.43652105331421,0.9911994934082,11.226411819458,11.2647190093994,11.3652753829956,-4.59874677658081,-5.52712440490723,-6.98866748809814,2.9161376953125,4.17548799514771,3.65594601631165,-1.44609653949738,-3.41523790359497,-3.3949978351593,3.4716968536377,1.30867743492126,-0.7707188129425,-11.8345394134521,-22.8047714233398,-23.3291015625,0.46686932444572,-0.06224924325943,6.56968927383423,-3.89673733711243,1.75289261341095,9.63052368164062,-25.2253093719482,-42.77001953125,-45.9519119262695,1.93824863433838,0.50706589221954,-1.0104033946991,0.19228023290634,0.34088462591171,-1.8066885471344,-58.6363945007324,-78.4508056640625,-78.4508056640625,7.6375036239624,2.10210919380188,1.53468334674835,17.4421081542969,15.155517578125,7.34020471572876,43.528980255127,43.528980255127,47.9223403930664,2.91775941848755,2.06927609443665,1.44077014923096,1.4168016910553,0.54541540145874,-0.20985709130764,-14.3436622619629,-13.2662715911865,-13.2614831924438,1.71903681755066,1.88423669338226,2.93050289154053,2.86928987503052,2.4058997631073,2.03891611099243,19.2996597290039,14.3245086669922,11.8776350021362,0.76912093162537,0.34514567255974,-0.35366779565811,-1.66820418834686,-1.6996294260025,-1.58564615249634,-1.47961664199829,0.55545479059219,2.54982471466064,4.95599746704102,4.26886177062988,4.38617753982544,-0.02556634694338,-0.36112466454506,-0.89801794290543,6.64869832992554,6.64869832992554,5.18344688415527,SWING_LEFT
-0.60347229242325,-0.34301516413689,-0.80640518665314,0.07989483326674,0.03675162419677,0.08788431435823,-0.70150107145309,-0.47884035110474,-4.01268196105957,9.53849983215332,9.40681838989258,5.38934803009033,-8.06884574890137,-8.39748001098633,-8.74369049072266,-0.04070143029094,-1.75255560874939,-1.98239898681641,-4.04534196853638,-4.36172533035278,-4.00539445877075,0.99762016534805,-0.3755057156086,-2.32813549041748,-15.0643167495728,-17.9158115386963,-17.9158115386963,6.2201361656189,6.61517906188965,6.61517906188965,-0.62797337770462,6.12473821640015,13.4383115768433,-32.723949432373,-47.2112617492676,-36.9090118408203,4.04480934143066,1.88019180297852,1.85089695453644,0.94968324899673,1.22026038169861,-1.86900651454926,-69.7383041381836,-78.4508056640625,-78.4508056640625,9.56723022460938,3.40934324264526,3.40934324264526,15.651930809021,5.58358383178711,4.64242267608643,73.7509918212891,31.1820831298828,32.0272369384766,1.4040185213089,-0.340351998806,-0.63116919994354,3.46583795547485,1.41999757289886,0.97897803783417,1.45088624954224,2.96402168273926,2.29364514350891,-7.34301662445068,2.52348852157593,10.0412817001343,0.59814602136612,0.24927188456059,0.16351810097694,7.5968017578125,5.32231044769287,5.1068320274353,-0.27324032783508,-0.31904670596123,-0.24447819590569,-0.60507023334503,-0.83836311101913,-0.82504731416702,2.14999318122864,2.47081613540649,2.47081613540649,8.07564258575439,7.97269153594971,7.97269153594971,-0.82025361061096,-0.93050849437714,-1.15314877033234,4.75727891921997,4.85304689407349,5.54497098922729,SWING_LEFT
-1.7507621049881,-1.6442357301712,-1.23091304302216,0.85434210300446,1.08337390422821,1.55155766010284,-1.8171991109848,-4.92487287521362,-10.2495775222778,8.59518432617188,9.40681838989258,9.24880123138428,-9.15328502655029,-6.00862407684326,-3.43121671676636,-0.49320554733276,-10.7547540664673,-5.88973617553711,-1.51267552375793,-1.64902937412262,-1.2628710269928,-0.65726816654205,-0.33236250281334,-1.16593194007874,-7.59919595718384,-9.45709705352783,-13.5439987182617,6.51222848892212,7.61116743087768,10.2328176498413,-0.72491246461868,1.3784521818161,6.53593015670776,-14.061146736145,-23.1184120178223,-23.1184120178223,3.78381943702698,5.0642671585083,7.26670169830322,0.09108011424541,-2.25889325141907,-6.07360506057739,-67.6146469116211,-78.4508056640625,-78.4508056640625,16.069881439209,12.8329210281372,-1.37906014919281,17.4421081542969,7.86324977874756,3.66184663772583,67.3417129516602,36.9952049255371,30.5188884735107,1.21919512748718,0.40213733911514,0.05166532471776,1.02265381813049,1.72146737575531,1.13557195663452,-7.0126166343689,-6.52898788452148,-4.03422975540161,-0.87627780437469,1.86268889904022,7.03416442871094,0.03142530098557,-0.23116238415241,-1.34649431705475,4.95599746704102,6.4667387008667,6.58166027069092,-0.64395236968994,-0.81492727994919,-0.9139968752861,-0.6934871673584,-0.68389976024628,-0.51931643486023,0.69671267271042,0.06943184882402,-0.74459671974182,8.24084186553955,7.93917274475098,7.54412937164307,-2.92734670639038,-3.11856174468994,-2.89059519767761,4.10126733779907,1.42694425582886,1.42694425582886,SWING_LEFT
0.79095888137817,0.69401979446411,0.54648065567017,-0.33289512991905,0.15712650120258,0.23808661103249,0.75896191596985,1.52510643005371,1.78607451915741,10.4171714782715,8.16662216186523,7.66144561767578,-1.75342524051666,-2.60137581825256,-4.53163480758667,3.11006808280945,4.63756847381592,5.23611927032471,-1.64263784885406,-2.22746801376343,-2.73346853256226,1.12758243083954,0.92837798595428,0.81066626310349,-4.2760443687439,-9.44991397857666,-9.30865573883057,3.4308910369873,3.29920983314514,3.80199241638184,-6.1684136390686,-3.91910791397095,1.28896999359131,-9.3637228012085,-20.5207023620605,-39.9544372558594,1.56327557563782,3.96651220321655,2.72867488861084,-1.38377857208252,0.33129724860191,-0.81279677152634,-29.3768539428711,-71.9888534545898,-78.4508056640625,24.8446311950684,9.40921306610107,-1.32878196239471,17.4421081542969,12.6468200683594,4.30260324478149,66.5659866333008,66.5659866333008,47.7738990783691,3.68474984169006,1.45302069187164,-0.09534116834402,1.43650913238525,1.97872877120972,2.32334184646606,-6.11718511581421,-2.91374349594116,-2.06619596481323,-7.88410615921021,-4.78361511230469,-0.68713587522507,-0.57843858003616,0.05912217870355,0.35420042276382,-0.09576806426048,-0.06943184882402,1.83395850658417,-1.26926255226135,-0.96779274940491,-0.91133373975754,-0.89322423934937,-0.53156697750092,-0.18109495937824,-0.99598789215088,1.06063139438629,0.73741412162781,11.3054208755493,10.5919485092163,10.187328338623,-0.82877576351166,-1.06899285316467,-1.04182863235474,3.40455484390259,2.15478157997131,2.22181916236877,SWING_LEFT
-0.38722363114357,-0.50227218866348,-0.31265512108803,0.87191897630692,0.1113201379776,-0.89109373092651,-2.10450339317322,-2.65756392478943,-2.65756392478943,6.54574728012085,8.35336971282959,8.35336971282959,-5.20914316177368,-4.57531070709229,-3.02535104751587,-3.46680402755737,-7.38611221313477,-5.60003757476807,-0.47564056515694,0.11664646118879,-0.29028457403183,-0.36485308408737,-0.4388889670372,-0.83942836523056,-4.55855989456177,-6.26802015304565,-10.4123830795288,9.71567058563232,8.49462795257568,4.86262369155884,-1.00081598758698,-0.07723167538643,1.77366530895233,-7.12993288040161,-11.757924079895,-11.757924079895,1.35661423206329,2.21361947059631,4.11085557937622,-4.15772724151611,-3.98302388191223,-1.37738692760468,-32.7095832824707,-40.6463623046875,-75.8243713378906,10.5201225280762,11.1857099533081,12.9286890029907,17.4421081542969,12.5088682174683,5.43817520141602,66.5109252929688,78.4508056640625,41.9224700927734,3.402987241745,2.56675481796265,1.91534554958344,1.05088341236115,2.18432474136353,0.36804887652397,-14.6405429840088,-10.060435295105,-3.47159242630005,-1.43652105331421,-0.84036481380463,0.07182604819536,1.83012437820435,1.70868420600891,1.22505414485931,9.59835433959961,9.98382091522217,11.2168350219727,-0.54328489303589,-1.77260005474091,-2.06927609443665,-1.32785212993622,0.39681100845337,0.70254188776016,3.36864185333252,2.4013843536377,1.07499659061432,4.28322696685791,5.82030439376831,8.00621032714844,-2.61256098747253,-2.85703921318054,-2.92361831665039,6.31829833984375,4.29759216308594,4.98712205886841,SWING_LEFT
0.51079428195953,0.72757560014725,0.77125144004822,-0.82771050930023,-0.60986387729645,-0.15126755833626,3.62960982322693,3.38300704956055,3.4811692237854,11.3197860717773,10.6518030166626,9.48343276977539,-2.32760286331177,-2.79791712760925,-3.7284255027771,0.14844051003456,0.53151279687881,0.53151279687881,-1.62985455989838,-2.99073004722595,-3.85412669181824,1.84344017505646,1.59629881381989,0.52517539262772,-6.87135887145996,-12.4857616424561,-19.0267200469971,-1.8674772977829,-2.34871196746826,0.97683429718018,-6.49545001983643,-3.46210956573486,3.55159163475037,-12.1194486618042,-29.8987903594971,-52.6101875305176,1.22558677196503,1.66873681545258,0.48096689581871,-2.72601175308228,-0.01384843792766,0.84102630615234,-33.7702140808105,-76.0709686279297,-78.4508056640625,21.0905227661133,10.3261919021606,6.009446144104,17.4421081542969,8.44275379180908,5.65282583236694,30.2172203063965,72.0319519042969,28.3018589019775,2.65676951408386,3.06103730201721,2.24611020088196,-0.44634580612183,-2.32440710067749,-2.93746662139893,-11.4897737503052,-11.4897737503052,-6.29196214675903,12.4259071350098,12.4259071350098,0.49799394607544,2.25356698036194,2.10442996025085,1.86368012428284,12.5097036361694,10.9582614898682,9.04290008544922,-0.10546118021011,0.25353294610977,0.17949706315994,0.5054680109024,-0.48309743404388,-0.65034395456314,1.02950668334961,2.3247697353363,2.70544791221619,8.46110916137695,9.73482418060303,8.67898082733154,-0.90707266330719,-0.89162635803223,-1.12864768505096,2.4396915435791,2.94007968902588,4.46518611907959,SWING_LEFT
