gyro_x_0,gyro_y_0,gyro_z_0,acc_x_0,acc_y_0,acc_z_0,gyro_x_1,gyro_y_1,gyro_z_1,acc_x_1,acc_y_1,acc_z_1,gyro_x_2,gyro_y_2,gyro_z_2,acc_x_2,acc_y_2,acc_z_2,gyro_x_3,gyro_y_3,gyro_z_3,acc_x_3,acc_y_3,acc_z_3,gyro_x_4,gyro_y_4,gyro_z_4,acc_x_4,acc_y_4,acc_z_4,gyro_x_5,gyro_y_5,gyro_z_5,acc_x_5,acc_y_5,acc_z_5,gyro_x_6,gyro_y_6,gyro_z_6,acc_x_6,acc_y_6,acc_z_6,gyro_x_7,gyro_y_7,gyro_z_7,acc_x_7,acc_y_7,acc_z_7,gyro_x_8,gyro_y_8,gyro_z_8,acc_x_8,acc_y_8,acc_z_8,gyro_x_9,gyro_y_9,gyro_z_9,acc_x_9,acc_y_9,acc_z_9,gyro_x_10,gyro_y_10,gyro_z_10,acc_x_10,acc_y_10,acc_z_10,gyro_x_11,gyro_y_11,gyro_z_11,acc_x_11,acc_y_11,acc_z_11,gyro_x_12,gyro_y_12,gyro_z_12,acc_x_12,acc_y_12,acc_z_12,gyro_x_13,gyro_y_13,gyro_z_13,acc_x_13,acc_y_13,acc_z_13,gyro_x_14,gyro_y_14,gyro_z_14,acc_x_14,acc_y_14,acc_z_14,motion_type
-1.29136908054352,-1.46485483646393,-1.6334536075592,1.73819041252136,1.01992988586426,1.18512988090515,0.4459316432476,0.38179078698158,-0.06597344577312,-0.09468411654234,-0.12705996632576,0.00122173049022,3.04542446136475,1.99676418304443,0.3208230137825,7.92480754852295,5.54018259048462,3.83551120758057,-4.95961475372314,-6.8917818069458,-6.52709531784058,6.56490087509155,-9.48103904724121,-11.3628816604614,0.03848451003432,0.52290064096451,0.73609262704849,-0.84177231788635,-3.03355669975281,-2.79776287078857,-13.8959465026855,-14.745888710022,-18.0594635009766,13.3500690460205,14.2981729507446,13.2950019836426,12.3003826141357,17.2551097869873,19.9960632324219,-34.1532859802246,-17.5590744018555,1.78128612041473,4.21741342544556,2.96636152267456,3.54546189308167,0.32314771413803,-1.93338847160339,-3.76903867721558,-76.8107757568359,-4.83149909973145,-3.99831676483154,0.22744916379452,7.29752683639526,-4.28801536560059,3.73238658905029,-0.15882496535778,-1.3878858089447,32.4198837280273,20.9109573364258,12.4666080474854,-1.38116633892059,-1.43553328514099,-0.97982788085938,1.66644036769867,1.83626091480255,1.43858766555786,-0.78290396928787,-1.65439331531525,-1.03429508209229,8.4132251739502,12.3181676864624,12.9909381866455,-1.1001683473587,-1.14353978633881,-1.19912850856781,3.17231726646423,2.43490314483643,0.01436521019787,0.02871066704392,0.33169981837273,0.36896261572838,0.67439520359039,0.4239404797554,0.36529740691185,0.39025488495827,0.94092124700546,1.43173265457153,11.3413333892822,9.65102672576904,8.69334602355957,SWING_LEFT
-0.3249803185463,-0.70249503850937,-1.23394775390625,2.57376670837402,2.56179571151733,2.42532634735107,-0.29016098380089,-0.52351152896881,-0.90652400255203,0.9523389339447,0.96577793359756,0.5589417219162,2.26730895042419,1.19710087776184,-1.24977326393127,8.5712423324585,7.56088876724243,5.67186403274536,-4.87959146499634,-6.20700168609619,-7.11658000946045,3.11485648155212,0.20350714027882,-6.34463453292847,-2.97308111190796,-2.04945278167725,0.31764993071556,1.44530713558197,-0.13988813757896,-3.65053081512451,-17.417818069458,-14.5711116790771,-14.3101434707642,12.0476226806641,24.9451866149902,34.7877502441406,4.87836980819702,10.5661363601685,15.4133520126343,-38.2976493835449,-25.0122261047363,-11.6070899963379,5.81971311569214,5.16730928421021,2.80020618438721,-0.47525316476822,-1.49661982059479,0.01893682219088,-73.5929718017578,-50.6924324035645,-20.6092891693115,-5.45399141311646,-9.2416181564331,5.66468143463135,8.26683902740479,4.6315803527832,3.54485106468201,34.5674858093262,24.3657913208008,22.4001502990723,1.71042263507843,-0.09162978827953,-0.98776912689209,3.17649936676025,4.12822723388672,3.84906196594238,0.14125789701939,2.166752576828,3.12203907966614,-1.86987149715424,3.15795207023621,10.5656118392944,0.13988813757896,0.18509216606617,0.34513887763023,8.49223327636719,4.74291372299194,4.48433971405029,-0.69944071769714,-0.7434229850769,-0.42455133795738,1.07206845283508,0.41172316670418,-0.21624629199505,-0.14844051003456,0.3256114423275,0.02873042039573,10.1945104598999,12.6749038696289,13.2902135848999,SWING_LEFT
-1.56198239326477,-1.67071640491486,-1.68171203136444,-1.05105459690094,-1.86268889904022,-2.47321033477783,-0.30848693847656,-0.14110986888409,-0.28893926739693,0.31642818450928,0.54244834184647,0.75808376073837,1.46285724639893,0.73262572288513,-1.52271223068237,11.4155540466309,9.54568195343018,8.06127738952637,-3.17588829994202,-3.58638978004456,-3.2314772605896,-4.32153415679932,-9.55765342712402,-17.8822917938232,-1.36467289924622,-0.09896016865969,2.57296442985535,-0.55710911750793,-1.63406455516815,-3.08731293678284,-12.2535238265991,-17.4202117919922,-30.9905471801758,19.5127429962158,25.790340423584,16.8863048553467,12.1995897293091,16.95823097229,19.8421249389648,-20.7122383117676,-1.4484920501709,25.076868057251,-2.41047430038452,0.93767815828323,6.53992319107056,5.08789682388306,-2.88939261436462,-6.65904188156128,-34.308910369873,-15.3228912353516,-17.5662574768066,40.0430221557617,21.7656879425049,-6.06211853027344,6.88689470291138,6.27541875839233,4.00361061096191,21.3227596282959,32.3145408630371,33.0375900268555,1.83992612361908,0.93218034505844,0.09529497474432,0.58276546001434,1.18507862091064,1.18691122531891,-1.89620769023895,-2.14520478248596,-2.01831197738647,-0.01436521019787,1.4867992401123,2.41096115112305,-0.59498274326324,-0.463035851717,-0.51129418611526,4.2449197769165,3.99592256546021,3.82593441009521,-0.91751956939697,-0.58154368400574,-0.37629300355911,0.05681046843529,0.01893682219088,0.0299323964864,0.36152446269989,0.61530983448029,0.7182605266571,11.2719011306763,10.527304649353,9.19852256774902,SWING_LEFT
-3.35975885391235,-3.50209045410156,-3.7348301410675,-0.93373864889145,-1.62805712223053,-2.46123933792114,-1.53082835674286,-1.31946897506714,-0.63835418224335,2.48988676071167,2.87778615951538,3.46666026115417,-4.27365016937256,-7.82903957366943,-11.4011888504028,8.73644161224365,10.2639427185059,11.3413333892822,-5.73419189453125,-4.2791109085083,-2.32861828804016,-15.7418766021729,-19.3307838439941,-21.217414855957,0.96577793359756,0.59559363126755,0.46792277693748,-0.99632120132446,-0.75930547714233,-0.77518796920776,-11.8058090209961,-14.0060796737671,-19.8383560180664,5.13077402114868,6.42124891281128,7.29034423828125,11.8061923980713,16.5385665893555,19.9227600097656,-30.2579212188721,-20.2860717773438,0.09097966551781,0.58887410163879,-0.22785273194313,0.62369340658188,-1.3756685256958,-0.63407814502716,-0.7000515460968,-70.8851318359375,-25.8262538909912,-1.74776721000671,0.40701428055763,13.8528509140015,22.2301635742188,2.94498133659363,1.55587375164032,2.28158164024353,23.487117767334,10.7475709915161,13.6373729705811,-0.10384709388018,0.16554448008537,0.70371675491333,2.21316480636597,0.67439520359039,-0.56566119194031,1.60172092914581,2.30322194099426,1.63763391971588,10.9271364212036,12.1050834655762,9.25837802886963,0.51068335771561,0.31276300549507,0.27916541695595,7.12514448165894,5.22414827346802,4.42687892913818,-0.19486601650715,-0.20402899384499,-0.05558873713017,-0.07086037099361,-0.34697145223618,-0.4978551864624,1.8866308927536,1.83874690532684,1.84353530406952,9.17218685150146,9.88805294036865,9.92875480651856,SWING_LEFT
-1.14170718193054,-1.02808618545532,-1.00548422336578,0.60573303699493,0.70150107145309,1.3215993642807,-0.76235979795456,-0.99876469373703,-1.4379768371582,1.97737073898315,2.18262147903442,2.74034142494202,-0.49320554733276,-2.22900176048279,-5.60722017288208,7.11317348480225,5.51863479614258,4.86501789093018,-3.92664170265198,-5.08239889144897,-5.80993938446045,1.48440504074097,-1.93212080001831,-7.31668043136597,-1.83992612361908,0.07208210229874,3.62487435340881,-1.05190992355347,-4.21497011184692,-6.27786207199097,-15.5144271850586,-13.254301071167,-20.041862487793,21.6387958526611,32.424674987793,27.9666709899902,7.30839157104492,12.3883476257324,17.1249961853027,-28.3162231445313,-17.4058456420898,-4.96796846389771,5.77634191513062,2.59434461593628,0.63713246583939,2.74095225334167,2.28341436386108,0.49968776106834,-74.8810501098633,-52.6125831604004,-16.23268699646,-8.04691219329834,3.42370843887329,23.851037979126,8.5710506439209,4.60531330108643,3.58089208602905,37.0023880004883,22.7616748809814,18.0618572235107,2.36710286140442,0.24495697021484,-0.52412235736847,1.98836636543274,2.68780708312988,1.990198969841,-2.84431171417236,-1.8674772977829,-0.47405192255974,-4.42927312850952,4.40772533416748,11.1521911621094,1.62245810031891,1.19973933696747,0.93767815828323,11.9925565719604,10.9534730911255,10.0412817001343,0.13255776464939,-0.26267206668854,0.02382374368608,0.08124507963657,0.02809980139136,-0.24129177629948,0.44532153010368,0.60812723636627,0.15562310814857,7.99184513092041,10.1370496749878,8.42759037017822,SWING_LEFT
-3.68290662765503,-3.73238658905029,-3.64381122589111,2.53067111968994,1.13485157489777,0.06943184882402,-0.9517280459404,-1.53999125957489,-2.03173780441284,0.34941491484642,0.54367005825043,0.17654006183147,3.29442143440247,0.53151279687881,-2.99993467330933,6.7851676940918,3.74453139305115,2.66714072227478,-5.07140302658081,-5.54360198974609,-4.90341520309448,0.63685762882233,-0.95049810409546,-20.7074508666992,-3.30966782569885,-0.57238072156906,3.0158417224884,1.07817721366882,-1.32924282550812,-3.09891939163208,-14.1186075210571,-18.7130813598633,-30.3752365112305,27.5117721557617,29.7144374847412,19.1440372467041,11.1391277313232,16.0065021514893,19.8421249389648,-25.9196281433105,-15.799337387085,-0.42616790533066,3.97612190246582,2.7458393573761,3.34326553344727,-0.31154128909111,-0.18631389737129,-4.02438020706177,-63.7528038024902,-15.5048503875732,-6.17704057693481,0.41659110784531,10.6278610229492,3.30399823188782,3.924809217453,3.42084527015686,3.90831589698792,16.5535106658936,15.1983919143677,18.7489929199219,1.01586890220642,1.54487824440002,1.67071640491486,2.57907295227051,2.00669240951538,1.13376593589783,-4.49391651153564,-2.67671751976013,-1.36708915233612,7.81706857681274,5.09246683120728,2.39180755615234,0.13316862285137,-0.62124997377396,-0.73792523145676,11.1497974395752,8.20971775054932,5.78917980194092,-0.42271876335144,-0.04581489413977,0.12400564551353,0.50579643249512,0.3286454975605,0.10323622822762,-0.16759411990643,-0.02873042039573,0.26815059781075,10.6422262191772,9.92396640777588,9.39963626861572,SWING_LEFT
-3.05127191543579,-2.94559216499329,-2.91138386726379,0.15322890877724,0.57700258493423,1.8674772977829,-1.93094503879547,-2.0457878112793,-2.22843647003174,-1.86374986171722,-1.21745443344116,-0.16493362188339,2.65995812416077,0.7182605266571,-1.60650932788849,9.41160678863525,8.24563026428223,7.20654726028442,-4.39334297180176,-4.63035869598389,-4.52712249755859,-4.25210237503052,-7.51539897918701,-17.2765598297119,-2.24309706687927,-0.10262536257505,3.15878415107727,1.23394775390625,-0.21685716509819,-1.95721220970154,-7.55370616912842,-12.4761848449707,-24.4304332733154,23.4440231323242,30.7726745605469,24.8757553100586,8.78118801116943,13.2545537948608,16.4029541015625,-29.3864307403564,-13.3404922485352,-3.69425320625305,1.63406455516815,1.74524199962616,4.96144771575928,3.24613785743713,-0.07574728876352,-4.07263851165771,-58.6220283508301,-44.9295883178711,-25.3474140167236,17.0610809326172,15.0092506408691,4.29280376434326,8.22591114044189,6.11842632293701,4.89975023269653,28.2156677246094,24.3777618408203,26.941951751709,2.76783037185669,1.94499492645264,1.20768058300018,1.13926362991333,1.42514860630035,1.22967171669006,-6.93839645385742,-3.28963303565979,-2.11886858940125,-0.33039984107018,0.54587799310684,0.97444009780884,-1.20157194137573,-1.75379407405853,-1.80877196788788,14.4083061218262,9.45709705352783,5.67904663085938,-0.99204516410828,-0.96333450078964,-0.92607170343399,0.61575216054916,0.50029861927032,0.29260444641113,0.67516487836838,0.56981998682022,1.16837048530579,8.04691219329834,8.56884765625,9.59117221832275,SWING_LEFT
-2.21194314956665,-2.25103831291199,-2.46484136581421,2.04704236984253,1.82438170909882,1.45567464828491,-3.22292494773865,-4.20825052261353,-4.52528953552246,1.55037593841553,2.50699090957642,3.01462006568909,-0.00478840339929,-4.01507616043091,-8.47786808013916,4.68545293807983,5.55933618545532,8.08761310577393,-4.26383924484253,-3.56806397438049,-2.67925500869751,-8.67898082733154,-10.611102104187,-12.1362085342407,-1.3011429309845,0.61575216054916,3.36159133911133,-0.85276788473129,-0.34941491484642,0.06658431142569,-11.4562549591064,-14.2670478820801,-19.1392478942871,18.7226581573486,23.5230312347412,26.0297603607178,8.16482448577881,13.5483798980713,17.8378753662109,-36.219482421875,-24.2604465484619,-5.71256542205811,4.13555765151978,1.4556919336319,0.25961771607399,0.83077675104141,1.58336269855499,0.5412266254425,-65.7351989746094,-46.5815887451172,-20.2788887023926,-4.72376012802124,2.32716393470764,18.2174816131592,8.2949390411377,5.15814590454102,4.13739013671875,32.3360862731934,20.6571731567383,17.3531742095947,3.22048163414001,1.66277515888214,1.11971604824066,0.96150189638138,2.37748742103577,1.97187304496765,-4.10605573654175,-1.70467162132263,0.86909520626068,-2.30322194099426,3.72537779808044,7.37653541564941,0.97188657522202,0.21074850857258,-0.28893926739693,15.7083578109741,13.3165502548218,10.1825399398804,-0.10812314599752,-0.33169981837273,-0.25289821624756,0.64812803268433,0.70493847131729,0.17226399481297,0.64643448591232,-0.217872351408,-0.0981622710824,6.17225217819214,7.88410615921021,8.0540943145752,SWING_LEFT
-5.12454843521118,-5.24672174453735,-5.1502046585083,1.55383694171906,-1.61608612537384,-2.77727389335632,-2.6957483291626,-3.15145373344421,-3.06715440750122,1.44042026996613,1.14720487594604,1.23944556713104,-2.75333189964294,-4.82671070098877,-5.2672438621521,4.85783529281616,7.24485445022583,9.51455783843994,-4.50513124465942,-4.24551343917847,-3.77270364761353,-8.88009452819824,-8.93037223815918,-14.1712799072266,-1.7745635509491,-1.2046263217926,0.15638150274754,-0.33047810196877,-1.10933125019073,-1.7568484544754,-13.9031295776367,-16.3643684387207,-24.6099987030029,11.566388130188,16.3715515136719,19.6803379058838,12.2857217788696,17.1873054504395,19.955135345459,-29.1901073455811,-12.9574193954468,6.32308673858643,2.21072125434875,1.35550999641418,1.60046696662903,0.55771994590759,-0.37079519033432,-3.04149794578552,-68.4238891601563,-30.6314163208008,-11.7363767623901,3.76368498802185,10.2902784347534,13.8169384002686,3.77209281921387,2.61755752563477,1.68782067298889,23.6690788269043,22.9508171081543,20.0466499328613,-0.60048055648804,-0.64568454027176,0.08918632566929,3.01095485687256,2.73117852210999,1.15514612197876,0.00718260509893,0.31842881441116,0.08379705995321,6.20577096939087,10.8648872375488,9.05726528167725,-0.10079276561737,-0.10201449692249,0.15088371932507,7.61356163024902,5.20738887786865,4.11084413528442,0.05864306539297,0.12705996632576,0.31154128909111,0.15760323405266,0.11117747426033,-0.08002334833145,0.63925182819366,0.87867200374603,1.02471828460693,10.0819835662842,10.788272857666,10.7930612564087,SWING_LEFT
-2.9669725894928,-3.05127191543579,-3.52530336380005,-0.62728083133698,-0.17717093229294,-2.13323378562927,-2.7757716178894,-2.53203654289246,-2.07816362380981,1.45752441883087,0.83138757944107,0.59559363126755,-1.87705409526825,-3.64397501945496,-6.47152709960938,9.62229633331299,10.8505220413208,8.9471321105957,-5.035973072052,-6.07077884674072,-6.21983003616333,-1.44130945205688,-4.56574249267578,-12.0619878768921,-1.58153009414673,0.09957103431225,2.95536613464355,-1.48562431335449,-2.53631258010864,-2.88817095756531,-15.1720561981201,-14.8751754760742,-18.4736595153809,17.9373588562012,24.8254776000977,21.4999313354492,7.26807451248169,12.1611051559448,16.8775959014893,-30.4973411560059,-21.9045505523682,-7.74524259567261,2.71835041046143,0.31398472189903,0.24190263450146,2.41047430038452,1.94560575485229,0.01954768784344,-68.8285140991211,-56.2972602844238,-17.3627510070801,-0.27533319592476,10.9893856048584,28.251579284668,8.51301765441895,4.57904577255249,3.52591419219971,31.2826385498047,17.2597999572754,15.921441078186,3.26996159553528,1.88024318218231,0.28955012559891,-0.68539083003998,1.6090190410614,1.45202672481537,-1.76213240623474,0.12928688526154,1.87226569652557,-2.36068296432495,-0.2537853717804,2.35350036621094,0.15271630883217,-0.10934487730265,-0.23029619455338,9.84256362915039,8.61194324493408,7.35738182067871,-0.99204516410828,-0.78618359565735,-0.44715335965157,0.06841690838337,-0.21930062770844,-0.73303830623627,0.74220252037048,1.00077629089355,1.13485157489777,9.6007490158081,10.7667245864868,10.9199542999268,SWING_LEFT
-2.31456851959229,-2.55952548980713,-3.26690721511841,0.78290396928787,2.60728573799133,2.2170307636261,-1.78861343860626,-2.07266569137573,-2.32739663124084,-0.11239920556545,0.064751714468,0.34758231043816,0.31603461503983,-1.79086291790009,-3.71819519996643,7.54891777038574,7.23767185211182,7.22330665588379,-5.27787590026855,-5.75618314743042,-6.05245304107666,-1.20667767524719,-3.72058939933777,-12.6006832122803,-0.25045475363731,2.72201561927795,4.30598926544189,-0.48685958981514,-0.84360492229462,-0.42638394236565,-14.336480140686,-15.193603515625,-20.7194213867188,26.0584907531738,19.7258281707764,10.0340995788574,8.94612121582031,14.0175247192383,17.573371887207,-30.145393371582,-17.2645893096924,-4.96078586578369,-0.32986724376678,1.24188899993896,3.59555292129517,0.64629542827606,-3.03355669975281,-4.98099517822266,-59.8167343139649,-41.726146697998,-22.290018081665,14.3197202682495,11.7004632949829,2.54024791717529,9.54049301147461,6.39148283004761,4.34569549560547,31.7710571289063,29.2475681304932,26.6139469146729,2.42880010604858,1.78189396858215,1.17408299446106,1.08367490768433,1.74646377563477,1.79777646064758,-3.15555787086487,-2.19308876991272,-0.52911859750748,0.41180267930031,1.42455005645752,3.15795207023621,0.04703662544489,-0.50762903690338,-0.88941979408264,13.5152683258057,10.8170032501221,8.05170059204102,-0.58154368400574,-1.01647973060608,-1.15025925636292,0.45509460568428,0.18631389737129,-0.2981022298336,1.61129772663116,1.66636443138123,1.75494980812073,6.50025749206543,8.42759037017822,9.75876617431641,SWING_LEFT
-1.06168377399445,-1.70309233665466,-2.28646850585938,1.30005156993866,0.53390699625015,-1.06541979312897,-0.92912602424622,-0.76052725315094,-0.99632120132446,0.8655960559845,0.98043870925903,0.94745200872421,0.14844051003456,-2.41096115112305,-5.21457147598267,8.71249961853027,5.73650741577148,3.79480957984924,-4.85393524169922,-5.6370644569397,-5.99625301361084,-1.14442837238312,-5.36780023574829,-13.0268516540527,-1.78311562538147,-0.37079519033432,2.03295946121216,-0.18387043476105,-1.79044604301453,-3.4458909034729,-14.4537954330444,-14.4202766418457,-22.3809967041016,17.9205989837646,21.4712009429932,12.5504055023193,9.03591823577881,13.3926095962524,17.4964027404785,-23.8175182342529,-16.2590236663818,-5.52342319488525,0.95478236675262,-0.67378437519073,-1.39765965938568,0.53633970022202,1.52410876750946,0.19303341209888,-75.268913269043,-33.9952697753906,-8.12113189697266,0.38067805767059,15.4641485214233,28.6873245239258,6.2595362663269,3.43611693382263,2.75072622299194,25.4814891815186,15.7035694122314,13.5224514007568,3.13984727859497,0.78129667043686,-0.26755899190903,-1.31030595302582,1.15025925636292,1.05557513237,0.96486330032349,3.17710566520691,3.71580100059509,-1.63045132160187,1.26892685890198,4.08211374282837,-0.00549778714776,-0.61758476495743,-0.75075340270996,11.8824234008789,7.74045419692993,4.90571928024292,-0.8228355050087,-0.58276546001434,-0.42821654677391,-0.78374010324478,-0.25656339526176,-0.08368854224682,0.78769236803055,0.38307225704193,-0.45489832758904,9.92636013031006,9.64863300323486,9.73482418060303,SWING_LEFT
-2.32189869880676,-2.43185448646545,-2.47644782066345,1.96085119247437,1.13963997364044,0.33039984107018,-1.16247653961182,-1.5656476020813,-1.72141826152802,0.17287486791611,0.1600466966629,0.34086281061172,3.05021286010742,1.53707754611969,-0.46686932444572,8.61194324493408,8.94473743438721,8.40364837646484,-3.75498867034912,-4.31942796707153,-5.07690095901489,0.13646949827671,0.18195933103561,0.7972691655159,-2.23026895523071,-1.69759452342987,-0.53511798381805,-0.4758640229702,-0.37812557816505,-0.64690631628036,-15.3204965591431,-14.4633722305298,-14.3436622619629,11.7172231674194,16.3523979187012,17.9253883361816,0.21319197118282,9.90273666381836,15.3076725006104,-37.0311164855957,-19.5917530059814,-11.856086730957,1.70675754547119,1.59924519062042,1.77273094654083,0.19486601650715,-0.25839599967003,-0.95356065034866,-57.7170219421387,-39.8443031311035,-17.6404781341553,5.31512784957886,7.94635534286499,13.9701671600342,7.42140197753906,4.9669451713562,3.26202034950256,31.376012802124,22.4791603088379,22.2708644866943,1.36772727966309,0.68172562122345,0.13927727937698,1.92361462116241,2.04823112487793,1.14353978633881,0.56024318933487,1.51313543319702,1.56341373920441,2.03746557235718,3.69904160499573,4.6303858757019,-0.56566119194031,-0.75258600711823,-0.79045963287354,9.18655204772949,6.84981107711792,4.92008447647095,-0.67744958400726,-0.3720169365406,-0.07941248267889,-0.4844161272049,-0.46609017252922,-0.53023105859756,0.53151279687881,0.71107792854309,0.80445176362991,11.0899419784546,11.3604869842529,10.9822034835815,SWING_LEFT
-3.98161959648132,-4.06225395202637,-3.97673273086548,1.72861361503601,-0.18914192914963,-1.73340201377869,-0.83138757944107,-1.16003310680389,-1.94010806083679,-0.23945917189121,-0.60964351892471,-0.33292156457901,1.52510643005371,1.15400516986847,-0.89782565832138,6.84502267837524,6.24647235870361,5.60482597351074,-3.6603045463562,-3.40190863609314,-3.27668118476868,-3.54820680618286,-4.67348194122314,-2.51870012283325,-2.51615405082703,-2.44773697853088,-2.22354960441589,-0.70677107572556,-0.56932640075684,0.01893682219088,-6.58644866943359,-10.4004125595093,-13.3021850585938,9.82101535797119,9.77073669433594,17.5303440093994,3.57600522041321,9.59669303894043,14.9228267669678,-41.1228065490723,-31.5364246368408,-19.2086811065674,2.42085886001587,-0.25595253705978,3.90526151657104,4.03598690032959,1.86436069011688,-3.58333563804626,-71.8164749145508,-44.1395034790039,-25.5413436889648,3.76368498802185,30.9043560028076,18.3012771606445,8.2808895111084,5.39821624755859,4.30171298980713,32.3815765380859,26.1470775604248,22.9603939056396,1.63406455516815,0.95844757556915,1.29381263256073,3.13923645019531,2.25164937973022,0.98776912689209,-3.93367338180542,-0.09337386488914,0.98162269592285,0.46926352381706,4.75727891921997,-0.45729252696037,-0.70677107572556,-1.65055787563324,-1.36528384685516,16.6444892883301,3.52426481246948,2.91134929656982,-1.70431399345398,-0.51740288734436,-0.10140363126993,-0.01160643994808,-0.82405722141266,-0.68355822563171,-0.95049810409546,0.05027823522687,-0.11731588095427,12.2032461166382,11.7411651611328,9.96945571899414,SWING_LEFT
0.40317106246948,-0.11972958594561,-0.79045963287354,1.73340201377869,3.01669406890869,2.30082774162292,-0.88208943605423,-0.48685958981514,-0.52106803655624,0.31093040108681,0.98166042566299,1.57481062412262,1.64721071720123,1.1372457742691,0.46208092570305,13.1274080276489,10.6350440979004,8.28633213043213,-2.42391324043274,-2.89061427116394,-3.67801952362061,-0.7493851184845,-2.25294375419617,-3.87381839752197,-0.04948008432984,-0.34025195240974,-0.68661254644394,4.78918361663818,3.28340077400208,1.35245561599731,-10.788272857666,-13.3572511672974,-7.46512079238892,2.52588272094727,2.38223075866699,10.8936176300049,3.75559949874878,11.8226861953735,17.3882789611816,-58.313175201416,-35.3144760131836,-11.0229043960571,0.93645644187927,2.74767184257507,5.77573108673096,0.89491760730743,-1.18935465812683,-5.14348554611206,-65.7950592041016,-57.9899597167969,-43.0525360107422,22.9172992706299,21.2964248657227,6.73249530792236,14.6638202667236,12.428053855896,9.70848178863525,24.6076049804688,34.0216064453125,40.6296043395996,2.60961627960205,1.22111964225769,-0.40805798768997,1.89918005466461,2.06044840812683,2.10381984710693,-3.20344185829163,-2.64080452919006,-1.98000478744507,-5.28160905838013,-6.12436771392822,-1.65678763389587,-1.84847819805145,-1.12887895107269,-0.68661254644394,6.009446144104,3.16274046897888,3.28484463691711,-1.0622946023941,-1.01831233501434,-0.94012159109116,-1.2278391122818,-1.28037357330322,-1.17163956165314,1.39581954479218,2.48278713226318,2.42532634735107,8.79150867462158,8.80826759338379,8.46350288391113,SWING_LEFT
0.28893926739693,0.04825835302472,-0.24801129102707,1.87944829463959,2.32716393470764,2.42293214797974,0.18814650177956,0.13500121235847,-0.52656584978104,-0.01832595653832,0.17470745742321,1.18385684490204,2.57376670837402,2.45405673980713,1.87226569652557,10.350133895874,9.12909126281738,7.01501083374023,-1.96209919452667,-2.31212496757507,-2.9657506942749,-0.93613284826279,-0.66079968214035,-1.08457338809967,-3.28217887878418,-3.03172421455383,0.32375857234001,1.64811444282532,1.33718407154083,-1.3213015794754,-13.3835878372192,-13.5080862045288,-14.6549081802368,7.79791498184204,14.4633722305298,18.2031154632568,5.7238073348999,9.7952241897583,16.0749187469482,-26.7671756744385,-19.1799507141113,-0.72544312477112,0.72265356779099,2.43246531486511,5.64989280700684,-1.02747535705566,-3.25896596908569,-4.54056119918823,-45.6478500366211,-22.9292697906494,-12.7802486419678,17.2813472747803,17.3028964996338,1.3215993642807,6.29557704925537,3.72994327545166,3.25163578987122,25.3785381317139,18.9285583496094,17.9972133636475,-0.05253441259265,0.89125239849091,0.69516462087631,2.11176109313965,-0.31703907251358,-0.12889257073402,-0.0981622710824,0.58418524265289,1.31681096553802,9.8593225479126,6.23450136184692,4.1347861289978,0.26939156651497,-0.12400564551353,-0.40317106246948,10.5943422317505,8.55448246002197,6.14112758636475,-0.84238314628601,-0.67317348718643,-0.40744712948799,-0.51251596212387,-0.39156460762024,-0.23579397797585,1.44130945205688,1.39821374416351,1.34314715862274,8.94473743438721,9.65581512451172,9.69172859191894,SWING_LEFT
-0.20402899384499,-0.19120082259178,-0.30421090126038,-0.29927521944046,0.12449848651886,0.81402856111526,-0.36407569050789,-0.35674530267715,-0.41966441273689,0.1600466966629,0.56932640075684,1.14415061473846,2.48757553100586,2.55221891403198,0.54587799310684,8.92319011688232,8.18338108062744,6.01662874221802,-3.72016930580139,-4.92968273162842,-5.13371133804321,-0.20350714027882,-6.02381134033203,-15.6078004837036,-0.2944370508194,0.76297068595886,2.34816598892212,-1.62245810031891,-2.4746150970459,-2.72262644767761,-13.2375411987305,-12.993332862854,-20.8367366790771,16.862361907959,21.8087825775146,23.1758728027344,10.0743894577026,14.312572479248,16.7877979278564,-24.7775936126709,-10.2423944473267,3.48835182189941,2.49599528312683,4.03293228149414,6.01030302047729,1.63101017475128,-0.2553416788578,-3.10624980926514,-45.7436180114746,-32.7861976623535,-28.280309677124,18.2821235656738,16.3356380462646,8.0540943145752,9.22650909423828,7.89360046386719,6.01519012451172,23.7720279693604,29.4678344726563,32.6377563476563,4.96450185775757,3.6169331073761,1.90284526348114,2.42391324043274,2.12886548042297,-0.08491026610136,-3.68228220939636,-2.45166254043579,0.37828385829926,-4.49870491027832,-9.73003578186035,-12.7946138381958,-1.61024081707001,-1.166752576828,-0.91751956939697,4.80037450790405,4.39096593856812,4.1156325340271,-2.28646850585938,-1.58886051177979,-1.00426244735718,0.72570788860321,0.02626720629632,-0.2425135076046,0.01436521019787,0.36152446269989,0.93373864889145,13.007698059082,13.3285207748413,13.1250133514404,SWING_LEFT
-0.68050390481949,-1.60413217544556,-2.51493215560913,6.75883150100708,5.66946983337402,5.39653062820435,0.20219638943672,-0.38179078698158,-1.12154853343964,0.50213122367859,0.51190507411957,1.17835903167725,0.91219085454941,-1.69509482383728,-5.55454778671265,4.84347009658813,3.24653744697571,1.84114110469818,-6.04878759384155,-6.29191207885742,-6.04023551940918,-6.58405447006226,-10.1681747436523,-16.4098587036133,-3.02744817733765,2.22721457481384,5.54360198974609,-0.2315179258585,-5.11355304718018,-4.4238862991333,-13.510479927063,-20.3052253723145,-27.1694011688232,23.221363067627,26.8150596618652,13.9941091537476,8.36518859863281,12.1433906555176,15.7517709732056,-19.1751613616943,-13.7187757492065,-3.67270541191101,3.42878651618958,2.93093132972717,3.87899422645569,2.15391087532043,0.53023105859756,-0.84421575069427,-59.7736396789551,-45.8681144714355,-24.4160690307617,8.88967132568359,13.3692226409912,11.7363767623901,10.5417013168335,7.41284990310669,6.21188879013062,28.8190059661865,19.1847381591797,18.559850692749,3.75926470756531,2.95780944824219,2.2101104259491,-0.10567969083786,0.52106803655624,1.38910758495331,-8.92079544067383,-5.12598562240601,-1.98718738555908,-0.97444009780884,-0.52193599939346,-0.24899697303772,0.97371917963028,0.40561452507973,0.18570303916931,15.3659868240356,11.2359886169434,9.65581512451172,-0.49480083584785,-0.81489425897598,-0.61086523532867,0.38484510779381,0.50274211168289,0.29321530461311,-0.2537853717804,0.04070143029094,1.3215993642807,4.37181234359741,7.62074422836304,8.22408294677734,SWING_LEFT
-0.03054326213896,-0.39767327904701,-0.98043870925903,3.18189406394959,3.41892004013062,2.37744235992432,0.21258109807968,-0.17470745742321,-0.7061602473259,1.36100780963898,2.01707696914673,2.11786985397339,2.75333189964294,1.91057300567627,-1.9632453918457,6.35181713104248,4.80516290664673,4.03183555603027,-5.52894115447998,-6.06650257110596,-5.72991609573364,-5.03021764755249,-7.64229202270508,-14.0252332687378,-1.56931281089783,0.15210545063019,2.77760434150696,-2.24615144729614,-2.57052087783813,-1.48195910453796,-14.7363119125366,-14.7865896224976,-23.7025966644287,19.4121875762939,26.1949615478516,22.3211421966553,10.2020606994629,14.5312623977661,17.6197967529297,-23.0489807128906,-12.2511301040649,5.3749828338623,0.92607170343399,2.96452903747559,7.36459159851074,0.46609017252922,-0.72876220941544,-2.01952052116394,-57.9468650817871,-42.760440826416,-31.8764019012451,21.0019378662109,30.6577529907227,13.4338655471802,10.5032167434692,7.31816577911377,5.25466299057007,35.1468811035156,29.3409423828125,22.7257633209229,0.94684112071991,-0.96761053800583,-2.59067940711975,0.74464476108551,0.5711590051651,1.38971841335297,-1.79086291790009,1.68312382698059,-1.21386027336121,-12.0093154907227,-5.0685248374939,-0.22744916379452,-0.79778999090195,-0.75136423110962,-0.57238072156906,5.0182466506958,2.73417830467224,0.42616790533066,-1.04091441631317,-0.29993483424187,-0.08002334833145,-1.05190992355347,-0.98349303007126,-0.33292156457901,-0.53390699625015,0.0526724383235,0.62488663196564,14.0683288574219,11.2455654144287,10.3692874908447,SWING_LEFT
-0.26450464129448,-0.28893926739693,-0.68172562122345,-0.57700258493423,1.55862534046173,3.56017804145813,0.49663344025612,0.40866884589195,0.34147366881371,1.37811195850372,1.91017556190491,2.1258111000061,3.28723883628845,2.36068296432495,0.34237083792686,7.93677854537964,6.74686050415039,4.81952810287476,-4.06836271286011,-4.80750942230225,-5.62606906890869,-1.87465989589691,-2.06140756607056,-2.56179571151733,-1.45385932922363,-1.43431162834167,0.57421332597733,1.17530477046967,0.35246923565865,-3.64564371109009,-13.5823059082031,-14.0898771286011,-17.3555679321289,5.56173038482666,11.0468463897705,17.5423164367676,4.71893405914307,8.85815715789795,12.7298212051392,-30.037654876709,-23.9659595489502,-15.5910415649414,3.78247761726379,2.98896360397339,3.76354074478149,0.45387288928032,-0.48014008998871,-1.6823228597641,-66.3026275634766,-60.4942932128906,-37.3567276000977,5.65271043777466,12.5743474960327,15.9812965393066,12.987606048584,5.57414531707764,4.27544593811035,38.532283782959,23.8294887542725,22.0027141571045,3.09525418281555,1.71592044830322,0.74708819389343,1.63467538356781,2.38787221908569,2.00669240951538,-5.99268674850464,-2.71741890907288,-1.62566292285919,-2.83712911605835,0.74699091911316,2.95444488525391,0.05070181563497,-0.25411993265152,-0.54977869987488,10.5584297180176,9.17697525024414,7.92720174789429,-0.66767573356628,-0.60720002651215,-0.72204273939133,0.27977627515793,-0.21930062770844,-0.36774086952209,-0.71347212791443,-0.32321724295616,0.02154781483114,7.66144561767578,7.17781686782837,7.59919595718384,SWING_LEFT
-0.46120324730873,-0.9089674949646,-1.37322509288788,5.94719696044922,6.25365495681763,7.76439619064331,-0.91324353218079,-1.20218276977539,-1.53815865516663,2.85029721260071,2.85396242141724,2.5112669467926,-0.67277067899704,-2.06140756607056,-3.62242722511292,7.27358484268188,6.60081386566162,6.20337677001953,-4.0127739906311,-4.1715989112854,-4.50452041625977,-2.01112937927246,-2.85149431228638,-4.45560932159424,-2.21438646316528,-1.72752690315247,-0.32986724376678,2.16734981536865,0.94439768791199,-1.98225772380829,-16.3978881835938,-13.6780738830566,-14.4442186355591,9.80425548553467,18.0570697784424,20.7649116516113,2.67192459106445,14.0407381057739,18.0229682922363,-34.91943359375,-21.0330619812012,-8.16422748565674,4.68655824661255,4.10623598098755,4.25528717041016,-0.3591887652874,-1.68476629257202,-3.44161486625671,-70.2602462768555,-44.8625526428223,-22.4288806915283,2.84910011291504,6.03578233718872,5.57609558105469,8.5576114654541,6.21127796173096,4.8081202507019,31.7135963439941,28.1869373321533,26.6474647521973,3.80385780334473,2.94253778457642,2.02074217796326,1.27426493167877,1.41048789024353,1.20157194137573,-5.01106405258179,-3.33033466339111,-1.02711248397827,-1.98718738555908,-2.28885674476624,-2.56179571151733,-0.57971113920212,-0.63285636901855,-0.44959682226181,9.00459289550781,5.82748699188232,3.8690299987793,-0.78496181964874,-0.34452798962593,-0.15210545063019,0.62491512298584,-0.23212879896164,-0.85704392194748,1.5179238319397,2.00634098052979,2.1475989818573,9.77552509307861,8.88967132568359,7.34062242507935,SWING_LEFT
-1.07145762443542,-1.21378922462463,-1.52899575233459,0.26336219906807,0.33518823981285,1.61848032474518,0.01038470957428,-0.50946164131165,-1.01647973060608,1.09589219093323,1.0256427526474,0.12095131725073,-2.12605118751526,-4.86741209030151,-5.54257678985596,5.28400325775146,4.86980628967285,5.93043756484985,-5.06651639938354,-4.42083168029785,-3.3903021812439,-11.1114902496338,-10.5727949142456,-16.2039566040039,-1.48990035057068,1.6713273525238,5.32491254806519,-2.22660374641419,-1.51861095428467,-0.94989544153214,-19.5390796661377,-25.1558780670166,-35.3791198730469,31.1150455474854,33.9689331054688,25.4048748016357,9.0554666519165,12.7090511322021,16.0211620330811,-17.9229946136475,-11.7148284912109,-0.24899697303772,5.86064100265503,3.66885662078857,2.89305782318115,2.81853222846985,1.83931529521942,-0.46242499351501,-69.1086349487305,-60.0034828186035,-43.6079902648926,-0.70628952980042,3.05021286010742,7.73566579818726,12.2582330703735,8.44521236419678,6.66270732879639,35.6352996826172,26.144681930542,25.9555397033691,3.8747181892395,2.46056509017944,1.85092175006866,0.74036866426468,1.22356307506561,-0.57604593038559,-15.6939926147461,-14.4059114456177,-9.40681838989258,-4.00789356231689,-0.71347212791443,-0.84036481380463,0.86437433958054,-0.79717916250229,-1.43736588954926,30.229190826416,17.1951560974121,9.23922443389893,-0.69272118806839,-1.23578035831451,-1.33412969112396,0.81367248296738,1.05068826675415,0.29993483424187,-1.99676418304443,-1.88184249401093,-0.33039984107018,4.6303858757019,8.4706859588623,10.2256355285645,SWING_LEFT
-1.32985365390778,-1.4556919336319,-1.95721220970154,-3.25372004508972,-1.45567464828491,-0.59376204013824,-1.68659889698029,-2.05067467689514,-2.51187777519226,1.0134254693985,1.45080494880676,1.694540143013,-4.32153415679932,-4.51785850524902,-7.10359621047974,8.63827991485596,7.98226833343506,6.94079065322876,-2.71712851524353,-2.51615405082703,-1.73668992519379,-4.80037450790405,-8.37252330780029,-10.4363250732422,-0.98166042566299,0.65362578630447,2.2534818649292,-1.90956473350525,-2.72568082809448,-2.14596962928772,-12.0236806869507,-15.646107673645,-21.7082271575928,17.604564666748,17.171215057373,10.7667245864868,9.9540491104126,15.1005887985229,17.0999507904053,-10.8672819137573,-2.00634098052979,8.84178733825684,0.31948253512383,0.29565876722336,2.41108512878418,-0.78374010324478,0.20341812074184,-2.34816598892212,-52.3587951660156,-13.4386539459229,-12.7299699783325,5.15471649169922,21.4376811981201,16.8599681854248,5.57781076431274,4.80323362350464,4.01399564743042,17.9852428436279,17.4417591094971,14.3269033432007,0.20952677726746,0.36957347393036,0.4324925839901,1.58397352695465,0.21135938167572,-0.90957832336426,-0.79966336488724,0.73741412162781,0.60573303699493,8.26239013671875,7.42681360244751,5.48032760620117,0.37140607833862,0.65362578630447,0.52228981256485,6.35660552978516,8.62870311737061,11.0109338760376,-0.07880161702633,0.16371189057827,0.29932397603989,-0.4025602042675,-0.50823986530304,-0.64568454027176,0.91458505392075,1.1947066783905,1.12048637866974,10.2711248397827,9.70848751068115,8.81545066833496,SWING_LEFT
-2.40986347198486,-2.68475270271301,-2.74278497695923,-0.24660277366638,-1.11090958118439,-1.77649760246277,-0.68172562122345,-1.18996548652649,-1.83137404918671,1.03052961826324,1.2834278345108,1.29625606536865,0.07422025501728,-1.24737906455994,-4.20182418823242,6.11957931518555,5.38934803009033,4.84825849533081,-4.29438257217407,-4.85210275650024,-4.74520111083984,-2.26491475105286,-7.58483076095581,-20.2046680450439,-2.68230938911438,-0.22357667982578,2.17773461341858,-0.33658674359322,-1.49723076820374,-1.03541660308838,-17.6141414642334,-21.4807777404785,-31.5531845092773,29.9323101043701,28.7639389038086,22.8598384857178,9.90395832061768,13.4934024810791,16.7132740020752,-18.5239391326904,-12.0811414718628,0.10055647045374,3.64930891990662,4.08424520492554,4.53384208679199,0.30237829685211,0.45081853866577,1.08611845970154,-67.7942123413086,-44.2280883789063,-29.3122119903564,10.9630498886108,11.0252990722656,8.5903959274292,10.1079874038696,9.2973690032959,7.62604188919067,25.9387817382813,35.3288421630859,43.4356079101563,3.3646457195282,2.09221339225769,0.67622780799866,-0.06902777403593,1.33779489994049,2.13191962242126,-5.13077402114868,-3.95522117614746,-1.02711248397827,-5.34864664077759,-3.68707060813904,0.37588965892792,0.26572638750076,1.00487327575684,1.52594137191772,7.10838460922241,8.63349151611328,10.1825399398804,-0.40072759985924,0.07024950534105,0.1795943826437,0.07819075137377,-0.01527163106948,-0.06536258012056,-0.24181437492371,0.58179098367691,1.9943699836731,10.2902784347534,8.64306831359863,8.06127738952637,SWING_LEFT
-0.33414328098297,-0.52106803655624,-1.16553092002869,1.89381349086761,1.17794728279114,-0.05027823522687,-0.76052725315094,-1.3756685256958,-2.17406940460205,1.66216433048248,1.34512531757355,0.29504790902138,2.42772054672241,0.65601128339767,-3.28484463691711,6.15549278259277,6.02620553970337,8.03015232086182,-4.83072233200073,-5.36767292022705,-4.54056119918823,-2.26970314979553,-4.09408473968506,-10.4315366744995,-2.32861828804016,0.73364913463593,2.1447479724884,0.19058994948864,0.37629300355911,0.07941248267889,-11.4825916290283,-14.1880388259888,-17.1257247924805,19.002779006958,18.6628017425537,16.3859157562256,6.91377305984497,10.1177606582642,17.4774646759033,-15.8663749694824,-16.0124206542969,0.45729252696037,4.34080839157104,5.0048189163208,5.58514070510864,-0.37629300355911,-1.28953647613525,-1.78739166259766,-76.7221908569336,-64.2795257568359,-37.330394744873,8.49941635131836,6.02141714096069,2.2170307636261,11.5539054870605,7.08481502532959,5.01214933395386,41.6758689880371,29.1494064331055,22.4264869689941,3.11480188369751,2.01280093193054,0.28832840919495,-0.70127332210541,0.01038470957428,-0.80939644575119,-9.97185039520264,-10.6206789016724,-0.07661445438862,-1.27610945701599,-8.67179870605469,-5.07810163497925,-1.70370316505432,-1.36589467525482,-0.63591074943542,12.4283008575439,8.01339340209961,7.06050062179565,-0.39095374941826,-0.38301250338554,-0.2553416788578,0.5583308339119,0.25106561183929,0.22968533635139,-1.55383694171906,-1.03190088272095,0.53630119562149,8.32463932037354,9.23443603515625,10.2328176498413,SWING_LEFT
-0.66095620393753,-1.20768058300018,-2.1068742275238,3.46680402755737,3.77805018424988,3.15555787086487,-0.41050145030022,-0.86926126480103,-1.4001030921936,0.66950833797455,0.51923543214798,0.59864795207977,-1.70227742195129,-4.56334829330444,-10.3525285720825,6.94797325134277,5.6934118270874,4.24731397628784,-6.97730302810669,-7.38413906097412,-5.7891697883606,-2.83234071731567,-16.2925434112549,-23.1782665252686,0.24373523890972,2.31212496757507,3.76292991638184,-1.22661745548248,-0.35979962348938,-0.22968533635139,-16.3763389587402,-21.6818904876709,-26.5421199798584,23.1255950927734,17.7051219940186,11.3533048629761,9.18313694000244,14.5117149353027,16.5129089355469,-8.04212379455566,-3.80917501449585,12.2295818328857,3.66824579238892,2.88267302513123,2.84235596656799,0.9517280459404,2.16185212135315,0.5100724697113,-42.4922904968262,-24.0282077789307,-21.5119018554688,4.99669885635376,9.11233139038086,14.0922708511353,8.9241304397583,7.82823801040649,5.82460021972656,20.4728183746338,27.3585433959961,27.8349895477295,2.80570411682129,0.56627207994461,0.02443460933864,0.2229658216238,1.23578035831451,0.57848936319351,-6.97670364379883,-3.68946480751038,-3.41892004013062,-2.3702597618103,2.53067111968994,4.55137729644775,1.32741022109985,0.75930547714233,0.08735372871161,13.9510135650635,14.5112562179565,12.6581439971924,-0.4202753007412,-0.41355577111244,-0.24740041792393,-0.45142942667007,-0.94745200872421,-1.09222710132599,-1.41497325897217,-2.16914677619934,-1.71903681755066,8.16183376312256,9.3637228012085,9.85214042663574,SWING_LEFT
-0.76541417837143,-0.50762903690338,-0.34513887763023,-4.13239192962646,-4.00789356231689,-3.32794046401978,-0.22418753802776,0.02199114859104,0.13255776464939,0.11239920556545,0.10873401165009,0.08124507963657,-0.19153612852097,-0.37349545955658,-0.42616790533066,10.6948986053467,9.53371143341064,8.59278964996338,-2.56319046020508,-3.66458058357239,-5.08239889144897,-1.40060794353485,0.64643448591232,-6.63193893432617,0.54672437906265,1.21195662021637,2.83380389213562,-4.25834178924561,-4.64685201644897,-2.31090331077576,-11.6525793075562,-9.12430286407471,-13.5966711044312,14.7650423049927,21.4544410705566,24.4878940582275,9.51911354064941,15.2410879135132,18.9685878753662,-32.6688804626465,-14.6788501739502,1.30005156993866,1.06107294559479,2.17834544181824,7.31083536148071,2.67925500869751,-1.44591808319092,-5.42937040328979,-66.9083633422852,-45.8226280212402,-26.5421199798584,18.1288948059082,32.6497268676758,5.79875659942627,8.98094081878662,6.26503372192383,4.84538316726685,30.7295780181885,26.5469093322754,23.1878433227539,1.85764122009277,0.0177150927484,-0.96883225440979,2.63893795013428,2.05739402770996,1.2712105512619,-4.26646757125854,-2.93289709091187,-1.48440504074097,-4.25210237503052,0.78529816865921,5.94719696044922,0.56505036354065,-0.07513642311096,-0.64079761505127,13.6158246994019,11.9279127120972,10.0005807876587,-1.5723671913147,-1.65666651725769,-1.56870198249817,-0.64751714468002,-1.0445796251297,-1.14415061473846,-0.61770403385162,-0.94570964574814,-0.62728083133698,8.76038360595703,9.66539192199707,10.7260236740112,SWING_LEFT
-0.42332962155342,-0.61819565296173,-0.81367248296738,1.6903064250946,1.44370365142822,0.41659110784531,-0.45326200127602,-0.49052479863167,-0.76235979795456,-0.52962017059326,-0.38851028680801,0.37690386176109,2.31519293785095,1.43891525268555,0.47884035110474,9.61511421203613,8.51617527008057,7.72369480133057,-2.2101104259491,-3.00118088722229,-3.61326789855957,1.79086291790009,0.02394201606512,-1.10612118244171,-1.86985850334167,-1.87413454055786,-1.5668693780899,1.01892328262329,0.86254173517227,0.01221730466932,-8.74123001098633,-16.1967754364014,-13.7738428115845,7.23767185211182,10.3836526870728,23.132776260376,-1.4190399646759,6.07444381713867,13.6705532073975,-54.8990440368652,-44.2400588989258,-22.5797157287598,5.58208656311035,2.17773461341858,1.40437924861908,4.62608242034912,4.76535987854004,0.63713246583939,-72.0032196044922,-65.0121536254883,-41.7500877380371,1.89381349086761,13.6493434906006,19.9796123504639,14.1940650939941,12.1824855804443,10.8813428878784,17.3531742095947,19.8287792205811,31.8524589538574,6.93942928314209,5.56314992904663,4.20947217941284,-0.96944314241409,0.9089674949646,0.7916813492775,-12.9765729904175,-7.37174701690674,-3.02866506576538,-5.96156215667725,-5.68622922897339,-8.89206504821777,-0.34269541501999,-1.8723019361496,-2.22965812683105,18.3347969055176,9.40921306610107,4.35026454925537,-2.98102235794067,-2.04090070724487,-0.34147366881371,2.08977007865906,0.36407569050789,-0.95905846357346,-2.1284453868866,-0.87148940563202,-0.91697925329208,14.6573028564453,14.7267351150513,8.2336597442627,SWING_LEFT
-0.20830504596233,-0.34086281061172,-0.6010913848877,0.40222588181496,0.2777273952961,-0.39264908432961,-0.7739662528038,-0.77824234962463,-0.72631877660751,1.61268424987793,1.14109623432159,0.38789942860603,1.28568625450134,0.21068975329399,-2.42772054672241,9.61750793457031,9.29429054260254,9.18894577026367,-2.18262147903442,-2.23576688766479,-2.72201561927795,-6.15309858322144,-4.10844993591309,-3.44525623321533,-0.48197266459465,1.12765729427338,4.1715989112854,-2.81792140007019,-3.8001925945282,-3.6914587020874,-12.1242370605469,-9.91678333282471,-14.6668796539307,17.738639831543,27.2938995361328,26.582820892334,9.03103160858154,13.9405555725098,16.9802207946777,-26.0417327880859,-9.01416969299316,9.91199493408203,1.15087008476257,0.97249746322632,4.21008348464966,4.67800617218018,1.14476144313812,-3.56012272834778,-49.3516807556152,-37.2226524353027,-30.858865737915,12.3947820663452,24.2676277160645,20.7529411315918,10.4787826538086,8.00844383239746,6.40736532211304,23.6571063995361,23.5302143096924,24.2987537384033,4.42632961273193,2.81669974327087,1.71469879150391,1.35550999641418,1.86374986171722,0.74708819389343,-7.18021106719971,-2.15717577934265,-1.38624274730682,-4.45560932159424,-1.64721071720123,-1.03668928146362,-0.39645153284073,-0.7305948138237,-0.76969021558762,12.1625442504883,8.35097599029541,6.88332986831665,-2.38176369667053,-1.26510190963745,-0.86254173517227,0.87720251083374,-0.79473567008972,-1.11238563060761,-1.30244576931,-1.6136919260025,-1.57299053668976,9.56723022460938,9.80904483795166,8.31266784667969,SWING_LEFT
-2.76538705825806,-3.48865151405334,-3.78858613967896,0.62728083133698,-2.56658411026001,-5.79157400131226,-1.6511687040329,-1.56320416927338,-1.10322260856628,-0.48258355259895,-1.82709789276123,-2.04945278167725,-2.74136090278625,-2.60967993736267,-3.42610263824463,9.36851119995117,11.5544176101685,11.5472345352173,-0.81917029619217,-0.78312921524048,-0.64751714468002,-2.47321033477783,-3.25372004508972,-4.26886177062988,0.58459806442261,1.77395272254944,3.05310440063477,-1.31030595302582,-1.13315498828888,-0.20891591906548,-9.87368774414062,-12.0093154907227,-18.6556205749512,15.9956617355347,16.7689895629883,15.2941608428955,9.72741794586182,13.5184478759766,16.0419330596924,-18.3300075531006,-8.47547435760498,3.44765043258667,3.01400923728943,4.13800096511841,5.38722038269043,-0.77702057361603,-3.06471085548401,-4.65540409088135,-48.061206817627,-32.6425476074219,-23.2644577026367,9.34935760498047,6.04535913467407,1.63523972034454,9.42626190185547,6.61994647979736,5.15875720977783,30.8349227905273,24.1120052337646,22.7688579559326,2.15940856933594,1.18019163608551,0.79290306568146,1.79166781902313,1.85580861568451,1.17286121845245,-4.51307010650635,-2.09971499443054,-0.9241618514061,0.85712420940399,3.57214903831482,3.64636921882629,0.49968776106834,-0.58093285560608,-0.8344419002533,17.2885303497314,9.39963626861572,6.71813011169434,-0.51923543214798,-0.4025602042675,-0.45631635189056,0.64263021945953,-0.00244346098043,-0.49907690286636,-0.91458505392075,-0.68953007459641,-0.11971008777618,8.28393745422363,7.66623401641846,7.39329481124878,SWING_LEFT
-0.49174651503563,-0.94806283712387,-1.53876960277557,1.19231247901917,0.27533319592476,-0.9241618514061,-1.21745443344116,-1.48562431335449,-1.69148588180542,0.66889744997025,0.49113565683365,0.60536748170853,-2.1475989818573,-5.26484966278076,-9.79467868804932,8.5496940612793,8.37970638275146,10.5344877243042,-4.02254772186279,-3.93947005271912,-3.19787955284119,-8.01818180084229,-11.55202293396,-15.9860849380493,0.25717425346375,0.60842180252075,1.47585046291351,-1.13254415988922,-1.47279608249664,-1.20035016536713,-14.0348100662231,-14.5495634078979,-18.6029472351074,13.9749555587769,16.1081886291504,11.4323129653931,6.85085391998291,9.53377342224121,13.231951713562,-11.0205106735229,-8.2719669342041,-6.84023427963257,1.24433255195618,3.31211137771606,3.70550847053528,-2.19972586631775,-0.41233405470848,0.36651915311813,-45.6765785217285,-30.1549701690674,-19.3714866638184,15.8567981719971,11.8848171234131,11.6238489151001,7.66513729095459,6.42446994781494,4.96877813339233,22.0912990570068,24.4926834106445,23.7983646392822,1.79166781902313,0.89858275651932,0.13866640627384,-0.56199604272842,0.58643060922623,-0.09834930300713,-3.2968156337738,-1.60411512851715,-0.13168109953403,-0.90500825643539,1.25935006141663,3.96479797363281,1.4367550611496,0.57360243797302,0.07880161702633,15.3396501541138,11.77707862854,8.9471321105957,-0.53511798381805,-0.19547687470913,0.15638150274754,-1.92544722557068,-1.11482906341553,-0.37568211555481,0.70868372917175,0.30406361818314,-0.52193599939346,11.0420579910278,10.7164468765259,9.25837802886963,SWING_LEFT
-0.29688051342964,-0.3897320330143,-0.63713246583939,2.81797528266907,3.69664740562439,4.26407337188721,-0.10384709388018,0.16249015927315,0.14782938361168,0.4544837474823,1.61634945869446,1.71225523948669,5.43962621688843,5.4061074256897,4.28083276748657,10.3453454971313,8.99980449676514,7.27837324142456,-3.95046544075012,-4.43488168716431,-5.57658863067627,-2.35828876495361,-3.20583605766296,-5.14753341674805,-2.02929425239563,-1.70553576946259,-0.38789942860603,0.2101376503706,-2.14658045768738,-2.53814506530762,-10.7763013839722,-10.1394443511963,-14.3747873306274,8.04691219329834,14.0826940536499,11.0468463897705,1.65849912166595,7.83801174163818,14.1568021774292,-17.2885303497314,-17.0155906677246,-0.73023152351379,4.41166877746582,4.6761736869812,5.09767055511475,0.70432764291763,-0.79107052087784,-1.40987694263458,-54.7434234619141,-41.5657348632813,-25.3689613342285,6.70615911483765,6.08845472335815,5.1978120803833,9.47451972961426,6.27969455718994,4.58454370498657,30.4901580810547,21.1072826385498,25.3426246643066,2.90710759162903,1.59374737739563,0.9211847782135,-0.17043140530586,1.69331848621368,2.23087978363037,-3.75650238990784,-0.76853877305984,0.05746084079146,-2.71741890907288,1.49877023696899,4.03422975540161,-0.38667771220207,-0.48930305242538,-0.13194689154625,9.09078407287598,5.95916795730591,5.84185218811035,0.03481931984425,-0.63285636901855,-1.05313169956207,-0.82222461700439,-0.60964351892471,-0.33414328098297,1.31441676616669,1.3910311460495,2.00634098052979,1.66636443138123,3.42370843887329,6.55292987823486,SWING_LEFT
-1.27487576007843,-2.25103831291199,-3.489262342453,5.37737703323364,4.64475107192993,1.78128612041473,-1.86741507053375,-2.02135300636292,-2.13558483123779,2.43490886688232,2.99262881278992,2.36527013778687,-0.26096799969673,-4.948814868927,-10.596736907959,5.31512784957886,5.46356821060181,6.77080249786377,-7.27051830291748,-6.3694920539856,-3.46299505233765,-7.40526580810547,-30.8660488128662,-36.411018371582,1.45752441883087,2.63710522651672,2.74645018577576,-2.52226257324219,-0.10323622822762,0.64629542827606,-20.9277172088623,-26.3745250701904,-30.2363739013672,18.5957641601563,10.5727949142456,8.56884765625,11.2063226699829,13.8244915008545,16.4499893188477,-12.4211187362671,-10.9151659011841,-3.30639243125916,3.31088972091675,2.88817095756531,2.34755516052246,-1.25288462638855,-0.42638394236565,0.17043140530586,-60.8965187072754,-47.0005722045898,-26.8078765869141,1.83156430721283,2.58334374427795,8.63349151611328,9.3046989440918,7.51425361633301,5.94310808181763,24.8566017150879,24.0545444488525,31.6417694091797,2.43735241889954,0.71287971735001,-0.76419240236282,-1.58153009414673,0.88270026445389,1.54060220718384,-4.87220048904419,-3.82593441009521,-4.26646757125854,-7.20415306091309,-4.74051952362061,1.38624274730682,0.7000515460968,1.16491997241974,1.09711396694183,8.38688850402832,11.0109338760376,12.0643825531006,-0.03970624133945,0.35491269826889,0.37629300355911,-0.70493847131729,-0.15027284622192,-0.08124507963657,-2.46842193603516,-1.60411512851715,-1.24259066581726,9.81383323669434,8.10437297821045,6.53377628326416,SWING_LEFT
-0.38789942860603,-0.43066000938416,-0.64996063709259,-1.10612118244171,-0.53869539499283,0.71347212791443,-0.5400048494339,-1.02808618545532,-1.33168625831604,-0.79412484169006,-1.37872290611267,-1.84114789962769,2.59052634239197,0.50278234481812,-2.86107110977173,8.55448246002197,10.6422262191772,11.6813097000122,-4.53017663955688,-5.2192325592041,-5.26443672180176,1.78846871852875,-0.53390699625015,-6.2392897605896,-2.37015724182129,-1.53632605075836,-0.66584312915802,-0.95661497116089,0.49113565683365,1.07939887046814,-13.4578075408936,-12.7994022369385,-14.5998420715332,16.4553489685059,17.2813472747803,20.0083427429199,5.024977684021,13.9087905883789,17.1311054229736,-27.9451217651367,-9.69651699066162,3.93367338180542,3.00057005882263,3.60166144371033,4.35302591323853,0.21074850857258,-0.93523466587067,-1.90223431587219,-61.5070419311523,-40.718189239502,-26.8222408294678,9.42597198486328,9.69172859191894,7.89128875732422,7.69384765625,6.95531177520752,4.91013479232788,21.222204208374,22.0194721221924,54.784122467041,1.01647973060608,0.09651670604944,-0.62247169017792,-0.56443947553635,-0.00855211354792,0.52045720815659,-2.61686253547669,-4.01268196105957,-4.99191045761108,-4.93684387207031,0.60812723636627,5.66468143463135,-0.45204028487206,-0.04031710699201,0.18570303916931,4.68545293807983,2.4013843536377,2.67192912101746,0.03420845419168,0.40439277887344,0.29321530461311,-0.90408056974411,-0.5528330206871,-0.43127086758614,-1.18512988090515,-0.54587799310684,-0.43095630407333,10.8816471099854,7.85537576675415,7.74763679504395,SWING_LEFT
-0.43432518839836,-0.54305922985077,-0.73181658983231,1.47482824325562,1.64960491657257,2.4013843536377,-0.39400807023048,-0.86865037679672,-1.3335188627243,1.69515109062195,1.84298050403595,1.4923437833786,-0.74459671974182,-2.53306531906128,-4.00071096420288,5.21457147598267,5.88494777679443,7.22091245651245,-4.81728315353394,-4.86737442016602,-4.88325691223145,-6.57926607131958,-5.95437955856323,-8.99501609802246,-1.9034560918808,-1.11482906341553,0.70799279212952,-1.29808866977692,-1.51372408866882,-1.49845242500305,-14.1617031097412,-14.1832504272461,-17.4034519195557,14.0563583374023,21.6459770202637,24.9020919799805,7.4104061126709,11.788477897644,15.128077507019,-29.5540256500244,-18.3850746154785,-7.34062242507935,3.37869572639465,2.7702739238739,2.54730796813965,0.82100290060043,1.62551236152649,1.44042026996613,-58.5214729309082,-47.4889907836914,-29.0656089782715,5.7628436088562,9.16979217529297,12.8736228942871,10.640661239624,8.08480167388916,5.7549614906311,32.9274559020996,32.5779037475586,32.7885932922363,2.20766711235046,0.89186328649521,-0.064751714468,0.5406157374382,1.34207093715668,0.879035115242,-3.18428826332092,-2.44926834106445,-2.63601613044739,-1.32399356365204,1.1180921792984,3.93606758117676,2.17406940460205,1.77273094654083,1.14292883872986,13.254301071167,13.5128746032715,10.9391078948975,0.31887164711952,0.66401052474976,0.60414570569992,-0.15515977144241,-0.04825835302472,-0.21258109807968,-0.9911994934082,-0.96725749969482,-0.32800564169884,11.6238489151001,9.2248592376709,8.55687713623047,SWING_LEFT
-3.45383214950562,-3.85394883155823,-3.96634793281555,-1.43412685394287,-3.31836366653442,-4.67587614059448,-1.35489916801453,-1.83320665359497,-2.22354960441589,0.70371675491333,0.53633970022202,0.45081853866577,-3.75171399116516,-5.33906984329224,-5.61919116973877,6.49786329269409,7.32865142822266,10.7547540664673,-2.52653861045837,-1.70431399345398,-0.45937067270279,-9.92157173156738,-14.2526826858521,-15.8639802932739,0.98166042566299,2.13436317443848,3.24125099182129,-0.13683381676674,-1.05313169956207,-1.96698606014252,-13.2423295974731,-17.5016136169434,-23.7840003967285,17.3723278045654,16.6612491607666,18.4640827178955,9.60952091217041,14.1946754455566,17.7596855163574,-26.616340637207,-14.5806884765625,4.68545293807983,4.79651403427124,2.69880270957947,3.76964950561523,0.97310835123062,1.46607661247253,-0.55038958787918,-60.5134468078613,-17.8248310089111,-14.0515699386597,0.52193599939346,13.5823059082031,8.08043098449707,6.21433210372925,5.39210748672485,4.72015571594238,21.3155784606934,20.4991550445557,20.1663608551025,1.36222946643829,1.10872042179108,1.01709067821503,0.30360001325607,-0.08857546001673,0.09651670604944,-2.80839848518372,-2.22660756111145,-1.09415018558502,5.22654247283936,6.68221712112427,7.44117879867554,1.11971604824066,0.91263270378113,0.28344148397446,11.0276927947998,14.0491752624512,14.0228395462036,0.2730567753315,-1.06168377399445,-1.25044119358063,-0.61575216054916,-0.70127332210541,-0.72265356779099,1.54186594486237,0.39504328370094,0.61291563510895,2.09253239631653,6.40688371658325,8.72207641601563,SWING_LEFT
-1.92727982997894,-2.53814506530762,-3.28401160240173,-0.15801730751991,-1.25935006141663,-1.03190088272095,-2.12947630882263,-2.56746673583984,-2.77821516990662,3.11052584648132,2.67436814308167,1.63039934635162,-10.8624935150146,-14.6429376602173,-14.3101434707642,4.0270471572876,4.36702394485474,7.22570085525513,-2.11909151077271,0.50335294008255,3.13618206977844,-23.1303825378418,-21.1647434234619,-21.0210914611816,2.63160753250122,3.75254511833191,3.83317947387695,-3.74826908111572,-1.42026174068451,0.86193084716797,-20.8295555114746,-26.9611053466797,-34.5219955444336,14.5663232803345,8.80108547210693,7.48427438735962,14.1934537887573,15.9105958938599,16.9857196807861,-4.41730213165283,0.04788403213024,6.20098257064819,3.01217651367188,3.9901716709137,4.35180377960205,-1.7256942987442,-1.9889771938324,-2.5234842300415,-55.3156356811523,-28.8788604736328,-21.2844524383545,7.39329481124878,5.99268674850464,3.58651423454285,6.96875095367432,5.38599872589111,3.16489291191101,28.1965141296387,38.2593421936035,49.203239440918,0.3378084897995,-0.4972442984581,-1.07206845283508,1.88513016700745,1.46913087368011,0.463035851717,-5.30555105209351,-4.62559747695923,-3.33512306213379,1.30244576931,5.20978307723999,8.59997272491455,-1.83748269081116,-0.9639453291893,-0.13988813757896,-2.60010313987732,-3.59369683265686,-1.61129772663116,-0.39522981643677,-0.15027284622192,0.3371976017952,-1.3322970867157,-0.92790430784225,-0.66523224115372,0.32321724295616,1.52989482879639,1.75494980812073,12.1409969329834,12.6749038696289,11.3149976730347,SWING_LEFT
-1.67499256134033,-2.0580050945282,-2.41352868080139,0.7182605266571,0.16519992053509,0.70150107145309,-2.01280093193054,-2.53081464767456,-3.15939497947693,0.77640974521637,0.91813045740128,1.37872290611267,-6.51701688766479,-9.27034854888916,-11.6477909088135,7.01022243499756,6.94557905197144,9.75637149810791,-4.56621789932251,-4.23818302154541,-2.93337488174438,-6.8234748840332,-13.7906017303467,-18.6675910949707,0.58520889282227,2.60472941398621,4.02193689346313,-0.0299323964864,-0.80206608772278,-0.39095374941826,-17.0778408050537,-18.7394161224365,-23.3961391448975,19.8096256256104,15.6221656799316,10.6350440979004,10.1666307449341,15.2111558914185,19.5489101409912,-28.8525238037109,-18.8040599822998,-1.36948335170746,0.13744467496872,-0.31093040108681,0.72021013498306,2.61633586883545,1.24311077594757,-0.95600408315659,-76.3391189575195,-41.6782646179199,-19.874267578125,9.70369911193848,17.9038410186768,19.9556713104248,7.75249099731445,5.53932619094849,5.53566074371338,24.9403991699219,15.6580791473389,20.5542221069336,2.41719388961792,1.30175387859344,1.06534898281097,1.04519045352936,2.42085886001587,1.72202908992767,-6.27041435241699,-3.52426481246948,-3.06697249412537,2.16196417808533,5.73171901702881,5.15950489044189,1.70920097827911,1.19546329975128,1.04030346870422,11.5328693389893,10.0987424850464,11.8872117996216,-0.53511798381805,-0.32803463935852,-0.14294247329235,0.29199358820915,0.09590584039688,-0.4111123085022,-0.59855043888092,-0.49081134796143,-0.55306059122086,9.50498104095459,9.44512557983398,8.14507389068604,SWING_LEFT
-3.18077540397644,-3.78980803489685,-4.43243837356567,1.42455005645752,-0.11013327538967,-1.27850365638733,-2.00669240951538,-2.08182883262634,-2.15452170372009,1.79594385623932,1.95782315731049,2.05372905731201,-8.62152004241943,-12.279860496521,-13.4649906158447,7.55849456787109,6.99346303939819,8.30309104919434,-4.85698938369751,-2.90160989761353,-1.07329022884369,-18.7968769073486,-18.3635272979736,-19.2709293365479,-0.9639453291893,0.23579397797585,1.70675754547119,-0.64263021945953,-1.01647973060608,-1.50028502941132,-15.9789018630981,-19.5630226135254,-26.1973552703857,16.2350826263428,16.2015628814697,10.965443611145,10.1177606582642,12.9350719451904,15.4249582290649,-12.7299699783325,-7.66144561767578,0.90261405706406,2.37565493583679,2.36282682418823,2.93642926216125,-1.0256427526474,-1.77761781215668,-2.12947630882263,-59.1559371948242,-51.0515632629395,-33.0543479919434,4.28322696685791,7.53455257415771,12.4690027236938,12.0914669036865,8.15199661254883,3.85272717475891,37.7661361694336,32.7838020324707,24.9619464874268,3.41229319572449,2.0445659160614,0.92851519584656,-1.91506254673004,0.08552113175392,1.35245561599731,-6.0597243309021,-4.37660074234009,-2.62165093421936,-4.44363832473755,-2.52348852157593,1.11569797992706,2.18628668785095,1.83748269081116,1.46363317966461,12.9813613891602,12.5743474960327,12.5887126922607,0.50213122367859,0.39400807023048,0.25045475363731,-1.28098440170288,-1.1001683473587,-1.15758967399597,0.10773907601833,0.93373864889145,0.85233581066132,5.13077402114868,4.97036266326904,3.92409658432007,SWING_LEFT
-1.32435584068298,-1.85031080245972,-2.47217154502869,1.15161097049713,1.03190088272095,0.63446342945099,-1.34817957878113,-1.91200816631317,-2.33106184005737,1.97492730617523,2.12031316757202,2.03479218482971,-1.47243404388428,-3.30160403251648,-6.85220527648926,4.35744714736938,4.50109910964966,5.09964942932129,-4.89303064346313,-4.37379503250122,-2.93520760536194,-9.21528244018555,-15.0092506408691,-19.5941467285156,-0.93462383747101,3.12579751014709,3.8557813167572,-2.56502318382263,-1.35245561599731,-0.44348818063736,-15.0738935470581,-25.0960216522217,-30.8828067779541,22.6826667785645,14.2071924209595,8.32942771911621,11.6363716125488,13.6418428421021,15.2807941436768,-8.57842445373535,-4.23294878005981,2.74614930152893,3.13740396499634,2.25592541694641,1.37689030170441,-1.57664322853088,-0.61086523532867,0.33169981837273,-47.9007949829102,-34.1987762451172,-22.5868988037109,-1.44609785079956,1.77649760246277,8.15225696563721,9.68160343170166,7.12024545669556,4.95900392532349,30.4326972961426,28.0049781799316,23.9611701965332,2.49233031272888,1.42392683029175,-0.463035851717,-0.28283059597015,0.4844161272049,0.84849184751511,-5.4061074256897,-2.88261890411377,-2.3247697353363,-0.23463176190853,0.22266076505184,7.47948598861694,0.89430671930313,0.93645644187927,1.07573366165161,6.79235029220581,6.09563732147217,6.14591598510742,-0.15088371932507,-0.14233160018921,-0.00488692196086,-1.01037108898163,-0.95966929197311,-0.93828904628754,-0.11731588095427,0.03351882472634,0.15562310814857,9.95509052276611,10.5943422317505,11.0947303771973,SWING_LEFT
-0.87475901842117,-1.54915428161621,-2.20094752311707,0.1963245421648,-1.90099620819092,-4.26167917251587,-0.22113321721554,-0.72692966461182,-1.31152772903442,0.17104226350784,-0.27183502912521,-1.07023596763611,1.47003984451294,0.1963245421648,-3.01190567016602,6.92403125762939,7.28316164016724,7.31189203262329,-3.61448955535889,-3.97978711128235,-3.76598429679871,-0.93852704763412,-4.49391651153564,-9.78510189056396,-2.14413690567017,-0.79840087890625,1.28159523010254,-0.63957589864731,-0.34941491484642,0.03970624133945,-11.9757966995239,-12.8831996917725,-16.0028438568115,21.9404640197754,25.6538715362549,28.251579284668,9.24972152709961,12.3987321853638,14.7316265106201,-6.59363126754761,1.62566292285919,9.97663879394531,3.75071263313293,4.17037725448608,6.18256711959839,3.55218148231506,2.45262384414673,-0.61269783973694,-44.5680656433105,-32.4701652526855,-25.0840511322021,17.9972133636475,17.5997772216797,4.65911674499512,9.74391174316406,8.26439571380615,4.70854949951172,27.0640563964844,33.4781227111816,34.8787307739258,3.38113903999329,2.9223792552948,1.95721220970154,2.64810085296631,1.15942227840424,0.89919364452362,-0.17477671802044,-0.6033388376236,-0.51714754104614,2.39899015426636,-1.15400516986847,-3.51947641372681,-1.3634512424469,-0.90224796533585,-0.29993483424187,7.95114374160767,4.78122091293335,4.65193367004395,-1.67865765094757,-1.83992612361908,-1.58030843734741,-0.26450464129448,-0.27183502912521,-0.27000242471695,2.09013819694519,1.9943699836731,1.53707754611969,5.90410137176514,8.85136413574219,10.704475402832,SWING_LEFT
-0.2553416788578,-0.72509706020355,-1.31946897506714,2.78924489021301,2.98796367645264,2.02788877487183,-1.49051117897034,-1.77028751373291,-2.20766711235046,0.91507613658905,1.75745928287506,2.20888876914978,3.72537779808044,2.54982471466064,0.78050976991653,7.8649525642395,6.59602546691895,5.08528423309326,-3.25346827507019,-4.08668851852417,-4.63891077041626,-1.69509482383728,-2.74854350090027,-5.27682065963745,-2.23026895523071,-1.59985601902008,-0.78068578243256,-1.84481298923492,-2.01585531234741,-2.23332333564758,-12.5671644210815,-13.7115926742554,-12.4618196487427,12.8233442306519,14.4633722305298,27.9451217651367,3.73666262626648,10.2038927078247,16.1408920288086,-45.0038108825684,-35.2761688232422,-18.9836254119873,5.43731164932251,3.35731530189514,3.42634320259094,1.8490891456604,0.57910025119781,-1.84359133243561,-75.0127334594727,-58.8877868652344,-32.3384819030762,-1.13006317615509,5.4755392074585,14.578293800354,10.9381532669067,6.88567304611206,5.02742099761963,38.4508781433105,27.4375514984131,21.272481918335,3.72933220863342,1.68476629257202,0.38179078698158,0.26572638750076,0.90408056974411,0.82466810941696,-7.80030918121338,-4.32632255554199,-0.97444009780884,-7.56088876724243,-2.67911171913147,0.89064306020737,0.42943826317787,-0.64324110746384,-1.16308736801147,16.350004196167,10.9055891036987,7.70932960510254,-1.11482906341553,-1.42331600189209,-1.554652094841,-0.2730567753315,-0.69760811328888,-0.95783668756485,0.39983168244362,0.641646027565,0.21308395266533,6.84741687774658,7.83861637115479,8.83699893951416,SWING_LEFT
-1.09711396694183,-1.81365895271301,-2.53509068489075,0.66558808088303,-0.84994161128998,-6.28717374801636,-1.29075825214386,0.879035115242,4.1160101890564,-2.61816835403442,-3.26446390151978,-2.50699090957642,-8.64785671234131,-10.2280292510986,-15.2654304504395,23.4966945648193,28.4048080444336,18.4928131103516,6.05000925064087,9.54232597351074,13.3730621337891,-20.0562267303467,-19.6970977783203,-12.7539129257202,1.31641459465027,2.82952785491943,6.40858745574951,2.31212496757507,-0.39706242084503,-3.46604943275452,-46.3613204956055,-43.9240226745605,-37.9097900390625,19.524715423584,20.9564476013184,7.60877323150635,13.1000051498413,11.6003313064575,8.80623340606689,23.9851131439209,38.6495971679688,44.5848236083984,5.11966180801392,1.879021525383,-0.94073247909546,1.04946649074554,-0.58520889282227,2.63282918930054,-9.94072532653809,-3.51708221435547,-5.99986934661865,-24.2365036010742,-15.3707752227783,-3.77086758613586,-3.58455729484558,-3.49048399925232,-2.85884928703308,3.71101260185242,-0.5434837937355,-2.65756392478943,-0.94928461313248,-0.68050390481949,-0.99754291772842,-1.18813288211823,-1.80266332626343,-1.29625606536865,-2.84910011291504,-1.46046304702759,-0.06224924325943,10.2711248397827,8.89685344696045,11.3173913955688,0.14477506279945,0.14782938361168,-0.25289821624756,6.06690692901611,8.50899314880371,9.27513694763184,0.00305432616733,-0.12095131725073,-0.27366763353348,-0.36590829491615,-0.35735616087914,-0.13805554807186,0.54827219247818,0.17956513166428,0.25139117240906,7.54412937164307,7.40047740936279,8.46350288391113,SWING_LEFT
-1.05252087116241,-1.1856894493103,-1.25166285037994,0.85951840877533,0.67277067899704,0.41898530721664,-0.76663589477539,-1.15209186077118,-1.842369556427,0.92790430784225,1.0012081861496,0.14477506279945,-2.18111777305603,-3.76607918739319,-5.35104084014893,6.61996793746948,7.10599040985107,10.0149459838867,-2.85640597343445,-2.4434609413147,-1.61329507827759,-4.18027639389038,-5.29118585586548,-5.80833339691162,-0.33964106440544,0.11728613078594,0.67378437519073,0.94134336709976,0.73426002264023,-0.38423424959183,-10.6972932815552,-11.5615997314453,-14.1521263122559,10.2088756561279,13.6134309768677,21.8111782073975,5.9137864112854,11.3431568145752,15.7175626754761,-33.1860313415527,-18.6939277648926,-0.07182604819536,6.79770851135254,5.98098182678223,6.80564975738525,-0.31337386369705,-0.46425759792328,-2.28891205787659,-58.0282669067383,-32.5659332275391,-17.0898113250732,3.61045622825623,8.53293514251709,2.9664158821106,6.80198431015015,4.29560422897339,3.8313467502594,25.5221900939941,20.1735439300537,20.4704246520996,1.75196146965027,0.21135938167572,0.8533787727356,2.39092659950256,2.71896123886108,1.30419731140137,-3.69664740562439,0.50038814544678,1.39342534542084,-6.03817653656006,6.63193893432617,6.26083755493164,0.20219638943672,-0.26878070831299,-0.39828413724899,12.11705493927,9.01656341552734,6.79713869094849,-1.07878804206848,-1.20157194137573,-0.92240649461746,0.55588740110397,0.34208452701569,0.13133603334427,0.49081134796143,0.24181437492371,0.54587799310684,5.35104084014893,8.09958457946777,8.96628570556641,SWING_LEFT
-0.129503428936,-0.26267206668854,-0.58643060922623,0.76135611534119,1.78846871852875,1.87944829463959,-0.05070181563497,-0.51801371574402,-0.90591317415237,-0.05803219974041,0.27366763353348,0.36041048169136,-0.37349545955658,-0.7972691655159,-2.17393517494202,7.66862821578979,8.03972911834717,7.92241334915161,-1.77761781215668,-2.21560835838318,-1.99203157424927,1.5442601442337,-0.26575639843941,-10.9031944274902,0.18081611394882,3.4648277759552,5.51672410964966,-0.11117747426033,-0.71715581417084,0.06047565862536,-11.4059772491455,-16.45774269104,-24.3442420959473,31.6920471191406,24.8589954376221,11.990161895752,10.6082859039307,13.7951698303223,16.685173034668,-14.336480140686,-10.1705684661865,2.74136090278625,4.23696136474609,5.54421281814575,6.63705110549927,-0.62369340658188,-1.02319931983948,-2.02257490158081,-48.4059715270996,-26.31227684021,-14.7434940338135,7.99902772903442,6.39251852035522,-1.5442601442337,5.5680365562439,3.84845113754272,3.77759075164795,27.8254127502441,17.7649765014648,14.0372047424316,-0.09834930300713,-1.26204764842987,-1.13620936870575,2.55769276618958,2.1135938167572,1.17652642726898,-3.22259545326233,-3.26808524131775,-0.56503158807755,0.17956513166428,7.12753868103027,12.2726783752441,1.06595981121063,0.56138515472412,0.13133603334427,11.4514665603638,11.0300874710083,9.90720653533936,-0.04031710699201,-0.3072652220726,-0.22907446324825,0.0500909499824,0.13805554807186,-0.08307767659426,-0.49799394607544,-0.53390699625015,-0.96007490158081,6.15549278259277,8.37012958526611,9.13627338409424,SWING_LEFT
0.27061331272125,0.14110986888409,-0.05131268128753,1.92733240127563,1.74297881126404,1.70467162132263,-0.27427849173546,-0.30909782648087,-0.45937067270279,0.26572638750076,1.05374252796173,0.92729341983795,-0.43813890218735,-1.56341373920441,-3.76607918739319,10.7715129852295,9.00459289550781,9.49061584472656,-3.02744817733765,-3.41412591934204,-2.85946011543274,-4.18267059326172,-9.2248592376709,-12.442666053772,0.32681289315224,1.72752690315247,4.40433835983276,-0.84177231788635,-1.35001218318939,-1.71653139591217,-14.8129262924194,-17.3196544647217,-27.8062591552734,18.4688720703125,26.4798717498779,18.4233818054199,10.8947820663452,14.3987045288086,16.6845626831055,-13.7451124191284,-3.71819519996643,7.05571222305298,1.25227379798889,1.7446311712265,3.44894528388977,0.95905846357346,-0.68966686725616,-2.05922675132751,-40.7684669494629,-19.9197578430176,-11.5041389465332,8.4515323638916,11.5352640151978,5.8131217956543,6.33467245101929,4.44160127639771,3.75987553596497,24.5094432830811,17.9684829711914,15.8400382995605,0.96150189638138,-0.55038958787918,-1.37994456291199,-0.13255776464939,0.29688051342964,0.20036379992962,-4.20421838760376,-2.52348852157593,-1.37427175045013,-0.61291563510895,4.45560932159424,9.63426780700684,1.26815629005432,0.34025195240974,-0.51740288734436,14.1233959197998,12.9693908691406,10.0436763763428,-0.28771752119064,-0.36468654870987,-0.35185837745667,-0.50090950727463,0.12828169763088,0.36529740691185,-1.69509482383728,-1.50355863571167,-1.40060794353485,8.48505115509033,9.08838939666748,9.68694019317627,SWING_LEFT
-0.75991636514664,-0.71349060535431,-0.76846849918365,1.41018486022949,1.91775560379028,1.99915838241577,-1.26815629005432,-1.63406455516815,-2.0946569442749,1.50517201423645,1.86436069011688,2.04639863967896,-0.76375031471252,-1.83156430721283,-3.65115761756897,7.22809505462646,6.51222848892212,5.84903478622437,-2.7947084903717,-3.78247761726379,-4.45198583602905,2.99754047393799,0.22026655077934,-10.2040872573853,-2.62000107765198,-0.78862702846527,2.22171688079834,-2.28952288627625,-2.80936932563782,-1.56320416927338,-13.9677724838257,-15.8065195083618,-23.1519298553467,25.4886703491211,30.2890453338623,22.728157043457,7.0194525718689,10.605842590332,14.016303062439,-18.1288948059082,-13.7786312103271,-5.41329002380371,5.29803419113159,4.11478805541992,3.86005759239197,1.111163854599,1.34879040718079,0.72937309741974,-58.3921852111816,-44.9295883178711,-27.5907802581787,3.79720377922058,7.0126166343689,13.0148801803589,9.27415657043457,4.66823244094849,3.97612190246582,34.9146423339844,23.2764282226563,20.3315601348877,2.26630997657776,0.5711590051651,-0.42821654677391,1.51738929748535,1.94071888923645,1.59802353382111,-3.94325017929077,-2.4899697303772,-0.85951840877533,-4.86741209030151,0.16041150689125,3.77805018424988,1.30541908740997,0.08552113175392,-0.56321775913239,18.1384716033936,12.8999586105347,8.59757804870605,-0.657290995121,-0.39950588345528,-0.25045475363731,-0.64018678665161,-0.63957589864731,-0.50457471609116,-0.2777273952961,-0.75417351722717,-0.57221418619156,10.9486846923828,10.3525285720825,10.0843772888184,SWING_LEFT
-2.59495544433594,-3.47215795516968,-4.06714057922363,-0.50038814544678,-2.72460150718689,-5.41329002380371,0.27122417092323,0.60781091451645,0.87964594364166,-3.29439616203308,-3.84906196594238,-3.51552939414978,-6.67503452301025,-8.04212379455566,-7.77157878875732,14.1521263122559,14.5663232803345,15.1193838119507,-2.05189633369446,-1.04763388633728,0.17409659922123,-5.45399141311646,-6.77559089660645,-7.98226833343506,1.79655468463898,1.90101265907288,2.5369234085083,1.28709304332733,1.34695792198181,1.53999125957489,-10.936713218689,-12.2774667739868,-16.8312377929688,11.5137157440186,14.9685487747192,17.5997772216797,9.32363605499268,14.103045463562,18.6979751586914,-20.592529296875,-14.5806884765625,5.68383502960205,2.07633090019226,2.17712378501892,3.99872398376465,4.03537559509277,2.86495804786682,-1.05374252796173,-64.51416015625,-36.0351295471191,-24.6483058929443,16.7618064880371,22.5653514862061,17.3196544647217,8.02310371398926,5.72014236450195,4.63646697998047,25.8334369659424,21.1264362335205,21.3131828308105,4.16671180725098,2.46606302261353,-0.32070425152779,-0.14782938361168,0.02809980139136,-0.08552113175392,-5.17626428604126,-3.18428826332092,-1.05105459690094,-5.12119722366333,-4.90811347961426,0.29927521944046,-0.60475659370422,-0.58643060922623,-0.70860368013382,9.70369911193848,9.36611747741699,6.52898788452148,-1.44836151599884,-1.4611896276474,-1.17530477046967,0.30787608027458,0.3720169365406,-0.14110986888409,-1.35272395610809,-1.35032975673676,-1.40539634227753,8.58560752868652,11.034875869751,11.8680582046509,SWING_LEFT
-0.85460048913956,-1.03175139427185,-1.33046448230743,2.56179571151733,2.94965648651123,2.63841032981873,-0.55649822950363,-0.64568454027176,-1.07390105724335,0.62247169017792,1.15209186077118,1.91384077072144,-0.49799394607544,-0.37588965892792,-1.07260239124298,8.82742214202881,7.75242519378662,7.28795003890991,-3.70001077651978,-3.77697992324829,-3.61937665939331,-3.01669406890869,-5.0876784324646,-6.20098257064819,-1.63406455516815,0.44409903883934,3.07143044471741,0.08857546001673,-2.52409529685974,-2.52165174484253,-12.3684463500977,-15.7107515335083,-21.3347320556641,10.7020816802979,24.4711360931396,22.6850605010986,8.5783805847168,12.0658102035522,14.6467161178589,-21.3921928405762,-13.2758483886719,-3.17231726646423,3.58028125762939,3.46910381317139,4.3792929649353,0.08979719132185,-0.66095620393753,-2.00302720069885,-49.8209419250488,-43.9934577941895,-31.6681060791016,6.99585723876953,11.1665563583374,10.3884410858154,10.7200746536255,8.1910924911499,6.09215927124023,30.2938346862793,30.3010158538818,28.014554977417,4.75741863250732,3.25102472305298,1.86985850334167,-0.0274889357388,1.18263506889343,1.60535383224487,-7.88171195983887,-4.52982950210571,-3.20583605766296,-5.93762016296387,-4.41251373291016,-1.78607451915741,1.23272609710693,0.85826569795609,0.58459806442261,11.7220115661621,10.2352123260498,9.69412231445312,-0.58887410163879,-0.41783183813095,-0.34330627322197,-0.56199604272842,-0.74586647748947,-0.78251838684082,-0.41659110784531,-0.02873042039573,0.37349545955658,8.39885997772217,8.20492935180664,7.82903957366943,SWING_LEFT
-1.06534898281097,-1.26326930522919,-1.28403878211975,3.31836366653442,2.47560453414917,1.97521638870239,-0.8961393237114,-1.0567969083786,-0.88697636127472,0.1148426681757,0.77457714080811,0.93034774065018,-0.58897364139557,-2.02788877487183,-1.63284552097321,9.2440128326416,10.951078414917,10.8960123062134,-1.38238799571991,-1.3335188627243,-1.23761296272278,-0.66319388151169,-1.17076468467712,-2.67671751976013,-0.48075094819069,-0.675616979599,-1.29320168495178,1.28526043891907,1.0500773191452,0.29626965522766,-1.32878196239471,-2.00394678115845,-7.58483076095581,7.18260526657104,6.60081386566162,8.37970638275146,-2.33350515365601,-0.75197511911392,4.14410972595215,-17.0515041351318,-38.1587867736816,-43.6893920898438,6.32367706298828,5.26932382583618,4.50818538665771,0.40866884589195,2.01524448394775,0.38301250338554,-61.3035354614258,-56.1679725646973,-41.1180191040039,9.09796619415283,9.5408935546875,11.473014831543,15.1476259231567,11.1757793426514,8.50507640838623,34.517204284668,30.5667724609375,36.8108520507813,5.65600109100342,4.03171062469482,2.10626339912415,0.24801129102707,1.76295709609985,1.47768306732178,-1.61129772663116,-2.34152936935425,-1.38384854793549,-8.86812305450439,-9.52652835845947,-11.2000751495361,-1.90589952468872,-2.09587860107422,-1.79166781902313,8.37731170654297,3.32554626464844,2.79642748832703,-4.57049369812012,0.25411993265152,-0.23518311977386,0.38117989897728,-1.1545352935791,-0.36163222789764,0.5746083855629,0.94092124700546,1.91296720504761,24.447193145752,7.0820484161377,10.6087074279785,SWING_LEFT
-1.39032924175262,-1.76601147651672,-2.05067467689514,-1.37427175045013,-1.98718738555908,-2.07577276229858,0.24740041792393,0.07208210229874,-0.20280726253986,1.6157386302948,2.22110605239868,2.20644521713257,-5.05176544189453,-7.07965421676636,-8.83221054077148,7.75003099441528,6.43800830841064,6.27999114990234,-4.1471643447876,-3.71894764900208,-2.42818927764893,-11.3652753829956,-15.6892032623291,-16.0124206542969,-0.07147123664618,0.19058994948864,0.20341812074184,-1.24983024597168,-1.00548422336578,-0.71593403816223,-8.00381660461426,-8.33182144165039,-16.4912605285645,8.96149730682373,8.2312650680542,9.82819843292236,8.31021118164063,12.5771045684814,15.6179914474487,-18.9884128570557,-16.350004196167,-10.7356004714966,-0.50213122367859,0.68172562122345,2.80753660202026,-0.85887652635574,-1.89918005466461,-3.93885898590088,-48.0995140075684,-28.0361022949219,-19.8503265380859,13.6062479019165,18.4473247528076,13.9988975524902,6.44340658187866,5.63278865814209,3.90403985977173,23.8390655517578,28.2467918395996,33.2051849365234,2.51432132720947,0.97738438844681,-0.6450737118721,-0.731205701828,-0.10995574295521,0.48930305242538,-2.03507137298584,-0.42616790533066,-0.22026655077934,-5.11162042617798,-3.83551120758057,1.28329205513,-1.45324838161469,-0.99754291772842,-0.40317106246948,3.59848523139954,1.05584299564362,1.59693253040314,-1.23516952991486,-0.79045963287354,-0.27794370055199,-0.59620445966721,-0.5894849896431,-0.36590829491615,-0.19393034279346,0.77572137117386,1.50116443634033,12.2008514404297,12.5743474960327,11.925518989563,SWING_LEFT
-0.16493362188339,-0.16187928617001,-0.40317106246948,0.1963245421648,0.7972691655159,1.19231247901917,-0.48258355259895,-0.59376102685928,-0.59070670604706,0.05864306539297,-0.45509460568428,-0.62552601099014,-0.06943184882402,-0.38067805767059,-3.05739545822144,9.62947940826416,10.2711248397827,11.113883972168,-3.51491856575012,-3.84967279434204,-3.18382954597473,-3.86184740066528,-8.14986228942871,-11.5711765289307,-0.85765480995178,-1.32557761669159,-1.8112154006958,-0.00916297826916,0.34208452701569,0.67744958400726,-12.1481790542603,-14.4226713180542,-16.704345703125,9.3852710723877,9.72524738311768,14.7147636413574,4.57232618331909,7.88627052307129,12.2374629974365,-21.2437515258789,-25.3785381317139,-18.452112197876,4.38784503936768,5.40371417999268,4.90402603149414,-1.3445143699646,0.75075340270996,-0.064751714468,-62.5676727294922,-40.0693588256836,-19.8958168029785,10.4435081481934,7.81467437744141,8.50659847259521,8.39756488800049,7.02128505706787,5.32002544403076,26.2500267028809,27.8709011077881,35.101390838623,2.01646614074707,0.42332962155342,-0.30360001325607,0.30665436387062,0.4331034719944,0.09651670604944,-1.05584299564362,-0.7781155705452,0.13886369764805,-5.15471649169922,-1.40060794353485,5.08049583435059,0.06902777403593,0.58276546001434,0.68172562122345,3.49314022064209,2.89219570159912,4.03662395477295,-0.89430671930313,-0.61514127254486,-0.2229658216238,-1.25288462638855,-1.47157442569733,-1.24127817153931,2.11647439002991,1.83156430721283,1.47961664199829,10.5704002380371,10.7834844589233,10.0293111801147,SWING_LEFT
-0.96638882160187,-0.75136423110962,-0.39400807023048,-3.18668246269226,-4.27365016937256,-3.62721562385559,0.07757988572121,0.01893682219088,0.02138028293848,0.24678955972195,0.34819319844246,0.36468654870987,-0.95049810409546,-1.17076468467712,-1.44370365142822,9.66299819946289,9.80425548553467,9.79467868804932,-0.01649336144328,-0.40378192067146,-1.14964842796326,-2.9855694770813,-1.52271223068237,-1.47003984451294,-1.0134254693985,-1.15514612197876,0.24373523890972,1.23333692550659,1.25532805919647,-0.8600982427597,-10.0508584976196,-10.7547540664673,-12.3732347488403,9.22964763641357,18.6699848175049,22.2541046142578,4.80323362350464,8.95406246185303,12.9491214752197,-28.3210124969482,-22.1152420043945,-8.05170059204102,3.90281796455383,2.77393913269043,3.28401160240173,0.77335542440414,1.09711396694183,-0.46609017252922,-40.191463470459,-31.8213348388672,-24.9739170074463,3.89776039123535,13.4889326095581,14.3484506607056,11.3883609771729,8.82089424133301,5.81849145889282,31.3185520172119,33.9617500305176,25.0385608673096,3.09953022003174,1.16064393520355,0.2730567753315,0.92057394981384,1.40743350982666,1.07206845283508,-4.7907977104187,-3.16752886772156,-0.67516487836838,-4.7213659286499,0.94810384511948,4.53701210021973,1.98225772380829,0.95661497116089,0.24129177629948,16.1919860839844,12.3875999450684,10.321403503418,-0.21807889640331,-0.49907690286636,-0.68661254644394,0.14599679410458,0.31398472189903,0.07330382615328,2.72460150718689,1.90578460693359,1.78607451915741,5.49948120117188,6.3470287322998,7.12514448165894,SWING_LEFT
0.40622538328171,-0.04703662544489,-0.37812557816505,3.06697249412537,3.20104765892029,4.065354347229,0.15943582355976,-0.43493604660034,-0.91263270378113,0.77885317802429,1.37627935409546,1.77089834213257,0.00239420169964,-0.68713587522507,-2.67671751976013,5.79157400131226,6.03578233718872,5.52581739425659,-3.68046307563782,-4.37013006210327,-4.27666759490967,-0.89782565832138,-5.06613063812256,-9.88326454162598,-2.07938528060913,-0.26694810390472,2.75316977500916,-2.02196407318115,-2.41047430038452,-2.29807496070862,-13.9294652938843,-13.3380975723267,-20.9851779937744,19.0722103118896,29.431921005249,29.8221759796143,10.5239868164063,14.2875270843506,16.4487686157227,-23.8366718292236,-7.95832633972168,1.87944829463959,6.22716045379639,6.08238506317139,5.60835361480713,0.41050145030022,-0.34269541501999,-1.46241140365601,-62.1654472351074,-41.8721923828125,-25.1510887145996,5.00866985321045,2.45645093917847,-0.40462008118629,8.83922004699707,7.22897911071777,5.73113775253296,26.099193572998,24.7751998901367,26.2356624603271,2.48988676071167,1.41476392745972,0.15210545063019,-0.00549778714776,-0.15027284622192,-0.0500909499824,-4.14675712585449,-4.17548799514771,-3.08373188972473,-3.04542446136475,-2.95683908462524,-1.29765737056732,1.2156218290329,1.02319931983948,0.78801614046097,10.6158905029297,10.3142213821411,11.4945621490479,-0.18936823308468,0.31093040108681,0.23518311977386,-0.58093285560608,-0.75564032793045,-0.45326200127602,-0.94810384511948,-0.24899697303772,0.44053310155869,10.2328176498413,7.3190746307373,6.42124891281128,SWING_LEFT
-1.10261178016663,-0.7367035150528,-0.46792277693748,-4.54419469833374,-4.07493114471436,-2.63362193107605,-0.2553416788578,0.14782938361168,0.88025683164597,-0.85154616832733,-1.5234979391098,-1.63039934635162,-7.47948598861694,-5.94240856170654,-6.11718511581421,12.9550256729126,14.853627204895,14.415488243103,0.28710666298866,0.4202753007412,0.25595253705978,-1.27610945701599,0.66798228025436,-1.11569797992706,2.24920582771301,2.34450078010559,2.84907555580139,-0.20036379992962,0.44104471802711,1.41842913627625,-11.8441162109375,-12.7299699783325,-18.6412544250488,9.99339771270752,14.0036859512329,17.93017578125,9.64556217193604,14.5013303756714,18.8543548583984,-23.6140117645264,-17.2047328948975,-2.09971499443054,2.88511657714844,2.81425619125366,2.75744581222534,1.48684597015381,1.57603228092194,-0.17409659922123,-67.7247848510742,-28.8573131561279,-13.6349782943726,8.16183376312256,12.1793041229248,15.1361427307129,6.35360956192017,4.2271876335144,3.75498867034912,25.874137878418,17.7027282714844,17.3747215270996,2.88145136833191,0.66889744997025,-0.45631635189056,-0.5589417219162,0.10201449692249,0.80023348331451,-4.99669885635376,2.87543630599976,0.58418524265289,-11.7076463699341,-3.9073371887207,5.67904663085938,-0.68600165843964,-0.62980204820633,-0.56993728876114,6.72052431106567,3.90015459060669,1.40060794353485,-1.35306656360626,-0.99632120132446,-0.56505036354065,-0.53878313302994,-1.07512283325195,-1.28953647613525,0.69910687208176,0.83797061443329,1.29526317119598,11.1833162307739,10.886435508728,10.6470146179199,SWING_LEFT
0.31154128909111,0.1600466966629,-0.01649336144328,1.20428347587585,0.90740245580673,0.69910687208176,-0.26206117868423,-0.34391713142395,-0.42088615894318,0.31459560990334,0.34758231043816,0.47403141856194,0.95049810409546,0.95049810409546,0.3208230137825,10.1609916687012,10.074800491333,9.47864437103272,-1.36222946643829,-2.49843883514404,-3.43550610542297,0.01915361359715,-5.26245546340942,-20.5901336669922,2.35244202613831,4.06103229522705,4.84355068206787,-3.12213230133057,-4.63891077041626,-3.10197377204895,-11.6956748962402,-14.2598657608032,-18.4377479553223,20.8822269439697,16.3069076538086,12.1002950668335,6.878342628479,10.387152671814,13.5917520523071,-19.8622970581055,-14.8847522735596,-3.14598107337952,2.91810321807861,5.0946159362793,7.20882081985474,1.17041778564453,-1.0812314748764,-2.40619826316834,-41.4436302185059,-34.6656455993652,-30.2196140289307,19.2541694641113,10.0987424850464,-1.9632453918457,9.86364078521728,8.60403728485107,7.38474988937378,23.7552700042725,24.1120052337646,25.5269794464111,2.1978931427002,0.76297068595886,-0.9083566069603,-0.9822713136673,-0.98532563447952,1.08306407928467,-12.6533555984497,-4.96557426452637,0.54108959436417,-4.51307010650635,-9.12430286407471,-1.37427175045013,-0.7189884185791,-1.8912388086319,-2.57540798187256,16.5056266784668,11.7866554260254,6.71334171295166,-0.06230825558305,-0.26328292489052,-0.20830504596233,0.18264870345592,0.0299323964864,-0.21502456068993,-2.10450339317322,-0.36631286144257,0.64404028654099,7.52976417541504,8.95192050933838,9.83059215545654,SWING_LEFT
-0.40133845806122,-0.77030110359192,-1.40193569660187,0.94092124700546,1.24977326393127,1.72621941566467,-1.17286121845245,-1.47279608249664,-1.79960906505585,2.09282422065735,2.5680775642395,2.54791903495789,-1.944091796875,-5.48511600494385,-10.8002443313599,6.77559089660645,5.1379566192627,3.37582445144653,-6.34750080108643,-6.86612558364868,-5.32307958602905,0.01436521019787,-9.29429054260254,-21.6531600952148,-0.88819807767868,1.10322260856628,3.14106917381287,-2.83685827255249,-2.70491123199463,-1.30480813980103,-12.0859298706055,-15.0092506408691,-21.301212310791,21.5549983978271,22.5222549438477,18.5813999176025,10.1122636795044,13.6094665527344,16.6527976989746,-15.567099571228,-11.0755767822266,-4.55855989456177,3.46971464157104,3.68718266487122,3.63648080825806,-1.86802589893341,-1.54548907279968,-0.9822713136673,-63.0225715637207,-46.8186149597168,-24.1335525512695,3.80199241638184,5.38455963134766,8.86572933197021,9.22223281860352,5.77450895309448,4.85576772689819,30.2698917388916,16.4936561584473,16.4768962860107,4.54911327362061,3.12885189056396,1.81854581832886,-2.74095225334167,-0.47403141856194,1.30908417701721,-6.55292987823486,-3.66312861442566,-4.00549936294556,-4.75727891921997,-3.84987640380859,-5.12119722366333,0.15821409225464,-0.9523389339447,-0.90041536092758,19.8120193481445,11.9662199020386,7.2616138458252,-0.86681777238846,-0.731205701828,-0.91935217380524,0.064751714468,0.51801371574402,1.15636789798737,0.43335050344467,-0.97922849655151,0.06224924325943,7.57285976409912,6.13633918762207,7.68538761138916,SWING_LEFT
-0.19792033731937,-0.2767219543457,-0.50152039527893,1.20907187461853,1.41497325897217,1.62566292285919,-0.91263270378113,-1.14781582355499,-1.22906088829041,1.24188899993896,1.52288711071014,1.95965576171875,-0.98401689529419,-1.67354702949524,-3.80678081512451,8.33661079406738,8.37491798400879,6.76840829849243,-3.52530336380005,-5.50023078918457,-6.65354442596436,4.97036266326904,0.75417351722717,-10.5225162506104,-0.50518554449081,3.13618206977844,5.40737915039063,-3.72016930580139,-4.74520111083984,-2.83685827255249,-14.4944972991943,-19.1584014892578,-25.8214645385742,30.8109817504883,20.1735439300537,9.18894577026367,10.229549407959,13.5593757629395,16.5770492553711,-16.1680431365967,-10.9965686798096,1.60890352725983,2.79959535598755,2.59984254837036,3.3212742805481,0.00488692196086,-0.16187928617001,-1.61451685428619,-54.2574005126953,-35.534740447998,-22.3187484741211,6.21534776687622,11.7124347686768,12.1601505279541,9.16847610473633,6.58573818206787,5.1257700920105,25.5557098388672,19.2278347015381,15.9836902618408,5.0634617805481,3.38052821159363,1.10261178016663,-1.16736352443695,-0.06230825558305,-0.9217956662178,-8.37491798400879,-9.78510189056396,-0.66319388151169,-6.52180528640747,-13.1298017501831,-7.82425117492676,-1.55831718444824,-0.9645562171936,-0.08368854224682,9.27034854888916,7.48666858673096,6.48828649520874,-0.67011916637421,-1.53266084194183,-2.09282422065735,1.34023833274841,1.02991878986359,0.39034289121628,-0.77093297243118,0.1268926858902,1.13245737552643,4.27365016937256,6.7348895072937,10.8529167175293,SWING_LEFT
0.1069014146924,-0.11972958594561,-0.35308012366295,0.58897364139557,0.66798228025436,-0.64643448591232,0.13133603334427,0.04092797264457,-0.23823744058609,-0.00305432616733,0.41599923372269,0.26939156651497,-0.06703764945269,-2.27927994728088,-7.47469758987427,10.6925048828125,10.2208471298218,10.1921167373657,-3.67801952362061,-2.95780944824219,-1.82282185554504,-7.49385118484497,-13.6349782943726,-16.8719387054443,-0.48014008998871,0.45081853866577,1.8600846529007,-0.64079761505127,-1.55281949043274,-2.05617237091064,-12.3253507614136,-14.9900970458984,-21.6028823852539,15.193603515625,17.2071285247803,18.205509185791,9.15564823150635,12.4115600585938,14.9191617965698,-14.6405429840088,-4.30238056182861,5.76044940948486,6.08055257797241,5.86430644989014,5.67127275466919,1.1844676733017,1.46180057525635,0.15454891324043,-53.7450408935547,-35.8172569274902,-20.3507137298584,8.99262142181396,8.61433792114258,5.32709884643555,7.40429782867432,5.36461877822876,4.88997650146484,30.4039669036865,19.6563968658447,16.2997245788574,1.97004044055939,0.36896261572838,-0.03665191307664,-1.50395023822784,-0.29260444641113,-0.26878070831299,-5.56173038482666,12.1601505279541,2.53067111968994,-13.6445550918579,-3.41892004013062,-1.49158763885498,0.21319197118282,0.51740288734436,0.67317348718643,8.78672027587891,5.98789834976196,4.69742393493652,-1.30480813980103,-0.59559363126755,0.08796459436417,1.01647973060608,-0.12156218290329,-0.92912602424622,-0.01197100803256,0.69192427396774,1.27850365638733,13.3117618560791,13.0795240402222,11.3676700592041,SWING_LEFT
0.40439277887344,0.3158173263073,0.10262536257505,0.08140286058187,0.69671267271042,0.80684596300125,-0.02321287989616,-0.08307767659426,-0.48747047781944,-0.2638937830925,0.0177150927484,0.61208695173264,-0.75656771659851,-1.03668928146362,-2.42772054672241,9.62708473205566,8.89206504821777,9.03092861175537,-1.87657809257507,-2.43368721008301,-3.4012975692749,-0.66319388151169,-0.44771572947502,-5.46835660934448,-0.76235979795456,-0.62308257818222,1.38422060012817,1.20706975460052,-0.88453286886215,-2.5613579750061,-15.9501714706421,-18.969259262085,-22.4911308288574,12.3014087677002,23.6187992095947,28.476634979248,5.56070613861084,10.8801212310791,15.1091413497925,-37.847541809082,-23.0106716156006,-7.69735860824585,4.7592511177063,3.73299741744995,3.67068934440613,0.50640726089478,-1.22478485107422,-2.5124888420105,-58.5286560058594,-42.6167907714844,-26.2476329803467,-0.71347212791443,-0.1268926858902,1.48919343948364,9.68343544006348,6.45867824554443,4.53017663955688,34.4238319396973,27.1670074462891,19.7497692108154,4.2412371635437,3.26873993873596,2.082439661026,-0.2981022298336,0.4239404797554,0.65790188312531,-9.64384460449219,-8.06606578826904,-6.28477954864502,-5.89452457427979,-5.57609558105469,-2.26730895042419,3.99444794654846,3.2302553653717,1.83503913879395,20.5566158294678,22.0889053344727,22.7401275634766,0.50823986530304,0.02382374368608,-0.44776421785355,-0.32681289315224,0.26572638750076,0.47342056035995,1.35751235485077,0.6033388376236,-0.58897364139557,1.98000478744507,2.90895509719849,3.09809708595276,SWING_LEFT
-4.07508182525635,-4.6315803527832,-4.88447856903076,-0.52193599939346,-4.24731397628784,-4.82671070098877,-2.68169832229614,-2.28769040107727,-0.7177666425705,2.65848565101624,3.00301361083984,3.63403725624084,-11.856086730957,-13.2016277313232,-11.1593742370605,14.2263469696045,18.013973236084,9.53131675720215,-2.09404611587524,-1.20279371738434,-0.65484756231308,-14.8153200149536,-12.9262952804565,-25.0553207397461,-1.85031080245972,-0.55161130428314,0.69516462087631,-1.91933858394623,-1.98531210422516,0.32620203495026,-20.7696990966797,-31.184476852417,-43.720516204834,17.9684829711914,15.7490587234497,11.6860980987549,15.0914258956909,16.8556041717529,16.9600620269775,3.50750541687012,12.2343702316284,16.1441020965576,1.79105687141418,3.54729437828064,4.41227960586548,-3.66946744918823,-1.51861095428467,-0.28710666298866,-47.6996803283691,-30.0089244842529,-18.5526695251465,9.52652835845947,10.7379941940308,5.32231044769287,5.73907899856567,4.30660009384155,3.22353601455688,29.2619323730469,24.6650657653809,20.1232662200928,1.36222946643829,0.72387534379959,1.07329022884369,1.14842665195465,1.43980944156647,1.59741258621216,-7.18021106719971,1.13485157489777,2.14281058311462,0.62009823322296,6.20577096939087,5.34385824203491,-0.84543752670288,-0.51984632015228,-0.07086037099361,7.18260526657104,3.94085597991943,4.49631071090698,-1.34940135478973,-1.09344875812531,-0.64934974908829,-0.06352998316288,-0.37018433213234,-0.54367005825043,1.07499659061432,1.70467162132263,1.34314715862274,9.93114852905273,11.0659999847412,11.2048635482788,SWING_LEFT
-0.8228355050087,-1.13987457752228,-1.63650798797607,1.51074123382568,1.41018486022949,0.40701428055763,-1.68965327739716,-1.60596477985382,-1.30908417701721,1.85641944408417,1.32924282550812,1.14903748035431,1.8866308927536,0.4955997467041,-1.01992988586426,10.2328176498413,10.9055891036987,9.74918937683106,-3.25285744667053,-3.64075684547424,-4.3792929649353,-2.45166254043579,-3.07415509223938,-3.16752886772156,-0.72326445579529,0.3500257730484,0.56077426671982,-0.54794609546661,-1.57603228092194,-2.63710522651672,-17.1185417175293,-18.7130813598633,-18.1672019958496,16.6444892883301,15.7730007171631,18.1576251983643,1.49723076820374,9.42076396942139,13.2392826080322,-28.6418342590332,-20.5207023620605,-7.17542266845703,4.08119058609009,3.28584408760071,3.45994067192078,0.65057146549225,0.8472700715065,1.48501336574554,-57.2716979980469,-44.1538696289063,-34.1508941650391,5.48032760620117,9.5815954208374,12.0308637619019,10.9515924453735,9.22956275939941,7.63703727722168,25.6658420562744,26.2955169677734,28.807035446167,4.27361345291138,3.19299268722534,-0.38912117481232,-0.18997909128666,1.44408547878265,-0.97188657522202,-10.5584297180176,-8.95910263061523,0.06224924325943,-2.77248549461365,-1.29047477245331,-2.53545951843262,-0.91874134540558,-0.18387043476105,-0.0372627787292,9.09796619415283,11.5999069213867,10.2830963134766,-0.65240406990051,-0.1795943826437,0.16554448008537,1.30664074420929,0.59620445966721,-0.06108652427793,-0.47405192255974,-0.40701428055763,1.12048637866974,9.81862163543701,8.89924812316895,7.58722496032715,SWING_LEFT
-3.35303926467896,-2.93948364257813,-2.44101762771606,-4.39814853668213,-4.89374828338623,-4.31674575805664,-0.69333207607269,-0.69272118806839,-0.63468897342682,0.58032196760178,0.7611380815506,1.22722828388214,-8.97346782684326,-10.2950668334961,-11.7818670272827,11.2934494018555,11.2431707382202,11.0013570785522,-0.62002819776535,0.35979962348938,1.41659653186798,-9.65342140197754,-10.060435295105,-10.6470146179199,0.94928461313248,1.47585046291351,1.82098925113678,-0.49296826124191,-0.50335294008255,0.06841690838337,-18.1336841583252,-21.2150211334229,-28.4191741943359,12.8568630218506,13.2327527999878,13.6661033630371,12.5086879730225,16.11279296875,19.5037059783936,-15.2534589767456,-11.8034143447876,-3.77086758613586,2.65298771858215,3.44772338867188,2.79959535598755,-1.08428585529327,-1.25654983520508,1.18263506889343,-78.4436264038086,-60.4033164978027,-32.1182174682617,6.26802015304565,2.07098436355591,11.6813097000122,10.1110410690308,8.63824558258057,7.80502510070801,27.7487983703613,24.7057666778564,29.6881008148193,3.88876819610596,2.66642689704895,1.84114789962769,-0.4978551864624,0.56382864713669,0.75258600711823,-9.99579238891602,-7.64468622207642,-7.07726001739502,-2.29603934288025,-0.37828385829926,2.34631776809692,2.18506503105164,-0.62980204820633,-1.08795094490051,36.4996032714844,17.8439846038818,8.68616390228271,0.05803219974041,-0.24129177629948,-0.48685958981514,0.32192599773407,0.64201939105988,0.32436943054199,-0.70868372917175,-0.37588965892792,0.34955343604088,4.59926128387451,6.81629228591919,7.508216381073,SWING_LEFT
-0.03481931984425,0.07819075137377,0.02321287989616,-1.25935006141663,-0.13168109953403,0.80205756425858,-1.76356792449951,-1.83931529521942,-1.35550999641418,0.76358157396317,0.68355822563171,0.77824234962463,-1.27371525764465,-3.46680402755737,-4.65672206878662,11.1354322433472,13.3285207748413,13.2135992050171,-0.58520889282227,-0.35369098186493,-0.37934732437134,-3.90494298934936,-2.91853189468384,-5.03261184692383,-1.27059972286224,-1.03236222267151,0.18264870345592,-0.3371976017952,-0.15882496535778,0.07391469180584,-15.5120325088501,-19.795259475708,-28.2036952972412,12.830527305603,19.4959850311279,28.6992950439453,8.0597562789917,13.9802618026733,18.7095813751221,-33.3847503662109,-15.1385374069214,9.0476884841919,6.27114248275757,3.67496538162231,2.89061427116394,-0.18692477047443,1.2046263217926,1.04641211032867,-69.1421508789063,-35.2929267883301,-23.851037979126,-6.0405707359314,9.33259868621826,17.6380844116211,8.96933460235596,8.24423694610596,6.44340658187866,30.7870388031006,37.6057243347168,36.7102928161621,4.120285987854,1.8735237121582,0.01466076634824,1.46729826927185,2.5925121307373,1.79777646064758,-6.21774196624756,-3.82354021072388,-3.82114601135254,-11.128249168396,-6.12197351455688,-0.46447512507439,-0.84299403429031,-0.39828413724899,0.08124507963657,15.3372564315796,10.4435081481934,8.55448246002197,-0.26206117868423,-0.71654492616653,-0.78374010324478,-0.91568702459335,-1.30480813980103,-0.96516710519791,0.90500825643539,1.04626619815826,1.3718775510788,6.85938787460327,8.25999546051025,9.98621559143066,SWING_LEFT
-2.21927332878113,-2.72323727607727,-3.12335395812988,-0.37110126018524,-0.91937345266342,-1.30723416805267,-2.88939261436462,-3.05493712425232,-2.44223928451538,1.34573614597321,0.19669860601425,-0.67134088277817,-6.94079065322876,-9.51934623718262,-12.4498491287231,8.55687713623047,13.0268516540527,16.1800155639648,-4.07386016845703,-3.82462739944458,-2.53814506530762,-5.44920301437378,-12.3253507614136,-15.5862531661987,2.92970967292786,4.50207662582397,6.06344842910767,-2.52043008804321,-0.83932882547379,-0.02138028293848,-19.0315093994141,-21.5119018554688,-26.965892791748,22.0793285369873,20.6523838043213,10.0580415725708,9.8709716796875,12.9216327667236,15.5856161117554,-11.3652753829956,-6.10521411895752,4.23773717880249,2.89977741241455,4.13189268112183,4.67739534378052,0.51740288734436,-0.97738438844681,-1.19851756095886,-49.5839157104492,-39.1021003723145,-29.9610404968262,12.4378776550293,7.49145698547363,5.29358005523682,10.4635105133057,9.12815952301025,7.77753639221191,24.7656230926514,26.2356624603271,26.3721313476563,4.10623598098755,3.98406314849854,3.63464832305908,0.58643060922623,0.46670106053352,0.42455133795738,-11.034875869751,-8.39646530151367,-5.95677375793457,4.67348194122314,2.46363353729248,0.17956513166428,2.54303193092346,1.87657809257507,1.65361225605011,15.921441078186,12.8041906356812,11.8728466033936,0.09957103431225,-0.20952677726746,-0.40439277887344,0.02199114859104,-0.47464230656624,-0.69149947166443,-1.11330378055573,-0.19153612852097,0.10295066982508,3.42131423950195,4.08211374282837,3.67509961128235,SWING_LEFT
-1.43003559112549,-2.082439661026,-2.38298535346985,-1.03908348083496,-3.52905321121216,-5.42765522003174,-0.86315256357193,-1.08245325088501,-1.61757111549377,1.74157679080963,1.61207342147827,0.52473324537277,-1.05344879627228,-3.96958637237549,-7.41244840621948,7.35259342193604,7.61116743087768,13.3859815597534,-3.9180896282196,-3.85211634635925,-3.33776760101318,-8.94952583312988,-11.2982378005981,-14.9254531860352,0.79840087890625,0.63774329423904,1.39582705497742,-1.45141577720642,-1.63650798797607,-0.65545839071274,-14.4873142242432,-17.2358589172363,-24.1862258911133,12.3133792877197,16.9988327026367,17.1041774749756,9.51605892181396,14.0010318756104,16.3082695007324,-21.3155784606934,-4.96557426452637,8.13549709320068,0.2315179258585,0.92668259143829,2.38542866706848,0.68966686725616,0.57726764678955,1.65849912166595,-50.2542953491211,-37.3160285949707,-27.9116039276123,14.3915462493896,19.3690910339355,18.3802871704102,10.8373603820801,8.58448886871338,6.4495153427124,32.1972236633301,31.7830276489258,29.6090927124023,4.16732263565063,3.42206716537476,2.63893795013428,0.62796944379807,1.97553825378418,2.40558743476868,-4.05098915100098,-2.50194072723389,-1.20428347587585,1.67833542823792,0.94092124700546,1.13485157489777,1.85580861568451,2.03601384162903,2.04823112487793,10.2567596435547,9.09557247161865,8.83460426330566,-0.88270026445389,-1.11543989181519,-0.90591317415237,-0.60781091451645,-0.81855940818787,-0.84116142988205,1.47722244262695,2.25294375419617,2.87543630599976,6.02381134033203,8.28154373168945,9.28950214385986,SWING_LEFT
-2.59617733955383,-3.00118088722229,-3.32310700416565,-0.38307225704193,-1.56580793857574,-3.71580100059509,-1.94743835926056,-1.59741258621216,-1.4556919336319,2.51371049880981,2.4123067855835,2.57052087783813,-2.44447994232178,-2.38941335678101,-6.4667387008667,10.3980178833008,9.53849983215332,6.10042572021484,-3.28217887878418,-2.6768114566803,-1.70797920227051,-12.4450607299805,-12.9669961929321,-12.9717845916748,-2.0567831993103,-0.89430671930313,0.81061816215515,-1.59008228778839,-1.33168625831604,-1.56137156486511,-13.7068042755127,-15.9525661468506,-21.272481918335,17.0778408050537,20.6260471343994,21.7704753875732,9.10922241210938,12.5398416519165,15.0657691955566,-18.1528377532959,-8.22887134552002,0.22026655077934,5.55704116821289,6.0793309211731,5.16181135177612,-2.08610486984253,-2.3090705871582,-0.32375857234001,-56.8048286437988,-49.2176055908203,-38.9728164672851,5.75326681137085,-0.00957680679858,2.79403328895569,12.6033716201782,10.5887384414673,7.31877660751343,31.1365928649902,41.3718070983887,42.6910095214844,7.17888832092285,6.26686668395996,4.444655418396,-2.42330241203308,-1.45935702323914,0.81794857978821,-10.3573169708252,-6.41406631469727,-3.82354021072388,-6.88332986831665,-12.7922201156616,-13.6804685592651,0.36102136969566,0.87048298120499,1.01709067821503,8.29351425170898,9.05726528167725,11.6597623825073,-1.27059972286224,-1.62551236152649,-1.9278906583786,0.16982053220272,0.05742133408785,-0.03176499158144,0.73501992225647,0.23223756253719,-0.39025488495827,2.55221891403198,3.96479797363281,5.39413642883301,SWING_LEFT
0.40500366687775,0.2638937830925,0.09346238523722,0.9528923034668,-0.01675941236317,-1.13963997364044,-0.36468654870987,-0.61636304855347,-1.07817721366882,0.99021255970001,1.11971604824066,1.20645880699158,0.98641109466553,0.17717093229294,-1.98000478744507,7.34780502319336,6.19379997253418,5.34146404266357,-1.87169110774994,-3.20337724685669,-4.18259429931641,2.09013819694519,1.2449848651886,-3.92888498306274,-2.80814743041992,-2.54669713973999,-1.10688781738281,-0.49235737323761,-2.15635442733765,-2.85762763023376,-11.9207305908203,-12.4977331161499,-13.85524559021,12.0979013442993,19.4792251586914,23.9659595489502,5.37378168106079,10.5190992355347,14.982081413269,-29.7048606872559,-18.2821235656738,-7.99423933029175,5.97914886474609,6.89239263534546,7.37436532974243,-0.78923791646957,-2.84968638420105,-3.44711256027222,-69.8125305175781,-52.5263900756836,-19.8335666656494,8.28872585296631,2.35350036621094,-0.79248076677322,8.43910312652588,4.38540172576904,3.74277138710022,34.7566261291504,19.6970977783203,19.9987659454346,2.82830619812012,1.22173047065735,0.09834930300713,0.71593403816223,0.59437185525894,0.37262779474258,-4.42927312850952,-2.17154097557068,-0.91458505392075,-4.83868169784546,-1.11330378055573,1.44370365142822,-0.1777617931366,-0.44348818063736,-0.39767327904701,11.7172231674194,8.13549709320068,6.7851676940918,-0.55405479669571,-0.51618111133575,-0.43371433019638,-0.20219638943672,-0.38301250338554,-0.55100047588348,-0.29209262132645,0.79487496614456,0.91458505392075,6.97430944442749,7.74284839630127,7.91044235229492,SWING_LEFT
-0.89491760730743,-0.90530228614807,-1.21195662021637,2.27209734916687,4.36223554611206,6.29675054550171,-0.78984874486923,-1.67377078533173,-2.85029721260071,-1.15758967399597,-0.59131753444672,0.04398229718208,1.721431016922,-0.67277067899704,-6.32548093795776,6.24407815933228,4.90571928024292,3.45483303070068,-4.99382352828979,-6.20272588729858,-6.43668699264526,4.97275686264038,-1.99676418304443,-15.2151517868042,-4.26261758804321,-0.88941979408264,2.30784893035889,-0.52412235736847,-1.99936199188232,-1.40315747261047,-15.5144271850586,-17.8894748687744,-23.6259822845459,33.0998382568359,29.5612087249756,24.8805446624756,6.93820762634277,11.4506692886353,16.9289093017578,-21.6699199676514,-13.7738428115845,-5.67904663085938,5.39943790435791,5.60529947280884,5.56681489944458,0.73731434345245,-0.73487091064453,-0.7617489695549,-71.5219879150391,-60.8965187072754,-38.4341201782227,7.00303983688354,4.76446151733398,3.4811692237854,10.5038280487061,7.69323682785034,6.20516920089722,32.6688804626465,24.8949089050293,20.6523838043213,5.6926531791687,5.18196964263916,4.44587707519531,-1.84481298923492,-0.62063908576965,0.53817230463028,-16.6923751831055,-12.0260753631592,-6.74207210540771,-1.28808057308197,-2.32955837249756,-2.62883353233337,1.54854345321655,0.42699480056763,0.0500909499824,21.492748260498,15.1098070144653,10.6087074279785,0.47158795595169,-0.34025195240974,-0.89491760730743,0.93340212106705,0.74281215667725,0.5583308339119,-0.06224924325943,0.35194763541222,0.97922849655151,0.59855043888092,2.39899015426636,4.6112322807312,SWING_LEFT
-4.11906433105469,-6.21799755096436,-6.90827512741089,1.58974993228912,-5.01106405258179,-9.17936897277832,-0.03481931984425,-0.69149947166443,-1.83442831039429,2.87289929389954,1.87963235378265,1.43247902393341,-10.4746322631836,-13.8360919952393,-10.6685628890991,3.78523278236389,4.17309379577637,8.84896945953369,-3.56989645957947,-0.74953162670135,0.89430671930313,-27.813440322876,-22.3426895141602,-20.0801696777344,-3.13740396499634,-2.68230938911438,-2.76049995422363,1.13437676429749,-1.60107779502869,-2.21560835838318,-17.2238864898682,-26.1853847503662,-36.1644172668457,13.1585321426392,11.4801969528198,15.2678241729736,10.9008903503418,16.2569561004639,19.0681591033936,-10.7379941940308,-8.64546203613281,8.32224464416504,3.03416776657104,5.55948448181152,4.59981536865234,-8.0603666305542,-4.45137500762939,1.03663837909698,-76.1978607177734,-48.6429977416992,-27.2531986236572,3.20344185829163,-1.17315888404846,0.27054479718208,6.89666843414307,4.57354831695557,1.55159771442413,33.4996719360352,28.909984588623,28.5053653717041,-0.24740041792393,-0.96883225440979,-1.17896997928619,0.53511798381805,0.82955497503281,0.9511171579361,1.25456166267395,1.74537301063538,1.66397023200989,2.37504816055298,5.89691877365112,7.80270338058472,-0.50823986530304,-0.64934974908829,-0.23029619455338,4.8602294921875,3.42370843887329,4.88895988464355,0.0500909499824,0.04642575979233,-0.12828169763088,-0.36468654870987,-0.02565634064376,0.3158173263073,1.29526317119598,1.19231247901917,1.11330378055573,6.42124891281128,5.43004941940308,5.5832781791687,SWING_LEFT
-2.38054180145264,-3.0879237651825,-4.25773096084595,1.55862534046173,2.20745396614075,2.46842193603516,-2.19544959068298,-3.83928799629211,-2.60167503356934,2.65726375579834,3.2559118270874,3.52896857261658,-8.10916137695313,-15.5407629013062,-15.1265659332275,4.58968448638916,16.3835220336914,14.3939409255981,-3.88571381568909,-0.12156218290329,1.71530961990356,-17.7266693115234,-16.8863048553467,-13.3955583572388,0.23090706765652,0.27855455875397,-1.00242984294891,0.07391469180584,0.27366763353348,0.49418997764587,-26.0177898406982,-29.3696727752686,-43.9048690795898,8.31985092163086,6.09803152084351,11.0276927947998,13.4536962509155,16.7120513916016,19.878776550293,-10.6661682128906,-5.53060579299927,8.89924812316895,5.17830467224121,3.63403725624084,2.59495544433594,-3.90892672538757,0.09224065393209,1.72630512714386,-63.6211204528809,-42.0349998474121,-34.5315704345703,-6.97909784317017,3.02866506576538,6.7540431022644,10.4225826263428,8.9308500289917,6.6602635383606,35.8148651123047,35.4916458129883,32.2498970031738,2.7391197681427,2.66153979301453,2.23515582084656,0.31764993071556,1.67377078533173,1.68659889698029,-13.9917144775391,-10.187328338623,-7.05331802368164,3.05260705947876,2.61686253547669,2.85867691040039,1.03236222267151,0.47036623954773,0.27733281254768,13.9869260787964,11.0516347885132,10.0317049026489,0.82527893781662,0.44348818063736,0.02687807008624,-1.00426244735718,-1.15514612197876,-1.04580128192902,-0.46447512507439,1.58496153354645,2.30801033973694,3.61285042762756,4.73812532424927,5.50666379928589,SWING_LEFT
-3.15206456184387,-3.6169331073761,-5.07079219818115,-0.26336219906807,0.74220252037048,-2.68390011787415,-2.58151650428772,-1.53266084194183,-0.37873646616936,0.00427605677396,0.54611355066299,-1.22417390346527,-10.4411134719849,-9.61750793457031,-13.0029096603394,14.4633722305298,14.1305780410767,14.8871459960938,1.86497163772583,3.17100143432617,4.02499103546143,-7.21372985839844,-2.48278713226318,-5.64073944091797,1.4679092168808,-0.63774329423904,-1.6523904800415,0.1991420686245,1.19546329975128,1.95232534408569,-35.6137504577637,-42.9304313659668,-51.1928215026855,-0.51235914230347,7.9152307510376,22.862232208252,15.2893466949463,16.0645351409912,15.980845451355,10.6494092941284,11.5256872177124,10.7786960601807,9.38899898529053,5.60285615921021,3.32066345214844,-5.28948211669922,2.63588356971741,4.61630868911743,-67.2531280517578,-36.1524467468262,-28.3952312469482,-14.7434940338135,-4.71178913116455,1.67594122886658,9.1318244934082,7.86366844177246,4.59248495101929,27.21728515625,27.0975742340088,26.9491348266602,2.06472444534302,1.51433491706848,0.71287971735001,0.2638937830925,0.74953162670135,0.63591074943542,-6.62954473495483,-5.54497098922729,-4.64953947067261,-0.42137950658798,-0.74459671974182,-0.63446342945099,-0.25961771607399,-0.89491760730743,-1.10872042179108,14.7626476287842,10.4650554656982,2.45405673980713,0.26511552929878,0.51251596212387,0.47952923178673,-0.07269296050072,0.08979719132185,-0.1685988008976,-0.26815059781075,0.12449848651886,-0.75417351722717,9.52413463592529,8.5496940612793,7.50342798233032,SWING_LEFT
-2.92970967292786,-2.51737570762634,-1.80266332626343,-6.34224033355713,-6.57208347320557,-2.9161376953125,-0.64263021945953,-0.45509460568428,0.24129177629948,-0.86437433958054,-0.35857790708542,-0.11178833991289,-12.555193901062,-14.3987293243408,-15.8184909820557,12.131420135498,14.0443868637085,13.8217267990112,0.88514375686646,3.12762999534607,5.74030065536499,-11.417947769165,-13.9103116989136,-14.745888710022,-1.10322260856628,0.4416555762291,2.79715204238892,2.14291524887085,2.05067467689514,0.29504790902138,-36.5618553161621,-43.2991371154785,-49.8472785949707,20.1376304626465,19.3547267913818,8.72447109222412,15.3999128341675,16.7609214782715,18.546480178833,-0.10295066982508,-2.08534979820251,5.832275390625,3.17588829994202,2.44590449333191,1.48562431335449,-3.8380663394928,-0.56443947553635,1.34573614597321,-69.8101348876953,-45.5425033569336,-30.8684425354004,-5.28160905838013,2.97120428085327,13.2088108062744,9.69992923736572,7.94002628326416,6.39759159088135,25.1223583221436,26.2691802978516,28.6921138763428,4.3304238319397,3.54546189308167,2.51615405082703,-3.0158417224884,-1.34390354156494,0.46853363513947,-12.0548057556152,-9.82819843292236,-7.04374122619629,-1.09654438495636,-2.20745396614075,-1.32878196239471,1.16430914402008,1.09283792972565,0.98043870925903,10.2088756561279,9.23443603515625,9.28471374511719,-0.34880405664444,-0.54489177465439,-0.57482421398163,-0.08491026610136,-0.41966441273689,-0.59620445966721,0.11013327538967,0.4955997467041,-0.15562310814857,5.16189908981323,6.11479091644287,6.33984613418579,SWING_LEFT
-1.68782067298889,-2.2290472984314,-2.73423290252686,1.53947174549103,0.28251579403877,-1.41497325897217,-2.34144639968872,-2.31212496757507,-2.12642192840576,-1.70370316505432,-3.19482517242432,-3.49964690208435,-9.48822116851807,-11.6597623825073,-12.978967666626,11.2048635482788,13.6828622817993,16.5750579833984,-1.97553825378418,-0.41722095012665,1.30053210258484,-8.79629707336426,-9.02135181427002,-7.56807136535645,3.26202034950256,3.71955847740173,3.89487671852112,1.6456710100174,2.94742488861084,3.04088711738586,-14.7889842987061,-20.5374622344971,-30.4781875610352,15.0355863571167,13.7642660140991,14.5950536727905,15.3522653579712,19.8146362304688,20.008279800415,-18.53590965271,-3.03345346450806,27.2627754211426,1.93949711322784,4.36341047286987,6.58451652526855,2.5802948474884,-1.7989981174469,-5.9137864112854,-64.5285263061523,-32.4869232177734,-25.5557098388672,22.6635131835938,15.729905128479,0.6033388376236,6.96569633483887,7.35115242004395,6.43729782104492,16.0794582366943,25.6395053863525,31.0049114227295,2.83746910095215,2.87167739868164,2.22293853759766,0.76480329036713,-0.16310101747513,-0.98960167169571,-9.95987892150879,-8.01578712463379,-4.88177728652954,1.98958158493042,-0.11731588095427,-2.64798712730408,0.00122173049022,-0.52045720815659,-0.63957589864731,16.6540660858154,11.8441162109375,8.5496940612793,-0.82222461700439,-1.53693699836731,-1.97737073898315,0.10445795953274,0.50274211168289,0.65606927871704,0.85951840877533,1.27371525764465,1.09175598621368,1.90817880630493,5.61200857162476,8.82981586456299,SWING_LEFT
-2.51065611839294,-2.61572504043579,-2.82525181770325,-8.99740982055664,-10.4650554656982,-12.4785795211792,-0.97127574682236,-0.88208943605423,-1.05435335636139,1.29808866977692,-0.34636059403419,-1.59863436222076,-11.8105974197388,-12.1721210479736,-14.3388738632202,6.3973069190979,6.67742872238159,7.68299341201782,-1.67377078533173,-2.07755279541016,-2.78432369232178,-1.32399356365204,3.62721562385559,-9.80186176300049,0.42516219615936,2.14658045768738,5.17708301544189,0.10751228034496,-0.78251838684082,-2.21560835838318,-14.6573028564453,-18.8495502471924,-25.2300968170166,22.0577793121338,21.8016014099121,10.6182842254639,11.3853063583374,19.7584362030029,20.008279800415,-22.7090034484863,-4.85544109344482,11.3868236541748,3.82096219062805,5.37378168106079,5.33102083206177,-4.44099044799805,-3.90281796455383,-2.62122273445129,-78.4436264038086,-41.5633430480957,-24.1742553710938,1.30483996868134,-0.91219085454941,4.75967311859131,6.32550954818726,6.30107498168945,5.34751415252686,22.8789920806885,27.3681201934814,30.4662170410156,2.27180790901184,1.05313169956207,0.47403141856194,1.67865765094757,2.35855078697205,2.26508831977844,-6.2201361656189,-5.07331323623657,-4.07014274597168,-4.63996267318726,0.07900865375996,4.503493309021,2.00974655151367,1.8545868396759,1.37994456291199,12.0955066680908,12.8760166168213,12.2966203689575,1.05801856517792,1.0812314748764,0.86254173517227,-1.31397116184235,-0.77824234962463,-0.38117989897728,-0.18674772977829,0.72544312477112,0.93613284826279,6.14112758636475,4.77643251419067,3.90015459060669,SWING_LEFT
