gyro_x_0,gyro_y_0,gyro_z_0,acc_x_0,acc_y_0,acc_z_0,gyro_x_1,gyro_y_1,gyro_z_1,acc_x_1,acc_y_1,acc_z_1,gyro_x_2,gyro_y_2,gyro_z_2,acc_x_2,acc_y_2,acc_z_2,gyro_x_3,gyro_y_3,gyro_z_3,acc_x_3,acc_y_3,acc_z_3,gyro_x_4,gyro_y_4,gyro_z_4,acc_x_4,acc_y_4,acc_z_4,gyro_x_5,gyro_y_5,gyro_z_5,acc_x_5,acc_y_5,acc_z_5,gyro_x_6,gyro_y_6,gyro_z_6,acc_x_6,acc_y_6,acc_z_6,gyro_x_7,gyro_y_7,gyro_z_7,acc_x_7,acc_y_7,acc_z_7,gyro_x_8,gyro_y_8,gyro_z_8,acc_x_8,acc_y_8,acc_z_8,gyro_x_9,gyro_y_9,gyro_z_9,acc_x_9,acc_y_9,acc_z_9,gyro_x_10,gyro_y_10,gyro_z_10,acc_x_10,acc_y_10,acc_z_10,gyro_x_11,gyro_y_11,gyro_z_11,acc_x_11,acc_y_11,acc_z_11,gyro_x_12,gyro_y_12,gyro_z_12,acc_x_12,acc_y_12,acc_z_12,gyro_x_13,gyro_y_13,gyro_z_13,acc_x_13,acc_y_13,acc_z_13,gyro_x_14,gyro_y_14,gyro_z_14,acc_x_14,acc_y_14,acc_z_14,motion_type
0.40067499876022,0.46048748493195,0.5517874956131,-0.59042501449585,-0.38857498764992,-0.083599999547,1.51005005836487,1.68195009231567,1.79700005054474,10.0690507888794,9.77205085754394,9.29505062103272,0.94957500696182,1.23268747329712,1.27283751964569,0.64800000190735,0.9300000667572,1.08600008487701,0.63511252403259,0.42872500419617,-0.08112499862909,0.25602498650551,0.12155000120401,-0.24901250004768,1.5529500246048,1.59105002880096,1.27305006980896,9.52695083618164,9.85605049133301,9.82395076751709,1.08350002765656,0.9981124997139,0.92386251688004,2.18805003166199,2.71905016899109,5.36595010757446,-0.99453747272491,-1.79231250286102,-2.55419993400574,-4.50903749465942,-7.54325008392334,-9.65263748168945,2.13000011444092,2.81805014610291,0.20700001716614,8.12400054931641,8.39700031280518,9.81195068359375,-3.10516238212585,0.13406249880791,2.1290500164032,30.8130016326904,24.5140514373779,18.1240501403809,-2.2508749961853,-2.93424987792969,-7.84794998168945,-1.29703748226166,0.77109998464584,6.17306232452393,-23.8159503936768,-26.1510009765625,-23.650951385498,11.6539506912231,8.86200046539307,7.95600032806396,3.59920001029968,2.09357500076294,1.35973751544952,-3.49005007743835,-3.63795018196106,-4.213050365448,-6.35868740081787,0.41909998655319,2.11310005187988,15.6459875106812,7.74166250228882,5.65675020217896,-15.7450504302979,-14.064001083374,-12.6199502944946,9.19005012512207,10.5289506912231,9.88395023345947,2.22956252098084,1.5497624874115,0.79351252317429,-8.33505058288574,-8.91195011138916,-8.97000026702881,SWING_RIGHT
0.06531249731779,0.02846249938011,-0.01883750036359,0.08951249718666,0.25973749160767,0.3452624976635,1.35900008678436,1.18395006656647,1.08405005931854,9.42705059051514,8.96505069732666,9.22995090484619,0.21999999880791,0.26399999856949,0.33206251263618,2.64705014228821,2.76705002784729,3.66495013237,-0.34306249022484,-1.33567500114441,-2.26613759994507,0.48276248574257,-1.9186749458313,-4.25535011291504,0.25005000829697,-1.00095009803772,-1.46595001220703,12.4710006713867,13.1460008621216,14.9329509735107,-2.50139999389648,-2.66420006752014,-1.77003753185272,29.8290004730225,35.9119529724121,35.5429534912109,-3.97443747520447,-3.81603741645813,-3.98502492904663,-6.26106262207031,-5.00073766708374,-3.3411123752594,-27.6460514068604,-38.1550521850586,-45.8029518127441,6.6060004234314,7.45305013656616,12.445050239563,6.11421251296997,5.71504974365234,4.4999623298645,3.57705020904541,-12.6750001907349,-18.5209503173828,-8.68889999389648,-4.63498735427856,0.07479999959469,21.2169380187988,19.2660865783691,12.7461128234863,-20.5849514007568,-17.2009506225586,-12.8809509277344,14.5590009689331,12.9670505523682,8.14605045318604,5.36016225814819,5.45434999465942,5.29911231994629,-15.1680011749268,-15.024001121521,-12.2410507202148,5.43372488021851,16.7862739562988,18.0757503509521,5.11142492294312,7.97609996795654,5.60188770294189,-1.49700009822845,-0.02895000204444,1.06200003623962,9.65700054168701,12.6739501953125,11.0149507522583,-3.28130006790161,-0.68433749675751,3.99134993553162,0.12105000764132,1.09995007514954,0.45405003428459,SWING_RIGHT
-0.08662500232458,-0.0015124999918,-0.01498750038445,0.1342000067234,0.33123749494553,0.34979999065399,1.25895011425018,0.97800004482269,0.87105005979538,10.2910509109497,10.252950668335,10.5090007781982,1.61713743209839,1.70967495441437,1.83548748493195,2.54505014419556,2.80800008773804,3.32805013656616,-0.54106247425079,-0.598537504673,-0.81111252307892,-1.51689994335175,-1.89708745479584,-2.80445003509521,-0.69195002317429,-1.6030501127243,-2.17005014419556,10.3750505447388,11.0790004730225,11.0989503860474,1.67378747463226,0.92056250572205,0.14079999923706,20.4070510864258,24.0180015563965,24.65505027771,-1.89667499065399,-2.26228737831116,-2.48971247673035,-7.75458765029907,-5.95237493515015,-4.79393768310547,-3.91095018386841,-20.8470001220703,-40.1430015563965,7.1850004196167,6.19095039367676,6.38295030593872,3.22932505607605,5.83701229095459,7.6154375076294,19.6759510040283,5.82600021362305,-6.83595037460327,-11.8184003829956,-12.2281503677368,-10.6149997711182,21.8765239715576,27.1900749206543,27.5688877105713,-37.0729522705078,-30.1609516143799,-21.9889507293701,6.72495031356812,7.46295022964478,15.2920503616333,6.37161254882813,6.41052484512329,5.09946250915527,-16.2630004882813,-10.7640008926392,-8.48400020599365,6.54128742218018,9.39413738250732,9.859299659729,5.9087872505188,6.69679975509644,5.3651123046875,-6.67500019073486,-4.4239501953125,-2.73795008659363,11.7049503326416,12.0900001525879,10.0159502029419,-3.38126254081726,-3.34702491760254,-2.2844250202179,0.29805001616478,-0.02700000070035,-0.27300000190735,SWING_RIGHT
-0.11123749613762,-0.00769999995828,0.05664999783039,1.23406255245209,1.08047497272491,0.90282499790192,3.24600005149841,2.99295020103455,2.72700023651123,8.94795036315918,9.48900032043457,9.32595062255859,0.80355000495911,0.92977499961853,1.09106254577637,0.75105005502701,0.05400000140071,0.29100000858307,-0.81908750534058,-1.24176251888275,-1.74446249008179,1.8935124874115,1.73909997940063,0.79089999198914,0.75600004196167,-0.10605000704527,-1.60995006561279,9.74295043945312,9.57300090789795,9.04395008087158,1.54646253585815,0.75625002384186,-0.19525000452995,16.4020500183105,25.7550010681152,30.3550510406494,-4.12087488174438,-3.71387505531311,-3.35458755493164,-9.9166374206543,-6.39278745651245,-3.74976253509521,-6.93600034713745,-20.5660514831543,-29.2410011291504,17.0599498748779,11.3569507598877,7.67805051803589,2.57468748092651,4.13146257400513,5.4229998588562,25.0360507965088,13.0249509811401,2.83395004272461,-7.78305006027222,-11.6580753326416,-13.5999870300293,3.7262499332428,12.4477376937866,20.7129993438721,-32.0310020446777,-26.6380519866943,-22.5349502563477,5.12805032730103,2.08800005912781,3.6910502910614,2.92806243896484,4.9964747428894,6.12424993515015,-7.47000026702881,-16.8090000152588,-19.4809513092041,5.06728744506836,6.63079977035522,7.55424976348877,5.19433736801147,5.46521234512329,6.05233764648438,-15.7549505233765,-13.3690509796143,-10.4569501876831,14.2309503555298,12.0160503387451,13.2130508422852,-1.52129995822906,-3.33767509460449,-3.68431258201599,-2.5530002117157,-0.93405002355576,0.46605002880096,SWING_RIGHT
0.51700001955032,0.72462499141693,0.4268000125885,0.68832498788834,1.37032496929169,2.50112509727478,3.73305010795593,3.51000022888184,2.79600024223328,9.09195041656494,8.9239501953125,9.8100004196167,1.07896244525909,1.36193752288818,1.638587474823,0.72900003194809,1.66605007648468,3.77805018424988,-3.34386253356934,-3.67028737068176,-3.28515005111694,-2.81421256065369,-4.2803750038147,-5.4247875213623,-2.58705019950867,-1.59795010089874,-1.28595006465912,10.9360504150391,11.8050003051758,12.9160509109497,3.18615007400513,2.53769993782043,1.44333744049072,10.4190006256104,17.4649505615234,25.4530506134033,-0.38995000720024,-1.50122499465942,-2.70324993133545,-5.09396266937256,-5.7311372756958,-5.99403762817383,-5.71005010604858,-12.3660001754761,-26.7360019683838,7.54395055770874,7.65705013275146,6.42105007171631,0.90694999694824,3.29381251335144,5.3949499130249,32.5110015869141,17.7270011901855,12.3190507888794,-4.20433759689331,-7.14023733139038,-13.4025373458862,0.75473749637604,6.97647476196289,25.3908882141113,-50.109001159668,-46.5210037231445,-31.5160522460938,12.0780010223389,10.3030500411987,7.93995046615601,3.04012489318848,3.43076252937317,5.46356248855591,-17.0650501251221,-17.7259502410889,-12.8740501403809,1.8458000421524,2.92957496643066,4.63980007171631,5.24603748321533,4.3579249382019,5.05092477798462,-17.69700050354,-15.2830505371094,-11.1109504699707,10.9330501556396,11.613000869751,12.9090003967285,0.24708749353886,-2.34794998168945,-4.05900001525879,-6.08100032806396,-3.13500022888184,1.8139500617981,SWING_RIGHT
0.3272500038147,0.13983750343323,-0.11219999939203,1.1837375164032,0.95246249437332,-0.35186249017715,2.73900008201599,2.43195009231567,2.35304999351501,9.63300037384033,7.89405059814453,6.51000022888184,3.11781239509583,3.61899995803833,4.01183748245239,5.78700017929077,6.76005029678345,8.5420503616333,0.60885000228882,0.69616252183914,0.56718748807907,-5.01476240158081,-3.73587489128113,-2.36238741874695,-0.51300001144409,-1.36095011234283,-1.4760000705719,12.0589504241943,11.4720001220703,8.88105010986328,4.14617490768433,3.18724989891052,2.08931255340576,23.0269508361816,27.1530017852783,30.1470012664795,-1.26101243495941,-2.2236499786377,-3.07903742790222,-4.14878749847412,-3.94638752937317,-3.02390003204346,-12.1240501403809,-19.4500503540039,-26.4289512634277,10.6050004959106,12.7579507827759,11.2710008621216,2.87581253051758,5.70473766326904,6.31757497787476,24.3870010375977,5.71095037460327,-2.14394998550415,-15.4237871170044,-16.5323123931885,-15.0431871414185,20.8169498443604,26.4617366790771,27.1924114227295,-37.1400032043457,-31.0110015869141,-24.5370006561279,8.29605007171631,10.9740009307861,16.3699512481689,3.50707507133484,7.55287504196167,7.66741228103638,-20.9190006256104,-17.260950088501,-12.6439504623413,4.91218757629395,10.0143995285034,11.0054998397827,4.88166236877441,9.14498710632324,8.85128784179688,-9.81495094299316,-4.0770001411438,-2.5530002117157,9.30000019073486,10.3129501342773,10.2630004882813,-3.98804998397827,-2.93617486953735,-0.88192498683929,-0.85800004005432,-0.49905002117157,-1.00604999065399,SWING_RIGHT
-1.03248751163483,-0.87092500925064,-1.38242495059967,1.47936248779297,3.66341257095337,3.38098740577698,0.49695003032684,-1.6189501285553,-1.80900013446808,10.2360000610352,14.9190006256104,13.0270509719849,2.79262495040894,2.5008499622345,2.30298757553101,2.60895013809204,3.09300017356873,3.12405014038086,-0.35268750786781,-0.12155000120401,-0.16458749771118,-1.42106246948242,-2.37517499923706,-3.1516375541687,-1.13295006752014,-2.14394998550415,-3.07995009422302,11.9779500961304,10.8880500793457,10.9570503234863,0.2245374917984,-1.09353744983673,-2.58046245574951,19.0390510559082,34.3840522766113,47.6140518188477,-4.27734994888306,-5.03951263427734,-5.08914995193481,-7.78181266784668,-7.66988754272461,-6.27316236495972,-20.9569511413574,-30.4290008544922,-34.3999519348145,10.6939506530762,5.49405002593994,4.01205015182495,4.59621238708496,6.2485499382019,6.78933763504028,10.5990009307861,-2.32605004310608,-13.4580001831055,-13.0420122146606,-11.8244495391846,-8.49530029296875,21.157262802124,24.2290115356445,23.7936878204346,-35.0269508361816,-25.7470512390137,-18.4540500640869,8.91195011138916,16.8970508575439,19.3930511474609,8.04100036621094,8.49364948272705,7.51767492294312,-19.1340007781982,-9.55905055999756,-4.5799503326416,8.54424953460693,9.49038791656494,9.53603744506836,3.67977499961853,2.8582124710083,0.9842249751091,-1.01805007457733,1.26105010509491,3.28200006484985,11.2930507659912,9.04605007171631,6.838050365448,-4.69246244430542,-4.73316240310669,-4.03411245346069,0.06105000153184,1.30395007133484,0.66000002622604,SWING_RIGHT
-0.08538749814034,0.26592499017715,1.06273746490479,0.13983750343323,-0.04372499883175,-2.69527506828308,2.7720000743866,2.95905017852783,2.10600018501282,5.80800008773804,4.84800004959106,6.35400009155273,1.37266254425049,1.23378753662109,1.24231255054474,8.10105037689209,8.10105037689209,5.26005029678345,0.48702499270439,0.33412501215935,-0.0937749966979,-3.17872500419617,-0.36767500638962,1.47028744220734,1.20105004310608,0.03195000067353,-0.99705004692078,8.78505039215088,8.41604995727539,8.82299995422363,2.06057500839233,1.31986248493195,-0.19662499427795,16.3690509796143,25.8619518280029,39.2820014953613,-5.37047481536865,-5.06687498092651,-4.28889989852905,-5.61962509155273,-5.01984977722168,-2.09893751144409,-18.9660015106201,-30.07200050354,-43.1899528503418,9.88200092315674,7.31400012969971,6.50700044631958,5.58965015411377,6.47473764419556,5.30433750152588,7.68405055999756,-14.26305103302,-15.5580005645752,-9.16973781585693,-6.09028768539429,-1.39094996452332,23.2204494476318,23.0515995025635,17.3999366760254,-19.0330505371094,-17.4529514312744,-17.860050201416,10.7850008010864,10.3680000305176,9.1200008392334,5.60257482528687,4.30416250228882,2.40391254425049,-15.6640510559082,-13.7620506286621,-8.86200046539307,6.34095001220703,6.9507622718811,7.26701259613037,2.63505005836487,2.57290005683899,1.73566246032715,-2.956050157547,0.25500002503395,2.31000018119812,7.29000043869019,6.46905040740967,6.27495050430298,-3.27703738212585,-3.5011625289917,-3.3101749420166,-0.91800004243851,-0.46995002031326,-0.71700000762939,SWING_RIGHT
-1.05544996261597,-1.16737496852875,-1.16008746623993,-1.63185000419617,-1.86917495727539,-1.28232502937317,1.61805009841919,1.76595008373261,1.92705011367798,8.671950340271,9.82695007324219,9.79095077514648,1.86656248569489,2.13936257362366,2.29913759231567,3.74400019645691,4.99005031585693,4.82505035400391,-0.5684249997139,-0.79708749055862,-1.1640750169754,0.13062499463558,0.38389998674393,0.58121252059937,-0.65700000524521,-1.30605006217957,-3.80805015563965,10.4779500961304,10.453950881958,9.36900043487549,2.18817496299744,0.44151249527931,-2.00158739089966,15.7960510253906,31.1790008544922,36.3070526123047,-4.40385007858276,-4.19416236877441,-3.80943751335144,-5.92872476577759,-5.94316244125366,-4.36425018310547,-8.31300067901611,-23.578950881958,-31.1430015563965,12.8539505004883,8.13105010986328,3.35805010795593,1.34653747081757,4.02476263046265,6.2702751159668,27.4740009307861,10.0510501861572,-4.75500011444092,-7.9432373046875,-10.6361751556396,-10.7241744995117,5.43248748779297,14.4207248687744,20.7681369781494,-38.6340026855469,-32.449951171875,-25.1580009460449,4.49505043029785,-0.98295003175735,2.50500011444092,6.65926265716553,8.18248748779297,8.1342248916626,-19.1460018157959,-19.6489505767822,-17.1010513305664,3.17088747024536,4.33922481536865,5.95223760604858,2.29528737068176,1.73249995708466,1.88292503356934,-8.87100028991699,-5.96400022506714,-2.66400003433228,7.9200005531311,8.06205081939697,8.22000026702881,0.59028750658035,-1.49407494068146,-3.3929500579834,-1.51905012130737,-1.40100002288818,-0.21405000984669,SWING_RIGHT
0.72531247138977,0.35488748550415,-0.23553749918938,-0.41772499680519,0.1394249945879,1.73112499713898,3.64605021476746,3.65805006027222,1.65405011177063,8.94105052947998,7.29300022125244,5.96805047988892,2.49658751487732,2.67533755302429,2.74766254425049,-0.17805001139641,0.82005006074905,1.58700013160706,-4.90985012054443,-6.14528751373291,-5.9901876449585,1.9600625038147,-1.541375041008,-4.90806245803833,-4.45995044708252,-7.22595024108887,-8.26995086669922,19.4040012359619,22.8870010375977,17.4360008239746,-3.44643759727478,-4.34183740615845,-4.25713729858398,36.6229515075684,36.271053314209,41.6119537353516,-4.87134981155396,-4.53667497634888,-4.40123748779297,-6.74176263809204,-5.49601268768311,-4.38996267318726,-36.5719528198242,-44.3460006713867,-52.7700042724609,6.55800008773804,7.21395015716553,6.4830002784729,4.7812876701355,6.99847507476807,7.41138744354248,6.60900020599365,-20.9950504302979,-21.1320018768311,-9.99377536773682,-6.71329975128174,-1.64999997615814,20.9393253326416,19.8210372924805,13.2540378570557,-20.9140510559082,-18.1549510955811,-16.1470508575439,8.00400066375732,7.27905035018921,9.16095066070557,9.44817447662354,7.64637517929077,4.56018733978271,-11.6809501647949,-8.91000080108643,-5.93805027008057,8.8662748336792,10.2801876068115,10.760612487793,3.47847509384155,2.3645875453949,0.2231625020504,-2.9320502281189,2.35800004005432,4.05105018615723,9.0169506072998,7.63800048828125,8.30100059509277,-4.21960020065308,-2.75591254234314,-0.86638748645782,0.85095006227493,1.55505001544952,0.42495003342628,SWING_RIGHT
-0.01388750039041,1.25977504253387,2.08917498588562,1.26018750667572,3.28597497940063,3.88808751106262,3.56295013427734,4.08494997024536,4.12095022201538,7.54395055770874,4.40205001831055,3.7630500793457,-0.76023751497269,-1.17617499828339,-1.10123753547668,2.71905016899109,1.39995002746582,1.34700012207031,1.15444993972778,-2.92393755912781,-6.22531223297119,1.53188753128052,-1.35506248474121,-3.872962474823,-2.09805011749268,-2.80995011329651,-2.59395003318787,10.6939506530762,14.8350009918213,24.973051071167,2.1379873752594,0.66068750619888,-0.02901249937713,33.9619522094727,34.1950531005859,25.9680004119873,-5.10138750076294,-5.86341238021851,-6.60838747024536,-2.2922625541687,-1.72521245479584,-0.89787501096725,-28.7089519500732,-34.6009521484375,-42.5740509033203,9.23805046081543,9.35295009613037,4.97205018997192,3.0743625164032,4.12761259078979,4.26167488098145,13.5739507675171,1.15305006504059,-12.7920007705688,-13.6906003952026,-6.75509977340698,-1.27146244049072,16.2060241699219,17.6500492095947,11.6259002685547,-23.7229518890381,-20.6620502471924,-17.191951751709,13.6159505844116,10.9189500808716,6.03495025634766,8.3065128326416,7.08757495880127,3.8226375579834,-10.0639505386353,-8.28000068664551,-6.25605010986328,8.71172523498535,9.07032489776611,9.08902454376221,4.84357500076294,4.66152477264404,3.65873742103577,-4.80000019073486,-1.91100013256073,1.39695012569427,12.4900503158569,9.54195022583008,6.96195030212402,-5.17605018615723,-3.20333743095398,-1.71902501583099,1.20300006866455,-1.357950091362,-2.95800018310547,SWING_RIGHT
0.49651250243187,0.32174998521805,0.15207499265671,-0.82829999923706,-0.7345250248909,-0.39737498760223,4.03005027770996,4.60395002365112,3.50505018234253,8.22195053100586,9.21795082092285,9.06494998931885,0.9560375213623,1.39301252365112,1.69977498054504,-0.43605002760887,1.35195004940033,1.91700005531311,-1.75642502307892,-2.39249992370605,-2.94593739509583,1.8631249666214,1.48500001430511,0.45732501149178,0.26505002379417,-0.41700002551079,-0.64500004053116,7.48695039749146,7.78095054626465,9.94905090332031,1.53092503547668,1.34516251087189,0.92977499961853,4.00800037384033,5.99100017547607,14.0239505767822,-2.72827506065369,-2.70269989967346,-2.92599987983704,-4.67912483215332,-6.75221252441406,-7.96303749084473,-2.98395013809204,-6.54600048065186,-13.0270509719849,13.5439510345459,16.8829517364502,22.2949504852295,0.04509999975562,1.59596252441406,2.70751237869263,31.8240013122559,25.3399505615234,18.4950008392334,-6.00379991531372,-10.1670246124268,-12.3424119949341,0.28503748774529,5.22046232223511,10.4674625396729,-46.0849533081055,-30.1489505767822,-25.9020004272461,-2.4250500202179,-8.71395015716553,-1.82595014572144,5.86698770523071,7.17928743362427,9.99363708496094,-17.1990013122559,-22.5060005187988,-12.9600009918213,5.20602512359619,8.50616264343262,10.6860876083374,3.76158738136292,2.93906259536743,4.25535011291504,-12.748950958252,-9.53505039215088,-6.43305015563965,9.56805038452148,7.24005031585693,7.9830002784729,-2.69018745422363,-5.18319988250732,-5.74516248703003,-1.90200006961823,-1.80105006694794,-0.91500002145767,SWING_RIGHT
1.05627501010895,0.74951249361038,0.62411248683929,-0.83063751459122,-1.08033752441406,-0.63607501983643,5.08305025100708,5.29200029373169,4.93695020675659,9.26400089263916,8.20995044708252,6.80205011367798,0.99453747272491,1.85652494430542,2.7502748966217,-3.11595010757446,-2.50095009803772,-1.72200012207031,-1.68946254253387,-4.6215124130249,-9.01807498931885,5.82752513885498,4.86447477340698,-2.51006245613098,-3.94200015068054,-7.65195035934448,-3.65700006484985,9.59400081634522,16.3680000305176,24.1369514465332,-1.8350750207901,-2.64632487297058,-3.29147505760193,21.1180515289307,30.2670021057129,32.8680000305176,-3.95326256752014,-4.56348752975464,-4.47782516479492,-7.60594987869263,-6.81944990158081,-5.43537473678589,-26.3790016174316,-32.4720001220703,-34.8790512084961,10.4299507141113,10.0950002670288,9.52500057220459,3.23248744010925,5.88898754119873,5.60216236114502,20.4900016784668,3.11205005645752,-5.00595045089722,-10.1912250518799,-10.0714626312256,-3.78537487983704,14.74880027771,18.0244617462158,13.4136753082275,-31.4659519195557,-28.0080013275146,-17.3640003204346,1.67895007133484,5.46105003356934,15.1099510192871,8.30994987487793,8.39052486419678,6.45823764801025,-14.6530504226685,-6.71805047988892,-2.35500001907349,10.9874877929688,10.9558620452881,10.1216497421265,6.01686239242554,4.8984375,1.91991245746613,-1.9690500497818,0.8320500254631,3.17505025863647,7.37700033187866,7.20195055007935,7.06800031661987,-6.04711246490479,-3.98777508735657,-2.8909375667572,-0.23805001378059,0.47805002331734,0.94200003147125,SWING_RIGHT
0.64748752117157,0.07823749631643,-0.4959625005722,-0.55123752355576,-1.09367501735687,-1.3831125497818,2.52300000190735,2.40300011634827,3.35895013809204,12.1860008239746,12.8209505081177,11.0119504928589,0.9286749958992,1.30391252040863,1.43728744983673,1.08600008487701,3.54105019569397,4.71000003814697,0.40273749828339,1.04390001296997,1.60269999504089,-0.54408746957779,-0.68076246976852,-0.76216250658035,3.46395015716553,3.37800025939941,2.28105020523071,7.56405019760132,6.82095050811768,5.78895044326782,0.97886252403259,1.4638249874115,2.26352500915527,1.3090500831604,0.6400500535965,-0.47505003213882,-3.27978754043579,-5.40113735198975,-6.67686223983765,2.99653744697571,2.71383738517761,-1.32343745231628,-4.7590503692627,-7.12500047683716,-7.46100044250488,10.7659502029419,16.4680500030518,24.6709518432617,-0.28737500309944,-2.24001240730286,-2.90386247634888,47.2039527893066,40.5889511108398,35.4090003967285,-2.98196244239807,-3.51903748512268,-4.19099998474121,-3.94116258621216,-2.94208741188049,-2.1096625328064,-38.2990531921387,-43.1389503479004,-38.745002746582,4.77795028686523,6.15000009536743,6.01395034790039,6.47817516326904,7.04274988174438,6.24511241912842,4.5130500793457,0.80595004558563,-2.9610002040863,-10.2430620193481,-8.74761199951172,-5.38614988327026,19.633487701416,22.1066989898682,20.1799125671387,-30.4819507598877,-28.9420509338379,-22.5660018920898,3.61905026435852,10.3300504684448,22.8100509643555,7.09555006027222,6.53042507171631,4.63924980163574,-14.8350009918213,-4.96005010604858,1.72305011749268,SWING_RIGHT
0.98780000209808,0.59276247024536,0.56650000810623,-0.37523749470711,-0.92468750476837,-0.82513749599457,6.40305042266846,6.48900032043457,5.6850004196167,10.1089506149292,8.91195011138916,7.94400024414063,0.27678748965263,0.46763750910759,0.90048748254776,0.32895001769066,0.78405004739761,1.74900007247925,-0.66934996843338,-2.16864991188049,-3.77850008010864,1.80606245994568,1.95057499408722,2.33227491378784,0.01095000095665,-0.83100003004074,-0.65400004386902,7.04595041275024,7.46100044250488,8.80905055999756,2.05631256103516,1.85748744010925,1.44677495956421,0.72000002861023,2.44605016708374,13.0369510650635,-4.47521257400513,-3.18463754653931,-2.37627506256104,-2.96051239967346,-7.42843723297119,-9.98194980621338,-2.92200016975403,-4.00995016098022,-9.28605079650879,15.6250505447388,19.5670509338379,23.1859512329102,-3.42292499542236,-2.50469994544983,-0.3812874853611,45.8370018005371,33.1189498901367,19.101001739502,-4.12087488174438,-6.5330376625061,-9.20136260986328,-2.48819994926453,0.70812499523163,3.84051251411438,-32.7949523925781,-41.3410530090332,-33.1549530029297,6.21795034408569,-3.21300005912781,-4.62405014038086,5.23517513275146,5.60216236114502,5.99692487716675,-7.21695041656494,-12.31605052948,-17.1580505371094,-7.20994997024536,-0.61448746919632,4.41856241226196,16.4894123077393,10.3071374893188,5.35493755340576,-19.7830505371094,-17.3880004882813,-14.9280004501343,22.5469512939453,19.4400005340576,12.3970508575439,6.30189990997314,-1.88429999351501,-4.24503755569458,-3.40605020523071,0.01800000108778,-1.40895009040833,SWING_RIGHT
0.86253750324249,0.91162496805191,1.15761244297028,2.77777504920959,2.0992124080658,1.38765001296997,5.62005043029785,6.53700017929077,6.59700012207031,10.9620008468628,7.51800012588501,5.08005046844482,1.34846246242523,1.70967495441437,2.27053737640381,-1.72995007038116,-0.86700004339218,-1.05195009708405,0.9149249792099,-2.7366623878479,-7.8171501159668,3.61597490310669,4.20585012435913,1.75724995136261,-2.89800024032593,-7.07805013656616,-8.35200023651123,9.97305011749268,18.9450016021729,33.1180534362793,0.88687497377396,0.02584999985993,-0.12911249697208,29.6820011138916,21.0960006713867,25.2880516052246,-0.7987374663353,-1.81486248970032,-3.53732490539551,-8.85046291351318,-9.26942539215088,-10.2481498718262,-0.61605000495911,-8.64405059814453,-23.3950519561768,-5.43105030059814,-3.5269501209259,-2.05605006217957,-1.12323749065399,1.8770124912262,5.06618738174438,39.9520530700684,27.6630020141602,21.0580501556396,0.75308752059937,-4.39821243286133,-9.57769966125488,-0.00563749996945,8.52334976196289,17.3069877624512,-35.8800010681152,-27.0450019836426,-26.5590019226074,8.30805015563965,7.4320502281189,8.53605079650879,2.83731245994568,2.15984988212585,4.0631251335144,-6.63195037841797,-10.1860504150391,-10.900050163269,3.68981242179871,5.4389500617981,6.4840874671936,8.15155029296875,6.96134996414185,7.44136238098145,-14.6770505905151,-11.4439506530762,-7.89705038070679,15.5770511627197,11.4190502166748,9.3190507888794,-4.74952507019043,-4.53144979476929,-3.25888752937317,-1.97595012187958,-1.24605000019073,-0.40800002217293,SWING_RIGHT
0.01251249946654,0.21216249465942,0.24928750097752,1.41308748722076,0.32917499542236,-0.64391249418259,2.22795009613037,1.77795004844666,1.90305006504059,8.17905044555664,7.67100048065186,9.26895046234131,-0.18383750319481,0.06971249729395,1.16324996948242,0.69300001859665,1.15095007419586,0.46605002880096,-0.80451250076294,-1.29098749160767,-2.1214873790741,1.36592495441437,0.92221248149872,-2.07240009307861,0.08295000344515,-0.95295006036758,-0.53205001354218,11.7930002212524,10.5259504318237,11.8170003890991,-1.61988747119904,-2.92572498321533,-3.25751256942749,27.1270503997803,33.7660522460938,40.4410514831543,-4.06353759765625,-3.86100006103516,-4.33358764648438,-8.33689975738525,-5.82889986038208,-2.50827503204346,-16.396951675415,-25.969051361084,-46.4680519104004,16.0830001831055,10.6789503097534,11.3119506835938,4.37593746185303,5.37116241455078,5.62237501144409,18.8929500579834,7.53600025177002,-3.1279501914978,-11.9101123809814,-11.743049621582,-8.85692501068115,10.2426500320435,14.3966627120972,15.6574001312256,-32.8380012512207,-30.8290519714355,-25.0470008850098,3.00300025939941,17.8570499420166,25.7899513244629,7.72777509689331,8.581787109375,4.99991226196289,-18.6979503631592,-9.85395050048828,-1.93095004558563,8.69866275787354,8.70856285095215,7.56360006332397,5.88747501373291,5.30282497406006,3.26974987983704,-0.71895003318787,2.61195015907288,5.20095014572144,4.52895021438599,4.39005041122437,3.73395013809204,-4.21423768997192,-5.23228740692139,-4.302649974823,-2.1889500617981,-2.70195007324219,-1.91595005989075,SWING_RIGHT
0.19043749570847,0.15042500197887,-0.00811249949038,0.21642500162125,0.07411249727011,0.01883750036359,1.46205008029938,1.35705006122589,1.26105010509491,9.63495063781738,9.56100082397461,9.42000007629394,0.03588749840856,0.12691250443459,0.19744999706745,0.60195004940033,0.54900002479553,1.09095001220703,-0.31927499175072,-0.45952498912811,-0.59826248884201,0.49500000476837,0.4086500108242,0.40177500247955,0.84195005893707,0.32700002193451,-0.58500003814697,9.86805057525635,9.35295009613037,9.93705081939697,0.35131248831749,0.55522501468658,0.89113748073578,0.25005000829697,-1.02795004844666,-2.00505018234253,-1.28851246833801,-0.86597502231598,-0.5626500248909,1.38613748550415,1.50342500209808,-1.02327501773834,0.78000003099442,-0.18495000898838,-0.35205000638962,11.9389505386353,10.2240009307861,9.22995090484619,-1.85652494430542,-3.31319999694824,-2.17951250076294,42.1579513549805,36.5560531616211,31.396951675415,-2.69802498817444,-3.22918748855591,-4.63237476348877,-7.31169986724854,-3.90967488288879,-2.08835005760193,-21.3589515686035,-28.54905128479,-39.1279525756836,6.63705015182495,2.96295022964478,0.91305005550385,4.33166265487671,5.58813762664795,6.8781623840332,5.73000049591064,-6.90495014190674,-16.864049911499,-13.9358997344971,-5.52255010604858,0.27898749709129,13.7229127883911,12.7292003631592,7.50928735733032,-19.3090515136719,-16.1209506988525,-16.1860504150391,8.05395030975342,11.1610507965088,11.3449506759644,8.09778785705566,4.18522500991821,-0.90323752164841,0.81300002336502,-0.89400005340576,-2.64405012130737,SWING_RIGHT
-0.62576252222061,-0.05884999781847,0.44178751111031,-0.75281250476837,-0.47025001049042,-0.08428750187159,0.04695000126958,0.6690000295639,0.69600003957748,10.207950592041,9.78795051574707,8.89500045776367,-0.73081248998642,-0.18576249480247,0.48771250247955,-0.22800001502037,-0.14595000445843,-0.26895001530647,0.88742500543594,-0.79928749799728,-1.76233744621277,1.92238748073578,1.76632499694824,1.35080003738403,-1.07295000553131,-2.66595005989075,-2.79795002937317,9.84795093536377,8.90700054168701,9.22305011749268,1.71943747997284,1.47826254367828,0.95754998922348,0.86100006103516,2.9520001411438,10.7280006408691,-2.21017503738403,-1.8434624671936,-1.49228751659393,-3.86581254005432,-7.74551248550415,-10.3020496368408,-2.37900018692017,-1.30305004119873,-3.19995021820068,13.921950340271,13.6540508270264,10.4850006103516,-6.06127500534058,-0.06916250288486,2.95295000076294,46.3300514221191,15.9660005569458,6.24000024795532,-3.15713739395142,-4.95109987258911,-9.35879993438721,-3.168137550354,-0.07301250100136,11.9050245285034,-29.1400508880615,-28.0750522613525,-21.9889507293701,4.05495023727417,5.1589503288269,6.79200029373169,8.70650005340576,8.5452127456665,8.33428764343262,-14.3490009307861,-17.5579509735107,-13.6180505752563,3.80655002593994,4.69026231765747,7.0914249420166,3.86100006103516,2.34863758087158,2.98567509651184,-7.31505012512207,-6.2029504776001,-4.95105028152466,8.89005088806152,8.45400047302246,9.70905017852783,-4.73880004882813,-8.99538707733154,-10.746862411499,1.36395001411438,0.08505000174046,-0.43200001120567,SWING_RIGHT
0.80299997329712,0.52263748645782,0.28558748960495,-0.21436250209808,-0.18438750505447,-0.22728750109673,0.38205000758171,0.31005001068115,0.28905001282692,10.900050163269,10.85205078125,10.5739507675171,-0.05664999783039,-0.0441375002265,-0.13213749229908,2.23995018005371,2.94705009460449,4.26195001602173,-0.36533749103546,-0.80891251564026,-1.38380002975464,-1.09161245822906,-1.71022498607636,-2.48998737335205,-1.50000011920929,-2.26800012588501,-5.0779504776001,11.8309507369995,15.9460506439209,19.3950004577637,-1.00196254253387,-1.48816251754761,-1.34103751182556,33.4639511108398,35.2219505310059,32.310001373291,-4.40151262283325,-4.93528747558594,-6.08808755874634,-6.94595003128052,-5.04570007324219,-3.00107502937317,-32.779052734375,-31.6720523834229,-35.2549514770508,0.99900007247925,1.557000041008,2.14605021476746,5.79864978790283,6.98953723907471,8.20765018463135,-3.18795013427734,-10.5600004196167,-19.678050994873,-9.58127498626709,-5.41860008239746,-0.67512500286102,16.4595756530762,14.5314121246338,8.49543762207031,-18.1450500488281,-12.3109502792358,-12.4930505752563,5.81295013427734,10.4160003662109,11.5560007095337,7.8692626953125,4.86997509002686,-0.97638750076294,-1.65495002269745,0.12300000339746,0.1710000038147,13.4580869674683,13.4552001953125,12.1350622177124,4.22482490539551,2.0315625667572,-0.50819998979568,-0.32100000977516,0.85395002365112,1.15995001792908,7.93695020675659,8.11905002593994,7.77195024490356,-5.671875,-3.98832488059998,-2.79468750953674,-1.37295007705688,-0.72795003652573,-0.04395000264049,SWING_RIGHT
-0.55412501096725,-0.56856250762939,-0.43573749065399,-0.23017500340939,0.57626247406006,1.48238754272461,1.94295012950897,2.10900020599365,1.92000007629395,10.1140508651733,9.79800033569336,9.44400024414062,0.92551249265671,0.45086249709129,0.36465001106262,1.37805008888245,0.90195006132126,0.18300001323223,0.13158750534058,0.2435124963522,0.19208750128746,1.23364996910095,0.94146251678467,0.67292499542236,1.94595015048981,1.31100010871887,0.87795001268387,7.85100030899048,7.03200054168701,6.72495031356812,0.65848749876022,0.88838750123978,0.96277499198914,0.41295000910759,1.27305006980896,2.90595006942749,-2.05865001678467,-3.80737495422363,-3.93387508392334,-0.45663750171661,-3.75705003738403,-6.06347513198853,-2.43105006217957,-3.54495024681091,-1.18605005741119,13.5679502487183,16.4490013122559,13.9030504226685,-3.2905125617981,-3.71332502365112,-1.40263748168945,36.5869522094727,33.586051940918,24.1950016021729,-3.89413738250732,-4.09213733673096,-5.08144998550415,-5.48611259460449,-3.67949986457825,-1.1785124540329,-29.0449504852295,-30.1180515289307,-33.8590507507324,5.90595006942749,7.69005060195923,4.69905042648315,7.30757474899292,8.41486263275146,9.43703746795654,-15.6109504699707,-23.4070510864258,-23.776050567627,-5.3237247467041,2.31522488594055,5.27642488479614,15.1355876922607,4.14342498779297,1.71641254425049,-12.3109502792358,-9.34800052642822,-7.52805042266846,12.8280010223389,13.3549509048462,10.746000289917,2.56244993209839,-3.11093759536743,-9.11638736724854,3.11505007743835,2.74605011940002,-2.38305020332336,SWING_RIGHT
1.97257494926453,1.62332499027252,0.97666251659393,-0.1703625023365,0.88151252269745,1.8133499622345,1.86405003070831,1.25100004673004,1.09305000305176,9.09195041656494,9.99705028533936,10.1070003509521,2.09646248817444,2.16438746452332,2.06621241569519,1.05705010890961,0.95895004272461,0.94005006551743,-1.26926255226135,-1.08872497081757,-1.04582500457764,2.68331241607666,1.92376244068146,0.36286249756813,0.52305001020432,-0.34305000305176,0.31695002317429,8.5890007019043,10.2720003128052,12.5329504013062,-0.62012499570847,-2.9546000957489,-4.60611248016357,23.5060520172119,33.6940498352051,35.1599998474121,-4.49074983596802,-5.12998723983765,-5.1486873626709,-10.0281496047974,-8.82447528839111,-6.71549987792969,-8.7679500579834,-12.4180507659912,-23.4880504608154,9.27600002288818,4.7920503616333,-0.89505004882813,1.48307502269745,6.29268741607666,7.93086242675781,23.3260517120361,4.21605014801025,-1.82505011558533,-9.8115873336792,-10.9911994934082,-5.17192506790161,9.41531276702881,17.1022491455078,18.7734241485596,-38.1580505371094,-26.2879505157471,-15.774001121521,3.97305011749268,4.30605030059814,11.8789501190186,9.27643775939941,8.36110019683838,6.60591268539429,-7.71495056152344,-2.04105019569397,2.38394999504089,6.29323768615723,8.79587459564209,21.8985252380371,2.19862508773804,0.56870001554489,-3.3659999370575,4.93995046615601,7.67205047607422,5.36400032043457,1.73205006122589,3.74295020103455,6.26805019378662,-3.17350006103516,-0.93568748235703,1.31573748588562,0.89700001478195,0.51405000686646,-1.46595001220703,SWING_RIGHT
0.30277499556541,-1.4918749332428,-3.57788753509521,1.96817493438721,0.99756246805191,0.09473749995232,-0.70005005598068,-1.77300012111664,-1.33005011081696,11.3620510101318,14.9860506057739,16.8730506896973,1.25688743591309,0.95823746919632,0.67581248283386,2.00999999046326,2.58795022964478,2.45295000076294,-3.27414989471436,-0.41401249170303,0.42294999957085,-1.13327503204346,-1.03372502326965,-1.24932503700256,0.20205001533031,0.24105000495911,-0.4909500181675,9.51300048828125,7.06095027923584,8.75594997406006,-0.19057500362396,-0.65628749132156,-1.36056244373322,8.13899993896484,13.9900503158569,20.7559509277344,-1.54096245765686,-2.52326250076294,-3.57678747177124,-6.32445001602173,-7.38787508010864,-7.83475017547607,-1.29405009746552,-8.824049949646,-31.0999507904053,13.1179504394531,10.7509508132935,5.57100009918213,0.43628749251366,5.97038745880127,7.71154975891113,25.6710014343262,-1.52805006504059,-10.2460508346558,-8.73193740844727,-9.46591281890869,-7.51189994812012,5.98922491073608,14.2381248474121,18.6828117370605,-24.5440502166748,-15.1440010070801,-10.6290006637573,9.421950340271,6.77805042266846,6.73695039749146,9.92708778381348,9.98098754882812,9.09988784790039,-11.3479509353638,-6.98895025253296,-4.75200033187866,6.00723743438721,11.1042251586914,14.3658628463745,4.56073760986328,3.70218753814697,2.41903758049011,-1.04205000400543,0.85395002365112,0.41805002093315,5.62395048141479,5.60895013809204,6.29700040817261,-6.63671255111694,-7.07121229171753,-4.66125011444092,-1.86105012893677,-3.09195017814636,-2.52495002746582,SWING_RIGHT
-1.60036253929138,-1.79960000514984,-1.70926249027252,2.42756247520447,1.95703744888306,1.29085004329681,-1.10205006599426,-1.13595008850098,-0.67995005846024,10.8570003509521,10.5049505233765,10.2559509277344,1.27201247215271,0.90323752164841,0.6319500207901,0.28395000100136,0.15195000171661,0.65505003929138,-0.19992500543594,-0.13681249320507,-0.5906999707222,-1.74033749103546,-1.7598625421524,-1.60778748989105,-1.52805006504059,-3.60495018959045,-5.10405015945435,11.1300001144409,14.2480506896973,16.7650508880615,0.89980000257492,-0.43834999203682,-2.54388737678528,15.0799503326416,26.3250007629395,32.2240524291992,-1.87055003643036,-1.80097496509552,-1.87618744373322,-9.53493785858154,-10.7115249633789,-10.3489370346069,-2.2110002040863,-14.824951171875,-28.2229518890381,3.82995009422302,2.38995003700256,-1.91700005531311,0.37757501006126,3.85247492790222,7.2085747718811,20.7829513549805,6.42000007629395,-0.90300005674362,-8.42008781433105,-8.3956127166748,-5.85419988632202,12.5394496917725,20.1112995147705,22.4721755981445,-26.8870506286621,-20.1520500183105,-12.0540008544922,18.1039505004883,15.5959510803223,10.0849504470825,9.65318775177002,8.71186256408691,7.4516749382019,-11.2930507659912,-3.42795014381409,0.56595003604889,4.82817506790161,5.04611253738403,7.62465000152588,2.95597505569458,1.90781247615814,1.4441624879837,-1.6429500579834,0.27195000648499,0.91095006465912,6.04995012283325,6.36795043945313,7.32600021362305,-10.1857252120972,-10.70973777771,-7.78318738937378,0.03495000302792,0.28095000982285,0.20505000650883,SWING_RIGHT
-0.94751250743866,-0.79736250638962,-0.4311999976635,-3.06734991073608,-3.22148752212524,-2.92379999160767,2.10195016860962,1.53195011615753,1.29900002479553,8.10195064544678,7.50405025482178,7.69305038452148,1.50026249885559,1.53477501869202,1.5914249420166,5.56695032119751,6.35700035095215,6.69495010375977,-0.51370000839233,-0.89375001192093,-0.93706250190735,-1.91537499427795,-1.5555374622345,-0.65614998340607,-0.09600000083447,-0.51794999837875,-0.28500002622604,13.4940004348755,11.7690010070801,8.59800052642822,1.65453743934631,1.1061874628067,-0.26949998736382,7.23405027389526,14.8240509033203,27.1530017852783,-2.10732507705688,-3.27305006980896,-3.99946236610413,-4.52993726730347,-6.66379976272583,-7.67923736572266,0.01800000108778,-11.5039501190186,-28.7980518341064,10.3750505447388,7.31205034255981,2.74005007743835,0.45787498354912,3.92837500572205,8.17712497711182,20.6599502563477,12.502950668335,-0.51105004549026,-7.77658748626709,-9.51939964294434,-7.58367490768433,5.69043731689453,15.5062875747681,20.3544006347656,-23.8879508972168,-15.9799509048462,-12.8110504150391,11.3449506759644,15.8530511856079,17.2249507904053,8.89900016784668,8.31861209869385,7.39928722381592,-13.6470003128052,-6.67995023727417,-1.39395010471344,8.31888771057129,8.88965034484863,7.16416263580322,5.35768747329712,4.27803754806519,0.23306250572205,-5.63100004196167,-3.70305013656616,-1.52100002765656,7.54905033111572,6.64905023574829,7.0489501953125,-7.95712518692017,-6.82357501983643,-5.28055000305176,0.80595004558563,1.29195010662079,1.01205003261566,SWING_RIGHT
1.88388752937317,1.54027497768402,0.94792497158051,-0.72490000724792,-2.49108743667603,-2.70105004310608,6.64005041122437,3.85695028305054,3.4740002155304,9.6109504699707,7.75305032730103,7.23795032501221,0.32766249775887,0.9589250087738,1.67048752307892,1.38105010986328,0.07800000160933,-1.94295012950897,-2.22199988365173,-3.17583751678467,-4.34940004348755,1.03262495994568,3.33574986457825,5.31712484359741,0.01095000095665,-1.50195002555847,-2.29500007629395,7.71195030212402,9.68505001068115,11.5390501022339,3.9811749458313,1.84126245975494,0.04427500069141,-0.09600000083447,8.19000053405762,15.2239503860474,-3.07903742790222,-1.71132504940033,-1.01681244373322,-6.9858250617981,-10.3692874908447,-11.9506750106812,1.58895003795624,2.1780002117157,-1.13295006752014,10.7779502868652,12.4729509353638,12.0760507583618,-5.38876247406006,-3.60813736915588,-0.90337496995926,33.3799514770508,26.2909507751465,20.0209503173828,-2.83703756332397,-5.28302478790283,-7.66204977035522,-4.12596225738525,0.3272500038147,4.0746750831604,-25.1599502563477,-22.1520004272461,-21.7950019836426,5.86500024795532,7.95195055007935,5.85300016403198,6.59738731384277,6.46511268615723,6.74946260452271,-6.38595008850098,-12.3060007095337,-16.0950012207031,-3.94322490692139,-0.21972499787807,2.18886256217957,14.0010747909546,10.4246997833252,6.47583723068237,-7.94205045700073,-6.06405019760132,-5.04900026321411,9.34800052642822,10.5310506820679,10.4659509658813,8.28767490386963,-2.39153742790222,-6.66792488098145,-2.76705002784729,1.48605012893677,2.0179500579834,SWING_RIGHT
0.20941250026226,-0.14038750529289,-1.11636245250702,1.91729998588562,2.28607487678528,2.55791258811951,3.05205011367798,2.4060001373291,2.41800022125244,9.00300025939941,9.73605060577393,12.7939510345459,1.28397500514984,1.27861249446869,1.39865005016327,-1.39695012569427,-1.76595008373261,-1.85400009155273,-1.21838748455048,-0.76326251029968,-0.69382500648499,1.38118743896484,1.86422502994537,1.5057624578476,1.39995002746582,-0.28995001316071,-3.02805018424988,2.40900015830994,0.71895003318787,4.09995031356812,1.93888747692108,1.65838754177094,0.33687499165535,8.73600006103516,14.7280502319336,30.0850505828857,-2.80115008354187,-1.29263746738434,-1.72342503070831,-10.8376121520996,-9.41558742523193,-8.00923728942871,-0.38805001974106,-7.35495042800903,-22.5919513702393,3.94005012512207,0.29700002074242,-2.90400004386902,-0.4296875,1.76701247692108,4.43616247177124,30.6049518585205,19.7070007324219,11.6910009384155,-4.96567487716675,-5.67476224899292,-9.29953765869141,-3.68720006942749,0.82059997320175,21.3493499755859,-38.086051940918,-38.1030006408691,-24.4560012817383,7.05600023269653,9.89595031738281,18.5850009918213,9.83399963378906,9.73871231079102,9.17702484130859,-29.8159523010254,-16.8250503540039,-6.00000047683716,5.37886238098145,6.94402503967285,8.05571269989014,3.74921250343323,3.5989248752594,2.55516242980957,-4.62495040893555,-2.62305021286011,-0.7620000243187,6.65595054626465,7.21395015716553,8.61495018005371,-7.67552518844604,-10.1642751693726,-7.6007251739502,-0.95100003480911,-2.0310001373291,-2.37105011940002,SWING_RIGHT
-1.34392499923706,0.03588749840856,1.42821252346039,-8.43136215209961,-5.22830009460449,-1.78543746471405,2.35800004005432,2.7480001449585,1.98195004463196,7.03905010223389,7.83900022506714,8.00895023345947,0.84356248378754,1.93476247787476,2.88131237030029,0.94005006551743,0.89895004034042,1.42095005512238,-0.76504999399185,-2.26379990577698,-2.81022500991821,7.45854997634888,4.31365013122559,1.23296248912811,-0.73605000972748,-0.41700002551079,-0.26399999856949,8.3299503326416,8.82600021362305,8.96700000762939,-1.09119999408722,-1.10989999771118,-0.93637502193451,3.17895007133484,3.26100015640259,2.71200013160706,-0.61971247196198,-0.45622500777245,-0.42611250281334,-1.32027494907379,-0.77233749628067,-0.30140000581741,-1.23405003547668,-1.5040500164032,-2.18505001068115,10.6440000534058,13.042950630188,16.7290515899658,-1.55691254138947,-2.38837504386902,-1.90918743610382,55.3980026245117,50.5170021057129,34.6350021362305,-3.60249996185303,-4.16336250305176,-4.24943733215332,-8.81044960021973,-7.28749990463257,-5.48803758621216,-31.1190013885498,-39.4870529174805,-43.4839515686035,-6.62100028991699,-8.98695087432861,-2.78895020484924,6.09743738174438,8.41637516021729,10.2665748596191,-2.05305004119873,-11.1589508056641,-22.6330509185791,-8.77648735046387,-1.20518743991852,5.18209981918335,22.7731628417969,16.837287902832,6.2302622795105,-17.002950668335,-13.6540508270264,-10.5790500640869,12.5449504852295,6.16500043869019,4.8550500869751,6.55407476425171,3.38566255569458,0.97789996862411,-2.46705007553101,-0.46995002031326,-0.70500004291534,SWING_RIGHT
0.45636248588562,0.26812499761581,-0.03561250120401,-0.84136247634888,-1.23090004920959,-0.64157497882843,2.64795017242432,2.81805014610291,1.58205008506775,9.85995006561279,9.80505084991455,8.28194999694824,0.39668750762939,0.91973751783371,1.54563748836517,-0.26595002412796,-0.60600000619888,-1.02105009555817,-1.52349996566772,-2.06139993667603,-2.44942498207092,2.52037501335144,2.64398741722107,2.06896257400513,-0.25905001163483,-0.7590000629425,-1.07295000553131,11.053050994873,11.1510009765625,11.0910005569458,0.86734998226166,0.09487500041723,-1.25771248340607,2.03895020484924,4.36695003509521,9.72705078125,-1.70417499542236,-1.60998749732971,-1.59348750114441,-4.83202505111694,-6.40048742294312,-8.27956199645996,-1.78695011138916,1.43805003166199,2.73405003547669,13.3740005493164,10.2000007629395,7.69005060195923,-2.94043755531311,-0.68722498416901,2.40666246414185,36.7549514770508,24.492000579834,15.4699506759644,-3.27373743057251,-4.972825050354,-8.2237377166748,-4.98602485656738,-1.69922494888306,4.61477518081665,-33.586051940918,-33.5980529785156,-34.2850532531738,4.26300001144409,10.8690004348755,11.5750503540039,9.33844947814941,10.3162126541138,10.5769128799438,-17.1870002746582,-23.6680507659912,-20.1949501037598,3.50418758392334,3.88478755950928,4.01486253738403,7.50103759765625,3.68280005455017,2.17717504501343,-8.50305080413818,-5.63595008850098,-3.13500022888184,6.86895036697388,6.79200029373169,6.94800043106079,0.75515002012253,-10.0244379043579,-12.7521619796753,2.05800008773804,0.0730499997735,-0.79095005989075,SWING_RIGHT
-3.05648756027222,-3.62216258049011,-3.52302503585815,-2.18735003471375,-2.63436245918274,-1.94672501087189,-1.10400009155273,-0.76905006170273,-1.29105007648468,8.69895076751709,9.57495021820068,10.5690002441406,1.04170000553131,1.1365749835968,1.01378750801086,2.26905012130737,2.22795009613037,1.31295001506805,-0.92839998006821,-0.23072500526905,0.22893749177456,1.12804996967316,1.01859998703003,0.67182499170303,-0.63495004177094,-0.33105000853539,0.05100000277162,10.8019504547119,10.6410007476807,10.2990007400513,-0.49857500195503,-0.69437497854233,-0.86075001955032,3.51000022888184,3.61305022239685,3.88095021247864,0.94269996881485,0.49348750710487,-0.25107499957085,-1.5778124332428,-2.61153745651245,-5.38092517852783,0.07500000298023,2.75100016593933,3.07395005226135,11.8270502090454,12.8449506759644,14.2980003356934,-3.79183745384216,-2.44681239128113,-0.1913999915123,44.7499504089355,31.2970523834229,18.1960506439209,-5.05518770217896,-6.76087474822998,-9.44941234588623,-3.07862496376038,0.6737499833107,6.02098751068115,-28.2850513458252,-31.7800521850586,-31.2769508361816,10.3609504699707,8.425950050354,6.01605033874512,7.39846229553223,9.05203723907471,10.0523500442505,-21.9529514312744,-23.6080513000488,-18.3679504394531,-0.88577497005463,1.7881875038147,2.58788752555847,10.2744121551514,5.30200004577637,1.9406750202179,-6.796950340271,-5.7049503326416,-3.49005007743835,9.97995090484619,9.35295009613037,7.81995058059692,-1.69949996471405,-6.77352476119995,-10.3507251739502,0.3870000243187,0.11100000888109,-0.74805003404617,SWING_RIGHT
-1.45158743858337,-1.27861249446869,-1.23420000076294,-2.23616242408752,-2.11612510681152,-1.77168750762939,-0.67605000734329,-1.87095010280609,-2.27295017242432,9.99900054931641,10.0039501190186,9.93900012969971,0.60554999113083,0.74813747406006,0.86143749952316,1.29405009746552,0.81105005741119,0.99495005607605,-1.62043750286102,-1.22622501850128,-0.81894999742508,-0.86308747529984,-0.73699998855591,-1.5358749628067,-3.51900005340576,-3.6889500617981,-2.24700021743774,13.9510507583618,14.8609504699707,14.1709508895874,-2.1900999546051,-4.94573736190796,-6.34356260299683,33.6559524536133,43.4440536499023,42.0049514770508,-2.99200010299683,-3.46142506599426,-3.37590003013611,-9.01752471923828,-7.52565002441406,-5.20795011520386,-18.1140003204346,-23.9839515686035,-26.2930507659912,12.4210510253906,9.52305030822754,6.1360502243042,3.3932249546051,4.69521236419678,5.68686246871948,24.2839508056641,11.1810007095337,-0.44805002212524,-14.5169744491577,-14.6920127868652,-12.0205249786377,11.1498746871948,14.3383626937866,14.3323125839233,-34.4809532165527,-27.1500015258789,-22.806001663208,-6.26700019836426,-0.72705000638962,7.15395021438599,8.49598789215088,8.93585014343262,8.51372528076172,-14.7490510940552,-10.9170007705688,-7.4370002746582,10.0861749649048,11.2530002593994,9.8565502166748,7.50337505340576,8.72437477111816,7.42926263809204,-10.7560501098633,-7.68600034713745,-4.53404998779297,6.57705020904541,5.72205018997192,4.7590503692627,-2.20508742332459,-0.0576125010848,1.50961244106293,-3.78195023536682,-2.91300010681152,-2.8000500202179,SWING_RIGHT
-0.89471250772476,-1.1756249666214,-1.20216250419617,2.33736252784729,2.29693746566772,2.06978750228882,-0.36000001430511,0.11805000901222,0.36000001430511,10.2100505828857,10.5910501480103,10.3489503860474,0.36574998497963,0.05376249924302,-0.11316250264645,2.67405009269714,1.96695005893707,1.09995007514954,0.45416250824928,0.83283752202988,0.95796251296997,0.4628250002861,0.47973749041557,0.41098749637604,1.27305006980896,1.07205009460449,0.94200003147125,9.41205024719238,9.06494998931885,8.81100082397461,-0.31679999828339,-0.29562500119209,-0.42391249537468,1.42395007610321,2.78400015830994,5.20305013656616,-1.0118625164032,-1.73483753204346,-2.21567487716675,-2.30202507972717,-4.90847492218018,-7.83777475357056,-0.77400004863739,0.27705001831055,-5.44395017623901,15.903000831604,14.9190006256104,13.9530010223389,-1.32109999656677,0.00604999996722,1.71943747997284,46.5750007629395,42.0670509338379,34.3140029907227,-2.77241253852844,-3.16112494468689,-4.52952480316162,-6.2129373550415,-4.24765014648438,-2.05851244926453,-34.5289497375488,-39.7050018310547,-42.3730506896973,1.52295005321503,1.47105002403259,1.1539500951767,6.73392486572266,7.3518500328064,7.63565015792847,-3.25305008888245,-11.0800504684448,-20.0299510955811,-8.47783756256104,-0.92344999313354,3.26040005683899,17.0187873840332,9.0246753692627,4.62192487716675,-25.8619518280029,-21.9100513458252,-19.3810501098633,21.3469505310059,20.5609512329102,13.4890508651733,5.78366231918335,1.27160000801086,-3.29821252822876,-4.84305000305176,-1.76595008373261,0.74295002222061,SWING_RIGHT
-5.03607511520386,-4.01912498474121,-2.6478374004364,-1.50053751468658,-0.87697499990463,-1.20106244087219,0.95700001716614,0.91605001688004,1.05300009250641,9.80505084991455,8.44995021820068,7.85805034637451,0.31322500109673,0.10986249893904,-0.01718750037253,3.87900018692017,0.99705004692078,0.23295001685619,2.33213758468628,2.62322497367859,1.51566255092621,-1.46437501907349,-1.00539994239807,-0.39256250858307,2.65695023536682,2.01104998588562,2.52795004844666,9.4480504989624,9.33300018310547,9.3120002746582,0.82568746805191,1.04939997196198,1.01777493953705,2.5639500617981,4.0770001411438,11.9590501785278,-1.46066248416901,-1.9679000377655,-2.59393739700317,-5.12902498245239,-6.68731260299683,-7.831862449646,1.05705010890961,1.08600008487701,1.12695002555847,10.0519504547119,8.43105030059814,7.70505046844482,-0.26633748412132,3.75265002250671,5.45641231536865,50.4880523681641,17.4370517730713,13.1260509490967,-5.81336259841919,-7.7192497253418,-12.9376497268677,-0.25423750281334,3.77671241760254,15.1002502441406,-31.9590015411377,-36.8880004882813,-29.1430511474609,9.30195045471191,4.40205001831055,-2.2260000705719,5.574387550354,6.03418731689453,6.65458726882935,-13.0099506378174,-15.7500009536743,-17.1660003662109,-2.24125003814697,0.08841250091791,3.33657503128052,5.91181230545044,2.30298757553101,1.29855000972748,-15.0630006790161,-14.0610008239746,-12.5790004730225,15.0289506912231,15.03600025177,13.3570508956909,3.37026238441467,-1.86298751831055,-5.52474975585938,-4.32105016708374,-2.94900012016296,-1.55205011367798,SWING_RIGHT
0.75129997730255,0.595787525177,0.02818750031292,-0.80767500400543,-0.83091247081757,-0.73906248807907,0.7990500330925,-0.28500002622604,-1.44195008277893,6.54795026779175,7.26195049285889,9.95400047302246,0.64487498998642,0.60334998369217,0.60541248321533,0.96900004148483,0.93705004453659,3.34395027160645,-2.35798740386963,-1.51800000667572,-0.74456250667572,-1.51277494430542,-2.14211249351501,-3.1799623966217,-1.33905005455017,-0.5100000500679,0.17805001139641,10.9570503234863,9.70905017852783,9.74505043029785,-2.63642501831055,-4.8449501991272,-5.59322500228882,22.4850006103516,36.5299530029297,41.077953338623,-3.95738744735718,-4.2491626739502,-3.77574992179871,-9.8040246963501,-7.9030876159668,-0.88880002498627,-23.076000213623,-28.851001739502,-41.0580024719238,17.7949504852295,23.9140510559082,6.67995023727417,4.30031251907349,4.32162475585938,4.15442514419556,21.2880001068115,6.21405029296875,-5.18595027923584,-13.669150352478,-14.0989751815796,-11.8292627334595,11.8416376113892,15.1795873641968,14.9052753448486,-29.943000793457,-29.0209522247314,-30.1729507446289,-4.85100030899048,1.17405009269714,10.1839504241943,7.73808765411377,9.18830013275146,5.67668724060059,-18.9570007324219,-17.1340503692627,-3.90405011177063,11.2781620025635,11.9911003112793,10.4710378646851,7.12992477416992,8.52857494354248,7.24941253662109,-7.49895048141479,-3.25695013999939,0.34800001978874,4.83795022964478,3.41805005073547,4.64400005340576,-4.43272495269775,-3.04026246070862,-2.66681241989136,-0.10305000841618,-0.84300005435944,-0.12300000339746,SWING_RIGHT
2.1793749332428,0.6736124753952,-0.70894998311996,-2.29817509651184,-1.77209997177124,-1.22718751430511,5.09805011749268,5.35905027389526,4.71900033950806,11.3620510101318,10.5520505905151,7.45605039596558,2.22186255455017,2.19312500953674,1.90011250972748,-2.92200016975403,-3.21000003814697,-0.87495005130768,-1.02726244926453,-2.19821238517761,-4.48043727874756,4.62343740463257,6.00847482681274,7.06516265869141,-1.14705002307892,-2.49795007705688,-3.62895011901855,7.17795038223267,8.21700000762939,11.0119504928589,-0.46612501144409,-1.60311245918274,-3.06900000572205,14.2350006103516,33.1860008239746,41.2360534667969,-2.8804874420166,-1.50534999370575,-1.55911254882813,-13.4254999160767,-13.0007619857788,-8.21961212158203,-1.33005011081696,-4.37400007247925,-26.4130516052246,7.76700019836426,7.30695056915283,1.59795010089874,0.78539997339249,3.72501254081726,6.43403768539429,31.4740524291992,17.2549514770508,7.19100046157837,-2.5396249294281,-4.39876270294189,-9.27506256103516,-0.50998747348785,4.15662479400635,16.3814754486084,-43.4749526977539,-43.5679512023926,-30.6040515899658,11.2780504226685,4.73699998855591,3.42705011367798,5.96145009994507,6.10252475738525,7.13404989242554,-22.605001449585,-21.3090019226074,-13.4890508651733,3.81246256828308,6.51942491531372,10.0616998672485,7.19221258163452,6.72498750686646,7.79171228408813,-9.09705066680908,-6.52200031280518,-4.0770001411438,8.41604995727539,6.85695028305054,6.60795021057129,-0.94902497529984,-3.30714988708496,-3.94886255264282,-4.45800018310547,-2.09805011749268,-1.24605000019073,SWING_RIGHT
1.13203752040863,1.1669625043869,0.90117502212524,0.16843749582767,0.40576249361038,0.27348750829697,1.22505009174347,0.62595003843307,0.37200000882149,9.74805068969727,9.78600025177002,10.2000007629395,0.47437500953674,0.39572501182556,-0.21615000069141,3.01905012130737,3.51195025444031,10.8259506225586,-1.1365749835968,-1.75353753566742,-2.56905007362366,-1.99471247196198,-3.78908753395081,-5.55513763427734,0.4870500266552,-0.95100003480911,-3.27705025672913,14.3770503997803,14.9620504379272,13.6519508361816,-3.11588740348816,-2.14610004425049,-0.22439999878407,32.60205078125,28.5070514678955,22.5070514678955,-4.36644983291626,-4.77798748016357,-7.72007513046265,-4.61876249313354,-3.02128744125366,1.59431254863739,-19.2970504760742,-27.0400505065918,-36.3490524291992,8.94300079345703,7.70700025558472,5.05605030059814,4.16982507705688,4.42433738708496,4.78156232833862,-0.10305000841618,-7.59000015258789,-12.5190010070801,-6.32032489776611,-2.25156259536743,1.10302495956421,11.5949621200562,7.17667484283447,3.53154993057251,-15.9460506439209,-14.3700008392334,-13.2349510192871,13.2349510192871,16.0349998474121,13.6300506591797,6.5014123916626,-3.41082501411438,-6.95956230163574,-3.63105010986328,-2.31900000572205,-2.62095022201538,11.8375120162964,8.6311502456665,7.144362449646,8.49103736877441,4.44166231155396,-0.56856250762939,-0.60900002717972,1.00005006790161,0.82305002212524,8.78295040130615,8.36595058441162,9.00495052337646,-1.09972500801086,-0.29466250538826,0.75652498006821,0.49395000934601,-0.90795004367828,-1.5040500164032,SWING_RIGHT
0.04001250118017,0.52112501859665,0.85745000839233,-1.78516244888306,-2.52917504310608,-3.09828758239746,3.34500026702881,2.50200009346008,1.86705005168915,5.78205013275146,5.80995035171509,6.796950340271,0.86831247806549,1.49366247653961,3.08082509040833,1.17495000362396,-0.25200000405312,-2.76405024528503,-2.39717507362366,-3.21296238899231,-3.42210006713867,4.96815013885498,6.03872489929199,5.7476372718811,-0.63000005483627,-1.24800002574921,-1.28895008563995,11.5699501037598,13.2679510116577,14.8639507293701,0.348149985075,-1.10054993629456,-2.91527509689331,5.15295028686523,11.1619501113892,19.219051361084,-0.60500001907349,-2.94731259346008,-3.36380004882813,-7.30331230163574,-12.0465126037598,-11.6466627120972,2.19000005722046,-10.7850008010864,-23.6250019073486,11.4430503845215,11.3640003204346,9.88905048370361,-0.8428750038147,3.42498755455017,7.13404989242554,38.3070030212402,27.1200008392334,15.4060506820679,-2.80527496337891,-5.98400020599365,-10.1950750350952,0.02227500081062,4.90861225128174,15.2299127578735,-47.4700508117676,-37.6120529174805,-26.4079513549805,2.36205005645752,2.18204998970032,6.91395044326782,6.50925016403198,6.68373727798462,7.3167872428894,-13.6069507598877,-10.7610006332397,-7.84605026245117,3.82800006866455,5.73842477798462,6.91968727111816,5.88224983215332,4.82817506790161,4.82666254043579,-12.5070009231567,-10.4089508056641,-8.28194999694824,7.78095054626465,7.97100019454956,8.79900074005127,-2.45217490196228,-4.83120012283325,-5.44252490997314,-3.23400020599365,-1.60500001907349,-1.3819500207901,SWING_RIGHT
0.27156248688698,0.0591249987483,-0.18246249854565,1.18978750705719,1.35712504386902,1.31174993515015,1.60605013370514,1.28205001354218,0.81300002336502,10.8970508575439,11.1300001144409,10.9570503234863,1.33471250534058,1.0616375207901,0.74978750944138,0.41100001335144,1.39305007457733,3.30900025367737,-0.90818750858307,-0.87505000829697,-0.86198747158051,-2.23877501487732,-3.28817486763,-4.51041269302368,-0.03900000080466,-0.28800001740456,0.20700001716614,8.5620002746582,9.59700012207031,11.0670003890991,-0.56636250019073,-0.95961248874664,-1.52363753318787,14.5750503540039,19.7890510559082,23.9940013885498,-1.93806254863739,-2.46826243400574,-2.79399991035461,-7.67552518844604,-6.81381225585938,-5.68809986114502,-5.23605012893677,-13.5229501724243,-28.9729518890381,6.796950340271,7.60695028305054,7.64700031280518,2.89341259002686,5.40897512435913,7.00796222686768,34.9279518127441,21.0769500732422,13.0470008850098,-4.13985013961792,-6.15147495269775,-9.42906284332275,0.6180624961853,4.53406238555908,11.7126626968384,-35.4900016784668,-33.2860527038574,-30.7879505157471,7.00995016098022,4.2679500579834,3.37005019187927,4.09351253509521,4.19320011138916,4.79984998703003,-8.20604991912842,-8.96505069732666,-7.11600017547607,0.9953625202179,5.59514999389648,7.67002487182617,6.41795015335083,5.07333755493164,8.29798698425293,-17.496000289917,-11.8150501251221,-8.5620002746582,18.0750007629395,12.8760004043579,9.9060001373291,-6.98981237411499,-8.47907447814941,-7.55246257781982,0.09195000678301,-0.08400000631809,-0.43395000696182,SWING_RIGHT
0.1214125007391,0.52841252088547,0.61696249246597,0.29631251096725,0.3603875041008,0.25946250557899,1.34205007553101,1.01895010471344,0.57600003480911,6.78795051574707,7.05105018615723,7.72200059890747,0.51452499628067,0.38170000910759,0.34924998879433,0.35505002737045,0.40095001459122,1.35195004940033,-2.20288753509521,-2.25802493095398,-1.92032504081726,-0.14643749594688,-0.6210874915123,-1.71971249580383,-1.07595002651215,-1.14300000667572,0.04395000264049,12.7060508728027,13.371000289917,12.9120006561279,-1.87027502059937,-3.88877487182617,-5.11692476272583,23.1079502105713,30.3940505981445,36.4219512939453,-3.17748737335205,-3.75017499923706,-3.54516243934631,-9.16698741912842,-6.16027498245239,-4.24778747558594,-12.0330009460449,-24.2809505462646,-34.3879508972168,16.114049911499,8.96895027160645,7.69305038452148,3.96549987792969,5.0894250869751,5.60903739929199,22.7539520263672,15.2050504684448,0.30495002865791,-11.8573122024536,-12.6530246734619,-11.0845623016357,11.5512371063232,16.3872489929199,17.7372245788574,-32.659049987793,-27.8640022277832,-24.4849510192871,-2.77500009536743,-1.35705006122589,6.28200006484985,6.48395013809204,8.00813770294189,6.60866260528564,-17.0190010070801,-10.2610502243042,-5.92800045013428,8.59416198730469,11.3810119628906,11.6041746139526,6.09853744506836,8.73001289367676,8.96747493743896,-9.46305084228516,-6.01200008392334,-2.89605021476746,7.30200052261353,6.18600034713745,6.31605052947998,-4.74168729782104,-3.48768758773804,-1.52954995632172,-2.07705020904541,-1.78500008583069,-1.97895014286041,SWING_RIGHT
-1.15802502632141,-2.80156254768372,-3.91503739356995,3.56069993972778,3.10750007629395,2.19807505607605,0.03195000067353,-0.10800000280142,-0.77895003557205,10.1880006790161,10.3270502090454,10.8300008773804,-0.01539999991655,-0.35103750228882,-0.43642500042915,-0.77595001459122,-0.60600000619888,-0.18195000290871,-1.86724996566772,-1.31326246261597,-0.90749996900558,-0.43133750557899,-1.39039993286133,-3.49703741073608,-1.87605011463165,-1.62600004673004,0.6240000128746,13.7449502944946,13.3810510635376,13.3740005493164,-4.48098754882813,-5.30158758163452,-4.41993761062622,43.0200004577637,42.4980010986328,39.5790023803711,-3.21131253242493,-3.39680004119873,-3.19137501716614,-10.6979122161865,-7.6591625213623,-4.54602479934692,-24.1900520324707,-29.3899517059326,-36.8170509338379,10.3129501342773,6.77295017242432,5.65200042724609,4.70483732223511,5.39646244049072,6.13566255569458,11.5710000991821,-5.7529501914978,-17.1970500946045,-13.8953371047974,-6.7401123046875,-1.24134993553162,15.5105495452881,12.2691249847412,5.7685375213623,-23.4000015258789,-21.7399501800537,-18.2740516662598,2.73300004005432,15.9940509796143,17.2350006103516,8.60502529144287,5.46576261520386,-6.02703762054443,-5.9520001411438,-2.51295018196106,1.34895002841949,12.2341995239258,9.07651233673096,5.00252485275269,9.99253749847412,6.08231258392334,-0.93527501821518,-1.87800014019012,0.38895002007484,1.90305006504059,6.01200008392334,6.36405038833618,7.01505041122437,-1.89310002326965,-2.08491253852844,-1.86587500572205,-1.6840500831604,-1.36995005607605,-1.3819500207901,SWING_RIGHT
-1.3613874912262,-0.83380001783371,-0.17558750510216,0.76408749818802,0.28104999661446,0.11921250075102,0.82995003461838,1.59900009632111,1.84500002861023,10.252950668335,9.50595092773438,9.01995086669922,-0.2411749958992,-0.13543750345707,-0.10216250270605,-0.09405000507832,1.03995001316071,2.25,1.89007496833801,2.11158752441406,1.68478751182556,0.05115000158548,-0.16527499258518,-1.99650001525879,3.0949501991272,3.24600005149841,4.83195018768311,8.00400066375732,7.97505044937134,12.1669502258301,-2.01203751564026,-2.99804997444153,-2.36926245689392,31.6630516052246,46.1359519958496,48.1740036010742,-5.10400009155273,-5.32963752746582,-4.42763757705688,-11.6752624511719,-9.14471244812012,-5.62718725204468,-12.8160009384155,-14.356050491333,-24.7669506072998,11.6209506988525,7.41300058364868,4.87395000457764,3.69214987754822,4.71198749542236,6.02745008468628,36.1830024719238,24.8089504241943,-1.79700005054474,-16.4943618774414,-16.5279121398926,-13.6703872680664,14.7038373947144,18.5020008087158,18.5953617095947,-36.8020515441895,-34.4719505310059,-31.806001663208,3.78900027275085,5.92500019073486,13.2250509262085,6.65939998626709,7.68803739547729,6.87169981002808,-14.8279504776001,-10.1550006866455,-4.6230001449585,4.88111257553101,6.70931243896484,6.703125,6.01851224899292,8.80398750305176,6.62488746643066,-12.5329504013062,-6.49305009841919,2.1780002117157,8.12895011901855,4.68195009231567,2.01195001602173,-4.16666269302368,-3.07340002059937,-4.10258769989014,-0.99705004692078,-2.33805012702942,-2.79300022125244,SWING_RIGHT
-0.17228749394417,-0.22439999878407,-0.21051250398159,0.37303748726845,-0.10972499847412,-0.35007500648499,0.89400005340576,1.54800009727478,1.29195010662079,9.82200050354004,9.84600067138672,9.28605079650879,-0.12870000302792,0.04922499880195,0.24502499401569,1.1580001115799,1.2679500579834,1.39305007457733,0.00659999996424,-0.37413749098778,-0.83806252479553,0.52827501296997,-0.73617500066757,-2.47761249542236,0.89700001478195,0.00405000010505,0.38895002007484,11.0080509185791,12.3340501785278,12.9670505523682,-1.7352499961853,-2.503737449646,-2.27974987030029,21.8749504089355,26.9640007019043,28.3579521179199,-2.02290010452271,-2.04462504386902,-2.35400009155273,-7.36133766174316,-5.98111248016357,-4.90228748321533,-9.63105010986328,-18.9210014343262,-28.3260021209717,8.79900074005127,5.41995048522949,0.51705002784729,4.01830005645752,7.34456253051758,7.52221250534058,18.8790016174316,4.22100019454956,-1.96005010604858,-12.0082874298096,-11.8168878555298,-9.24591255187988,13.1351003646851,17.874174118042,18.5073623657227,-24.8629512786865,-23.8549518585205,-22.3720512390137,6.94095039367676,4.97400045394897,4.87395000457764,4.7016749382019,4.75323724746704,4.09612512588501,-4.88100004196167,-5.91405010223389,-8.16495037078857,1.54742503166199,4.23101234436035,6.64633750915527,4.20433759689331,6.12768745422363,8.91495037078857,-14.1400508880615,-9.35805034637451,-7.29495048522949,11.8339509963989,10.1449508666992,7.91595029830933,-3.34441256523132,-4.66729974746704,-4.32478761672974,-2.78805017471313,-2.03595018386841,-1.09305000305176,SWING_RIGHT
0.99577498435974,1.33746254444122,1.52556252479553,-0.04564999789,-0.20899999141693,-0.33453750610352,2.13705015182495,2.31705021858215,2.5639500617981,8.80695056915283,8.95005035400391,9.41700077056885,-0.4475624859333,-0.28104999661446,-0.07026249915361,1.51005005836487,1.27305006980896,1.182000041008,0.44398748874664,-0.44068750739098,-0.81936252117157,0.02901249937713,-0.36849999427795,-0.63305002450943,1.81200003623962,1.17495000362396,1.11195003986359,9.61395072937012,10.6390504837036,11.2930507659912,0.3134999871254,0.32023748755455,0.168850004673,4.40100002288818,7.39395046234131,13.1260509490967,-1.57410001754761,-1.66732501983643,-1.9210125207901,-4.19430017471313,-6.56218767166138,-8.65356254577637,1.84500002861023,1.17000007629395,-6.8449501991272,12.6739501953125,11.7090005874634,10.9020004272461,-0.29012501239777,1.16104996204376,4.20983743667603,37.8660011291504,26.6670017242432,12.8340005874634,-4.89747476577759,-7.09829998016357,-10.6573495864868,-2.54031252861023,0.65601247549057,6.80968761444092,-27.142951965332,-27.6150016784668,-27.0570011138916,3.3600001335144,5.33895015716553,6.80400037765503,7.80147504806519,8.26182460784912,8.17451286315918,-10.0810508728027,-12.5839509963989,-14.3320503234863,-2.39236259460449,1.24066245555878,3.56097507476807,12.9054746627808,7.18726253509521,2.98814988136292,-15.6040506362915,-13.1299505233765,-8.45700073242188,7.54395055770874,9.60600090026856,10.7580003738403,0.46158748865128,-4.26621246337891,-7.60223722457886,1.63005006313324,0.64800000190735,-0.47205001115799,SWING_RIGHT
-1.40909993648529,-0.86487501859665,-0.30085000395775,-1.39713752269745,-0.14368750154972,2.12794995307922,1.63005006313324,0.89895004034042,-0.03105000220239,8.25104999542236,7.84095048904419,8.13600063323975,2.52243757247925,2.56258749961853,2.35468745231628,0.4420500099659,0.2790000140667,-0.47505003213882,-2.57675004005432,-2.65471243858337,-1.49311244487762,2.23286247253418,1.1423499584198,-0.01979999989271,-1.43505001068115,-1.78005003929138,-0.47895002365112,13.7280006408691,12.9690008163452,9.76200008392334,1.10096251964569,0.65532499551773,-2.65801239013672,2.59200000762939,5.37495040893555,18.4669513702393,-1.02808749675751,-1.88058745861053,-2.60246253013611,-8.35834980010986,-7.29946231842041,-4.22702503204346,-1.30800008773804,-3.37500023841858,-13.6969509124756,12.7200002670288,12.7099504470825,6.94800043106079,2.03623747825623,4.65286254882813,5.84223747253418,26.7559509277344,14.94105052948,7.97400045394897,-10.5226001739502,-14.5648250579834,-14.6173496246338,5.59542512893677,14.0016250610352,18.4369621276855,-35.9059524536133,-36.1290016174316,-32.0820007324219,2.38995003700256,3.30495023727417,6.74700021743774,7.67731237411499,8.44153785705566,8.7139253616333,-20.7220516204834,-20.4990005493164,-10.1460008621216,6.18557500839233,7.98613739013672,8.78487491607666,5.55541229248047,6.97688722610474,7.07079982757568,-8.94795036315918,-4.60605001449585,-1.79895007610321,6.29400014877319,3.62805008888245,3.96600008010864,-4.55331230163574,-3.89358758926392,-3.51889991760254,-4.90095043182373,-4.58205032348633,-3.19305014610291,SWING_RIGHT
0.47299998998642,0.19621250033379,-0.20831249654293,1.64752495288849,2.21856260299683,2.05947494506836,0.63300001621246,0.92805004119873,0.88005006313324,9.74100017547607,10.3390502929688,10.3510503768921,0.27541249990463,-0.14588749408722,-0.4464625120163,1.25805008411407,1.5289500951767,1.59600007534027,-0.11206249892712,0.08373750001192,0.08635000139475,-0.13681249320507,-0.05348749831319,-0.05156249925494,1.03605008125305,0.89205002784729,0.86100006103516,10.2649507522583,10.5310506820679,11.0269508361816,-0.50737500190735,-0.46901249885559,-0.49692499637604,1.71795010566711,2.99700021743774,4.02495002746582,-0.47905001044273,-0.92482501268387,-1.34475004673004,-0.65986251831055,-1.67213749885559,-3.70479989051819,-0.98895007371902,-1.20300006866455,1.90305006504059,14.6119508743286,13.1650505065918,13.2040510177612,-2.1929874420166,-1.13726246356964,0.97157502174377,43.1740531921387,36.4650001525879,24.7300510406494,-2.09646248817444,-2.58348751068115,-4.00290012359619,-7.69546222686768,-5.45132493972778,-3.05387496948242,-31.9999523162842,-35.5349998474121,-36.5580024719238,-3.62295007705688,-0.89700001478195,2.47395014762878,8.24972534179688,8.70732498168945,9.38148784637451,-0.93405002355576,-11.9850006103516,-19.1800518035889,-4.58521270751953,2.17717504501343,4.71460008621216,18.5431118011475,10.1062498092651,6.36047506332397,-19.8210010528564,-16.5019512176514,-13.8150005340576,9.74295043945312,6.98895025253296,6.65595054626465,3.68610000610352,0.6737499833107,-1.42518746852875,-4.53705024719238,-3.88995027542114,-3.40395021438599,SWING_RIGHT
-1.94974994659424,-3.41398739814758,-3.44382500648499,-1.00759994983673,1.35877501964569,2.07968759536743,-1.87995004653931,-1.14495003223419,-0.94200003147125,10.3249502182007,12.5880002975464,11.9299507141113,1.61218750476837,0.85497498512268,-0.2756874859333,1.89105010032654,2.40105009078979,1.00200009346008,0.78168749809265,1.51112496852875,1.92816245555878,0.29589998722076,0.04881250113249,-0.2056999951601,1.51695013046265,1.64895009994507,1.77600014209747,8.8879508972168,8.90505027770996,9.16305065155029,-0.99453747272491,-1.11897504329681,-1.38998746871948,4.12800025939941,5.78700017929077,8.66895008087158,-0.6846125125885,-3.08439993858337,-3.61666250228882,-5.66912508010864,-5.46864986419678,-4.00771236419678,2.41995000839233,-14.1600008010864,-21.574951171875,14.542950630188,8.10195064544678,3.37500023841858,3.27937507629395,4.49336242675781,5.52598762512207,18.7639503479004,11.2840509414673,1.80705010890961,-11.1463003158569,-9.81970024108887,-6.1403374671936,4.2491626739502,12.4464998245239,12.9619874954224,-22.4610004425049,-17.5410003662109,-18.8230514526367,9.6109504699707,7.9350004196167,5.05800008773804,7.55686235427856,7.17722511291504,6.193274974823,-5.31300020217896,-6.1080002784729,-5.81595039367676,1.09188747406006,3.19962501525879,7.57130002975464,-0.46681249141693,1.51676249504089,7.53637504577637,-6.88800048828125,-4.13400030136108,-2.30205011367798,13.8340511322021,13.0170001983643,10.6200008392334,-10.8286752700806,-11.6513376235962,-10.4467000961304,1.8550500869751,1.52400004863739,0.53295004367828,SWING_RIGHT
-2.09990000724792,-1.89626252651215,-1.50755000114441,0.3587374985218,0.06270000338554,-0.09927500039339,1.78500008583069,1.67805004119873,1.38105010986328,9.98505020141602,9.84105014801025,9.29805088043213,0.43862500786781,0.40782499313354,0.43834999203682,0.13995000720024,-0.17805001139641,-0.36705002188683,-0.32147499918938,-0.26606249809265,-0.31404998898506,-0.15234999358654,0.01622499898076,0.00522499997169,1.46205008029938,1.05000007152557,0.64800000190735,9.40500068664551,9.63495063781738,10.3630504608154,0.49513748288155,0.31872498989105,0.14396250247955,1.82805013656616,2.25705003738403,2.2260000705719,-0.59289997816086,-0.45801249146461,-0.45347499847412,-1.75298750400543,-2.02290010452271,-3.96274995803833,1.21800005435944,0.58605003356934,3.5310001373291,10.5760507583618,10.7440509796143,11.5540504455566,-1.81142497062683,-1.9852249622345,-0.53899997472763,50.8830032348633,47.3599510192871,32.1490516662598,-3.95353746414185,-4.64708757400513,-5.2065749168396,-9.78202533721924,-6.06718730926514,-2.54526257514954,-23.1820507049561,-24.166051864624,-31.5240020751953,5.59995031356812,5.79105043411255,2.99895024299622,4.98148727416992,5.48955011367798,6.79689979553223,8.03595066070557,-0.20595000684261,-9.14895057678223,-10.2766122817993,-6.00531244277954,-1.77663743495941,16.1424999237061,13.6534748077393,8.46628761291504,-20.4130516052246,-18.4279518127441,-15.7669506072998,2.43600010871887,6.69405031204224,11.4820508956909,7.53183746337891,6.8362250328064,4.06656265258789,-9.97605037689209,-5.48700046539307,-1.59495007991791,SWING_RIGHT
0.76340001821518,0.80409997701645,0.15963749587536,-2.6168999671936,-3.48865008354187,-4.42983770370483,3.7110002040863,2.46795010566711,-0.03600000217557,6.92205047607422,9.54195022583008,11.8789501190186,-0.17366249859333,0.7429124712944,2.33928751945496,9.19095039367676,3.18900012969971,-1.89000010490417,-2.79358744621277,-1.80537497997284,-1.38476252555847,2.34712505340576,3.92094993591309,3.56290006637573,-2.11995005607605,-1.62900006771088,-0.83400005102158,11.451000213623,10.1479501724243,9.08205032348633,1.73717498779297,-1.92114996910095,-4.75323724746704,22.0590019226074,35.3250007629395,37.7389526367188,-2.85573744773865,-3.62890005111694,-3.78317499160767,-10.913649559021,-11.264274597168,-8.50052452087402,-12.3870010375977,-22.2160511016846,-33.3390007019043,9.86805057525635,6.03105020523071,-1.35195004940033,5.40443754196167,7.08977508544922,7.81481266021729,13.1830501556396,3.35895013809204,-1.8469500541687,-12.5984373092651,-12.9923753738403,-10.4157629013062,14.8110876083374,20.5605125427246,21.4333629608154,-33.7170028686523,-19.4569511413574,-13.7380504608154,2.94405007362366,3.66405010223389,5.39805030822754,8.93172454833984,9.33226203918457,6.25762510299683,-12.117000579834,-6.69405031204224,-1.74900007247925,10.8806495666504,12.8187122344971,13.3373622894287,7.7534875869751,7.15288734436035,5.30337476730347,-3.8779501914978,-2.74305009841919,-2.14095020294189,8.17905044555664,7.63095045089722,8.02305030822754,-6.03391265869141,-1.78186249732971,-0.59688746929169,-2.52705001831055,-2.25705003738403,-2.82705020904541,SWING_RIGHT
3.73725008964539,4.62962484359741,4.86007499694824,-0.51603752374649,-1.29855000972748,-4.48841238021851,7.38300037384033,7.62195014953613,6.21600008010864,4.57905006408691,3.93000030517578,4.89300012588501,-0.85992497205734,0.11261250078678,1.6409250497818,1.96005010604858,-0.33795002102852,-3.70095014572144,-3.27676248550415,-6.03803730010986,-7.95602512359619,5.82669973373413,8.40922451019287,7.66961240768433,-1.03500008583069,-1.99995005130768,-1.14300000667572,13.006950378418,12.8400001525879,11.8579502105713,1.94273746013641,1.19047498703003,-0.57653748989105,7.38495016098022,12.5130004882813,16.7400016784668,-0.87669998407364,-0.512875020504,-1.02121245861053,-10.122200012207,-10.849437713623,-9.76112461090088,2.35500001907349,2.41095018386841,1.4190000295639,6.60105037689209,10.1670007705688,11.6520004272461,-2.37435007095337,0.1119249984622,2.91720008850098,43.4010009765625,33.5410499572754,21.2740516662598,-4.76093769073486,-4.89610004425049,-8.14165019989014,-3.19838738441467,-1.5552624464035,4.44894981384277,-23.8860015869141,-31.4130020141602,-32.3830528259277,3.4699501991272,5.71200037002563,5.92500019073486,6.71013736724854,7.01277494430542,7.11438751220703,-13.3930501937866,-16.5379505157471,-12.6600008010864,0.12567499279976,3.46073746681213,6.03762483596802,12.5672245025635,7.42458724975586,6.60508728027344,-10.2049503326416,-7.50105047225952,-5.48505020141602,10.2840003967285,9.99405002593994,8.89305019378662,1.65439999103546,-5.06261253356934,-5.87248754501343,-3.23595023155212,-1.66305005550385,-1.00200009346008,SWING_RIGHT
-3.75650000572205,-5.08653736114502,-5.49174976348877,2.82713747024536,2.93713736534119,2.81998753547669,0.23595000803471,0.45105001330376,0.03000000119209,11.2930507659912,11.5579509735107,11.1850509643555,1.22883749008179,0.65037500858307,0.05059999972582,1.48095011711121,1.84305012226105,0.83895003795624,-0.82774996757507,-0.04207500070333,0.47588750720024,0.56526249647141,0.09569999575615,-0.53872501850128,1.14600002765656,1.20300006866455,1.46205008029938,10.0540504455566,9.30705070495606,9.24705028533936,-0.61874997615814,-0.63043749332428,-0.52263748645782,2.0460000038147,1.300950050354,0.3649500310421,1.40195000171661,1.16916251182556,-0.52181249856949,-0.31817498803139,0.19799999892712,-3.32117509841919,1.8840000629425,1.15995001792908,0.2569500207901,10.0090503692627,10.9399509429932,13.1149501800537,-1.79492497444153,-1.41363751888275,-0.3827999830246,52.1359519958496,40.0530014038086,27.7620010375977,-5.54166269302368,-5.79314994812012,-8.90725040435791,-9.26832485198975,-4.84123754501343,1.08803749084473,-24.3190517425537,-29.4540004730225,-35.0370025634766,4.82400035858154,1.54500007629395,2.19105005264282,5.92817497253418,7.17433738708496,8.38282489776611,-2.36400008201599,-14.3749504089355,-21.5560512542725,-9.06716251373291,-3.32791256904602,1.33512496948242,15.0998373031616,11.1022996902466,6.009850025177,-14.0809507369995,-12.526050567627,-10.6680002212524,11.5819501876831,12.8370008468628,11.6730003356934,8.24147510528564,5.48734998703003,-4.8775372505188,-1.69395005702972,0.0,-0.33600002527237,SWING_RIGHT
1.7439124584198,2.2933623790741,2.64164996147156,0.2773374915123,-0.27541249990463,-0.64281249046326,1.06005001068115,1.48095011711121,1.56300008296967,9.23295021057129,9.44595050811768,9.99195003509522,-1.10494995117188,-1.03358745574951,-0.93912500143051,1.78500008583069,1.90500009059906,1.96005010604858,1.70307493209839,0.55316251516342,0.03959999978542,-0.85909998416901,-1.17301249504089,-1.53945004940033,1.78305006027222,1.42395007610321,0.15000000596046,10.5379505157471,11.1270008087158,10.9260005950928,-0.37125000357628,-0.05692499876022,-0.20405000448227,8.40000057220459,10.3360500335693,28.7479515075684,-2.16617488861084,-2.36321258544922,-2.81998753547669,-7.3154125213623,-8.12803745269775,-8.14165019989014,-4.80495023727417,-18.0300006866455,-28.2660007476807,9.95400047302246,6.32295036315918,-1.1580001115799,2.89396238327026,5.37515020370483,7.08798742294312,17.0610008239746,5.83800029754639,-5.19495010375977,-10.8603000640869,-11.1364002227783,-3.58187508583069,4.74787473678589,11.0081129074097,13.4485998153687,-32.8459510803223,-21.3330001831055,-11.9730005264282,13.711950302124,20.4100513458252,9.87705039978027,11.1077995300293,8.53654956817627,4.17408752441406,-0.16800001263618,4.19204998016357,5.20995044708252,6.31702518463135,5.41832494735718,4.99276256561279,3.84999990463257,1.95538747310638,0.96057498455048,-3.58305025100708,-2.52900004386902,-2.53695011138916,9.33795070648193,12.3679504394531,12.2580003738403,-10.6715126037598,-8.61547470092773,-1.27668750286102,-2.49795007705688,-0.54195004701614,-1.66695010662079,SWING_RIGHT
0.23306250572205,-0.00178749999031,-0.23649999499321,0.29315000772476,0.0369874984026,-0.3286249935627,0.58095002174377,0.13995000720024,0.53295004367828,10.8400506973267,10.4809503555298,10.9860000610352,0.73919999599457,0.84672498703003,0.95081251859665,1.53900003433228,3.81900024414063,4.01505041122437,-0.55549997091293,-0.20858749747276,-0.01869999989867,-1.9542875289917,-1.45557498931885,-0.98106247186661,0.30495002865791,0.31005001068115,-0.24495001137257,12.1020002365112,8.87100028991699,9.26205062866211,1.16682493686676,1.03523755073547,1.00746250152588,2.09895014762878,-1.69395005702972,-2.56095004081726,-0.14602500200272,0.11701250076294,0.61654996871948,1.95305001735687,1.78365004062653,-1.369500041008,0.62895005941391,2.99295020103455,4.4370002746582,9.93000030517578,10.7179508209229,13.1509504318237,-2.69128751754761,-3.1768000125885,-1.59761250019073,39.6000022888184,30.457950592041,21.4410018920898,-4.26373767852783,-4.8080997467041,-10.7987003326416,-8.50368785858154,-5.60092496871948,1.62346243858337,-18.6670513153076,-24.7240505218506,-29.3010005950928,-1.81905007362366,-0.45900002121925,7.10100030899048,8.94258785247803,10.5678377151489,10.7982873916626,-11.6760005950928,-10.7590503692627,-11.9950504302979,0.69093751907349,3.00519990921021,3.87406253814697,8.84812450408936,5.31437492370605,4.21506261825562,-13.3639507293701,-9.53700065612793,-6.46695041656494,8.84205055236816,8.79495048522949,7.65495014190674,1.14496254920959,-5.97588729858398,-7.88232517242432,3.6870002746582,-0.64905005693436,-1.80900013446808,SWING_RIGHT
0.27926251292229,0.53253751993179,0.62150001525879,0.70922499895096,0.96016252040863,0.57791250944138,-0.1540500074625,0.15705001354218,0.52799999713898,10.6390504837036,11.038950920105,10.7149505615234,-0.70551252365112,-0.68419998884201,-0.60403752326965,1.19895005226135,0.76500004529953,0.45795002579689,1.13382494449615,1.14111244678497,1.09573745727539,0.50875002145767,0.24860000610352,0.02722499892116,1.52205002307892,1.49805009365082,1.39695012569427,9.78105068206787,9.84600067138672,9.84105014801025,-0.23594999313354,-0.10064999759197,-0.06022499874234,1.87905013561249,2.32905006408691,3.76395010948181,0.02351249940693,-0.25602498650551,-0.79750001430511,-1.74996244907379,-3.09416246414185,-4.78912496566772,2.05800008773804,1.01205003261566,-0.07500000298023,14.0830507278442,16.7440509796143,16.5229511260986,-0.92757499217987,-0.69519996643066,-0.38912498950958,25.7020511627197,25.1440505981445,23.5969505310059,-0.9813374876976,-1.11210000514984,-1.91454994678497,-5.60298728942871,-4.67500019073486,-3.84683752059936,-4.19895029067993,-12.7080001831055,-12.0400505065918,3.62100028991699,3.11400008201599,4.39995002746582,3.77850008010864,4.30361270904541,3.91545009613037,3.39195013046265,4.27605009078979,4.7310004234314,-15.1494750976563,-10.2562627792358,-4.59456253051758,15.496524810791,13.8666000366211,9.48543739318848,-21.5509510040283,-22.5970516204834,-23.3040008544922,5.33400011062622,6.99300050735474,10.9380006790161,1.54522502422333,0.85965001583099,0.01031249947846,-5.17800045013428,-4.47705030441284,-2.90595006942749,SWING_RIGHT
-0.2073500007391,-0.00247499998659,0.26207500696182,0.45980000495911,0.19263750314713,0.21848750114441,0.72000002861023,0.98505002260208,1.20300006866455,9.40305042266846,9.52695083618164,9.53505039215088,-0.14135000109673,0.09968750178814,0.34691250324249,-0.02895000204444,-0.43605002760887,-0.03600000217557,0.87573748826981,0.73397499322891,0.44797500967979,1.28782498836517,0.70757502317429,-0.55357497930527,1.20600008964539,0.95700001716614,0.28095000982285,9.18705081939697,7.963050365448,7.89900016784668,-1.13327503204346,-1.23543751239777,-1.5081000328064,5.02095031738281,10.4479503631592,19.7020511627197,-1.93558752536774,-1.86615002155304,-1.9514000415802,-5.03690004348755,-5.09740018844604,-5.07264995574951,0.40305000543594,-0.1489500105381,-1.11405003070831,17.9340000152588,16.605001449585,14.6620502471924,-2.31412506103516,-1.55732500553131,-0.45045000314713,30.3079509735107,23.2849502563477,15.3390007019043,-4.60171270370483,-5.89160013198853,-8.16777515411377,-3.13238739967346,-1.35520005226135,1.08418750762939,-13.606050491333,-17.521951675415,-18.9379501342773,6.40395021438599,5.21205043792725,3.11400008201599,2.87952494621277,2.6784999370575,2.75880002975464,8.05305004119873,6.36705017089844,0.88005006313324,-11.0151252746582,-7.59467506408691,-4.13311243057251,9.84004974365234,7.89126253128052,5.62182474136353,-23.0670013427734,-20.9850006103516,-18.7320003509521,3.95205020904541,7.92795038223267,10.1410503387451,6.52382516860962,5.08378744125366,2.51061248779297,-4.76595020294189,-3.25305008888245,-3.84000015258789,SWING_RIGHT
0.46186250448227,0.53418749570847,0.42858749628067,-0.35516250133514,-0.38761249184608,-0.41084998846054,1.48095011711121,1.11705005168915,1.05300009250641,9.66195011138916,9.95100021362305,10.207950592041,-0.29067498445511,-0.15743750333786,-0.02736249938607,0.74100005626678,-0.10095000267029,-1.25295007228851,-0.08318749815226,0.24172499775887,0.38719999790192,0.80712497234344,1.77938747406006,1.70733749866486,1.79295003414154,1.80705010890961,1.20300006866455,10.300950050354,9.62595081329346,8.85000038146973,0.38211250305176,-0.63112497329712,-1.75436246395111,7.16700029373169,11.5950002670288,13.5180006027222,-1.62800002098084,-2.1764874458313,-2.27425003051758,-8.23404979705811,-9.40073776245117,-8.99607467651367,-1.12395000457764,-0.87900006771088,-1.02300000190735,14.4250507354736,15.9340505599976,15.6900005340576,0.50283747911453,0.99384999275208,1.22072494029999,33.2100028991699,29.8549518585205,27.9940509796143,-3.06130003929138,-4.00056266784668,-5.20932483673096,-3.58091259002686,-3.72996258735657,-3.36957502365112,-24.8340015411377,-31.3009510040283,-26.6350517272949,-5.30895042419434,-4.03200006484985,1.03005003929138,6.75042486190796,8.34239959716797,9.22143745422363,0.69105005264282,-0.61605000495911,-2.97000002861023,-11.2131252288818,-1.93118751049042,2.52559995651245,17.4293632507324,13.4736251831055,7.60265016555786,-24.2620506286621,-17.7139511108398,-16.0279502868652,6.82605028152466,10.3990507125854,11.8890008926392,5.14387512207031,2.93768739700317,-0.0354750007391,-4.98000001907349,-1.83000004291534,-1.52400004863739,SWING_RIGHT
0.01388750039041,-0.1537249982357,-0.29163751006126,-3.2433500289917,-2.97756242752075,-2.15641260147095,1.01700007915497,0.89700001478195,0.40095001459122,9.7669506072998,9.42405033111572,10.1479501724243,1.08721244335175,1.54206252098084,1.84043753147125,0.42300000786781,0.79395002126694,1.56705009937286,-0.93678748607635,-0.86831247806549,-0.69795000553131,1.5219874382019,1.83136248588562,1.62662494182587,-0.29700002074242,0.11595000326633,0.49905002117157,10.6770000457764,10.2700500488281,9.64695072174072,0.43931248784065,0.0764499977231,-0.03753750026226,1.81905007362366,2.18295001983643,3.16695022583008,0.64679998159409,0.25547498464584,-1.03441250324249,-1.16709995269775,-2.37338757514954,-5.13906240463257,0.34605002403259,-0.21105000376701,-1.12604999542236,10.6270503997803,10.5880508422852,14.2819509506226,-3.27401256561279,-3.2520124912262,-2.19230008125305,37.3680000305176,34.4920501708984,31.8450012207031,-4.93762493133545,-5.96364974975586,-7.67098760604858,-3.63797497749329,-2.24839997291565,-0.7374125123024,-32.4720001220703,-36.3829498291016,-35.1900024414063,-0.40905001759529,-3.10800004005432,-2.28405022621155,5.92899990081787,8.13793754577637,8.91247463226318,-3.02100014686584,-11.4820508956909,-15.9319505691528,-6.6096248626709,-1.51607501506805,4.93817520141602,13.4598751068115,8.90587520599365,1.93929994106293,-15.7140007019043,-14.3539505004883,-9.99495029449463,9.36495018005371,11.9080505371094,9.43200016021728,3.32158756256104,-1.82132494449615,-5.68273735046387,0.98100006580353,0.84600001573563,-0.54900002479553,SWING_RIGHT
0.33316248655319,0.41126251220703,0.42157500982285,0.8234875202179,1.23873746395111,1.3721125125885,0.29100000858307,0.37500002980232,0.33900001645088,9.81495094299316,10.2220506668091,10.5979509353638,0.28971248865128,-0.16060000658035,-0.33632498979568,0.35505002737045,0.79395002126694,1.02105009555817,-0.17008750140667,-0.04455000162125,0.11302500218153,-0.30538749694824,-0.03726249933243,0.16513749957085,0.5830500125885,0.82500004768372,0.3649500310421,10.5960006713867,10.4260501861572,9.74100017547607,0.07081250101328,0.08332499861717,0.21999999880791,0.55695003271103,-0.37395000457764,-0.87195003032684,0.03575000166893,0.05719999969006,0.15908749401569,0.79970002174377,0.64515000581741,-0.46805000305176,0.58605003356934,0.69795000553131,3.71295022964478,11.2810506820679,12.8449506759644,16.068000793457,-1.90836250782013,-4.02297496795654,-3.60524988174438,34.2550506591797,29.5200004577637,21.4750518798828,-2.1976625919342,-2.06112504005432,-2.10306239128113,-10.4472503662109,-7.43998765945435,-5.71023750305176,-4.43805027008057,-10.8210000991821,-20.1420001983643,0.57705003023148,0.69705003499985,-0.68205004930496,3.92782497406006,6.71096229553223,9.13247489929199,16.3210506439209,3.85200023651123,-4.30395030975342,-10.6371374130249,-8.40839958190918,-3.5648250579834,7.91752481460571,16.5915756225586,15.2682752609253,-23.5740013122559,-17.6470508575439,-13.0150508880615,10.6579504013062,12.0060005187988,11.451000213623,8.38186264038086,6.96355009078979,0.53831249475479,-5.6050500869751,-0.24495001137257,2.22795009613037,SWING_RIGHT
2.07638740539551,2.23382496833801,2.13564991950989,-0.74703747034073,-0.21147499978542,0.14382499456406,0.55200004577637,0.89205002784729,1.09605002403259,10.4809503555298,10.4059505462646,10.0279502868652,1.12708747386932,1.11402499675751,1.17369997501373,2.86995005607605,2.29500007629395,1.24200010299683,0.92839998006821,0.53899997472763,0.27541249990463,0.65119999647141,-0.45663750171661,-1.11539995670319,1.41195011138916,0.6690000295639,0.10200000554323,8.67000007629395,9.69000053405762,11.5699501037598,0.12388750165701,0.11288750171661,-0.71334999799728,6.05805015563965,9.64305019378662,25.8700504302979,-2.32141256332397,-2.8880500793457,-3.64759993553162,-5.53506231307983,-6.07983732223511,-5.95870018005371,-4.82595014572144,-7.39395046234131,-13.3090505599976,14.5519504547119,12.7729501724243,9.22095012664795,0.09872499853373,1.70018744468689,3.54158759117126,20.0020503997803,9.9790506362915,5.68395042419434,-9.43346214294434,-10.6536378860474,-11.2967252731323,1.00141251087189,5.16972494125366,9.64713764190674,-23.8909511566162,-24.0769519805908,-25.5790519714355,3.77700018882751,-0.18105000257492,-2.28900003433228,5.72673749923706,5.92267513275146,5.76482486724854,-2.31195020675659,-6.21795034408569,-11.1660003662109,-1.80454993247986,2.35248756408691,4.50999975204468,7.7254376411438,3.02609992027283,3.48136258125305,-17.6320514678955,-12.7420501708984,-10.5480003356934,9.48900032043457,10.9069509506226,9.11805057525635,2.49383759498596,-1.81994998455048,-4.89733743667603,-4.48095035552979,-3.10005021095276,-2.31900000572205,SWING_RIGHT
0.53556251525879,0.34856250882149,0.1552374958992,0.58423751592636,0.65298748016357,0.77192497253418,1.63500010967255,1.89795005321503,2.26695013046265,10.4470500946045,10.8400506973267,10.8349504470825,0.74786251783371,0.53941249847412,0.47038748860359,-0.8359500169754,-0.3979500234127,-0.48195001482964,-0.27898749709129,-0.1733874976635,-0.21504999697208,-0.0559624992311,-0.05981250107288,-0.6349750161171,1.66995012760162,1.29705011844635,0.45600003004074,8.96505069732666,9.20400047302246,10.3440008163452,-0.06270000338554,-1.15541243553162,-2.0017249584198,8.8840503692627,13.7650508880615,22.6339511871338,-3.39748740196228,-2.79056239128113,-1.94933748245239,-9.78312492370606,-9.21222496032715,-8.08238792419434,0.90900003910065,0.47295001149178,-2.73105001449585,10.3470001220703,7.56795024871826,3.75105023384094,-0.96442496776581,2.89135003089905,5.58758735656738,49.1710510253906,22.3540515899658,17.4970512390137,-3.17528748512268,-4.70222520828247,-8.10576248168945,-3.50886249542236,0.32945001125336,8.1859245300293,-49.0909538269043,-46.737003326416,-40.9360504150391,2.54100012779236,3.46095013618469,4.0620002746582,10.8715753555298,10.6966753005981,9.78546237945557,-14.0040006637573,-16.1809501647949,-15.106050491333,0.46021249890327,4.28078746795654,8.82089996337891,12.9237623214722,6.56658744812012,9.31040000915527,-19.7160015106201,-15.6370506286621,-8.04795074462891,18.2449512481689,12.6940507888794,4.93605041503906,-4.86530017852783,-6.62736225128174,-5.90768766403198,0.1950000077486,-0.05805000290275,-0.68805003166199,SWING_RIGHT
-0.58574998378754,-0.94008749723434,-1.30941247940063,0.75432497262955,0.770687520504,0.63291251659393,-0.72795003652573,-0.64500004053116,-0.91995006799698,10.372950553894,9.55395030975342,9.08895015716553,0.60183751583099,0.64913749694824,0.64088749885559,0.61905002593994,1.37805008888245,2.050950050354,-0.66247498989105,-0.50393748283386,-0.5741999745369,-1.36028754711151,-2.7662250995636,-4.61587476730347,-1.21005010604858,-0.07695000618696,0.32400000095367,12.9589509963989,12.6670503616333,12.4230003356934,-4.02558755874634,-5.46548748016357,-5.61412477493286,20.5410003662109,28.0950012207031,31.4520015716553,-3.64732503890991,-3.32708740234375,-2.79180002212524,-7.22136259078979,-6.19478750228882,-4.88867473602295,-10.8379507064819,-14.5090503692627,-20.6500511169434,4.17705011367798,3.39900016784668,1.95900011062622,3.68321251869202,5.79974985122681,7.17805004119873,20.3130016326904,13.9180507659912,8.56800079345703,-7.53871250152588,-9.26777458190918,-8.06767463684082,4.82625007629395,9.39413738250732,13.4547872543335,-26.8510513305664,-24.82200050354,-19.0549507141113,6.70395040512085,3.34095025062561,2.15595006942749,3.29821252822876,3.07944989204407,2.98099994659424,-0.54900002479553,-1.82805013656616,-2.17695021629334,-0.26152500510216,1.23804998397827,3.13816237449646,3.88891243934631,3.01454997062683,3.62903738021851,-12.7900505065918,-10.9930505752563,-9.6709508895874,9.46995067596436,10.3900508880615,10.3579502105713,0.44068750739098,-2.52725005149841,-6.92436265945435,-2.11005020141602,-1.80900013446808,-2.0310001373291,SWING_RIGHT
-0.27211248874664,-0.25657498836517,-0.26785001158714,0.98092502355576,0.9345874786377,0.91863751411438,1.45500004291534,1.00005006790161,0.90405005216599,8.97405052185059,9.6040506362915,10.3300504684448,1.15417504310608,1.13905000686646,0.92180001735687,1.26600003242493,0.90405005216599,1.63005006313324,-0.81056249141693,-0.59317499399185,-0.29617500305176,-0.67512500286102,-1.32976245880127,-1.93737494945526,1.47900009155273,1.55505001544952,0.80805003643036,9.36195087432861,9.91995048522949,11.2590007781982,-0.65793746709824,-0.87119996547699,-1.10426247119904,8.28495025634766,10.242000579834,14.8639507293701,-2.03334999084473,-2.54292488098145,-3.44148755073547,-4.26511240005493,-4.56032514572144,-5.23627519607544,0.09195000678301,-1.9039500951767,-8.31300067901611,13.7040004730225,13.6900510787964,13.4269504547119,-2.15613746643066,-0.88109999895096,1.16077494621277,39.5569534301758,30.8490009307861,23.3809509277344,-5.00018739700317,-5.87661266326904,-7.84753751754761,-3.25448751449585,-0.89292502403259,3.07010006904602,-29.8060512542725,-27.6529521942139,-21.8359508514404,4.07595014572144,4.76895046234131,1.2190500497818,6.26504993438721,6.0112247467041,5.60890007019043,-0.22605000436306,-0.97800004482269,-2.33100008964539,-6.41671228408813,-2.97604990005493,-0.22673749923706,13.9457998275757,10.1223373413086,6.13497495651245,-17.7880516052246,-17.3070011138916,-17.7520503997803,3.56400012969971,7.07505035400391,11.7280502319336,3.99410009384155,1.01750004291534,-3.01276254653931,-5.93505048751831,-4.23195028305054,-1.97895014286041,SWING_RIGHT
-0.80849999189377,-0.33577498793602,-0.15826250612736,-3.54103755950928,-2.55103754997253,-0.72916251420975,2.10195016860962,2.35995006561279,0.38895002007484,7.60395050048828,8.84205055236816,10.1260509490967,-0.01512499991804,0.6210874915123,0.79172497987747,2.33595013618469,-1.86600005626678,-3.10005021095276,-4.02971267700195,-3.3842875957489,-1.26348745822906,2.67135000228882,2.44530010223389,0.92413747310638,-1.6840500831604,-1.64595007896423,-0.01200000010431,12.9499502182007,12.082950592041,8.88600063323975,-0.35158750414848,-0.0662750005722,-0.10161250084639,-1.57200002670288,-1.05900001525879,-0.85305005311966,2.68950009346008,1.70926249027252,0.41978749632835,-1.11966252326965,-4.59084987640381,-6.84928750991821,1.58895003795624,-0.26100000739098,-0.52200001478195,12.3660001754761,14.1109504699707,15.4140005111694,-2.33928751945496,-0.89141249656677,0.34952500462532,34.7140502929688,34.1989517211914,28.6330509185791,-3.17844986915588,-3.95779991149902,-8.75558757781982,-6.63437509536743,-4.62343740463257,0.46529999375343,-29.7150020599365,-34.912052154541,-34.3710021972656,0.99900007247925,-1.8840000629425,0.47700002789497,8.78061199188232,9.90659999847412,10.3789119720459,-7.93005037307739,-11.9899501800537,-16.4490013122559,-6.0289626121521,0.33123749494553,4.39064979553223,15.5623874664307,9.79714965820312,5.10826253890991,-17.4720001220703,-14.5980005264282,-12.2719507217407,13.3980007171631,10.8709506988525,8.91000080108643,4.16803741455078,0.27046251296997,-5.18636226654053,-0.83100003004074,-0.43395000696182,-3.41295027732849,SWING_RIGHT
0.93678748607635,1.43261253833771,1.69606244564056,0.28022500872612,0.08030000329018,-0.1190750002861,1.29900002479553,1.33500003814697,1.4190000295639,9.33105087280273,9.58005046844482,9.78105068206787,-0.43532499670982,-0.36272498965263,-0.26675000786781,1.30395007133484,0.71700000762939,0.69600003957748,0.63703751564026,0.28888750076294,0.01979999989271,-0.01264999993145,-0.04771250113845,0.00577499996871,1.43100011348724,1.00499999523163,1.05000007152557,9.70500087738037,9.36195087432861,9.18495082855225,-0.02351249940693,0.06104999780655,0.08222500234842,0.30000001192093,0.77205002307892,1.60095012187958,-0.49018749594688,-0.58822500705719,-0.78759998083115,-0.04372499883175,-0.50091248750687,-2.01341247558594,0.57105004787445,0.76995003223419,0.80595004558563,10.4020500183105,12.3580503463745,14.6910009384155,-2.73102498054504,-2.99901247024536,-2.74917507171631,37.735050201416,34.6450500488281,29.392951965332,-4.720787525177,-5.26913738250732,-6.28264999389648,-8.51372528076172,-6.3014874458313,-4.62673759460449,-13.206000328064,-22.8750019073486,-26.5609512329102,-0.29595002532005,-0.81105005741119,-0.30795001983643,3.18463754653931,5.29553747177124,7.12236261367798,10.9969501495361,6.68295049667358,3.03495025634766,-11.257399559021,-6.68470001220703,-1.70060002803802,11.299337387085,10.270975112915,6.77242517471313,-23.7210006713867,-19.8430500030518,-18.4080009460449,4.78800010681152,8.61000061035156,11.66100025177,7.64362478256226,3.6654748916626,-1.11608743667603,-0.91995006799698,3.12195014953613,1.93605005741119,SWING_RIGHT
0.69932502508163,0.69959998130798,0.64198750257492,-0.38018751144409,0.02254999987781,0.3286249935627,0.47505003213882,0.4609500169754,0.56400001049042,10.1239500045776,10.2600002288818,10.7250003814697,0.43491250276566,0.3257375061512,0.06751249730587,0.49005001783371,1.16505002975464,2.34795022010803,0.38692501187325,0.25327500700951,-0.12718750536442,-0.74552500247955,-2.08656239509583,-4.69823741912842,1.03305006027222,0.61905002593994,0.84195005893707,12.646050453186,10.5840005874634,8.07600021362305,-2.64632487297058,-2.67960000038147,-2.12451243400574,28.219051361084,24.8880004882813,22.9930515289307,-1.64243745803833,-0.75226247310638,-1.22677505016327,-10.1028127670288,-5.10317516326904,-3.66602492332459,-2.37900018692017,-16.4800510406494,-24.7120513916016,6.93105030059814,-0.61395001411438,-3.04995012283325,5.15294981002808,7.34112501144409,9.89779949188232,13.5139503479004,4.4650502204895,-5.37000036239624,-13.2826375961304,-9.98717498779297,-3.96563744544983,17.0064125061035,18.2028007507324,15.3206624984741,-26.053050994873,-22.0849514007568,-17.260950088501,11.860050201416,13.51305103302,13.3740005493164,5.71793746948242,2.84377503395081,-2.16149997711182,-5.59800004959106,-1.62900006771088,-0.04800000041723,9.98456287384033,8.72299957275391,3.84326243400574,13.9413995742798,11.1699495315552,-2.66584992408752,-5.16900014877319,-3.93795013427734,-1.41600000858307,5.83395004272461,6.13095045089722,7.46805047988892,-0.05115000158548,-0.70633751153946,-2.17030000686646,-0.9700500369072,-0.40995001792908,-0.24705001711845,SWING_RIGHT
-0.56498748064041,-1.2725625038147,-2.06071257591248,1.57588744163513,1.35767495632172,0.78553748130798,0.98100006580353,0.03195000067353,-0.53205001354218,9.68100070953369,9.28305053710938,9.89400005340576,0.74497497081757,0.52538752555847,0.33673748373985,0.01800000108778,-0.4650000333786,-0.02895000204444,-2.66846251487732,-2.0816125869751,-1.51153743267059,-0.1885125041008,-0.30016249418259,-0.68227499723434,-1.60995006561279,-1.64805006980896,-1.53105008602142,10.735050201416,10.2460508346558,10.1410503387451,0.05692499876022,-0.16348749399185,-0.16967499256134,2.87295007705688,3.24405026435852,4.71900033950806,-0.29411250352859,-0.1883749961853,-0.21559999883175,-2.87691259384155,-3.30852508544922,-4.1085000038147,-2.14605021476746,-2.31600022315979,-1.64595007896423,9.86805057525635,9.36195087432861,10.5640506744385,-1.42243754863739,-1.77677500247955,-1.51868748664856,33.3610534667969,33.3760528564453,28.6380004882813,-2.0769374370575,-3.44121241569519,-5.19172477722168,-5.8851375579834,-4.1632251739502,-2.84281253814697,-19.0740013122559,-21.5050506591797,-24.0199508666992,2.50800013542175,-2.86305022239685,-4.29795026779175,3.92122507095337,5.71395015716553,7.36326265335083,9.87795066833496,4.78605031967163,0.10200000554323,-9.92763710021973,-5.49958753585815,-0.61338752508163,12.8547372817993,12.9014873504639,10.1946620941162,-15.6040506362915,-13.7260503768921,-13.1659507751465,6.7350001335144,6.52200031280518,6.52905035018921,6.62722492218018,5.4007248878479,3.29752492904663,-1.87095010280609,-0.48900002241135,-0.28305000066757,SWING_RIGHT
1.45585000514984,2.32209992408752,1.93311250209808,-0.71637499332428,-0.45045000314713,-0.96909999847412,1.29000008106232,-0.03405000269413,-0.71895003318787,9.0600004196167,13.3620004653931,11.9200506210327,2.37283754348755,2.20233750343323,0.81674998998642,2.70000004768372,5.3779501914978,18.0379505157471,-0.23787499964237,-1.18758749961853,-2.52587509155273,-6.49756240844727,-8.98067474365234,-9.89587497711182,2.60700011253357,0.54704999923706,-2.57505011558533,8.40705013275146,9.9060001373291,11.6539506912231,-1.58070003986359,0.95590001344681,3.04287505149841,26.5470008850098,26.0850009918213,20.3629512786865,-2.64192509651184,-5.16587495803833,-7.02899980545044,-0.52359998226166,0.94613748788834,2.34533739089966,-17.4700508117676,-26.0170516967773,-29.9209518432617,4.04505014419556,6.07905006408691,10.0260000228882,3.43653750419617,1.82187497615814,0.79846251010895,12.5650501251221,0.26205000281334,-7.44900035858154,-4.86007499694824,-0.15619999170303,1.9569000005722,15.8317499160767,10.6507501602173,7.08413743972778,-16.0639514923096,-11.1439504623413,-7.79400014877319,10.5259504318237,7.78905057907104,7.19895029067993,3.22368741035461,2.5561249256134,0.76477497816086,-2.73300004005432,-1.78500008583069,-1.41600000858307,4.5711874961853,6.30918741226196,8.09531211853027,6.23218727111816,6.73461246490479,3.68623757362366,-3.04005002975464,-1.67400002479553,-0.73995006084442,9.98700046539307,9.14700031280518,8.57205009460449,-5.08708763122559,-2.28923749923706,-0.91299998760223,0.07800000160933,-0.07905000448227,0.39105001091957,SWING_RIGHT
-0.85772502422333,-0.64597499370575,-0.5878124833107,-3.50652503967285,-5.05394983291626,-5.99293756484985,-2.67105007171631,-1.67205011844635,-0.77400004863739,10.381950378418,9.87705039978027,9.24705028533936,-2.48421239852905,-3.22877502441406,-2.81132507324219,10.9060506820679,12.9889507293701,13.3920001983643,-0.9121749997139,-1.05627501010895,-1.45749998092651,-2.50263738632202,-1.51277494430542,-0.86762499809265,-3.21405005455017,-2.47695016860962,-3.81300020217896,11.9850006103516,11.5489501953125,10.5049505233765,-1.02561247348785,-1.20518743991852,-1.36702501773834,16.1719512939453,18.9169502258301,19.1539516448975,-5.1544623374939,-8.36068725585938,-9.98194980621338,-1.95359992980957,-1.20560002326965,2.07762503623962,-27.1450519561768,-31.5670509338379,-32.1940498352051,-0.32205000519753,3.71205019950867,5.07000017166138,7.4783501625061,7.81687498092651,7.81659984588623,-8.36100006103516,-12.5599508285522,-13.2739505767822,-2.04476237297058,1.16256248950958,3.08426237106323,10.5330495834351,7.04549980163574,3.51889991760254,-11.9130001068115,-8.7679500579834,-7.48200035095215,9.24495029449463,10.4470500946045,9.97305011749268,6.16879987716675,-1.03138744831085,-8.34528732299805,-3.81600022315979,-1.71495008468628,-1.32195007801056,14.8917999267578,15.0196752548218,11.8874244689941,7.71581268310547,6.64867496490479,2.3038125038147,0.58799999952316,1.27500009536743,1.38300001621246,7.78095054626465,8.61000061035156,9.17100048065186,-3.43296241760254,-1.50727498531342,-0.20913749933243,-0.64905005693436,0.02505000121891,1.19400000572205,SWING_RIGHT
-2.73542499542236,-3.52880001068115,-3.86058759689331,-1.49462497234344,-1.47853744029999,-0.55398750305176,-1.64595007896423,-1.50000011920929,-1.30800008773804,10.021050453186,10.3920001983643,10.0930500030518,0.7429124712944,0.95534998178482,0.68708747625351,-1.23600006103516,0.96900004148483,1.00905001163483,-0.96525001525879,-0.30744999647141,0.11096250265837,1.47647500038147,0.83352500200272,0.16912500560284,-1.12800002098084,-0.7140000462532,-0.7950000166893,9.78600025177002,10.6000509262085,10.5310506820679,-0.18232500553131,-0.09721250087023,0.07342500239611,1.01895010471344,2.47500014305115,3.7350001335144,0.19951249659061,-0.4492124915123,-1.00196254253387,-1.48940002918243,-3.38263750076294,-5.18388748168945,-1.86405003070831,-3.00600004196167,-1.59495007991791,11.7840003967285,13.4839506149292,13.0189504623413,-2.9944748878479,-3.80311250686646,-3.47173738479614,38.2540512084961,36.0889511108398,25.8480014801025,-3.87255001068115,-4.61271238327026,-5.48212480545044,-8.03453731536865,-5.96021223068237,-3.74384999275208,-18.0900001525879,-21.6900005340576,-25.4590511322021,0.23700001835823,1.12800002098084,2.4190502166748,4.27968740463257,8.84771251678467,10.2020874023438,2.4300000667572,-8.89995002746582,-14.1720008850098,-6.72787475585938,-1.88553750514984,1.87192499637604,13.1264371871948,10.4200248718262,5.66678762435913,-10.7970008850098,-7.93695020675659,-6.6540002822876,9.93900012969971,10.9600505828857,9.89595031738281,7.89813756942749,6.65238761901855,-0.27032500505447,-1.60695004463196,1.29705011844635,2.7480001449585,SWING_RIGHT
-1.76055002212524,-1.6747499704361,-1.45048749446869,-1.76453745365143,-1.30515003204346,-0.36355000734329,0.3529500067234,0.6360000371933,0.47295001149178,10.0690507888794,10.2270002365112,10.150050163269,0.51507496833801,0.34567499160767,0.17751249670982,1.91205012798309,1.66305005550385,0.26205000281334,-0.73933750391006,-0.53446251153946,-0.36684998869896,0.42542499303818,0.42281249165535,0.34182500839233,0.08700000494719,0.20895001292229,-0.07905000448227,10.7659502029419,10.9879503250122,11.248950958252,0.24832500517368,0.43614998459816,0.36519998311996,1.07895004749298,4.42005014419556,10.8070507049561,-1.50026249885559,-1.61039996147156,-1.63020002841949,-7.64582490921021,-10.7636375427246,-12.0067749023438,-0.12705001235008,-3.28905010223389,-8.14800071716309,12.2790002822876,11.3280000686646,8.33505058288574,-1.29071247577667,1.7077499628067,3.44836258888245,33.5620498657227,15.9060010910034,8.42400074005127,-9.56958770751953,-11.6675624847412,-11.8878374099731,0.7870500087738,5.38560009002686,10.0652751922607,-29.8759517669678,-28.8840007781982,-23.0070018768311,5.37900018692017,9.7140007019043,8.54805088043213,9.79508781433106,10.2689123153687,10.2115745544434,-15.0460510253906,-11.8390502929688,-4.63200044631958,1.9239000082016,3.21254992485046,7.14917516708374,4.79930019378662,-0.45663750171661,3.91682505607605,-8.9170503616333,-5.45595026016235,-4.46700000762939,6.10500049591064,10.3780508041382,11.1340503692627,-10.1461248397827,-14.1805124282837,-11.8721628189087,0.93705004453659,0.8440500497818,1.15995001792908,SWING_RIGHT
-1.52734994888306,-3.62711238861084,-5.20808744430542,6.84969997406006,7.29437494277954,5.39907503128052,1.6030501127243,0.37005001306534,-0.16995000839233,8.5890007019043,9.95595073699951,11.1780004501343,-0.2255000025034,-1.56694996356964,-1.3113374710083,-0.54195004701614,-0.4909500181675,-0.3790500164032,-2.51624989509583,-2.0596125125885,-1.70637500286102,-1.35836243629456,-1.59623754024506,-1.18277502059937,-1.54005002975464,-1.87095010280609,-1.50195002555847,9.03600025177002,9.77400016784668,9.93495082855225,-0.05293750017881,0.1898874938488,0.16417500376701,-0.70695000886917,0.19305001199245,2.30505013465881,-0.39613750576973,0.15358750522137,-0.28036248683929,-0.66109997034073,-4.31860017776489,-8.1163501739502,-1.71000003814697,-0.24000000953674,-0.66105002164841,13.3930501937866,14.0040006637573,13.3279504776001,-4.84687519073486,-3.87832498550415,-1.32398748397827,48.0190505981445,32.7510032653809,20.6149501800537,-3.58820009231567,-4.36273765563965,-6.06567478179932,-7.89937496185303,-5.06797504425049,-2.18074989318848,-27.4620018005371,-28.4869518280029,-28.3860015869141,-3.53595018386841,-0.25304999947548,3.27600026130676,7.93402481079102,10.9426622390747,10.9362001419067,-3.13500022888184,-13.2880506515503,-15.8389511108398,1.05971252918243,5.32345008850098,6.6941876411438,11.1383247375488,6.19286251068115,4.01596260070801,-11.4870004653931,-9.96405029296875,-7.99500036239624,14.0800504684448,10.135950088501,7.64295053482056,0.43518748879433,-6.67040014266968,-9.91897487640381,2.49900007247925,1.62000012397766,0.15195000171661,SWING_RIGHT
-2.31261253356934,-2.25279998779297,-2.45011258125305,-0.97886252403259,-0.26317501068115,0.31611248850822,-0.71595001220703,-1.73895013332367,-2.76195001602173,9.63000011444092,9.4150505065918,9.6709508895874,0.55536252260208,0.74841248989105,0.72916251420975,1.31100010871887,0.22095000743866,-0.66405004262924,-2.71053743362427,-2.17470002174377,-0.56416249275208,0.8788999915123,0.72490000724792,0.74442499876022,-2.50305008888245,-2.06700015068054,-1.48800003528595,9.35295009613037,9.04395008087158,9.4079999923706,0.66123747825623,0.40534999966621,-0.2239875048399,1.18905007839203,2.42204999923706,4.63500022888184,0.93568748235703,0.39091250300407,-0.30401250720024,-1.94809997081757,-3.41412496566772,-5.494225025177,-3.31500005722046,-1.98600006103516,0.38400000333786,13.6710004806519,13.8310508728027,13.9410009384155,-5.34242486953735,-5.44142484664917,-2.18129992485046,33.2700004577637,30.0180015563965,22.1359519958496,-4.50532484054565,-5.28838729858398,-6.93646240234375,-5.84718751907349,-4.12115001678467,-1.52487504482269,-28.6420516967773,-28.5900020599365,-29.377950668335,-1.6519501209259,1.45395004749298,4.07205009460449,8.09531211853027,8.74527454376221,9.00982475280762,-6.86700010299683,-15.0390005111694,-17.9850006103516,0.01333750039339,4.25603771209717,6.55338764190674,10.4444999694824,6.19134998321533,3.77671241760254,-12.7249507904053,-11.9779500961304,-8.95995044708252,19.5409507751465,15.3349504470825,10.5289506912231,0.06764999777079,-9.26158714294434,-11.1467123031616,4.31205034255981,4.75800037384033,3.94095015525818,SWING_RIGHT
-0.50228750705719,0.28902500867844,1.10549998283386,-1.56970000267029,-1.33924996852875,-1.17136251926422,3.4789502620697,3.87105011940002,3.7590000629425,9.4150505065918,8.06400012969971,6.93600034713745,0.35433748364449,0.41222500801086,0.61599999666214,3.17400026321411,3.75600028038025,4.15200042724609,-1.02960002422333,-2.72346258163452,-3.91531252861023,-1.34021246433258,-1.11319994926453,-0.94792497158051,-1.78200006484985,-2.93700003623962,-4.79700040817261,10.7230501174927,11.5990505218506,11.695050239563,3.60731244087219,3.06349992752075,1.31340003013611,13.5160503387451,29.2750511169434,38.0239524841309,-2.66296243667603,-2.77915000915527,-3.66011238098145,-6.54390001296997,-7.46157503128052,-7.1123251914978,-6.77595043182373,-10.3560009002686,-17.2639503479004,7.13505029678345,2.1889500617981,1.51800012588501,0.86542499065399,3.65474987030029,6.61567497253418,18.0040512084961,9.02505016326904,1.54800009727478,-6.05371236801147,-8.29716205596924,-5.93986225128174,1.18841254711151,17.6591243743896,20.8416996002197,-33.5880012512207,-22.348051071167,-17.5030517578125,4.48095035552979,11.7210006713867,13.7140502929688,9.80677509307861,8.90257453918457,6.93316268920898,-17.098051071167,-10.9770002365112,-4.35495042800903,10.8134126663208,14.2439002990723,14.7245998382568,7.25724983215332,10.2650623321533,10.5703125,-6.97200012207031,-5.41800022125244,-3.76005029678345,9.06300067901611,6.97005033493042,5.71005010604858,-9.95775032043457,-2.33282494544983,-0.23498749732971,0.26895001530647,-1.35105001926422,-2.13405013084412,SWING_RIGHT
-7.396399974823,-6.64468765258789,-4.83573770523071,-0.59963750839233,-0.34099999070168,-0.22935000061989,-4.764000415802,-4.16505002975464,-3.43995022773743,12.8950510025024,13.3950004577637,13.3909502029419,2.43759989738464,2.62253737449646,2.7471125125885,1.47900009155273,1.03605008125305,0.46605002880096,1.00979995727539,1.70156252384186,1.69331252574921,0.22123749554157,0.60073751211166,0.74566251039505,-0.84600001573563,-1.02300000190735,-0.78300005197525,8.84505081176758,9.55905055999756,10.5570001602173,2.17002487182617,2.08614993095398,1.99443745613098,0.05100000277162,0.86100006103516,2.31705021858215,0.13763749599457,-0.19868749380112,-0.71004998683929,-1.7496874332428,-3.98860001564026,-6.69033765792847,-1.7410501241684,-1.24605000019073,0.48495003581047,14.6910009384155,15.0139503479004,13.8619508743286,-4.14081239700317,-5.68947505950928,-3.94831252098084,38.0719528198242,20.8620014190674,12.703950881958,-9.60052490234375,-9.11597537994385,-9.82657527923584,-5.35576248168945,-3.48149991035461,-0.48014998435974,-18.4249515533447,-23.076000213623,-25.0639514923096,-0.3529500067234,3.11595010757446,6.67695045471191,6.93577480316162,8.47096252441406,8.7238245010376,-0.99195003509521,-3.59295010566711,-3.54000020027161,-6.24112510681152,2.20398759841919,2.69472503662109,15.2310123443604,7.29286241531372,5.20244979858398,-22.0030517578125,-15.8389511108398,-13.8750009536743,9.03194999694824,10.0900506973267,9.6379508972168,1.95291244983673,-1.09106254577637,-4.38116264343262,-0.12000000476837,-0.34500002861023,-0.56595003604889,SWING_RIGHT
-3.77093744277954,-4.3440375328064,-4.01183748245239,1.60696244239807,0.74978750944138,-1.02795004844666,-1.78200006484985,-1.98795008659363,-1.66005003452301,10.5690002441406,10.5640506744385,9.74100017547607,0.52332502603531,0.63827496767044,0.79447501897812,2.45100021362305,2.06805014610291,1.4190000295639,1.26486253738403,1.72658753395081,1.72768747806549,-0.3602499961853,-0.14822499454021,-0.34746250510216,-0.18705001473427,-0.5869500041008,-0.91005003452301,8.30100059509277,8.83005046844482,9.58305072784424,0.96909999847412,0.70303750038147,0.22769999504089,6.33600044250488,9.11205005645752,14.4070510864258,-0.75996249914169,-1.40923750400543,-2.2430374622345,-4.98134994506836,-6.57415008544922,-7.42142486572266,1.43595004081726,-0.95595002174377,-3.43500018119812,9.36900043487549,10.2840003967285,10.6960506439209,-2.38906240463257,-0.85827499628067,0.87422502040863,29.9389514923096,24.6150016784668,19.2090015411377,-8.25357532501221,-9.35728740692139,-11.0291500091553,-1.3336124420166,1.02341246604919,4.21355009078979,-23.7370510101318,-24.6280517578125,-28.4460010528564,2.62995004653931,3.78900027275085,3.59700012207031,5.29237508773804,5.96447515487671,7.1105375289917,-0.48405003547668,-10.8690004348755,-16.6480503082275,-3.90651249885559,0.30401250720024,1.18071246147156,8.36962509155273,-1.49325001239777,-4.90875005722046,-13.1250009536743,-9.99000072479248,-7.98795032501221,7.67805051803589,12.4710006713867,11.3190002441406,-1.05778753757477,-5.65826225280762,-8.62839984893799,0.41295000910759,1.49505007266998,2.08200001716614,SWING_RIGHT
2.31990003585815,2.32333755493164,1.61012494564056,-0.70509999990463,-0.72613751888275,-1.23983752727509,1.56495010852814,1.69005012512207,1.85700011253357,9.03600025177002,9.14700031280518,9.0169506072998,-0.44426250457764,-0.63332498073578,-0.9757000207901,3.75600028038025,6.3550500869751,11.1690006256104,-0.67457497119904,-2.39648747444153,-4.20310020446777,-4.22001266479492,-7.03601264953613,-9.22294998168945,1.49100005626678,0.36000001430511,-4.43595027923584,9.96300029754639,9.97995090484619,10.4730005264282,-2.90166258811951,-1.23268747329712,2.6478374004364,29.8380012512207,29.2729511260986,21.0820503234863,-6.29447507858276,-7.99521255493164,-10.134162902832,-1.73469996452332,0.30538749694824,3.46087503433228,-32.8050003051758,-30.2539520263672,-37.0030517578125,0.95100003480911,1.40100002288818,1.45905005931854,6.65513753890991,7.20994997024536,7.65201234817505,0.17295001447201,-9.74805068969727,-18.7369518280029,-5.81226253509521,-1.11361253261566,3.92246246337891,10.6281995773315,6.90937519073486,-0.50641250610352,-10.8619508743286,-10.4449501037598,-8.99400043487549,15.9460506439209,15.7590007781982,8.59800052642822,3.98571252822876,-3.1354124546051,-2.06167507171631,3.27705025672913,3.28500008583069,2.23095011711121,4.2630500793457,0.58176249265671,4.06092500686646,-7.11700010299683,-12.1261253356934,-5.45132493972778,0.09195000678301,-0.34005001187325,-0.64905005693436,10.1239500045776,10.488000869751,10.3849506378174,-3.29504990577698,-3.19962501525879,-2.38150000572205,-1.24305009841919,-1.3819500207901,-0.66105002164841,SWING_RIGHT
