gyro_x_0,gyro_y_0,gyro_z_0,acc_x_0,acc_y_0,acc_z_0,gyro_x_1,gyro_y_1,gyro_z_1,acc_x_1,acc_y_1,acc_z_1,gyro_x_2,gyro_y_2,gyro_z_2,acc_x_2,acc_y_2,acc_z_2,gyro_x_3,gyro_y_3,gyro_z_3,acc_x_3,acc_y_3,acc_z_3,gyro_x_4,gyro_y_4,gyro_z_4,acc_x_4,acc_y_4,acc_z_4,gyro_x_5,gyro_y_5,gyro_z_5,acc_x_5,acc_y_5,acc_z_5,gyro_x_6,gyro_y_6,gyro_z_6,acc_x_6,acc_y_6,acc_z_6,gyro_x_7,gyro_y_7,gyro_z_7,acc_x_7,acc_y_7,acc_z_7,gyro_x_8,gyro_y_8,gyro_z_8,acc_x_8,acc_y_8,acc_z_8,gyro_x_9,gyro_y_9,gyro_z_9,acc_x_9,acc_y_9,acc_z_9,gyro_x_10,gyro_y_10,gyro_z_10,acc_x_10,acc_y_10,acc_z_10,gyro_x_11,gyro_y_11,gyro_z_11,acc_x_11,acc_y_11,acc_z_11,gyro_x_12,gyro_y_12,gyro_z_12,acc_x_12,acc_y_12,acc_z_12,gyro_x_13,gyro_y_13,gyro_z_13,acc_x_13,acc_y_13,acc_z_13,gyro_x_14,gyro_y_14,gyro_z_14,acc_x_14,acc_y_14,acc_z_14,motion_type
-6.35071229934692,-8.40468788146973,-9.25870037078857,-32.3860511779785,-22.1830501556396,-0.54405003786087,-4.29495000839233,-0.64789998531342,-4.06230020523071,19.4743995666504,7.37371253967285,7.94956254959106,6.95100021362305,22.6240501403809,31.9909515380859,1.78395009040833,5.03205013275146,7.42500019073486,6.34273767471313,7.05319976806641,0.20858749747276,42.1650009155273,14.6299505233765,-14.4829511642456,-1.380499958992,-4.34004974365234,-12.0938119888306,3.0465874671936,6.19850015640259,23.91455078125,-25.9020004272461,-21.6630001068115,-20.1060009002686,-0.04695000126958,-2.89695024490356,-10.1989507675171,-4.34912490844727,-5.19598770141602,-6.26848745346069,-4.59195041656494,15.4660511016846,36.1440010070801,-2.97536253929138,-7.75059986114502,-7.54668760299683,11.840537071228,20.0795364379883,20.5658740997314,31.1440505981445,19.0770015716553,-0.2490000128746,11.2999505996704,15.996000289917,13.51305103302,-11.5938625335693,-2.87086248397827,-0.10944999754429,-10.1980504989624,-41.0389518737793,-45.3810005187988,-11.0573377609253,-11.8002500534058,-11.2540998458862,20.5921382904053,27.3222122192383,28.8689498901367,-13.6810503005981,-0.89595001935959,16.396951675415,-0.28905001282692,-3.70905017852783,-1.95105004310608,-7.34208726882935,18.1434001922607,20.0793991088867,37.4470520019531,32.3860511779785,17.659049987793,7.60319995880127,3.9945125579834,-2.44337487220764,-15.275975227356,-11.8123502731323,4.99702501296997,-13.5850505828857,-28.8940505981445,-24.7429504394531,10.1170501708984,13.9290008544922,12.5140504837036,SHAKE
-9.22844982147217,-1.05888748168945,3.99973750114441,44.6749534606934,47.0220031738281,35.3059501647949,12.9798622131348,13.1579246520996,11.5157623291016,-24.7673244476318,-23.6783256530762,-18.3569374084473,15.3360004425049,-6.78300046920776,-29.253002166748,1.30800008773804,11.5920009613037,19.5580501556396,-0.09583749622107,0.15180000662804,-4.83807516098022,-58.537052154541,-44.8570518493652,-14.6599502563477,-14.0703744888306,-6.28773736953735,0.38692501187325,28.4946746826172,15.5394248962402,-8.78391265869141,-2.89305019378662,33.1069526672363,36.2280006408691,-6.81795024871826,11.5630502700806,-0.5950500369072,-2.00887489318848,-3.02321243286133,-2.47224998474121,33.2130012512207,21.3000011444092,-32.8480529785156,-0.76779997348785,-10.7373752593994,-12.6168622970581,4.8023247718811,19.5647373199463,29.0490741729736,-30.927001953125,-29.6430015563965,-19.0530014038086,20.2000503540039,2.08605003356934,-11.6290502548218,-2.84088754653931,-4.02448749542236,-3.19893741607666,6.01005029678345,31.195951461792,49.5610542297363,0.61297500133514,11.1251249313354,11.8791751861572,-11.4802875518799,-23.8046875,-24.5664367675781,36.8050498962402,27.9580516815186,12.9490509033203,7.30995035171509,-1.66605007648468,3.44205021858215,-5.92019987106323,-5.03703737258911,-0.57887500524521,7.51695013046265,-19.7929515838623,-59.8330535888672,-8.37691211700439,-13.0299119949341,-13.3392877578735,16.1133499145508,26.49267578125,28.0656757354736,-30.2590522766113,-23.3160018920898,-8.54100036621094,5.61405038833618,-7.24905014038086,-8.20905017852783,SHAKE
0.62562501430511,-3.81081247329712,-5.316575050354,-43.2900009155273,-17.4100513458252,0.31500002741814,-12.3998870849609,-5.36525011062622,-0.14231249690056,26.9137001037598,15.9629249572754,-0.5517874956131,9.15705013275146,28.7989521026611,37.1380500793457,5.19705009460449,10.9639501571655,-1.16295003890991,-6.95887517929077,-8.90848731994629,-9.14842510223389,38.1079521179199,24.0010509490967,10.8100509643555,5.57328748703003,-0.27348750829697,-5.34778738021851,-6.91033744812012,3.09306240081787,11.3042879104614,-25.9720516204834,-30.3690013885498,-26.9869518280029,26.0050506591797,22.231050491333,9.98205089569092,-2.8032124042511,-3.7514123916626,-5.38051223754883,-3.66000008583069,11.2339506149292,38.0080528259277,-0.47547498345375,8.85486221313477,11.5478000640869,3.41385006904602,-18.2184753417969,-22.7471752166748,34.441951751709,34.5450019836426,22.981050491333,9.58695030212402,-4.74795007705688,-9.95700073242188,-4.25658750534058,-3.68981242179871,-3.10268759727478,19.1659507751465,-1.86105012893677,-41.109001159668,-12.0349626541138,-13.4868249893188,-13.4648246765137,21.8950881958008,28.2304000854492,28.3735370635986,-28.1700019836426,-17.4360008239746,-1.92300009727478,2.28495001792908,-8.72205066680908,-5.04495000839233,-4.65781259536743,-2.10031247138977,1.16737496852875,32.0220031738281,50.9650535583496,44.3140525817871,10.0343370437622,10.7714748382568,10.7434253692627,-21.2995758056641,-22.2946624755859,-21.0218257904053,25.6230010986328,9.93600082397461,-10.6680002212524,-12.38805103302,-5.87895011901855,12.0109510421753,SHAKE
-1.07827496528625,-0.03849999979138,-3.09058737754822,52.4089508056641,44.9239540100098,30.1180515289307,12.1276378631592,11.7353496551514,2.47197508811951,-23.4863758087158,-21.1538257598877,-1.42669999599457,4.44105005264282,-18.8059501647949,-32.423999786377,2.03805017471313,20.8150501251221,27.1380004882813,-0.4673624932766,-2.56712508201599,-3.74769997596741,-30.3570022583008,-9.85095024108887,7.83495044708252,-11.705512046814,-1.71214997768402,3.00300002098084,24.9250373840332,8.7668628692627,-11.940637588501,17.4610500335693,32.074951171875,34.7119522094727,6.32295036315918,9.4480504989624,-1.8600001335144,-5.37459993362427,-7.01387500762939,-7.28695011138916,30.3550510406494,20.098051071167,5.9170503616333,-0.61916249990463,-10.1146373748779,-13.2504625320435,4.05721235275269,17.6962490081787,27.423412322998,-28.9510517120361,-27.5959510803223,-19.3759517669678,27.0690021514893,12.2220001220703,-4.4850001335144,-3.43598747253418,-4.39917516708374,-3.63233757019043,2.3860502243042,19.2859516143799,40.8960037231445,0.93623751401901,10.1627626419067,11.0957002639771,-2.66062498092651,-17.6763114929199,-19.5735378265381,33.9220504760742,28.1380519866943,15.0559511184692,2.02395009994507,-8.32605075836182,-4.58100032806396,-1.51703751087189,-0.8259624838829,1.07043755054474,-13.7650508880615,-46.138053894043,-42.7180519104004,-14.2608127593994,-15.1383371353149,-14.4131622314453,25.2575130462646,26.6157379150391,25.3796119689941,-21.3490505218506,-8.15295028686523,9.10500049591064,0.35505002737045,-6.25695037841797,-2.40405011177063,SHAKE
-1.05476248264313,-1.9519499540329,-1.74831247329712,23.2930507659912,11.1259508132935,-4.05495023727417,0.34732499718666,-4.19526243209839,-13.5914621353149,1.37967503070831,8.58247470855713,21.9582004547119,-27.2410507202148,-24.916051864624,-22.1350517272949,25.0830020904541,16.8199501037598,3.03495025634766,-1.66196250915527,-2.76897501945496,-3.81232500076294,-10.8349504470825,0.65205001831055,15.3240003585815,-2.84019994735718,2.0103874206543,12.4884376525879,8.70966243743896,-5.59240007400513,-19.1732749938965,26.812952041626,34.4269523620605,28.9450511932373,10.0540504455566,2.12400007247925,-8.81700038909912,-1.69867503643036,-2.49521255493164,-1.29359996318817,21.0079517364502,10.4530506134033,-5.41995048522949,-4.97873735427856,-13.7695245742798,-14.8889122009277,9.47911262512207,23.6292381286621,25.8604507446289,-25.7869510650635,-24.0730514526367,-15.7120504379272,17.1799507141113,3.21405005455017,-4.36005020141602,-4.20034980773926,-4.78348731994629,-1.35231244564056,4.50104999542236,22.8709506988525,45.4680023193359,2.01382493972778,11.8786249160767,12.7568378448486,-11.9545249938965,-21.689525604248,-23.0704364776611,33.2269515991211,26.8660507202148,13.981050491333,-1.23705005645752,-7.764000415802,-0.89205002784729,-7.39529991149902,-1.16503751277924,1.65563750267029,-5.50395011901855,-31.9879512786865,-49.3570518493652,-13.7251119613647,-14.6940746307373,-14.4045000076294,23.919225692749,26.1208744049072,25.6466369628906,-25.3320007324219,-17.4070510864258,-2.11500000953674,4.70100021362305,0.91500002145767,2.19105005264282,SHAKE
-0.68791252374649,-5.64093732833862,-7.28461265563965,43.5979537963867,29.0809516906738,18.7969512939453,9.46288776397705,-0.67154997587204,-5.07319974899292,-7.1577000617981,2.9363124370575,9.58608722686768,-15.0289506912231,-28.8409519195557,-26.5990505218506,20.7150001525879,19.195951461792,12.9739503860474,-0.90543746948242,-2.04008746147156,-3.18683743476868,-30.9900016784668,-10.4910001754761,6.23295021057129,-10.7145500183105,-1.64367496967316,5.42313766479492,19.9084873199463,4.09364986419678,-13.2995500564575,16.795051574707,32.5349998474121,34.4850006103516,6.796950340271,9.79305076599121,1.01805007457733,-1.93572497367859,-2.21718740463257,-2.5414125919342,20.0329513549805,5.32305002212524,-25.560001373291,0.58038747310638,-10.1473627090454,-13.3386001586914,1.43096244335175,15.5091753005981,26.8565006256104,-29.344051361084,-28.666051864624,-20.4919509887695,24.1200008392334,13.2970504760742,-4.34100008010864,0.90213751792908,-0.3287625014782,-0.95314997434616,-0.29295000433922,20.4310512542725,43.7920532226563,12.0928497314453,13.5888500213623,13.5070371627808,-21.0806751251221,-23.397274017334,-22.680212020874,28.1430015563965,13.303050994873,-4.74195003509521,0.13199999928474,-0.72495001554489,9.68805027008057,-2.0211124420166,-0.61489999294281,2.27974987030029,-15.9250507354736,-42.1789512634277,-39.1519508361816,-13.8300247192383,-14.5440626144409,-13.7369375228882,24.3207244873047,26.6835250854492,25.5188999176025,-20.5810508728027,-9.61395072937012,6.08895015716553,1.03005003929138,-3.92895007133484,0.91995006799698,SHAKE
1.43508744239807,-0.19387499988079,-1.22856247425079,37.7269515991211,25.4839515686035,17.1780014038086,14.1469621658325,3.11794996261597,-1.45860004425049,-21.9517364501953,-3.21516251564026,3.69063758850098,-11.8630504608154,-28.8790512084961,-26.9680519104004,9.84795093536377,18.2380504608154,21.7969512939453,2.19793748855591,0.30992498993874,-2.02413749694824,-35.4490509033203,-14.521050453186,23.1060009002686,-3.43543744087219,3.90967488288879,14.1197376251221,10.2475996017456,-6.98527479171753,-22.6436367034912,30.435001373291,33.5190010070801,25.0120506286621,10.0470008850098,4.83300018310547,-5.31600046157837,0.67113751173019,-0.10436250269413,-0.40108749270439,19.0290012359619,6.08700037002563,-19.2919502258301,0.27417498826981,-8.41720008850098,-14.3951501846313,1.45254993438721,14.948037147522,26.9102630615234,-27.3559513092041,-26.7259521484375,-9.05295085906982,29.6700019836426,25.57200050354,-8.3430004119873,-2.20673751831055,-3.19068741798401,-1.30693745613098,17.6880016326904,43.4560508728027,46.1149520874023,12.6845121383667,14.6679496765137,14.5869626998901,-23.3216495513916,-26.9728240966797,-26.5145378112793,29.1600017547607,15.4990510940552,-1.33395004272461,-9.53595066070557,-8.78894996643066,4.20600032806396,-3.74316239356995,-2.0064001083374,0.0787874981761,-8.53605079650879,-39.528003692627,-25.5379505157471,-14.4585371017456,-14.254075050354,-10.8030996322632,27.3497123718262,26.7180366516113,20.580587387085,-14.2219505310059,-0.21795001626015,16.8550510406494,-6.29100036621094,-3.80205011367798,6.81600046157837,SHAKE
1.15431249141693,0.44508749246597,-0.53020000457764,41.0899505615234,28.8660011291504,19.4560508728027,9.55157470703125,0.12471249699593,-5.88912487030029,-11.5215377807617,1.69798743724823,11.1156377792358,-18.5590515136719,-27.1189517974854,-25.8619518280029,26.8890018463135,25.10205078125,15.7930507659912,-0.91602498292923,-2.15847492218018,-3.56867504119873,-23.9959506988525,-6.48105049133301,8.65395069122314,-10.1316871643066,-1.34021246433258,6.43183755874634,17.1364879608154,2.9826500415802,-13.9154119491577,16.9789505004883,30.3529510498047,32.3290519714355,8.52405071258545,11.5819501876831,-4.19295024871826,-2.62418746948242,-3.05181241035461,-3.45468759536743,20.2080001831055,5.41095018386841,-24.6000003814697,-0.10711249709129,-10.2792253494263,-14.4960746765137,2.73693752288818,17.4382991790771,26.4695739746094,-27.3010520935059,-27.7560005187988,-22.4610004425049,25.5049514770508,10.1929502487183,-4.40595006942749,-2.96917510032654,-3.90610003471375,-3.33299994468689,1.75395011901855,15.7429504394531,35.5240516662598,10.6709623336792,13.0777626037598,13.4448871612549,-23.1089382171631,-26.8222618103027,-26.8625507354736,32.6140518188477,21.9559516906738,4.03905010223389,-16.8499507904053,-16.5769500732422,5.33895015716553,-6.69570016860962,-4.63952493667603,-0.06902500241995,-2.90805006027222,-25.7779502868652,-46.1599540710449,-11.1203126907349,-13.9512996673584,-14.026237487793,19.4045505523682,25.4882373809814,25.5212364196777,-22.9450511932373,-15.9319505691528,-6.39000034332275,6.05505037307739,-0.64095002412796,1.61205005645752,SHAKE
0.20047499239445,-1.17246246337891,-1.70665001869202,41.1190528869629,21.4680004119873,11.6190004348755,12.7781496047974,1.34035003185272,-4.06697511672974,-17.3643245697021,-0.03121249936521,9.52737522125244,-18.3649501800537,-26.2860012054443,-26.4220504760742,25.2340507507324,23.3610019683838,17.8360500335693,-1.79217493534088,-4.38198757171631,-4.76643753051758,-26.1559505462646,7.87305021286011,24.5400009155273,-1.77801251411438,5.36236238479614,13.6628246307373,2.75907492637634,-15.2580995559692,-25.6052494049072,29.3710517883301,33.1789512634277,27.8599510192871,11.69700050354,-7.28205013275146,-24.8950519561768,-3.99836254119873,-4.14012479782104,-4.48181247711182,24.9690017700195,10.2679500579834,-24.1690502166748,0.73218750953674,-12.0320749282837,-12.1862125396729,0.3587374985218,26.7051124572754,27.2863254547119,-27.6990013122559,-20.2810516357422,-8.59800052642822,32.4979515075684,-0.70305001735687,-6.13005018234253,1.4719375371933,-1.67461252212524,0.99756246805191,14.5720510482788,33.5380516052246,42.8119506835938,12.2776498794556,15.3059501647949,15.4189748764038,-21.2984752655029,-26.5878257751465,-27.0674247741699,30.6720008850098,21.480001449585,4.18305015563965,-12.3190507888794,-18.574951171875,0.43800002336502,-2.32237505912781,1.82366251945496,0.6931374669075,-2.62305021286011,-50.6170539855957,-29.3590507507324,-14.4687128067017,-14.3340997695923,-12.2412128448486,26.8012256622314,26.2407741546631,22.3493881225586,-17.7790508270264,-5.43000030517578,16.0770015716553,-5.89305019378662,-2.29605007171631,11.5129508972168,SHAKE
0.99756246805191,1.64628744125366,-1.11099994182587,42.8119506835938,35.22705078125,25.537052154541,15.4189748764038,13.7299251556396,-2.33351254463196,-27.0674247741699,-21.7903118133545,6.12163734436035,4.18305015563965,-16.9930515289307,-29.0089511871338,0.43800002336502,23.5930519104004,25.2049503326416,0.6931374669075,-0.62260001897812,-1.78571248054504,-29.3590507507324,-9.9060001373291,6.64995050430298,-12.2412128448486,-1.36771249771118,3.89551258087158,22.3493881225586,4.7011251449585,-13.2085247039795,16.0770015716553,31.4290523529053,35.509952545166,11.5129508972168,13.5439510345459,-6.76200008392334,-1.95002496242523,-3.65571236610413,-4.71941232681274,30.8869514465332,23.803050994873,-17.1460514068604,-0.5654000043869,-7.85675001144409,-14.0179872512817,2.45313739776611,13.8007373809814,25.7735500335693,-28.9150505065918,-27.832950592041,-20.803050994873,27.4660511016846,10.2100505828857,-1.75005006790161,-1.72631251811981,-3.18793749809265,-0.75652498006821,9.46395015716553,31.1359519958496,46.8000030517578,9.17647457122803,12.6742000579834,13.3214120864868,-17.2228374481201,-22.8910007476807,-24.3839740753174,33.9960021972656,24.8569507598877,8.35995006561279,-12.0940504074097,-17.1640510559082,0.51495003700256,-4.90146255493164,-3.82800006866455,1.12708747386932,5.66805028915405,-24.9130516052246,-50.9160041809082,-14.6911878585815,-14.6876125335693,-13.3443746566772,25.8939990997314,26.3381252288818,24.3236122131348,-20.8870506286621,-14.1960010528564,-1.31295001506805,-3.09105014801025,0.94800007343292,6.31800031661987,SHAKE
-0.41717499494553,-1.41515004634857,-2.5636875629425,-20.4060001373291,-5.7460503578186,10.0410003662109,-4.61752510070801,8.90023708343506,11.8095998764038,12.7668752670288,-18.5523242950439,-23.4936618804932,19.0060501098633,34.498950958252,25.1749515533447,10.5480003356934,-19.4560508728027,-18.4930515289307,-8.45418739318848,-7.39172506332397,-5.71395015716553,20.215051651001,6.3139500617981,-10.0189504623413,-1.1785124540329,-7.92948722839355,-14.2705745697021,3.75361251831055,12.4390745162964,24.840612411499,-28.6519508361816,-25.4020519256592,-22.3390502929688,16.1860504150391,4.59600019454956,3.9060001373291,-0.04427500069141,-3.49195003509521,-0.69781249761581,-10.078950881958,19.0489501953125,44.4139518737793,1.23708748817444,12.7000503540039,14.7728624343872,-10.1652374267578,-21.9895496368408,-25.3908882141113,36.9829521179199,32.2120513916016,17.1900005340576,3.57300019264221,-9.00900077819824,-1.20105004310608,-7.15000009536743,0.48839998245239,-0.82665002346039,11.743950843811,-11.8290004730225,4.36005020141602,-10.6474494934082,-2.82493758201599,9.67037487030029,20.1874752044678,8.75641250610352,-18.6704368591309,6.57105016708374,23.1630020141602,32.1850509643555,5.86995029449463,12.6720008850098,-13.1599502563477,-8.16791248321533,-9.02274990081787,-5.68947505950928,27.4020004272461,15.2689504623413,2.34600019454956,0.26276248693466,-2.22639989852905,-10.3526496887207,1.51868748664856,5.91195011138916,17.2235240936279,-26.2690505981445,-25.9740009307861,-23.506950378418,26.8579521179199,9.41205024719238,1.70100009441376,SHAKE
0.48839998245239,-0.82665002346039,-2.41972494125366,-11.8290004730225,4.36005020141602,14.2009506225586,-2.82493758201599,9.67037487030029,10.9603996276855,8.75641250610352,-18.6704368591309,-21.4471130371094,23.1630020141602,32.1850509643555,21.0870018005371,12.6720008850098,-13.1599502563477,-5.77095031738281,-9.02274990081787,-5.68947505950928,-1.82613754272461,15.2689504623413,2.34600019454956,-17.6490001678467,-2.22639989852905,-10.3526496887207,-13.5467748641968,5.91195011138916,17.2235240936279,25.1944007873535,-25.9740009307861,-23.506950378418,-19.3230018615723,9.41205024719238,1.70100009441376,2.84505009651184,0.07356250286102,-1.69894993305206,-1.14716243743896,-6.04305028915405,6.6259503364563,39.4969520568848,2.5943500995636,11.764087677002,13.1961498260498,-12.198037147522,-21.5848865509033,-24.0657997131348,30.7030506134033,28.8970508575439,18.5430011749268,4.02600002288818,1.16595005989075,10.8450002670288,-8.08004951477051,-2.3011999130249,0.42707499861717,0.8850000500679,-15.0940504074097,-38.0069999694824,-8.38076210021973,-12.0554494857788,-12.5985746383667,16.4905128479004,21.9399127960205,23.2148132324219,-20.7360000610352,-18.2190017700195,-13.2660007476807,2.66100001335144,5.29305028915405,1.2190500497818,-3.26658749580383,-4.16583728790283,-3.13898754119873,9.13800048828125,22.5960006713867,41.743953704834,10.9184627532959,11.8865995407104,11.5673246383667,-19.0011253356934,-21.8329372406006,-20.9009628295898,30.1350021362305,12.4600505828857,-7.29105043411255,0.91305005550385,8.64795017242432,28.3380012512207,SHAKE
2.1628749370575,1.94521248340607,0.28228750824928,-48.8970031738281,-35.5500030517578,-13.6230010986328,-14.6623125076294,-12.0828123092651,-4.55606269836426,23.8756370544434,20.9375381469727,10.7826128005981,-14.6479511260986,2.69595003128052,25.0080013275146,0.73995006084442,2.63895010948181,12.0010509490967,-5.28728723526001,-10.5720996856689,-11.5253877639771,53.0719528198242,27.6679515838623,16.534049987793,11.5929002761841,-2.42728757858276,-11.7002878189087,-13.5269746780396,6.38495016098022,17.4765243530273,-14.5000505447388,-31.6909523010254,-30.0120010375977,29.7510013580322,8.68695068359375,-2.36295008659363,-2.12960004806519,-3.8150749206543,-4.79173755645752,-15.5490007400513,6.20595026016235,39.72705078125,-1.99553751945496,0.48551249504089,1.95263743400574,6.09867477416992,1.80276250839233,-0.32078748941422,42.3690032958984,40.9609527587891,25.8820514678955,14.4180002212524,5.39595031738281,10.4209508895874,-16.5441379547119,-11.3456745147705,0.40755000710487,15.7309503555298,5.95500040054321,-47.8150520324707,-10.4339122772217,-14.9472122192383,-15.2422876358032,14.0575876235962,22.1633491516113,24.8958873748779,-29.7460517883301,-23.461950302124,-15.1990509033203,4.0090503692627,-2.86605024337769,-8.09700012207031,-4.24778747558594,-4.9634747505188,-3.49057507514954,17.3700008392334,32.1300010681152,46.6660537719727,10.3346376419067,13.7047624588013,12.9463129043579,-15.0885620117188,-20.7568626403809,-19.1735496520996,40.1029510498047,10.077000617981,-8.38800048828125,13.1509504318237,9.65895080566406,20.7979507446289,SHAKE
3.78262495994568,0.95947498083115,-0.32394999265671,-40.7800521850586,-17.7330017089844,4.76895046234131,-12.7531251907349,2.14513754844666,13.761549949646,26.92236328125,-1.27861249446869,-15.5902996063232,10.5270004272461,46.8310508728027,38.1370506286621,5.84400033950806,30.3469505310059,20.1400508880615,-4.72051239013672,-5.13108730316162,-2.00653743743896,21.8119506835938,12.8359508514404,3.67695021629334,0.76683747768402,-3.70796251296997,-14.4185247421265,0.98037499189377,5.31671237945557,18.24831199646,-39.154052734375,-36.1650009155273,-35.9470520019531,9.34995079040527,11.2330503463745,2.06505012512207,-0.74373751878738,-4.57242488861084,-3.6733124256134,-10.6030502319336,28.5859508514404,51.7480506896973,3.27263736724854,16.0606880187988,17.8752746582031,-9.72771263122559,-20.459587097168,-22.230037689209,45.411003112793,39.1309509277344,19.8799514770508,37.2259521484375,24.5800514221191,12.4300508499146,-9.51857471466064,-7.06461238861084,-2.80101251602173,11.8969507217407,-2.78295016288757,-38.2009506225586,-3.67771244049072,-14.5070753097534,-13.6764373779297,7.59123754501343,24.862886428833,26.7992992401123,-37.3240509033203,-22.5420017242432,-7.14705038070679,13.3159503936768,-10.3500003814697,-8.20695018768311,-3.90692496299744,-3.96783757209778,-2.11942505836487,26.4640522003174,53.4409523010254,55.6710014343262,11.9424247741699,12.9247245788574,12.9541501998901,-18.3192615509033,-20.3931751251221,-19.638162612915,34.1110534667969,18.0040512084961,2.28105020523071,1.95705008506775,-0.14699999988079,9.73305034637451,SHAKE
1.2974499464035,-0.46997499465942,-3.63178753852844,-15.1630506515503,6.06495046615601,24.1090507507324,-0.90859997272491,0.74456250667572,5.96158742904663,15.1590995788574,2.17483758926392,-7.15852499008179,28.5570011138916,39.9810028076172,38.2900505065918,17.4760513305664,20.1109504699707,10.53600025177,-12.4009876251221,-8.68422508239746,-3.84326243400574,29.5270519256592,7.29600048065186,-14.5290002822876,-2.1067750453949,-10.3457746505737,-13.9302625656128,5.06811237335205,14.2976627349854,24.8980865478516,-30.4000511169434,-29.7660007476807,-23.9220008850098,8.4190502166748,5.41995048522949,-6.20205020904541,-3.77767491340637,-5.56201267242432,-6.01796245574951,1.29000008106232,14.8999509811401,34.4820022583008,-0.9179499745369,11.3866500854492,12.4499378204346,7.99988746643066,-13.1118621826172,-14.0695495605469,38.5900535583496,28.4059505462646,11.3440504074097,31.7869510650635,11.017050743103,12.2530508041382,-9.17276287078857,-3.82236242294312,0.67856252193451,9.88005065917969,-8.94105052947998,-42.7180519104004,-8.10397529602051,-14.7361497879028,-14.9836502075195,10.7453498840332,23.3043251037598,28.0264873504639,-29.0110511779785,-25.0549507141113,-15.2470502853394,-0.47100001573563,-12.151050567627,-18.5410499572754,-6.04298734664917,-3.05593752861023,-11.6487245559692,16.0810508728027,43.9470024108887,36.7740020751953,0.18603749573231,1.6414749622345,1.46217501163483,11.3865127563477,10.1283874511719,10.0896120071411,29.6040019989014,15.7200012207031,2.89395022392273,15.5599508285522,8.88300037384033,12.8089504241943,SHAKE
-2.78176259994507,-4.68558740615845,-6.04298734664917,-20.4679508209229,0.30795001983643,16.0810508728027,-2.53811240196228,-2.53467488288879,0.18603749573231,11.9985246658325,13.9419498443604,11.3865127563477,35.1049499511719,39.4639511108398,29.6040019989014,40.4110527038574,34.795051574707,15.5599508285522,-18.3704128265381,-17.3958129882813,-7.43723726272583,19.0440006256104,10.2730503082275,2.94900012016296,-0.9646999835968,-4.83986234664917,-13.7858877182007,4.12458753585815,6.54527473449707,16.8419628143311,-32.9920501708984,-28.8649520874023,-27.6460514068604,11.3839502334595,4.48395013809204,-5.16300010681152,-6.16618728637695,-7.93237495422363,-4.46476268768311,8.99205017089844,19.1040000915527,37.1569519042969,-0.64459997415543,-5.02328729629517,-3.45358753204346,9.61124992370606,16.6401119232178,14.7014999389648,38.7090034484863,41.1979522705078,29.0430011749268,32.8740005493164,18.5899505615234,4.56494998931885,-22.6397876739502,-18.1476631164551,-5.52777481079102,19.6210517883301,8.97795009613037,1.00499999523163,-5.935462474823,-14.4913997650146,-14.7815246582031,7.26467514038086,22.0329990386963,26.5181121826172,-30.166051864624,-27.1620006561279,-20.6290512084961,10.3920001983643,0.02205000072718,-9.66795063018799,-7.40740013122559,-9.58883762359619,-3.18697500228882,13.9590005874634,32.1420021057129,49.6690521240234,0.4961000084877,4.49322509765625,5.73484992980957,1.92981243133545,-3.09677505493164,-4.44757509231567,45.1590003967285,35.389949798584,18.6010513305664,17.5770015716553,5.91795015335083,3.18795013427734,SHAKE
-5.72632503509521,-7.40740013122559,-9.58883762359619,-2.18505001068115,13.9590005874634,32.1420021057129,-1.68272495269775,0.4961000084877,4.49322509765625,8.96032524108887,1.92981243133545,-3.09677505493164,37.7850036621094,45.1590003967285,35.389949798584,21.9700508117676,17.5770015716553,5.91795015335083,-12.7740249633789,-12.9144124984741,-9.81901264190674,23.1460514068604,12.9990005493164,3.86700010299683,-0.28104999661446,-3.90802502632141,-14.8702125549316,3.39954996109009,6.44544982910156,19.4869117736816,-35.8969535827637,-32.2639503479004,-29.6410522460938,12.8059501647949,7.75500059127808,-2.85405015945435,-6.88448762893677,-8.95399951934814,-3.71153736114502,9.796950340271,27.5269508361816,45.1900520324707,3.17143750190735,11.9996252059937,12.5551252365112,-3.55973744392395,-12.2398376464844,-12.3336124420166,46.2010536193848,22.2649517059326,6.97095012664795,26.6569519042969,-1.57200002670288,5.28300046920776,-2.5113000869751,-2.26764988899231,0.56402498483658,4.2330002784729,-9.54495048522949,-39.6160507202149,-16.1552867889404,-16.3270244598389,-15.3124122619629,25.2912006378174,26.9693870544434,27.1166496276855,-22.6240501403809,-12.7230005264282,4.28295040130615,-10.0560007095337,-10.7620506286621,-1.77600014209747,-2.94525003433228,-8.13903713226318,-9.83331203460693,40.4269523620605,31.5460510253906,26.1229515075684,10.7460374832153,1.81225001811981,-1.09711253643036,-7.86816263198853,0.75844997167587,2.27878737449646,13.1089506149292,-21.9990005493164,-35.1330032348633,2.3929500579834,13.4220008850098,9.7669506072998,SHAKE
0.56402498483658,-5.91593742370605,-6.08739995956421,-39.6160507202149,-23.1940517425537,-1.1620500087738,-15.3124122619629,-0.48496249318123,7.35913753509521,27.1166496276855,4.22125005722046,-4.70800018310547,4.28295040130615,43.7290534973145,44.3430023193359,-1.77600014209747,26.9490013122559,16.6960506439209,-9.83331203460693,-9.8306999206543,-2.64123749732971,26.1229515075684,17.7550506591797,-1.55205011367798,-1.09711253643036,-7.38361263275146,-16.7011623382568,2.27878737449646,6.46593761444092,22.4661254882813,-35.1330032348633,-32.8219528198242,-30.3760509490967,9.7669506072998,6.46200037002563,-6.18105030059814,-5.41475009918213,-8.90752506256104,-1.83411252498627,-8.10795021057129,31.7040023803711,50.1720008850098,-2.52848744392395,-0.96098750829697,0.53377497196198,11.9312877655029,9.7212495803833,8.66827487945557,47.2050018310547,38.1780014038086,20.6680507659912,29.356050491333,13.4959506988525,5.73405027389526,-20.8528366088867,-13.7948246002197,-2.15091252326965,9.42795085906982,2.9760000705719,-9.0730504989624,-13.2114124298096,-15.9258003234863,-16.0261745452881,11.675950050354,25.4981365203857,27.9116744995117,-28.7599506378174,-25.92405128479,-16.8919506072998,2.44500017166138,-8.29500007629395,-13.6050004959106,-6.06581258773804,-6.68071269989014,-17.6257133483887,12.0019502639771,36.4510536193848,39.0160522460938,-3.84450006484985,-3.04768753051758,-3.40450000762939,13.5475997924805,13.2288751602173,13.319899559021,32.3359527587891,16.9720516204834,2.80995011329651,10.0090503692627,7.33800029754639,8.6050500869751,SHAKE
-4.43767499923706,-4.77950000762939,-6.06581258773804,-24.4819507598877,-4.62495040893555,12.0019502639771,-4.65753746032715,-5.21840000152588,-3.84450006484985,20.7898616790771,14.9326372146606,13.5475997924805,23.4910507202148,43.2049522399902,32.3359527587891,9.31695079803467,15.831000328064,10.0090503692627,-22.790075302124,-21.4803867340088,-5.8112998008728,19.3339500427246,10.9510507583618,3.10305023193359,-0.88660001754761,-4.49446249008179,-15.3758001327515,3.14572501182556,5.20410013198853,18.2077503204346,-32.5729522705078,-31.1710510253906,-29.1330013275146,9.63300037384033,9.09899997711182,-0.97905004024506,-5.24631261825562,-8.41376209259033,-3.28982496261597,-15.0150003433228,23.9970016479492,44.3539505004883,1.09683752059937,-0.01911249943078,1.58221244812012,5.51897478103638,5.63337516784668,4.29440021514893,46.1820030212402,42.0430526733398,25.3549518585205,26.1490516662598,12.3060007095337,4.54305028915405,-17.071174621582,-10.2740001678467,-2.51239991188049,13.2049503326416,5.82105016708374,-15.0840005874634,-1.64422500133514,-13.0451745986938,-15.3500871658325,3.89798736572266,12.3212375640869,25.908712387085,-31.2430515289307,-28.3410015106201,-23.2800006866455,5.91105031967163,0.30405002832413,-7.87095022201538,-5.488450050354,-6.79717493057251,-6.88242483139038,3.03105020523071,19.1989517211914,36.3810005187988,-1.18593752384186,-1.51030004024506,0.31308749318123,5.29361248016357,8.54562473297119,7.18464994430542,42.373950958252,42.7429504394531,30.1090507507324,22.9129505157471,12.8730001449585,4.65795040130615,SHAKE
-5.488450050354,-6.79717493057251,-6.88242483139038,3.03105020523071,19.1989517211914,36.3810005187988,-1.18593752384186,-1.51030004024506,0.31308749318123,5.29361248016357,8.54562473297119,7.18464994430542,42.373950958252,42.7429504394531,30.1090507507324,22.9129505157471,12.8730001449585,4.65795040130615,-18.84423828125,-16.430700302124,-0.09129999577999,18.2700004577637,9.42105007171631,-25.8379516601563,-5.69703769683838,-15.6806373596191,-16.6233367919922,5.87647485733032,21.6061992645264,26.8625507354736,-27.1020011901855,-25.5619506835938,-20.9929504394531,5.96400022506714,-4.58505010604858,-14.7709503173828,-7.06461238861084,-9.23394966125488,-1.20009994506836,7.4520001411438,22.090051651001,40.675952911377,-4.8365626335144,-10.356912612915,-8.15306282043457,14.6599750518799,20.7010364532471,20.2622756958008,43.1500511169434,40.5319519042969,10.4869508743286,26.6760005950928,17.1600017547607,10.4110507965088,-14.6317873001099,-2.97247505187988,-0.58698749542236,5.07105016708374,-6.28995037078857,-26.2999515533447,-9.19682502746582,-16.7455749511719,-17.3733997344971,7.86046266555786,21.9620494842529,26.5703620910645,-26.6449508666992,-23.215051651001,-18.7099514007568,0.4909500181675,-6.00600051879883,-11.9910001754761,-9.25402450561523,-10.1468124389648,-9.66212463378906,8.51504993438721,21.4890003204346,40.0050010681152,-9.78257465362549,-8.59856224060059,-7.58559989929199,20.6985626220703,20.1881618499756,19.5966377258301,40.0720520019531,26.3920516967773,12.6090002059937,14.3010005950928,6.82605028152466,5.28300046920776,SHAKE
-6.65362501144409,-6.46868753433228,-7.23813724517822,-31.4370021820068,-12.6990003585815,4.18305015563965,-14.2910623550415,-4.45706224441528,-1.79011249542236,25.0426006317139,9.20988750457764,7.74289989471436,7.97205018997192,29.2060508728027,41.4180030822754,-2.91600012779236,18.6640510559082,29.3989505767822,-16.4863872528076,-17.0095748901367,-11.8720245361328,21.3120002746582,13.3630504608154,7.83495044708252,0.37482500076294,-4.10368728637695,-14.4142627716064,2.75632500648499,4.17614984512329,19.3947868347168,-15.4980010986328,-22.4850006103516,-22.8100509643555,3.41505026817322,7.01295042037964,-2.67900013923645,-9.91636276245117,-10.8308753967285,-2.03032493591309,-9.89700031280518,4.03905010223389,34.0339508056641,-1.73882496356964,-6.51268768310547,-5.29292488098145,9.67573738098144,17.0204372406006,16.8551616668701,39.9859504699707,40.3669509887695,27.9220504760742,27.715051651001,17.9749507904053,8.8210506439209,-16.0554618835449,-3.68252491950989,-0.8981499671936,7.54095029830933,1.5700501203537,-14.1859502792358,-3.36654996871948,-13.585000038147,-15.154974937439,2.81572508811951,14.1714372634888,21.7999382019043,-24.2430019378662,-22.0420513153076,-19.8450012207031,3.49695014953613,-2.18595004081726,-10.8360004425049,-3.86567497253418,-5.52199983596802,0.02901249937713,2.73405003547669,16.5190505981445,34.699951171875,-5.75272512435913,-4.66138744354248,-3.89468741416931,12.7804870605469,12.6861619949341,12.9116621017456,39.8110504150391,26.8350009918213,13.381950378418,20.5540504455566,13.3240509033203,7.7359504699707,SHAKE
-3.69902491569519,-3.34881258010864,-3.86567497253418,-33.4800033569336,-16.0879516601563,2.73405003547669,-14.2186002731323,-4.62371253967285,-5.75272512435913,23.6718616485596,12.0901002883911,12.7804870605469,7.06605052947998,28.1689510345459,39.8110504150391,-4.84905004501343,12.7849502563477,20.5540504455566,-14.7273502349854,-15.5009250640869,-12.5052127838135,19.7410507202148,12.3709506988525,7.62705039978027,-1.06974995136261,-4.19113731384277,-14.3538999557495,2.86508750915527,4.05019998550415,18.6026496887207,-22.9999504089355,-23.1150016784668,-22.276050567627,-0.70800000429153,2.83800005912781,-1.43805003166199,-9.00528717041016,-9.79357528686523,-1.67103743553162,-11.7259502410889,4.56405019760132,34.3740005493164,-1.06315004825592,-5.27546262741089,-4.08828735351563,7.69711256027222,14.2525625228882,14.0212869644165,40.8910522460938,42.4770011901855,29.9359512329102,22.2550506591797,15.1390504837036,8.91405010223389,-21.0124740600586,-15.8065872192383,-3.69214987754822,14.3400011062622,10.6110000610352,5.38500022888184,-0.28613749146461,-2.21759986877441,-15.854024887085,2.28745007514954,1.42738747596741,22.0448246002197,-22.498950958252,-26.2999515533447,-22.9129505157471,0.57705003023148,3.74595022201538,-6.58005046844482,-1.61204993724823,-3.41962504386902,-1.24080002307892,-1.29105007648468,11.743950843811,24.1860008239746,-3.26314997673035,-6.59862518310547,-7.05196237564087,4.53543758392334,13.5162496566772,15.0136251449585,36.0510025024414,43.4590530395508,37.6080017089844,18.7720508575439,24.2640018463135,17.4169502258301,SHAKE
-3.41962504386902,-1.24080002307892,-0.88371247053146,11.743950843811,24.1860008239746,40.5769500732422,-6.59862518310547,-7.05196237564087,-6.2039999961853,13.5162496566772,15.0136251449585,15.3023748397827,43.4590530395508,37.6080017089844,24.2749519348145,24.2640018463135,17.4169502258301,10.4500503540039,-20.6923751831055,-2.59971237182617,-0.62878751754761,11.8660507202148,-1.03995001316071,-16.4370002746582,-5.660325050354,-14.9632997512817,-16.2269248962402,3.09925007820129,18.8384628295898,20.646312713623,-27.9000015258789,-25.2199516296387,-23.0140514373779,-1.86705005168915,-2.69100022315979,-6.39405012130737,-2.7607250213623,-5.71339988708496,0.37908750772476,5.27205038070679,18.5860500335693,39.2170524597168,0.93417501449585,-1.33732497692108,-0.53845000267029,5.95333766937256,11.3190002441406,11.4449501037598,43.3630523681641,29.1799507141113,14.7090005874634,25.9410018920898,11.9700002670288,6.64395046234131,-15.4970750808716,-3.52962493896484,-1.10274994373322,10.6560001373291,5.03805017471313,-6.796950340271,-1.38847494125366,-1.74597501754761,-7.22287511825562,0.51782500743866,-0.95961248874664,-1.69111251831055,-26.7570018768311,-24.2520008087158,-23.098051071167,1.48695003986359,2.61495018005371,-4.50405025482178,19.0746879577637,17.1951999664307,9.01340007781982,-2.79300022125244,10.8889503479004,22.2840003967285,-2.52230000495911,-3.61240005493164,-3.24582505226135,2.67808747291565,10.3884000778198,10.5725126266479,35.1379508972168,43.7530517578125,38.0839500427246,23.7010517120361,26.1990013122559,17.5819511413574,SHAKE
1.00718748569489,-3.20416259765625,-0.28613749146461,8.26095008850098,16.7329502105713,33.8040008544922,-3.78592491149902,-8.35491275787354,-6.81106233596802,7.70041227340698,16.2134494781494,16.941650390625,42.7429504394531,42.4069519042969,16.0360507965088,26.3140506744385,21.8640003204346,8.77095031738281,-16.7037754058838,-4.29398727416992,-2.00034999847412,6.96105051040649,5.14995002746582,-2.81895017623901,-15.3159875869751,-17.7799873352051,-18.5343132019043,7.50103759765625,20.4986381530762,21.8393993377686,-20.451000213623,-20.7390003204346,-18.8850002288818,-1.17000007629395,-6.25005006790161,-10.0009508132935,-5.92143726348877,-4.59305000305176,-0.82293748855591,6.25200033187866,15.3940505981445,34.4650497436523,-4.39257478713989,-9.1495246887207,-7.98022508621216,10.2456750869751,17.656925201416,18.4888000488281,45.0439529418945,45.0349502563477,17.9689502716064,21.0589504241943,15.9679508209229,9.83205032348633,-16.6676120758057,-5.16890001296997,-2.87196254730225,4.37700033187866,5.05005025863647,-2.00999999046326,-14.1499872207642,-16.5929508209229,-17.7940120697021,9.25870037078857,19.7276744842529,21.941837310791,-20.9809513092041,-18.4300518035889,-15.7710008621216,5.76705026626587,-2.33895015716553,-11.3680505752563,-14.8608627319336,-7.2722373008728,-4.38652515411377,6.38595008850098,11.1760501861572,39.4900512695313,-17.5036125183105,-17.430736541748,-16.4449996948242,21.5065116882324,22.6371746063232,23.1534881591797,38.8870506286621,27.9199504852295,15.456000328064,25.5619506835938,16.9570503234863,9.32100009918213,SHAKE
3.33808755874634,-0.29727500677109,-10.0443754196167,14.3659505844116,37.8970527648926,44.2110023498535,-7.97279977798462,-7.55315017700195,-7.01676225662231,15.5902996063232,16.0582122802734,16.5497741699219,39.7150535583496,27.2059516906738,15.0390005111694,15.8340005874634,8.65995025634766,2.07195019721985,-15.3558626174927,-1.70389997959137,1.02987504005432,7.81605052947998,-0.11295000463724,-18.9259510040283,5.17990016937256,8.05007457733154,8.28355026245117,-10.2482872009277,-18.1073741912842,-18.8174247741699,-21.8790016174316,-21.4260005950928,-19.0429515838623,-1.12695002555847,-0.36105000972748,-0.66195005178452,21.395824432373,8.23143768310547,0.56292498111725,3.00705003738403,15.4440011978149,37.9450531005859,6.19712495803833,16.6454753875732,16.6005115509033,-14.620924949646,-19.3199882507324,-18.1568756103516,41.9160003662109,28.4610004425049,15.2740507125854,16.909049987793,7.08495044708252,5.63595008850098,-0.00233749998733,-3.0463125705719,-0.99440002441406,8.67795085906982,5.50200033187866,-8.03595066070557,-0.16596250236034,-0.41772499680519,-2.79358744621277,-1.03468751907349,-2.59998750686646,-1.84621250629425,-23.098051071167,-20.9020519256592,-21.4330501556396,-0.8320500254631,-0.04395000264049,-3.50505018234253,11.1054620742798,3.68389987945557,-0.61668747663498,-2.7810001373291,24.6480007171631,45.0730514526367,-4.93295001983643,-4.88289976119995,-4.25493764877319,10.575400352478,11.2144994735718,11.5638875961304,42.0649528503418,34.5090026855469,20.9550018310547,13.9200010299683,8.11200046539307,5.85795021057129,SHAKE
4.46448755264282,4.85691261291504,4.10341262817383,-30.5989513397217,-11.7409505844116,2.16795015335083,-7.79872512817383,-2.78052496910095,-6.57456254959106,8.86201286315918,5.91373729705811,14.4479503631592,6.85305023193359,38.7259521484375,38.2039527893066,-2.26500010490417,22.8889503479004,11.0290508270264,-18.2253494262695,-19.4972248077393,-3.39418745040894,19.3890018463135,11.2890005111694,5.78505039215088,0.39696249365807,0.47368749976158,5.3356876373291,0.7537750005722,-1.96432495117188,-10.2121248245239,-18.0970516204834,-20.8200016021729,-18.3919506072998,-6.30000019073486,-3.4740002155304,-1.69500005245209,21.1993370056152,19.5567626953125,7.30633735656738,-8.69700050354004,5.26500034332275,31.9789524078369,0.19744999706745,-2.06607508659363,-1.68698751926422,-0.22990000247955,9.02274990081787,9.52600002288818,35.0830497741699,30.9640522003174,17.5420513153076,16.0180511474609,6.24105024337769,7.69305038452148,-22.9554882049561,-7.8515248298645,-0.1142624989152,9.51900005340576,6.56295013427734,-29.2440013885498,4.23843765258789,2.98058748245239,2.80953741073608,-6.7253999710083,-12.8643627166748,-12.6476621627808,-18.4870510101318,-20.8780517578125,-14.9839506149292,-2.32905006408691,-1.73805010318756,-1.42395007610321,7.55658769607544,-2.27754998207092,-15.5601873397827,43.7560539245605,56.1379508972168,35.1859512329102,3.94748759269714,4.49844980239868,3.0940248966217,-0.58850002288818,-0.47093749046326,0.85497498512268,23.8990516662598,11.157000541687,-0.81195002794266,-2.21205019950867,-0.26700001955032,-0.34395000338554,SHAKE
21.495512008667,21.0627994537354,18.480411529541,-17.9869499206543,-0.14205001294613,17.0729999542236,-0.08703749626875,-3.76241254806519,-3.12785005569458,-2.08903741836548,7.8051872253418,7.8159122467041,27.2590503692627,41.3179512023926,25.150951385498,9.11295032501221,0.03600000217557,0.1410000026226,-20.9213123321533,-15.6865501403809,-3.58627486228943,10.0360507965088,6.42405033111572,1.59795010089874,-0.59468752145767,1.2919499874115,0.12540000677109,-0.21106250584126,-7.22796249389648,-6.90964984893799,-21.6799507141113,-21.1870517730713,-20.4319515228271,-0.40395000576973,-7.11495018005371,-9.24900054931641,20.8719501495361,18.0021877288818,0.71293747425079,2.88900017738342,17.0659503936768,48.388053894043,-2.20426249504089,-7.26440000534058,-6.7013373374939,7.72804975509644,14.5613870620728,14.9485874176025,42.5299530029297,38.2590026855469,23.1300010681152,14.3730010986328,6.71595048904419,5.25195026397705,-15.1761503219604,-3.01894998550415,-0.80795001983643,7.02795028686523,0.16095000505447,-21.2250003814697,-0.45814999938011,1.62827503681183,1.39342498779297,-1.83466243743896,-7.06626224517822,-7.03518724441528,-22.4179515838623,-22.7029514312744,-20.238000869751,-0.00105000007898,-1.77105009555817,-4.84605026245117,10.9775876998901,6.4938497543335,-0.54326248168945,7.31100034713745,22.2790508270264,44.8260040283203,-3.80833745002747,-3.0214250087738,-2.75536251068115,9.53947448730469,9.60684967041016,9.96710014343262,35.5139999389648,21.5059509277344,8.32905006408691,6.8860502243042,3.59295010566711,1.94205009937286,SHAKE
-3.01894998550415,-0.80795001983643,4.75584983825684,0.16095000505447,-21.2250003814697,-41.5759506225586,1.62827503681183,1.39342498779297,0.98972499370575,-7.06626224517822,-7.03518724441528,-6.01191234588623,-22.7029514312744,-20.238000869751,-6.91695022583008,-1.77105009555817,-4.84605026245117,-7.44495058059692,6.4938497543335,-0.54326248168945,-18.636474609375,22.2790508270264,44.8260040283203,27.6799507141113,-3.0214250087738,-2.75536251068115,-2.83538746833801,9.60684967041016,9.96710014343262,1.64559996128082,21.5059509277344,8.32905006408691,-22.1830501556396,3.59295010566711,1.94205009937286,-0.49200001358986,15.4250249862671,14.7556753158569,4.94463729858398,-26.3340015411377,-2.44095015525818,26.7460517883301,-2.08587503433228,-5.4064998626709,-5.43207502365112,2.30614995956421,12.312575340271,13.1471996307373,38.5249519348145,43.701000213623,32.9640007019043,18.7960510253906,16.806001663208,6.98400020599365,-21.4157619476318,-21.7166118621826,-7.44383764266968,12.4480504989624,9.51900005340576,6.72600030899048,0.04427500069141,-0.32491248846054,3.71951246261597,1.43783748149872,-0.38444998860359,-15.125,-21.7950019836426,-23.9740505218506,-20.3989505767822,-6.63795042037964,-3.37800025939941,-7.49805021286011,20.7583751678467,19.8189754486084,7.8839750289917,-4.50300025939941,10.9339504241943,33.7540512084961,-1.6163125038147,-8.46078777313232,-8.56143760681152,1.06218755245209,14.9434995651245,16.4158496856689,41.1949501037598,41.1810035705566,27.855001449585,13.1580009460449,13.4839506149292,11.2420501708984,SHAKE
20.7583751678467,19.8189754486084,7.8839750289917,-4.50300025939941,10.9339504241943,33.7540512084961,-1.6163125038147,-8.46078777313232,-8.56143760681152,1.06218755245209,14.9434995651245,16.4158496856689,41.1949501037598,41.1810035705566,27.855001449585,13.1580009460449,13.4839506149292,11.2420501708984,-19.8330001831055,-19.7014122009277,-3.17006254196167,8.56995010375977,7.39695024490356,5.08095026016235,-0.85263746976852,-1.95208752155304,-4.29330015182495,1.54178750514984,0.71513748168945,0.2714250087738,-22.0849514007568,-22.1470508575439,-20.3530502319336,-6.36300039291382,-4.32405042648315,-7.33500051498413,11.4626874923706,8.79326248168945,2.39992499351501,-16.5209999084473,11.5399503707886,35.2990531921387,-1.26211249828339,-4.98341226577759,-4.55771255493164,2.80156254768372,12.0851497650146,12.4350872039795,40.6020011901855,41.8800010681152,26.6029510498047,16.1350498199463,4.32300043106079,0.47205001115799,-19.5695495605469,-17.9104747772217,-3.69545006752014,10.3980007171631,8.28495025634766,3.8449501991272,0.16431249678135,0.30428749322891,6.35112476348877,0.75927501916885,-2.42371249198914,-16.6161880493164,-25.1170520782471,-22.2690010070801,-21.223051071167,-7.38000011444092,-11.461950302124,-8.5420503616333,22.3536491394043,21.2848625183105,19.1613121032715,-10.8829507827759,1.41405010223389,14.7880506515503,0.06916250288486,1.90107500553131,-1.87481248378754,-2.06524991989136,3.99038743972778,8.96156215667725,30.4540519714355,42.1609535217285,36.0960006713867,13.3360509872437,16.806001663208,7.6279501914978,SHAKE
19.070837020874,18.3836116790771,17.400074005127,-23.4169502258301,-5.21700048446655,5.56005048751831,3.08934998512268,-1.07799994945526,-4.25108766555786,-9.10428714752197,0.16224999725819,8.62125015258789,18.9240016937256,35.3200531005859,41.0419502258301,5.0029501914978,18.6480007171631,13.4820003509521,-11.141900062561,-12.5980253219604,-1.01873743534088,11.238000869751,6.36195039749146,-6.46695041656494,-0.12264999747276,2.54003739356995,4.79888725280762,-0.79117500782013,-8.62097454071045,-14.8895998001099,-19.6200008392334,-19.1080513000488,-18.2380504608154,-6.59205007553101,-10.0459508895874,-11.3010005950928,17.3452129364014,16.7336120605469,6.74107503890991,-3.1279501914978,7.02300024032593,25.4340019226074,-4.33056259155273,-10.616925239563,-10.8138246536255,2.85876250267029,17.3762874603271,18.8007869720459,38.0940017700195,38.6160011291504,25.8340511322021,24.574951171875,18.2260513305664,10.4779500961304,-13.4829750061035,-14.3292875289917,-2.15297508239746,6.06795024871826,4.38600015640259,-0.30195000767708,-1.90313744544983,-3.57156252861023,-12.5313377380371,1.70554995536804,2.49163746833801,20.0501117706299,-20.5060501098633,-18.2050514221191,-15.9220504760742,-4.40295028686523,-11.4640502929688,-13.9830007553101,-11.399299621582,-11.1786127090454,0.83160001039505,5.86200046539307,16.4479503631592,46.3690528869629,-8.99524974822998,-11.1640377044678,-9.49863719940186,11.6561498641968,16.8170757293701,16.2309131622314,38.0479507446289,14.7540006637573,1.59600007534027,22.7239513397217,9.22605037689209,3.16395020484924,SHAKE
14.4711875915527,11.566912651062,2.78107500076294,-11.1400508880615,10.3360500335693,28.2769508361816,-9.96847534179688,-10.7284374237061,-10.094425201416,6.01081228256226,12.9042377471924,12.9615745544434,44.0140533447266,38.275951385498,22.6990509033203,17.2830009460449,7.66200017929077,2.04105019569397,-4.4317626953125,-5.59267473220825,-0.8592374920845,5.54505014419556,3.42795014381409,-0.36405003070831,-1.10453748703003,-4.25040006637573,-4.8449501991272,0.23361249268055,-4.23197507858276,-3.83817505836487,-19.0189514160156,-19.3300514221191,-16.9309501647949,-2.49495005607605,-14.8360509872437,-11.8519506454468,14.8024253845215,12.9349002838135,1.51978754997253,2.76000022888184,10.4310007095337,37.0470008850098,-11.0269498825073,-12.4529628753662,-12.0533876419067,9.13096237182617,21.1624870300293,21.665599822998,43.0060539245605,36.5370025634766,20.650951385498,18.8340015411377,8.40900039672852,1.67895007133484,-16.3693752288818,-1.08707499504089,0.36121249198914,6.18000030517578,-0.63300001621246,-14.062050819397,0.13048750162125,4.25438737869263,5.0378623008728,-4.65877485275269,-13.6819372177124,-14.3687496185303,-18.3130512237549,-17.97705078125,-15.3450002670288,-11.1840009689331,-9.31095027923584,-5.9239501953125,12.8884248733521,10.6288871765137,1.72631251811981,1.11495006084442,8.37405014038086,36.8580017089844,-9.81186199188232,-10.9433498382568,-9.67449951171875,7.61392498016357,20.6655616760254,20.6188125610352,41.4370536804199,20.7370510101318,7.96695041656494,15.7519512176514,2.04795002937317,2.0500500202179,SHAKE
18.2910747528076,17.2209129333496,1.14111244678497,-11.202000617981,-0.53205001354218,41.8639526367188,-0.63318747282028,-2.847487449646,-1.86559998989105,5.56930017471313,13.877875328064,14.0211496353149,40.2949523925781,35.566951751709,21.211051940918,20.2399501800537,4.66095018386841,-0.03195000067353,-21.0450630187988,-13.275899887085,-1.77333748340607,7.81395053863525,3.97200012207031,-0.40800002217293,0.40438750386238,0.39338749647141,5.42080020904541,-0.52593749761581,-5.43276262283325,-18.1599006652832,-20.1589508056641,-17.6160011291504,-16.056001663208,-7.36605024337768,-16.6080017089844,-6.74595022201538,14.8416128158569,12.2761373519897,0.88302499055862,0.6240000128746,9.29100036621094,43.0660514831543,-6.61677503585815,-7.40382480621338,-6.72127485275269,8.73661231994629,19.9423122406006,20.6691379547119,40.3240509033203,34.5760498046875,19.0080013275146,14.7169504165649,4.80900001525879,10.3200006484985,-19.3289241790771,-10.4619626998901,0.98051249980927,7.79700040817261,6.62295007705688,-22.5060005187988,-0.98312497138977,0.91423749923706,1.09697496891022,-6.48381233215332,-16.4033374786377,-16.1356258392334,-19.1700000762939,-20.074951171875,-13.1659507751465,-24.9910507202148,-14.8720502853394,-5.42805004119873,18.5026874542236,10.9715375900269,1.17314994335175,4.0770001411438,16.5960006713867,46.9750518798828,-1.53202497959137,-0.84479999542236,0.44728749990463,7.41661262512207,8.24230003356934,9.36966228485107,37.2010536193848,27.7519512176514,4.93005037307739,14.5260009765625,5.68305015563965,1.72905004024506,SHAKE
19.5459003448486,18.5026874542236,10.9715375900269,-2.30895018577576,4.0770001411438,16.5960006713867,-1.29786252975464,-1.53202497959137,-0.84479999542236,-0.31597501039505,7.41661262512207,8.24230003356934,30.693000793457,37.2010536193848,27.7519512176514,24.9370517730713,14.5260009765625,5.68305015563965,-13.8862628936768,-4.65561246871948,-1.55567502975464,2.76000022888184,0.87795001268387,-2.26095008850098,1.38929998874664,2.10017490386963,11.0745248794556,-1.94562494754791,-15.370849609375,-22.8031368255615,-16.8919506072998,-16.3579502105713,-16.9500007629395,-11.742000579834,-14.9370002746582,-12.0319509506226,11.183837890625,10.6525373458862,5.93463754653931,-6.90495014190674,0.72900003194809,11.1979503631592,-2.234375,-2.76636242866516,-1.92403745651245,9.53342533111572,12.0421123504639,12.0187377929688,39.8230514526367,32.0460014343262,16.242000579834,15.3619508743286,-1.44300007820129,-1.80195009708405,-15.7728996276855,-5.38353729248047,-1.07772505283356,5.58105039596558,2.96400022506714,-5.49900007247925,0.64748752117157,2.01767492294312,9.46756267547607,-1.89364993572235,-13.652099609375,-20.7191867828369,-19.078950881958,-18.351001739502,-19.4119510650635,-10.9150505065918,-13.8490505218506,-8.25705051422119,10.7196378707886,2.44777488708496,-0.59262502193451,6.88395023345947,29.1120014190674,53.9389533996582,-7.09733724594116,-6.88063764572144,-5.7074875831604,16.3158874511719,18.5068130493164,17.3194999694824,37.2199516296387,9.54000091552734,-1.7610000371933,1.25295007228851,3.87000012397766,1.80105006694794,SHAKE
-0.45814999938011,2.45753741264343,1.16875004768372,-37.675952911377,-25.6180515289307,-4.56795024871826,7.33892488479614,-1.15802502632141,-9.41641235351562,-12.8768749237061,1.20903754234314,16.5189743041992,26.5279521942139,40.7910003662109,41.623950958252,3.66000008583069,10.8810005187988,0.19200000166893,-18.7357501983643,-19.6552124023438,-2.11557507514954,20.4090003967285,8.49405002593994,-9.6739501953125,-1.23131251335144,-3.16277503967285,-4.44675016403198,1.34969997406006,2.46180009841919,3.9426748752594,-23.3250007629395,-23.2699508666992,-21.6130504608154,2.06505012512207,-6.74595022201538,-12.2110509872437,-3.20223736763,-4.13338756561279,-3.50803756713867,0.59700000286102,13.6309509277344,38.5849533081055,-4.29013729095459,-8.06795024871826,-6.51433753967285,6.35277509689331,14.4966249465942,15.1133127212524,44.7739524841309,38.2279510498047,5.77095031738281,14.7610502243042,2.98395013809204,0.22800001502037,-12.507550239563,-1.6744749546051,-0.69451248645782,-1.36800003051758,-18.5950508117676,-35.6809501647949,-2.0462749004364,-1.82091248035431,-1.67062497138977,3.26301240921021,3.4985499382019,3.90417504310608,-19.3620014190674,-2.01195001602173,23.7379512786865,-4.06095027923584,-2.83200001716614,8.79900074005127,-4.89692497253418,-4.1810998916626,-5.27972507476807,48.4669532775879,44.569953918457,25.6230010986328,10.3042497634888,9.55473709106445,5.22004985809326,-9.52489948272705,-8.04292488098145,-3.37782502174377,15.0589504241943,-3.96900010108948,-24.6589508056641,-9.16695022583008,-2.47095012664795,3.25200009346008,SHAKE
-7.49938726425171,-13.7064123153687,-15.2565870285034,-32.5129508972168,-10.7610006332397,10.1389503479004,-12.6828622817993,-3.68004989624023,-10.4704875946045,25.5663375854492,17.0362491607666,15.7969627380371,19.6039505004883,39.5719528198242,46.3260040283203,-8.09895038604736,1.15005004405975,6.4830002784729,-16.5752124786377,-17.7082118988037,-9.99913787841797,34.4029502868652,7.73895025253296,-1.82100009918213,0.05417500063777,-2.9546000957489,-12.7340126037598,3.32296252250671,4.50243759155273,19.8910255432129,-29.812952041626,-27.9649505615234,-27.2479515075684,12.9240007400513,14.0610008239746,3.09405016899109,-4.56527519226074,-6.43912506103516,-8.31435012817383,1.29405009746552,17.4970512390137,37.1449508666992,-2.01767492294312,-6.48972511291504,-5.46287488937378,5.31409978866577,12.1831874847412,11.9967374801636,45.178050994873,24.7939510345459,6.0130500793457,-2.53800010681152,-10.5990009307861,-1.31595003604889,-23.3289375305176,-3.48548746109009,-0.40204998850822,3.08100008964539,-25.3800010681152,-46.1880035400391,-12.0063619613647,-13.4237127304077,-13.6467370986938,12.7518873214722,20.8318004608154,21.0660991668701,-26.8009510040283,-19.2990016937256,-0.18900001049042,7.39305019378662,-5.8279504776001,-12.985050201416,-11.6494121551514,-7.82622480392456,-11.9916496276855,28.5229511260986,41.5549507141113,28.2049522399902,-1.54618752002716,-1.34667503833771,1.04266250133514,4.25535011291504,4.99317502975464,2.08505010604858,14.1150007247925,-2.61600017547607,-22.9489517211914,-2.73405003547669,7.59705018997192,13.2559509277344,SHAKE
-0.15468749403954,-5.7560248374939,-10.6683502197266,-50.6530532836914,-36.1459503173828,11.1979503631592,-12.5380744934082,-2.27906250953674,-3.64058756828308,20.5662879943848,9.84004974365234,9.30655002593994,17.3869514465332,38.8410034179688,43.7490005493164,-9.47100067138672,-6.10095024108887,-13.9500007629395,-18.6693382263184,-19.7737369537354,-20.0131244659424,31.5049514770508,20.2750511169434,13.2810010910034,0.49431249499321,0.15042500197887,-12.7547750473022,-0.68062502145767,3.16992497444153,23.1835994720459,-22.7220020294189,-31.6530017852783,-25.8810005187988,15.070050239563,15.5920505523682,0.99405002593994,-0.90406250953674,-1.74185001850128,-4.76093769073486,-1.8880500793457,14.1220502853394,39.0730514526367,-2.85312509536743,1.58344995975494,2.38122487068176,4.1606125831604,-1.23364996910095,-1.21343743801117,43.1710510253906,25.594051361084,8.77200031280518,5.89395046234131,2.17500019073486,11.1420001983643,-15.6960372924805,-2.74779987335205,-1.09560000896454,1.97400009632111,-21.117000579834,-46.2430534362793,-14.1366500854492,-16.7249507904053,-16.6794376373291,15.9629249572754,21.2251873016357,22.7015247344971,-25.359001159668,-20.4940509796143,-7.27395057678223,10.6410007476807,-2.30805015563965,-10.8360004425049,-15.9143877029419,-10.9285001754761,-20.9577503204346,22.4140510559082,42.8790016174316,30.0559520721436,-9.41627502441406,-8.42379951477051,-5.81817483901978,17.605224609375,16.511962890625,7.28172492980957,20.4640502929688,5.5290002822876,-15.8070011138916,-12.4429502487183,-0.68595004081726,3.94695019721985,SHAKE
-15.1756000518799,-16.4106254577637,-15.6960372924805,18.1819515228271,12.4480504989624,1.97400009632111,-0.98752498626709,-4.00496244430542,-14.1366500854492,2.65650010108948,5.63282489776611,15.9629249572754,-28.9660511016846,-25.8139514923096,-25.359001159668,10.7320508956909,16.5979499816895,10.6410007476807,-13.1223125457764,-15.338399887085,-15.9143877029419,-6.2440505027771,9.97395038604736,22.4140510559082,-4.66413736343384,-10.8480625152588,-9.41627502441406,16.9045257568359,19.2390003204346,17.605224609375,37.9050025939941,34.2160530090332,20.4640502929688,-6.90105009078979,-14.8410005569458,-12.4429502487183,-23.3587741851807,-16.1436004638672,-3.21860003471375,12.9460506439209,3.83505010604858,-27.5119514465332,-0.54917502403259,-6.56438732147217,-7.58986234664917,1.97958743572235,11.9383001327515,11.3169374465942,-27.6840019226074,-29.0110511779785,-21.2320518493652,28.2370510101318,19.0189514160156,1.62600004673004,-0.06971249729395,-2.37283754348755,-9.00570011138916,34.1370010375977,45.0559539794922,37.7610015869141,-3.07628750801086,-1.82008743286133,-0.46351251006126,0.11742500215769,1.11182498931885,-2.62899994850159,31.7640018463135,1.78305006027222,-16.0830001831055,-15.1210508346558,12.7009506225586,19.8790512084961,-3.13018751144409,-0.05678749829531,-6.94815015792847,-28.6300506591797,-42.847053527832,-30.7879505157471,-17.2849864959717,-17.1611003875732,-14.2287750244141,27.07883644104,28.2276496887207,25.3409748077393,-18.8230514526367,-5.71005010604858,13.8109502792358,-7.8400502204895,-10.4890508651733,-7.2610502243042,SHAKE
-6.94815015792847,-9.73101234436035,-10.7936124801636,-30.7879505157471,-8.24895000457764,10.5370502471924,-14.2287750244141,-3.23399996757507,-12.3044624328613,25.3409748077393,12.6693878173828,20.959400177002,13.8109502792358,31.150951385498,35.1529502868652,-7.2610502243042,-4.19295024871826,-3.31095004081726,-21.368049621582,-21.7183990478516,-14.5843496322632,21.951000213623,14.2470006942749,6.86805009841919,0.31611248850822,-1.77883744239807,-13.4631748199463,4.79352474212646,4.3440375328064,13.6653003692627,-26.392951965332,-29.0350513458252,-26.2330513000488,10.5310506820679,16.6789512634277,14.437050819397,-7.25642490386963,-8.54617500305176,-9.97356224060059,-19.7899513244629,6.16095018386841,37.1209526062012,-0.95700001716614,-4.16088724136353,-2.89836239814758,4.77716255187988,7.39667510986328,5.78792476654053,40.126953125,37.1119499206543,22.5240001678467,-1.47405004501343,-11.7030010223389,-10.0819501876831,-17.2704124450684,-3.69737505912781,-0.31748750805855,2.12100005149841,-22.0660514831543,-43.699951171875,-12.7894248962402,-13.9336996078491,-13.00901222229,14.6794996261597,22.1937370300293,22.5190620422363,-23.2770004272461,-20.7870006561279,9.32295036315918,10.8949508666992,-1.68705010414124,-7.37805032730103,-4.75571250915527,-10.8717126846313,-19.3481750488281,40.2250518798828,43.8679504394531,33.3589515686035,-4.14617490768433,-3.36558747291565,-4.79311227798462,9.49341201782227,9.69127464294434,5.24424982070923,23.2969512939453,8.36895084381104,-8.08095073699951,-11.7630004882813,-2.83005023002625,8.48805046081543,SHAKE
-24.8613758087158,-25.0322875976563,-16.0337371826172,23.4580516815186,15.0010509490967,4.67805004119873,0.29741248488426,-2.15324997901917,-14.8823127746582,3.46362495422363,5.02878761291504,26.1142749786377,-26.3959503173828,-26.6950511932373,-23.7210006713867,21.177001953125,21.2490005493164,4.50495004653931,-6.78988742828369,-8.70031261444092,-6.09221267700195,2.15400004386902,17.0200500488281,34.7190017700195,-1.24121248722076,-7.84217500686646,-7.00246238708496,5.28577518463135,15.3965625762939,13.7248373031616,32.6310005187988,37.0020027160645,29.4670505523682,-5.40000009536743,-9.97200012207031,-12.8170509338379,-27.4612255096436,-8.08500003814697,-2.36156249046326,22.0969505310059,3.51900005340576,-20.4199504852295,-2.24221253395081,-12.0383996963501,-12.6666374206543,4.56953763961792,19.6169872283936,24.137300491333,-27.9360008239746,-26.5489521026611,-23.566951751709,21.8640003204346,14.1469507217407,3.86295008659363,-6.37078762054443,-2.25307488441467,-5.77953767776489,22.1500511169434,34.9560012817383,42.984001159668,-1.77856254577637,-0.20693749189377,0.98559999465942,3.44011259078979,1.29635000228882,0.48523750901222,35.8069534301758,28.1590518951416,15.7750511169434,-8.3100004196167,-14.7619504928589,-10.7550001144409,-18.9892997741699,-6.91611242294312,-2.07473754882813,12.9870004653931,4.05105018615723,-23.5630512237549,-11.0886878967285,-11.5934495925903,-11.3255996704102,21.6786632537842,23.356575012207,23.6838245391846,-28.3500022888184,-22.8679504394531,-6.69705009460449,20.3070011138916,5.12100028991699,-6.26700019836426,SHAKE
-13.7032499313354,-14.0769748687744,-3.15356254577637,15.3750009536743,2.75505018234253,-26.7979507446289,0.05266249924898,-7.2945122718811,-7.72667503356934,5.92377519607544,21.6996994018555,25.8553619384766,-25.3830013275146,-24.6790504455566,-18.8869514465332,28.4190006256104,13.0030508041382,1.31295001506805,-1.21563744544983,-4.09035015106201,-1.30184996128082,12.7570505142212,28.5810012817383,41.2429504394531,0.20941250026226,-6.70546245574951,-5.52915000915527,6.86565017700195,6.84736251831055,6.13511228561401,33.1960525512695,29.6800518035889,18.28005027771,-14.7400503158569,-22.7280006408691,-12.867000579834,-23.0518741607666,-12.3226127624512,-2.96587491035461,16.2799510955811,0.49905002117157,-28.699951171875,-0.67031252384186,-10.2001628875732,-10.5429496765137,7.16251230239868,24.2511501312256,28.193962097168,-27.0930004119873,-26.7810020446777,-19.92405128479,27.4129505157471,13.1530504226685,0.42900002002716,-8.04526233673096,-10.2441625595093,-4.3917498588562,17.5590000152588,38.131950378418,48.6130523681641,5.07017517089844,6.4777626991272,7.48398733139038,-19.4310874938965,-20.3373489379883,-18.3404369354248,27.211051940918,12.4720506668091,-0.91995006799698,-25.9950008392334,-9.92205047607422,10.4380502700806,-10.8849124908447,-2.06882500648499,3.0109748840332,1.69200003147125,-31.9210510253906,-52.0369529724121,-7.41729974746704,-7.80738735198975,-8.07331275939941,25.3790626525879,28.2825126647949,28.4209747314453,-25.0590019226074,-18.1660499572754,-6.95100021362305,9.26400089263916,-1.25400006771088,-5.44800043106079,SHAKE
-7.3301248550415,-7.58284997940063,-10.8849124908447,24.318000793457,14.7619504928589,1.69200003147125,2.07996249198914,-0.69382500648499,-7.41729974746704,2.56520009040833,7.29726266860962,25.3790626525879,-29.5140018463135,-26.2980003356934,-25.0590019226074,26.7960014343262,23.449951171875,9.26400089263916,-1.05228745937347,-1.95401251316071,-0.84920001029968,-9.46305084228516,6.50100040435791,38.5660514831543,-1.40181243419647,3.48851251602173,5.19530010223389,-4.64048767089844,-11.8192253112793,-14.1323871612549,32.9110527038574,33.036003112793,24.3390007019043,-4.34805011749268,-19.7700004577637,-22.2510013580322,-6.525475025177,-4.19663763046265,-0.43546250462532,12.2299509048462,-2.83395004272461,-37.9260025024414,-2.76196241378784,-9.33597469329834,-9.4518871307373,9.60121250152588,24.6930751800537,25.116849899292,-26.2399520874023,-17.7499504089355,-5.14995002746582,30.1129512786865,0.55305004119873,-9.17895030975342,-10.7663869857788,-2.06016254425049,-4.74278736114502,25.5510005950928,33.6010513305664,33.1529998779297,8.77098751068115,9.88913726806641,10.6874628067017,-25.6462249755859,-25.7647495269775,-13.1169500350952,22.9429512023926,10.1250009536743,-4.79700040817261,-28.1430015563965,-10.360050201416,12.0280504226685,-0.64583748579025,4.30966234207153,-6.00792503356934,-42.153003692627,-41.5830001831055,-19.1389503479004,-9.15997505187988,-4.72642517089844,-0.32615000009537,27.8066253662109,19.4515743255615,4.89293766021729,-6.22695016860962,13.0540504455566,23.5849514007568,-6.32400035858154,-3.00495004653931,0.53205001354218,SHAKE
2.78698754310608,3.24224996566772,3.03641247749329,34.4149513244629,28.1500511169434,20.2129516601563,10.4922122955322,3.72748756408691,1.31216251850128,-18.2232875823975,-2.79578757286072,7.78579998016357,-1.15005004405975,-18.9900016784668,-23.3880004882813,22.6570510864258,29.0680522918701,23.9329509735107,-10.1349878311157,-11.6800746917725,-12.4316501617432,-19.40505027771,-0.63300001621246,22.6120510101318,-5.6981372833252,-1.18442499637604,6.6826376914978,15.3496751785278,-2.25252509117126,-17.9353618621826,28.806001663208,36.8200531005859,33.1480522155762,3.04395008087158,-17.4919509887695,-33.3760528564453,-0.7541875243187,-0.8622624874115,-1.14400005340576,29.2510509490967,11.4679508209229,-25.4040012359619,1.74473750591278,-4.97433757781982,-9.05781269073486,2.69018745422363,15.8397245407104,29.0391750335693,-30.8310012817383,-30.4290008544922,-18.1069507598877,43.2250518798828,18.5710506439209,-9.42795085906982,-6.04298734664917,-6.55270004272461,-4.17834997177124,10.078950881958,26.9899520874023,38.625,-0.47121250629425,0.30593749880791,0.942562520504,-4.58809995651245,-4.71281242370605,-2.47939991950989,29.4790515899658,14.4690008163452,-2.58705019950867,-20.3230514526367,-2.37000012397766,15.574951171875,-4.7577748298645,-2.31563758850098,0.7012500166893,-11.6110506057739,-38.7850532531738,-42.7680015563965,-13.4653749465942,-14.2294626235962,-8.83712482452393,26.7995758056641,27.5974864959717,19.4573497772217,-22.291051864624,-12.1120510101318,26.4130516052246,-2.13795018196106,-9.2290506362915,6.00405025482178,SHAKE
-2.31563758850098,0.7012500166893,-8.99552536010742,-38.7850532531738,-42.7680015563965,-20.2810516357422,-14.2294626235962,-8.83712482452393,-1.67296254634857,27.5974864959717,19.4573497772217,3.63151240348816,-12.1120510101318,26.4130516052246,40.4239501953125,-9.2290506362915,6.00405025482178,9.07005023956299,1.73511254787445,0.82169997692108,0.07067500054836,38.3290519714355,28.4710521697998,16.6729507446289,13.5276622772217,2.22337508201599,-0.06173750013113,-17.3045120239258,1.68767499923706,4.70057487487793,-14.3800506591797,-25.2130508422852,-24.2040004730225,6.55005025863647,9.82200050354004,13.2850503921509,-2.89836239814758,-12.1395998001099,-12.1529378890991,-31.818000793457,6.56805038452148,34.5109519958496,-4.68751239776611,-11.2056999206543,-10.8424253463745,18.0618629455566,18.5149250030518,19.3641242980957,38.1870002746582,38.4990005493164,22.2030010223389,3.58095026016235,0.18900001049042,3.13800024986267,-15.8010873794556,-15.8808374404907,-3.78262495994568,11.1379508972168,1.26300001144409,-22.7820014953613,-1.5135999917984,-7.99122476577759,-10.4697999954224,5.80483770370483,11.0842876434326,19.210262298584,-24.7030506134033,-23.5480518341064,-20.1400508880615,3.26700019836426,-8.449049949646,-15.6220502853394,-2.48448753356934,-3.75127506256104,-0.20033749938011,5.53095006942749,25.7380504608154,46.5190505981445,-12.1559619903564,-11.2831125259399,-10.4267625808716,19.7579250335693,20.5353507995605,20.9294242858887,35.1979522705078,19.54905128479,4.33605003356934,5.5639500617981,2.27805018424988,1.42995011806488,SHAKE
-3.20265007019043,-3.07614994049072,-4.25053739547729,-38.076000213623,-15.1270503997803,4.69800043106079,-4.10671234130859,-2.54388737678528,-7.83557510375977,7.0602126121521,5.0142126083374,12.8264122009277,27.7500019073486,41.2750511169434,39.3919525146484,1.55895006656647,7.59195041656494,4.4040002822876,-18.6353740692139,-16.3026866912842,-3.96989989280701,20.4880504608154,8.89605045318604,2.23995018005371,0.10312499850988,-1.50177502632141,-6.09097480773926,2.87416243553162,1.71201252937317,0.01938750036061,-19.6470012664795,-23.4589519500732,-19.1800518035889,-2.83005023002625,-1.45005011558533,-3.49095010757446,15.0298500061035,13.1876249313354,5.30914974212646,-1.14795005321503,13.150050163269,28.3050022125244,-9.2247371673584,-8.23721218109131,-7.01868724822998,16.9746494293213,17.220775604248,17.2473125457764,39.868953704834,27.7879505157471,12.3349504470825,9.91095066070557,7.07505035400391,9.62595081329346,-18.6146125793457,0.01636249944568,4.94931268692017,6.08895015716553,-28.7209510803223,-45.8340034484863,-8.08898735046387,-8.52802467346191,-5.58139991760254,8.37196254730225,8.58893775939941,8.00621223449707,-23.1859512329102,-16.6620006561279,27.3000011444092,-1.47900009155273,-2.10195016860962,2.84805011749268,-1.15183746814728,-18.3559741973877,-19.1322994232178,51.7170028686523,38.1780014038086,23.0550003051758,-1.86202502250671,2.28222489356995,1.06315004825592,12.1874504089355,1.08899998664856,1.33897495269775,-8.85494995117188,-21.9750003814697,-21.1000518798828,-0.94305002689362,2.7850501537323,8.1739501953125,SHAKE
