gyro_x_0,gyro_y_0,gyro_z_0,acc_x_0,acc_y_0,acc_z_0,gyro_x_1,gyro_y_1,gyro_z_1,acc_x_1,acc_y_1,acc_z_1,gyro_x_2,gyro_y_2,gyro_z_2,acc_x_2,acc_y_2,acc_z_2,gyro_x_3,gyro_y_3,gyro_z_3,acc_x_3,acc_y_3,acc_z_3,gyro_x_4,gyro_y_4,gyro_z_4,acc_x_4,acc_y_4,acc_z_4,gyro_x_5,gyro_y_5,gyro_z_5,acc_x_5,acc_y_5,acc_z_5,gyro_x_6,gyro_y_6,gyro_z_6,acc_x_6,acc_y_6,acc_z_6,gyro_x_7,gyro_y_7,gyro_z_7,acc_x_7,acc_y_7,acc_z_7,gyro_x_8,gyro_y_8,gyro_z_8,acc_x_8,acc_y_8,acc_z_8,gyro_x_9,gyro_y_9,gyro_z_9,acc_x_9,acc_y_9,acc_z_9,gyro_x_10,gyro_y_10,gyro_z_10,acc_x_10,acc_y_10,acc_z_10,gyro_x_11,gyro_y_11,gyro_z_11,acc_x_11,acc_y_11,acc_z_11,gyro_x_12,gyro_y_12,gyro_z_12,acc_x_12,acc_y_12,acc_z_12,gyro_x_13,gyro_y_13,gyro_z_13,acc_x_13,acc_y_13,acc_z_13,gyro_x_14,gyro_y_14,gyro_z_14,acc_x_14,acc_y_14,acc_z_14,motion_type
0.33921250700951,0.27004998922348,0.20941250026226,0.23400001227856,0.02295000106096,-0.550950050354,-0.36877501010895,-0.45292499661446,-0.61888748407364,0.49004998803139,0.20061250030994,0.14946250617504,3.99405026435852,3.89595007896423,3.99900007247925,8.14095020294189,7.62405014038086,8.11005020141602,0.41799998283386,0.66907501220703,0.85318750143051,-1.37505006790161,-1.66695010662079,-0.9700500369072,-0.9285374879837,-1.24574995040894,-1.30322504043579,0.09844999760389,-0.40177500247955,-1.48087501525879,2.99295020103455,2.24595022201538,1.90605008602142,8.21295070648193,8.94600009918213,10.9240503311157,1.97491252422333,1.23103749752045,-0.26001250743866,12.4819507598877,18.2470512390137,20.131950378418,-0.69877499341965,0.56663751602173,1.27215003967285,-0.89017498493195,-0.65284997224808,-0.37083750963211,0.82605004310608,-1.80795013904572,-3.63105010986328,19.1290512084961,16.6789512634277,12.9859504699707,-7.56896257400513,-8.28726291656494,-8.9832878112793,15.9360008239746,13.7389507293701,13.7389507293701,0.24736249446869,-0.04317500069737,-0.18796250224113,1.91606247425079,1.86504995822906,0.74648749828339,-17.1529502868652,-21.5740509033203,-19.4520015716553,4.26405000686646,1.71000003814697,1.26300001144409,-8.04883766174316,-7.28474998474121,-6.5610876083374,-4.42605018615723,-5.23095035552979,-7.63995027542114,-0.34430000185966,0.40479999780655,0.93486249446869,-0.4507249891758,-1.25950002670288,-1.52446246147156,-15.586950302124,-12.9040508270264,-11.2849502563477,7.92495059967041,10.4590501785278,11.7049503326416,SWING_RIGHT
1.07140004634857,1.08198750019073,1.37995004653931,0.34605002403259,0.41100001335144,-1.46805012226105,-0.42734998464584,-0.51892501115799,-0.58272498846054,0.02186249941587,-0.33261248469353,-0.95837497711182,2.10195016860962,2.33400011062622,3.36705017089844,9.48000049591064,9.55905055999756,11.1180009841919,2.12698745727539,2.30793738365173,2.16645002365112,5.72295045852661,9.04305076599121,15.282000541687,0.06641250103712,0.4974749982357,1.06040000915527,-1.34571254253387,-0.75185000896454,-0.83063751459122,6.15405035018921,6.17100048065186,5.31105041503906,15.538950920105,15.0510005950928,13.5270004272461,-3.2386748790741,-6.08217477798462,-7.46363735198975,25.498950958252,27.3220520019531,27.6979503631592,0.53680002689362,0.22178749740124,-0.21023750305176,-0.09212499856949,0.42721250653267,0.96579998731613,-12.576000213623,-22.6330509185791,-24.4960517883301,9.19995021820068,4.9680004119873,4.57500028610229,-10.449725151062,-10.4656753540039,-10.3252878189087,13.4209508895874,12.1390504837036,5.17695045471191,0.52607500553131,0.41868749260902,-0.26881250739098,0.72421246767044,0.67526251077652,-0.03781250119209,-25.0710010528564,-23.4900016784668,-17.6059513092041,3.70095014572144,4.31400012969971,4.15095043182373,-2.78533744812012,-1.41143751144409,-0.19085000455379,-14.1880502700806,-11.3190002441406,-8.37795066833496,0.75075000524521,1.12310004234314,1.27531254291534,-1.29882502555847,-1.68093752861023,-1.75119996070862,-8.27505016326904,-6.21495008468628,-4.47600030899048,10.1239500045776,10.2940502166748,10.0860004425049,SWING_RIGHT
0.87449997663498,1.28631246089935,1.70568752288818,-2.4210000038147,-2.19105005264282,-0.79695004224777,-0.34430000185966,0.26441249251366,0.47079998254776,-1.08927500247955,-0.48262500762939,-0.73383748531342,1.78605008125305,5.61300039291382,6.89205026626587,12.046950340271,12.4069509506226,12.1260004043579,-1.34433746337891,-3.98681259155273,-4.92016267776489,20.248950958252,21.0439510345459,18.8809509277344,0.96566247940063,0.92317497730255,0.53570002317429,-0.66563749313354,-0.56457501649857,-0.46983748674393,-2.54805016517639,-3.74805021286011,-4.54995012283325,11.4270009994507,9.17295074462891,8.39700031280518,-7.93182516098022,-9.67175006866455,-10.8839502334595,27.7810516357422,24.3250503540039,22.6459503173828,1.66705000400543,2.28951239585876,2.39277505874634,0.78374999761581,-0.49224999547005,-1.23818755149841,-29.7480010986328,-28.4670009613037,-24.2880020141602,8.30895042419434,8.29905033111572,6.99105024337769,-9.0684003829956,-7.88823747634888,-7.0219874382019,0.03705000132322,-0.99105006456375,-4.23405027389526,-0.75515002012253,-0.35076248645782,0.42611250281334,0.49431249499321,-0.40493750572205,-1.25633752346039,-16.9849510192871,-16.1880016326904,-15.4450511932373,7.51605033874512,10.5820503234863,12.6889505386353,-2.65980005264282,-1.47523748874664,-0.42281249165535,-11.6299505233765,-11.0980501174927,-10.0060501098633,2.25554990768433,2.00323748588562,1.44457495212555,-0.42941248416901,-0.68585002422333,-0.7902125120163,-5.1870002746582,-3.02205014228821,-1.18995010852814,7.78200054168701,6.51000022888184,5.83905029296875,SWING_RIGHT
0.46694999933243,0.2774749994278,0.98628747463226,1.30395007133484,-0.50505000352859,-1.94895005226135,-1.111687541008,-1.13616251945496,-1.06273746490479,-0.99563747644424,-1.73951244354248,-2.07047510147095,2.25300002098084,2.89500021934509,3.25905013084412,9.05100059509277,10.3420505523682,12.9070510864258,1.57684993743896,1.21714997291565,0.28173750638962,8.26905059814453,12.4819507598877,17.6770515441895,0.86996251344681,0.60486251115799,0.59537500143051,-1.1669625043869,-0.89980000257492,0.1898874938488,3.64200019836426,0.54105001688004,-1.13700008392334,13.7239503860474,16.0349998474121,17.3239517211914,-9.78243732452393,-11.5862998962402,-12.4387998580933,33.271053314209,28.4640007019043,25.5400505065918,3.26218748092651,3.62614989280701,2.03843760490417,1.67557501792908,0.45925000309944,-0.69973748922348,-30.0550518035889,-32.6149520874023,-28.4790019989014,6.89295053482056,3.70095014572144,4.39499998092651,-10.902099609375,-9.32277488708496,-6.41217517852783,1.91805005073547,-1.0200001001358,-8.778000831604,0.08552499860525,0.21546250581741,0.84328746795654,-0.7401624917984,-1.06686246395111,-1.12653744220734,-22.2520503997803,-20.3719501495361,-17.076000213623,9.73095035552978,12.9670505523682,14.4690008163452,1.14372503757477,2.38878750801086,2.92201256752014,-11.367000579834,-6.37995052337646,-2.72100019454956,0.91245001554489,-0.06022499874234,-0.33261248469353,0.13887499272823,-0.51768749952316,-0.52415001392365,-1.43700003623962,1.43595004081726,1.89900004863739,5.09205007553101,7.42005014419556,8.04495048522949,SWING_RIGHT
0.35722500085831,0.77123749256134,0.96387499570847,-2.9650502204895,-2.38095021247864,1.24005007743835,-0.04207500070333,-0.38582500815392,-0.52318751811981,-0.87106251716614,-0.56883752346039,-0.85827499628067,4.19295024871826,3.69705009460449,4.11600017547607,9.24495029449463,7.95705032348633,8.44799995422363,1.7577999830246,1.7077499628067,1.56296253204346,1.45305001735687,2.99505019187927,0.89700001478195,-0.74552500247955,-0.7540500164032,-0.88068747520447,-0.46557500958443,-0.73053747415543,-0.78801250457764,4.26705026626587,5.27295017242432,5.62500047683716,10.2850503921509,10.0020008087158,10.3110008239746,1.86628746986389,1.51304996013641,-0.25464999675751,9.3880500793457,19.7580013275146,34.3530006408691,-1.27132499217987,-1.28081250190735,1.83521246910095,-0.33261248469353,0.20061250030994,1.72246253490448,2.96205019950867,-4.07805013656616,-9.54195022583008,14.4900007247925,21.3640518188477,13.5180006027222,-9.97823715209961,-11.3404502868652,-12.2748994827271,29.0290508270264,26.0400009155273,21.564001083374,0.72517502307892,0.26647499203682,0.31872498989105,1.20945000648499,1.49036252498627,1.60325002670288,-27.1500015258789,-27.3840007781982,-26.0620517730713,4.125,6.21300029754639,8.50695037841797,-10.554087638855,-8.37979984283447,-7.05595016479492,1.72800004482269,-3.8970000743866,-9.38100051879883,1.36578750610352,0.87202501296997,0.52731251716614,-0.76353746652603,-0.81578749418259,-0.60390001535416,-19.0759506225586,-16.7029514312744,-14.1180009841919,6.41205024719238,7.51395034790039,8.50005054473877,SWING_RIGHT
0.49665001034737,0.87449997663498,1.06603753566742,0.30300000309944,2.71500015258789,2.77500009536743,-1.37871253490448,-1.38833749294281,-0.690249979496,-0.24639999866486,-0.61036247014999,-0.88591247797012,2.32695007324219,2.29800009727478,6.73905038833618,9.2790002822876,10.2100505828857,14.2819509506226,-0.80588752031326,-3.76653742790222,-6.97399997711182,17.7610511779785,17.7010517120361,19.1110515594482,0.19304999709129,0.26867499947548,-0.19965000450611,1.12323749065399,-0.13351249694824,-0.81042498350143,-6.39405012130737,-19.2100505828857,-23.9380512237549,8.35395050048828,3.51600027084351,3.75105023384094,-12.3822870254517,-10.2029123306274,-6.79635000228882,6.27195024490356,-1.96395003795624,-13.0360507965088,-0.57639998197556,1.11251246929169,0.51768749952316,-1.40744996070862,0.10271249711514,0.37083750963211,-16.3000507354736,-10.8799505233765,-5.27400016784668,18.6000003814697,11.2710008621216,8.87400054931641,1.01818752288818,1.03097498416901,0.20611250400543,-2.20305013656616,1.48395001888275,0.33705002069473,-0.48166251182556,-0.25396248698235,-0.27939999103546,0.08566249907017,0.38362500071526,0.46777498722076,-1.81500005722046,-1.87500011920929,-1.95600008964539,10.5049505233765,9.77205085754394,9.74100017547607,0.09652499854565,0.37317499518394,0.52222502231598,-2.17005014419556,-2.52405023574829,-1.46595001220703,-0.17297500371933,-0.28792500495911,-0.30071249604225,-0.10161250084639,0.00481249997392,0.13667500019073,-0.72795003652573,-0.50295001268387,-0.67995005846024,9.11100006103516,9.85305023193359,10.1269502639771,SWING_RIGHT
0.21257500350475,0.24021250009537,0.30621248483658,0.57600003480911,0.57405000925064,0.65805006027222,-0.14849999547005,0.06215000152588,0.24310000240803,0.00371249997988,-0.25272500514984,-0.09528750181198,3.77400016784668,4.23105001449585,4.57905006408691,9.3550500869751,9.94200038909912,9.52095031738281,-0.0961124971509,-0.0961124971509,0.07631249725819,1.63005006313324,0.6889500617981,0.79200005531311,-0.00384999997914,-0.07411249727011,-0.13158750534058,-0.02612499892712,0.18782499432564,0.56993746757507,3.49095010757446,4.76100015640259,5.36205005645752,9.45105075836182,10.7920503616333,10.1740503311157,-1.31037497520447,-5.55018758773804,-7.40286254882813,19.5019512176514,24.0400505065918,29.4030017852783,-2.03005003929138,-1.72576248645782,-0.28586250543594,1.90753746032715,4.34032487869263,4.30306243896484,-18.0319499969482,-27.3319511413574,-27.1450519561768,7.20900011062622,8.79705047607422,9.78900051116943,-10.8711624145508,-6.73887491226196,-4.9594874382019,-4.45695018768311,-7.97100019454956,-10.2120008468628,2.48861241340637,2.47252488136292,1.63941252231598,0.79117500782013,0.47409999370575,-0.1538625061512,-14.439001083374,-10.5280504226685,-3.682950258255,6.44100046157837,5.00100040435791,2.79300022125244,1.93448746204376,1.59280002117157,0.63085001707077,-2.97405004501343,-2.12205004692078,-3.34095025062561,-1.45323753356934,-1.39039993286133,-1.18401253223419,-0.13351249694824,-0.06764999777079,-0.08882500231266,-1.39800012111664,-2.0310001373291,-2.51505017280579,10.0309505462646,10.7590503692627,11.7409505844116,SWING_RIGHT
-0.01938750036061,0.01457499992102,0.04757500067353,1.12005007266998,0.88800007104874,0.37500002980232,-1.09037494659424,-1.17548751831055,-0.00494999997318,2.49081254005432,2.47059988975525,-0.79447501897812,3.29205012321472,2.84895014762878,4.08300018310547,10.6290006637573,10.5889501571655,13.2019510269165,-0.10133749991655,-1.12406253814697,-2.16919994354248,10.9990501403809,13.9429502487183,15.5809507369995,0.98477500677109,0.97528749704361,1.09766244888306,-1.64257502555847,-1.70651245117188,-2.30353736877441,3.53205013275146,0.66705000400543,-1.80600011348724,12.8419504165649,10.9600505828857,11.4079504013062,-10.5199871063232,-11.5682878494263,-12.7186126708984,18.775951385498,19.4080505371094,17.7889499664307,-2.13015007972717,-1.08185005187988,0.06008749827743,1.24561250209808,0.19098749756813,-0.25808748602867,-28.0740013122559,-24.8340015411377,-23.2650012969971,4.49295043945313,12.4950008392334,14.0160007476807,-7.17832517623901,-4.87217473983765,-3.10777497291565,-13.2520503997803,-11.6350507736206,-10.3390502929688,1.42546248435974,1.50741243362427,1.58083748817444,0.74758750200272,0.50393748283386,0.06118749827147,-13.8169507980347,-10.9930505752563,-7.96605014801025,9.03404998779297,8.20095062255859,6.98700046539307,0.93307501077652,1.52157497406006,1.44815003871918,-7.24995040893555,-3.72405028343201,-2.91000008583069,-1.33086252212524,-1.40112495422363,-1.40002501010895,-0.36767500638962,-0.36451250314713,-0.20597499608994,-0.46695002913475,-0.69195002317429,-0.91005003452301,8.4190502166748,9.43395042419434,10.1599502563477,SWING_RIGHT
0.12952500581741,0.1104125007987,0.08799999952316,1.28295004367828,1.22295010089874,1.0480500459671,-0.01443750038743,0.01746249943972,-0.01759999990463,0.00481249997392,-0.02502499893308,-0.02708750031888,2.58795022964478,2.77305006980896,3.00300025939941,9.59505081176758,9.37695026397705,9.32895088195801,0.16252499818802,0.23911249637604,0.14973749220371,1.06005001068115,1.60095012187958,2.94000005722046,-0.04001250118017,0.03657500073314,0.14946250617504,-0.21656249463558,-0.34209999442101,-0.47093749046326,2.96205019950867,2.82495021820068,3.73095011711121,9.52095031738281,10.0450506210327,10.1430006027222,-0.89746248722076,-1.75092494487762,-3.24926257133484,11.3350505828857,14.9370002746582,21.856050491333,-0.42308750748634,-0.94888746738434,-1.2138500213623,0.75185000896454,0.66453748941422,0.4687374830246,5.3449501991272,-2.77095007896423,-3.70500016212463,8.7610502243042,8.75699996948242,13.627950668335,-8.11483764648438,-9.2652997970581,-11.7416753768921,18.2850017547607,21.5299510955811,15.1810503005981,0.776187479496,1.14867496490479,0.89113748073578,0.55715000629425,0.37936249375343,0.35062500834465,-18.6900005340576,-16.5280513763428,-15.1429510116577,11.1400508880615,8.49105072021484,6.13395023345947,-6.45149993896484,-4.55620002746582,-3.6536500453949,-1.70295011997223,-4.80195045471191,-5.43705034255981,1.88622498512268,1.59458744525909,1.17218744754791,-0.80396246910095,-0.63800001144409,-0.35062500834465,-7.6230001449585,-6.47805023193359,-5.42205047607422,7.64295053482056,7.27200031280518,7.48005056381226,SWING_RIGHT
0.72971248626709,0.82238751649857,0.90749996900558,1.33995008468628,1.25700008869171,1.11300003528595,0.2058375030756,0.12925000488758,0.16651250422001,0.54752498865128,0.21546250581741,-0.17613749206066,2.90700006484985,2.50905013084412,2.25495004653931,9.28605079650879,8.83305072784424,9.21900081634522,1.26499998569489,0.46694999933243,-0.64735001325607,10.0200004577637,14.9610004425049,19.8850517272949,1.58083748817444,0.73259997367859,-0.0867625027895,-3.33684992790222,-1.50314998626709,0.16114999353886,8.5090503692627,5.57205009460449,1.77600014209747,10.7400007247925,9.06105041503906,7.94700050354004,-8.12020015716553,-10.010274887085,-13.4497003555298,24.1939506530762,23.4660015106201,26.5309505462646,-1.42353749275208,-2.49617505073547,-3.20072507858276,-2.60466241836548,-0.87738752365112,0.99027496576309,-28.7500514984131,-33.693000793457,-28.0170021057129,5.37705039978027,4.19204998016357,6.96495056152344,-9.71437454223633,-6.83567476272583,-4.5115122795105,-12.6889505386353,-11.9850006103516,-9.7140007019043,0.66769999265671,1.49558746814728,1.90107500553131,-0.02186249941587,0.75927501916885,0.46351251006126,-18.2209510803223,-12.41100025177,-8.86605072021484,11.8750505447388,9.88500022888184,7.33905029296875,1.72906243801117,1.96418750286102,1.42793750762939,-5.3100004196167,-3.01800012588501,-0.55305004119873,-0.24323749542236,-0.9147874712944,-1.03716254234314,-0.20693749189377,-0.10587500035763,-0.10381250083447,1.14600002765656,0.28695002198219,-0.46395000815392,5.73900032043457,8.14800071716309,8.66100025177002,SWING_RIGHT
0.0369874984026,0.07741250097752,0.0709500014782,-0.47595003247261,-0.23205001652241,-0.24195000529289,-0.06242499873042,-0.02722499892116,-0.04537500068545,0.16335000097752,0.20061250030994,0.23993749916553,3.22095012664795,3.25905013084412,3.3550500869751,9.61605072021484,9.19500064849854,8.65605068206787,0.2231625020504,0.24021250009537,0.2923249900341,-0.51705002784729,-1.18500006198883,-1.66395008563995,-0.54546248912811,-0.72214996814728,-0.66357499361038,-0.00907499995083,0.05156249925494,0.07933750003576,1.86300003528595,2.19300007820129,4.14000034332275,8.90505027770996,10.6200008392334,11.0149507522583,0.67650002241135,0.00288749998435,-1.15816247463226,12.5659503936768,18.8530502319336,29.6370010375977,-0.1922249943018,0.12498749792576,0.23993749916553,-1.07648754119873,2.74408745765686,2.61415004730225,2.60295009613037,-13.6249504089355,-24.9130516052246,21.177001953125,9.57300090789795,8.11500072479248,-14.0839872360229,-13.5316495895386,-11.9130001068115,25.5349521636963,11.4660005569458,5.37405014038086,-0.11769999563694,-2.25885009765625,-2.31426239013672,0.16541250050068,1.46066248416901,1.27118754386902,-28.3519515991211,-29.0899505615234,-29.6719512939453,1.02105009555817,3.76500010490417,11.1540002822876,-6.08011245727539,-2.46070003509521,3.17212510108948,-24.0220508575439,-27.8920516967773,-5.72895050048828,2.58115005493164,0.62837499380112,-0.02612499892712,0.96896249055862,0.8369625210762,-0.09955000132322,-5.87505006790161,1.4389500617981,2.19495010375977,2.16795015335083,3.62400007247925,5.26500034332275,SWING_RIGHT
0.1199000030756,0.11467500030994,0.2072124928236,1.10295009613037,0.56700003147125,0.12795001268387,-0.28270000219345,-0.26675000786781,-0.29754999279976,0.11123749613762,-0.01649999991059,-0.00591249996796,3.31605005264282,3.74700021743774,3.29205012321472,9.81300067901611,9.63105010986328,9.4750509262085,0.7627124786377,1.27668750286102,1.59926247596741,-0.18705001473427,0.12600000202656,0.55500000715256,0.03877500072122,0.28984999656677,0.80492502450943,-0.2441999912262,0.03135000169277,-0.37509998679161,3.65205025672913,4.4520001411438,6.00105047225952,13.1659507751465,13.8079509735107,13.4479503631592,-1.27737498283386,-3.44300007820129,-5.15638732910156,27.6780014038086,27.4890022277832,27.961051940918,-0.3103374838829,-0.23787499964237,-0.13997499644756,0.48262500762939,1.64683747291565,1.85858750343323,-0.54300004243851,-6.85005044937134,-15.1819505691528,13.5709505081177,9.94695091247559,6.57495021820068,-12.4994373321533,-13.1858377456665,-13.2049503326416,22.9429512023926,17.6839504241943,12.2419509887695,0.86776250600815,0.22068749368191,-0.53267496824265,-0.28572499752045,-0.45814999938011,-0.24956250190735,-28.6320018768311,-26.5960521697998,-24.5269508361816,3.12600016593933,2.956050157547,3.49695014953613,-8.50121212005615,-7.32201242446899,-6.23864984512329,-2.97900009155273,-5.99895048141479,-10.7890501022339,-0.63703751564026,0.69753748178482,1.91606247425079,0.61888748407364,-0.07397499680519,-0.49114999175072,-22.3669509887695,-19.7610015869141,-16.1089515686035,12.5140504837036,13.4940004348755,10.8070507049561,SWING_RIGHT
0.51906251907349,0.66481250524521,1.34062504768372,0.38505002856255,-0.11205000430346,-0.01200000010431,0.0536249987781,0.29521250724792,0.36437499523163,-1.33718752861023,-1.37555003166199,-0.98491251468658,2.94000005722046,2.99100017547607,2.88300013542175,9.77400016784668,9.9060001373291,8.95500087738037,1.95896244049072,2.57290005683899,3.00396251678467,1.45995008945465,1.75005006790161,2.65005016326904,-0.54656249284744,-0.41772499680519,0.22921249270439,0.36134999990463,-0.57626247406006,-1.76288747787476,1.66395008563995,3.75705027580261,7.76895046234131,7.71495056152344,9.86100006103516,11.2350006103516,-0.29507499933243,-2.58843755722046,-4.46256256103516,28.0039520263672,28.6650009155273,31.0459518432617,-1.48307502269745,-0.76051247119904,-0.65834999084473,0.01429999992251,2.22158741950989,2.34492492675781,-0.15495000779629,-11.0119504928589,-18.7980003356934,14.4450006484985,8.55300045013428,4.71600008010864,-13.684962272644,-13.378475189209,-12.7558746337891,15.892050743103,11.778000831604,4.36995029449463,0.11219999939203,0.12388750165701,-0.16445000469685,0.73053747415543,-0.14313749969006,-0.28146249055862,-24.6160507202148,-21.4620018005371,-19.359001159668,2.89095020294189,3.83205008506775,3.9019501209259,-6.31317520141602,-4.96801233291626,-3.70589995384216,-8.13105010986328,-9.63300037384033,-12.5640001296997,0.31542500853539,1.30088746547699,1.77347493171692,0.0472999997437,-0.56347501277924,-0.80616247653961,-14.437050819397,-11.9560508728027,-8.97405052185059,11.002950668335,9.60900020599365,6.94095039367676,SWING_RIGHT
0.41580000519753,0.41690000891685,0.43491250276566,2.15505003929138,2.24100017547607,2.44395017623901,0.06215000152588,0.05788749828935,-0.01237499993294,-0.00687499996275,0.01856249943376,-0.24639999866486,5.43600034713745,5.87400007247925,4.90395021438599,8.49795055389404,8.35905075073242,8.49300003051758,0.28283751010895,0.32326251268387,-1.31353747844696,5.76600027084351,10.5760507583618,19.7770500183105,-0.168850004673,-0.4657124876976,-0.4794625043869,-1.59362494945526,-1.23186254501343,-1.0839124917984,8.37495040893555,7.11495018005371,3.35700011253357,8.16495037078857,9.85095024108887,9.97095012664795,-7.52743768692017,-8.92471218109131,-10.8860120773315,24.4909515380859,26.8639507293701,32.623950958252,-0.17723749577999,0.66233748197556,1.3029500246048,-0.04839999973774,0.84342497587204,1.09876251220703,-34.7179527282715,-29.7220516204834,-23.9740505218506,14.19105052948,11.5039501190186,5.72700023651123,-9.80375003814697,-8.98218727111816,-7.75197505950928,-1.00800001621246,-5.51595020294189,-10.1929502487183,0.30799999833107,0.7209125161171,1.06988751888275,-0.50077497959137,-0.96689999103546,-1.28713750839233,-18.2980499267578,-16.2690010070801,-15.1339511871338,8.98200035095215,9.8100004196167,10.7830505371094,-2.80981254577637,-2.04778742790222,-1.53065001964569,-12.3799505233765,-10.2510004043579,-8.75594997406006,0.45704999566078,0.30593749880791,0.41662499308586,-0.99989998340607,-0.76573747396469,-0.17297500371933,-9.56100082397461,-8.52405071258545,-4.91400003433228,8.83800029754639,10.3420505523682,8.16300010681152,SWING_RIGHT
0.81276249885559,0.80739998817444,0.84686249494553,1.35000002384186,1.32405006885529,1.24695003032684,-0.11976250261068,-0.1017500013113,-0.09858749806881,0.25162500143051,0.19744999706745,0.171875,5.08095026016235,5.62800025939941,6.49500036239624,7.95195055007935,7.98795032501221,6.93405055999756,0.84039998054504,0.75844997167587,0.51686251163483,5.87205028533936,9.69195079803467,14.9560508728027,-0.35282498598099,-0.48372501134872,-0.89141249656677,-1.69372498989105,-1.74803745746613,-1.44251251220703,10.0800008773804,9.49305057525635,6.38205051422119,7.25505018234253,7.50195026397705,9.04905033111572,-5.23723745346069,-6.83251237869263,-9.95170021057129,25.1299514770508,24.631950378418,27.4560012817383,-0.52745002508163,-0.35928750038147,0.47299998998642,-0.10271249711514,-0.39008748531342,-1.16792500019073,-17.8999500274658,-25.1910018920898,-21.4500007629395,10.7400007247925,14.1979503631592,15.9540004730225,-10.649787902832,-9.69952487945557,-9.3110876083374,3.66795015335083,5.05305004119873,5.35005044937134,0.18342499434948,-0.17627499997616,0.8124874830246,-1.04554998874664,-0.6348375082016,-0.4687374830246,-18.5400009155273,-17.2870502471924,-14.0370006561279,7.5949501991272,11.203950881958,11.3860502243042,-4.00702476501465,-3.35362505912781,-3.00987505912781,-7.65000057220459,-6.16200017929077,-6.6340503692627,-0.42198750376701,-0.63813751935959,-0.55935001373291,-0.02392499893904,0.25382500886917,0.34209999442101,-11.6440505981445,-10.8730506896973,-9.73095035552978,9.28605079650879,10.3879508972168,10.7899503707886,SWING_RIGHT
0.8318749666214,0.93940001726151,0.95961248874664,0.21495001018047,0.92100006341934,1.31205010414124,0.03877500072122,0.13447499275208,0.70276248455048,0.11866249889135,0.10587500035763,-0.20597499608994,3.98505020141602,3.69195008277893,3.56295013427734,10.0710000991821,10.5889501571655,10.2970504760742,1.33952498435974,1.3087249994278,1.11608743667603,1.41195011138916,4.00395011901855,4.8469500541687,-0.21023750305176,0.31968748569489,0.61132502555847,1.16682493686676,-0.35392498970032,-0.86996251344681,6.29100036621094,10.7670001983643,11.028000831604,9.05595016479492,10.0999507904053,10.6560001373291,-2.5086874961853,-3.61968755722046,-4.67211246490479,19.3459510803223,19.9110012054443,23.4940509796143,0.44426250457764,-0.28586250543594,-0.41249999403954,-0.26551249623299,-0.2771999835968,-0.15798750519753,3.28995013237,-8.81805038452148,-13.1560506820679,9.99000072479248,9.0730504989624,9.62400054931641,-9.96022510528564,-9.3461503982544,-8.9673376083374,9.66495037078857,4.79595041275024,3.99195027351379,-0.74236249923706,-0.63910001516342,-0.37207499146461,-0.0930875018239,0.10903749614954,0.41662499308586,-17.5429515838623,-18.106050491333,-19.8259506225586,6.64905023574829,6.75195026397705,8.63400077819824,-7.32737493515015,-3.98571252822876,-2.26806259155273,-8.671950340271,-14.1739511489868,-11.0790004730225,1.67653751373291,1.0008624792099,0.40700000524521,-0.09528750181198,-0.01113750040531,0.16335000097752,-16.0750503540039,-13.9320011138916,-11.5050001144409,6.46005010604858,6.87195014953613,8.625,SWING_RIGHT
0.66165000200272,0.29658749699593,0.30511251091957,2.41305017471313,2.03700017929077,1.38300001621246,0.23347499966621,-0.06764999777079,-0.21133749186993,-1.05407500267029,-1.52446246147156,-1.76495003700256,4.75800037384033,5.08905029296875,6.77205038070679,7.26405048370361,8.14095020294189,12.0109510421753,0.4988499879837,-0.43559998273849,-2.87691259384155,15.3130502700806,18.5729999542236,21.211950302124,0.23993749916553,0.31116250157356,0.34306249022484,-1.36372494697571,-0.77096247673035,-0.51246249675751,5.40000009536743,3.63705015182495,1.28100001811981,13.9870510101318,13.1779508590698,11.8699502944946,-7.18162488937378,-9.16849994659424,-9.80691242218018,26.8350009918213,24.1410007476807,22.3540515899658,0.25588750839233,0.81454998254776,0.94751250743866,0.06008749827743,-0.92537498474121,-1.76288747787476,-26.3280010223389,-26.920051574707,-25.9570503234863,9.12495040893555,8.93400001525879,7.14000034332275,-9.90591239929199,-8.27241230010986,-6.17058753967285,4.93995046615601,-10.135950088501,-13.1370010375977,0.35804998874664,1.16036248207092,1.25619995594025,-0.22935000061989,0.43477499485016,0.54436248540878,-16.7100009918213,-12.0280504226685,-10.5090007781982,13.2379503250122,9.15705013275146,8.33700084686279,-1.02189993858337,0.08799999952316,0.7265499830246,-7.98705053329468,-8.41604995727539,-6.91005039215088,0.52401250600815,-0.35502499341965,-0.3092375099659,-0.61352497339249,0.13461250066757,-0.01759999990463,-4.25100040435791,-2.46900010108948,-1.79100012779236,7.61400032043457,9.55905055999756,10.252950668335,SWING_RIGHT
0.16788749396801,0.21999999880791,-0.23870000243187,3.25905013084412,5.43105030059814,8.92995071411133,-0.14753749966621,0.35158750414848,0.83476251363754,-0.93389999866486,-1.11581254005432,-1.34255003929138,5.56800031661987,5.54400014877319,5.92695045471191,14.5000505447388,14.4160509109497,10.4470500946045,-2.83538746833801,-3.64416241645813,-4.06876230239868,18.5170516967773,16.9390506744385,15.8419504165649,0.24516250193119,0.50063747167587,0.64638751745224,-0.64652502536774,-1.037024974823,-1.70967495441437,-0.38505002856255,-0.78795003890991,-0.52695000171661,9.70995044708252,8.83305072784424,8.27505016326904,-6.84736251831055,-7.75403738021851,-8.31283760070801,23.1160507202148,21.2790012359619,20.4550514221191,-1.52129995822906,-0.91258752346039,-0.21559999883175,0.60183751583099,1.95126247406006,0.64116251468658,-21.5140514373779,-24.6490516662598,-23.6170501708984,12.046950340271,8.39700031280518,2.07000017166138,-7.81261253356934,-7.29863739013672,-7.3358998298645,1.80495011806488,2.49705004692078,-1.28100001811981,-0.67856252193451,-0.44976249337196,-0.32835000753403,0.39214998483658,-0.09418749809265,-0.07823749631643,-18.3310508728027,-15.538950920105,-13.2349510192871,7.77000045776367,8.65395069122314,9.27405071258545,-1.77003753185272,-1.28163754940033,-0.78251248598099,-9.28500080108643,-9.01995086669922,-8.87805080413818,0.44742500782013,0.18246249854565,-0.1017500013113,-0.54436248540878,-0.26661249995232,0.11646249890327,-6.51900053024292,-5.44800043106079,-4.20795011520386,8.14305019378662,8.36100006103516,8.3569507598877,SWING_RIGHT
0.53817498683929,0.59358751773834,0.71802496910095,1.14195001125336,1.11495006084442,1.3090500831604,0.26963749527931,0.2579500079155,0.25272500514984,0.36767500638962,0.21972499787807,0.13461250066757,2.98800015449524,3.331050157547,3.63705015182495,8.75895023345947,8.67495059967041,8.85705089569092,0.85002499818802,0.80739998817444,0.80533748865128,0.78195005655289,0.74595004320145,1.03395009040833,-0.00384999997914,-0.08786249905825,-0.31556248664856,-0.26867499947548,-0.13255000114441,0.1409374922514,5.08905029296875,5.26095008850098,6.17805051803589,9.08895015716553,9.43005084991455,9.42495059967041,0.39985001087189,-0.11316250264645,-1.40291249752045,8.60700035095215,11.8110008239746,16.3669509887695,0.66343748569489,0.80602496862411,0.55811250209808,-1.36276245117188,-1.64367496967316,-1.74267494678497,9.87900066375732,7.55595016479492,2.93805003166199,12.1860008239746,10.5000009536743,9.75795078277588,-5.98221254348755,-6.28127479553223,-6.68992519378662,17.0470504760742,17.2549514770508,17.5639514923096,-0.36245000362396,-0.6540874838829,-0.80836248397827,-0.17723749577999,0.10587500035763,0.49857500195503,-10.0800008773804,-12.7800006866455,-15.9120006561279,8.02395057678223,7.89900016784668,7.3080005645752,-8.79174995422363,-8.68312454223633,-8.4660120010376,11.2920007705688,8.47305011749268,7.5120005607605,-0.2230249941349,-0.2549250125885,-0.13584999740124,0.33783748745918,-0.11123749613762,-0.66357499361038,-21.4830017089844,-23.1070518493652,-19.6870517730713,5.0440502166748,6.20595026016235,12.1669502258301,SWING_RIGHT
0.31253749132156,0.26785001158714,0.24241249263287,0.72000002861023,0.94800007343292,0.70605003833771,-0.24543750286102,-0.29438748955727,-0.29328748583794,0.19841249287128,0.38788750767708,0.36877501010895,4.59105014801025,4.42005014419556,3.65595006942749,8.96505069732666,9.07005023956299,8.91000080108643,0.24557499587536,0.2774749994278,0.14437499642372,0.61695003509521,1.62105011940002,1.63500010967255,-0.16871249675751,-0.29961249232292,-0.24433749914169,0.12498749792576,0.2261874973774,0.14849999547005,4.06800031661987,4.15200042724609,4.86105012893677,8.94300079345703,9.66195011138916,9.82500076293945,0.06572499871254,-0.66536247730255,-1.12310004234314,5.30895042419434,10.91100025177,14.803050994873,-0.57956248521805,-0.44549998641014,-0.17723749577999,-1.07648754119873,1.01901245117188,1.01791250705719,8.88000011444092,-3.82005023956299,-9.43605041503906,15.1630506515503,11.6569509506226,11.0290508270264,-9.50578784942627,-10.0197620391846,-10.4465627670288,16.1200504302979,14.5540504455566,10.4560508728027,0.08346249908209,0.21009999513626,0.36657500267029,-1.08281254768372,-1.10948753356934,-0.69863748550415,-24.2280006408691,-17.5939502716064,-15.1630506515503,8.5290002822876,11.8560009002686,11.3100004196167,-5.75657510757446,-5.13301229476929,-5.02864980697632,-4.74900007247925,-3.62595009803772,-6.54105043411255,-0.04427500069141,0.35585001111031,0.90818750858307,-0.19951249659061,-0.5378999710083,-0.8124874830246,-16.3579502105713,-14.4799509048462,-11.5099506378174,11.9299507141113,13.2540006637573,13.2900009155273,SWING_RIGHT
0.94366252422333,0.96387499570847,1.0032000541687,0.99105006456375,0.99795007705688,2.62200021743774,0.26014998555183,0.05156249925494,-0.16775000095367,0.07507500052452,0.42515000700951,0.42198750376701,4.92300033569336,4.41600036621094,4.18305015563965,8.99400043487549,8.20305061340332,9.39795017242432,0.58286249637604,0.23485000431538,0.12526249885559,2.67405009269714,3.14100003242493,3.51495027542114,0.05898749828339,0.0472999997437,0.08552499860525,-0.28256249427795,-0.38898751139641,-0.73383748531342,5.41395044326782,5.88105010986328,6.52800035476685,8.91495037078857,9.15705013275146,10.0980005264282,-0.86556249856949,-1.64656245708466,-3.58558750152588,12.7960510253906,15.7459506988525,18.6850509643555,0.89223748445511,1.37321245670319,1.57657504081726,-1.45749998092651,-2.21828746795654,-2.68771243095398,2.28600001335144,-5.37405014038086,-13.44105052948,13.2210006713867,13.1989507675171,12.4350004196167,-12.064112663269,-11.5586624145508,-10.874324798584,15.4060506820679,11.15505027771,5.02605009078979,-1.53312504291534,-0.60513746738434,-0.16018749773502,-0.5986750125885,-1.08501243591309,-0.98917502164841,-20.275951385498,-17.7780017852783,-16.6399517059326,11.0320501327515,13.0360507965088,12.6840009689331,-4.59772491455078,-4.09007501602173,-3.6313750743866,-5.73405027389526,-6.05895042419434,-8.11695003509521,0.09941250085831,0.60060000419617,0.71128749847412,-0.16981250047684,0.55811250209808,0.73589998483658,-14.824951171875,-10.3150501251221,-7.7359504699707,12.5890502929688,11.1709508895874,8.91495037078857,SWING_RIGHT
0.3935250043869,0.31790000200272,0.30305001139641,1.125,1.15605008602142,1.11300003528595,-0.0496375001967,0.0536249987781,0.03024999983609,0.12072499841452,0.04839999973774,-0.00797499995679,3.67995023727417,3.57000017166138,3.31905007362366,9.60195064544678,9.07695007324219,9.0730504989624,0.49032500386238,0.21147499978542,-0.10037499666214,2.54505014419556,5.4190502166748,7.98195028305054,-0.30813750624657,0.09941250085831,0.64322501420975,-0.42405000329018,-1.2754499912262,-2.05548739433289,6.88500022888184,8.09700012207031,9.0169506072998,12.4980001449585,13.7070007324219,15.0120010375977,-5.86093759536743,-7.33163738250732,-8.62468719482422,26.4400520324707,25.9230003356934,25.1110515594482,1.23282504081726,0.76340001821518,0.44206249713898,-3.41453742980957,-1.71077501773834,-0.33261248469353,-11.6800508499146,-20.1180000305176,-21.2269515991211,15.8029508590698,12.3079509735107,8.30400085449219,-9.43662452697754,-8.83753776550293,-8.18303775787354,1.81005012989044,0.27495002746582,-5.42700004577637,0.23347499966621,1.46258747577667,0.94008749723434,-1.63514995574951,-1.96501243114471,-1.64257502555847,-16.9680004119873,-12.1590003967285,-11.3470506668091,14.2890005111694,9.9060001373291,8.5890007019043,-3.35995006561279,-3.04397487640381,-1.56791245937347,-8.64600086212158,-10.0249500274658,-12.7840509414673,-0.45402500033379,-0.07933750003576,0.09295000135899,0.18892499804497,0.33261248469353,0.46557500958443,-8.24595069885254,-6.00600051879883,-4.45005035400391,13.0840501785278,11.167950630188,9.31695079803467,SWING_RIGHT
0.39242500066757,0.34347498416901,0.2923249900341,4.01295042037964,4.79595041275024,7.32300043106079,0.31432500481606,0.49953749775887,0.46117499470711,-0.19744999706745,-0.59111249446869,-0.88068747520447,6.81495046615601,7.11195039749146,5.95095014572144,10.9840507507324,10.4809503555298,10.2150001525879,-2.19793748855591,-2.9546000957489,-3.82827496528625,16.2709503173828,19.2499504089355,22.5840015411377,1.80427503585815,1.77237498760223,1.06576251983643,-3.24431252479553,-3.0685875415802,-2.52271246910095,1.18995010852814,-1.42200005054474,-6.11205005645752,13.8910503387451,10.8570003509521,7.46805047988892,-9.52489948272705,-10.8850498199463,-11.7832002639771,22.4380512237549,17.8560009002686,12.6379508972168,-0.72324997186661,0.67196249961853,0.13447499275208,-2.2375373840332,-2.1012749671936,-1.80124998092651,-26.5770015716553,-24.1800003051758,-19.5840015411377,16.8900012969971,10.1239500045776,9.20205020904541,-7.2294750213623,-5.98221254348755,-4.87863731384277,-9.79800033569336,-11.0340003967285,-11.8620004653931,0.40383750200272,0.2239875048399,0.03657500073314,0.01539999991655,0.01539999991655,0.24639999866486,-11.9460000991821,-9.58005046844482,-7.39095020294189,10.8810005187988,10.5259504318237,9.61200046539307,0.61696249246597,1.23199999332428,1.72259998321533,-9.17295074462891,-8.11200046539307,-6.81105041503906,-0.71252501010895,-0.73383748531342,-0.74236249923706,0.5656750202179,0.43573749065399,0.30483749508858,0.32295000553131,0.91905003786087,1.48200011253357,7.17600011825562,7.17600011825562,7.56105041503906,SWING_RIGHT
0.33701249957085,0.30621248483658,0.36574998497963,0.76800000667572,0.51900005340576,0.31005001068115,-0.42625001072884,-0.4433000087738,-0.41359999775887,0.32298749685287,0.24213749170303,0.08992499858141,3.40305018424988,3.63000011444092,3.9340500831604,8.89995002746582,9.10095024108887,9.44595050811768,0.43395000696182,0.40727499127388,0.50311249494553,1.72395002841949,1.75200009346008,2.53500008583069,-0.09858749806881,-0.00494999997318,0.1047749966383,-0.26441249251366,-0.29315000772476,-0.28256249427795,5.04105043411255,6.24300050735474,6.95205020904541,10.8829507827759,11.6190004348755,11.9200506210327,-0.49829998612404,-1.42312502861023,-2.83634996414185,13.4329509735107,18.0460510253906,21.4420509338379,-0.65931248664856,-0.84246248006821,-0.21876250207424,0.06751249730587,0.76889997720718,1.04445004463196,5.38095045089722,0.25095000863075,-3.48405027389526,11.28600025177,15.0220508575439,15.8509511947632,-6.63024997711182,-7.24322509765625,-8.42668724060059,14.6880006790161,17.0110511779785,13.7970008850098,2.40019989013672,2.28524994850159,1.41583752632141,-0.46557500958443,-0.67210000753403,-0.87532502412796,-15.6100511550903,-17.9070014953613,-20.7480010986328,9.83205032348633,5.17095041275024,5.16600036621094,-10.1155996322632,-8.66401290893555,-5.60339975357056,-2.72100019454956,-7.44105052947998,-4.65105009078979,1.42862498760223,1.19556248188019,0.4101625084877,-0.23361249268055,-0.89347499608994,-0.693274974823,-14.5039510726929,-14.2069511413574,-13.4190006256104,7.14495038986206,7.80600023269653,11.8440008163452,SWING_RIGHT
0.10188750177622,0.13695000112057,0.19552500545979,-0.05700000375509,-0.1410000026226,-0.12705001235008,-0.10917499661446,-0.19855000078678,-0.34650000929832,-0.12498749792576,0.06118749827147,0.30387499928474,3.31605005264282,3.26595020294189,3.35700011253357,9.1399507522583,9.17295074462891,9.65895080566406,0.58712500333786,0.67443752288818,0.72448748350143,1.16295003890991,2.21895003318787,5.53605031967163,0.06531249731779,0.61984997987747,0.70179998874664,-1.77663743495941,-2.36417508125305,-2.14596247673035,4.63095045089722,5.80200004577637,4.78500032424927,12.526050567627,13.7860507965088,14.2080011367798,-3.16304993629456,-4.83821249008179,-6.45149993896484,24.28005027771,24.3850517272949,23.812952041626,2.7259373664856,3.62188744544983,3.20897507667542,-2.39813756942749,-3.75938749313354,-3.76351237297058,-10.4299507141113,-21.1069507598877,-30.4450511932373,19.1749515533447,16.4350509643555,14.4420003890991,-13.378475189209,-10.5720996856689,-8.11909961700439,-2.00205016136169,-9.24900054931641,-5.53200006484985,0.18342499434948,-0.95314997434616,-1.26279997825623,-2.48434996604919,-2.27906250953674,-1.60325002670288,-15.0880508422852,-14.7100505828857,-14.53005027771,6.81705045700073,9.68100070953369,12.5410509109497,-5.6469874382019,-4.23376226425171,-2.95129990577698,-13.2040510177612,-14.320050239563,-11.7210006713867,0.57832497358322,0.22605000436306,-0.21243749558926,-0.58162498474121,-0.61668747663498,-0.34113749861717,-8.07600021362305,-7.52700042724609,-6.97200012207031,8.10795021057129,7.97805023193359,8.69700050354004,SWING_RIGHT
1.20326244831085,1.44595003128052,1.5916999578476,-0.16995000839233,-0.591000020504,-0.07905000448227,0.33880001306534,0.44426250457764,0.23141250014305,0.08772499859333,-0.07603749632835,0.02392499893904,3.84600019454956,4.49505043029785,4.21905040740967,10.1029500961304,8.96295070648193,8.5290002822876,0.80739998817444,0.81386250257492,0.59138751029968,0.86595004796982,1.0069500207901,1.66095006465912,0.00893750041723,-0.20597499608994,-0.3092375099659,-0.13777500391006,-0.35708749294281,-0.97528749704361,4.38000011444092,4.2529501914978,4.97895002365112,8.53395080566406,9.15900039672852,11.2710008621216,0.79145002365112,-1.80097496509552,-2.54375004768372,12.271050453186,15.0060005187988,16.1080513000488,1.26046252250671,1.8819625377655,2.24166250228882,-0.08249999582767,-0.90186250209808,-2.33117508888245,1.69995009899139,-6.27705049514771,-14.202000617981,17.1730499267578,14.2669506072998,14.7900009155273,-10.9445877075195,-11.9215250015259,-11.2468128204346,19.9980010986328,11.0899505615234,3.85305023193359,1.97766244411469,1.87343752384186,1.56378746032715,-0.43999999761581,-1.41597497463226,-2.1012749671936,-21.1500015258789,-18.3840007781982,-15.4480504989624,7.08495044708252,7.36305046081543,9.15705013275146,-6.1620626449585,-5.41928768157959,-4.36246252059937,-4.86705017089844,-6.40200042724609,-5.17800045013428,0.38568750023842,0.34732499718666,0.01319999992847,0.0930875018239,-0.20171250402927,0.71995002031326,-11.4889507293701,-11.9170503616333,-11.3860502243042,9.24000072479248,9.78194999694824,10.2289505004883,SWING_RIGHT
0.71912497282028,0.44247499108315,0.44247499108315,1.38300001621246,0.77505004405975,0.67905002832413,0.09941250085831,0.08126249909401,0.10051249712706,-0.12402500212193,0.01333750039339,0.07823749631643,3.57495021820068,3.7020001411438,3.48405027389526,10.2409505844116,10.2409505844116,9.92805004119873,0.19552500545979,0.18493749201298,0.12746250629425,1.00005006790161,1.07700002193451,1.26405000686646,0.20473749935627,0.31542500853539,0.35268750786781,0.07603749632835,-0.0196624994278,-0.0686125010252,4.01805019378662,4.36094999313354,4.62900018692017,9.85095024108887,9.74805068969727,9.56595039367676,0.08277499675751,-0.4100250005722,-1.18799996376038,5.10300016403198,13.7470502853394,18.1579513549805,1.86284995079041,2.23423743247986,1.41583752632141,-0.86047500371933,-0.72311252355576,-0.73053747415543,7.50795030593872,1.92705011367798,-2.66295003890991,17.2590007781982,8.68905067443848,8.62005043029785,-7.94667482376099,-9.18114948272705,-9.33556270599365,17.7919502258301,9.86205005645752,5.17500019073486,2.21402502059937,2.36829996109009,2.19903755187988,-3.19632506370544,-3.77740001678467,-3.95298743247986,-17.6700000762939,-15.7609510421753,-13.3060503005981,14.1480007171631,13.5870008468628,11.8990507125854,-6.95378732681274,-6.45149993896484,-6.11847496032715,-2.26095008850098,-1.83705008029938,-1.84200012683868,-1.5054874420166,-0.98505002260208,-0.55508750677109,-0.76353746652603,0.23471249639988,-0.18892499804497,-11.9530506134033,-13.4860506057739,-13.6900510787964,12.1909503936768,12.5310001373291,10.9380006790161,SWING_RIGHT
0.16678750514984,0.09446249902248,0.0082499999553,1.86705005168915,1.89105010032654,1.42200005054474,0.02598750032485,0.03135000169277,0.02914999984205,-0.02818750031292,0.01856249943376,0.0196624994278,4.44705009460449,4.58100032806396,4.5949501991272,8.78999996185303,8.84505081176758,8.86695003509521,0.30195000767708,0.51796251535416,0.69781249761581,0.8400000333786,1.46505010128021,2.6620500087738,-0.11879999935627,-0.05486249923706,0.3452624976635,0.65821248292923,0.61668747663498,0.25588750839233,4.85895013809204,4.82805013656616,7.4089503288269,9.9660005569458,10.8040504455566,10.3950004577637,-1.38380002975464,-3.19508743286133,-4.38693761825562,21.5089511871338,20.8930511474609,22.0120506286621,0.54216247797012,0.28242498636246,-0.45718750357628,-2.98031258583069,-3.3411123752594,-3.53471255302429,-1.94205009937286,-8.32500076293945,-13.2679510116577,11.4460506439209,9.91305065155029,12.7870502471924,-10.0762748718262,-10.0230627059937,-10.0273246765137,16.8979511260986,14.403000831604,12.0199508666992,-1.29470002651215,-1.13506245613098,-0.54766249656677,0.84232497215271,1.04032504558563,0.69437497854233,-19.4020500183105,-19.1550006866455,-18.7120513916016,8.88300037384033,9.46095085144043,8.61795043945313,-8.01061248779297,-6.91020011901855,-5.77788734436035,-6.62505054473877,-9.11805057525635,-9.24495029449463,0.54628747701645,0.28242498636246,0.12388750165701,-0.58272498846054,-0.40700000524521,-0.23567499220371,-17.6700000762939,-16.489049911499,-14.53005027771,9.1830005645752,9.75300025939941,10.150050163269,SWING_RIGHT
0.15936249494553,0.10504999756813,0.07204999774694,2.29395008087158,2.24595022201538,1.53705012798309,-0.01333750039339,0.07177499681711,0.1409374922514,0.15482500195503,0.12608750164509,0.10807500034571,3.76395010948181,3.89400029182434,4.03200006484985,9.44895076751709,9.36495018005371,8.90295028686523,0.28380000591278,0.36368748545647,0.27857500314713,1.87005007266998,3.79305028915405,10.6810503005981,-0.11659999936819,-0.47203749418259,-0.45086249709129,-0.72531247138977,-0.55715000629425,-0.27939999103546,11.4019508361816,8.12100028991699,7.97895050048828,9.78194999694824,12.1120510101318,14.5170011520386,-6.113112449646,-9.00886249542236,-9.54195022583008,28.9500007629395,21.5950508117676,21.6169509887695,1.52968752384186,2.50126242637634,2.59283757209778,-2.74615001678467,-2.43223738670349,-2.35564994812012,-16.5060005187988,-21.7680015563965,-21.7540512084961,17.6659507751465,13.8559503555298,9.14205074310303,-9.96654987335205,-9.18761253356934,-7.46996259689331,4.96605014801025,2.0350501537323,-0.63900005817413,-0.89347499608994,-1.64491248130798,-2.68455004692078,-2.09591245651245,-1.1061874628067,0.39957499504089,-14.3550004959106,-15.2080507278442,-18.3460502624512,10.171950340271,10.243950843811,11.1730508804321,-5.25745010375977,-4.38377475738525,-2.89712500572205,-6.12405014038086,-10.1620502471924,-12.9930009841919,1.1253000497818,1.11361253261566,0.99866247177124,0.26661249995232,0.52305001020432,0.75295001268387,-10.2340507507324,-7.35000038146973,-4.72800016403198,11.4799509048462,9.70995044708252,9.18795013427734,SWING_RIGHT
-4.33688735961914,-5.00527477264404,-7.33163738250732,15.2869510650635,18.6439514160156,16.5990009307861,0.94971251487732,1.59458744525909,1.97243750095367,-1.22223746776581,-1.18291246891022,-1.1892374753952,-9.67605018615723,-12.7840509414673,-15.3540010452271,16.5690002441406,15.6450004577637,12.8809509277344,-8.91412448883057,-8.50973701477051,-7.82539987564087,4.11600017547607,1.11795008182526,-1.34295010566711,1.29346251487732,0.70179998874664,0.10683749616146,-0.78595000505447,-0.5986750125885,-0.50929999351501,-10.6669502258301,-11.4670505523682,-13.6320009231567,9.33600044250488,6.07695007324219,5.74095010757446,-7.03051233291626,-7.22521257400513,-6.66971254348755,1.38795006275177,-3.08505010604858,-9.49095058441162,0.12072499841452,0.53143751621246,0.49843749403954,-0.8124874830246,-0.75185000896454,-0.01443750038743,-18.7290000915527,-17.2849502563477,-14.881950378418,12.5790004730225,12.0379505157471,10.1290502548218,0.57969999313354,1.24698746204376,1.82050001621246,-9.89805030822754,-9.31395053863525,-8.42805004119873,0.08868750184774,0.23883749544621,0.23567499220371,0.22824999690056,0.25382500886917,0.14946250617504,-2.95500016212463,-1.13505005836487,-0.04995000362396,9.33405017852783,8.13899993896484,6.88800048828125,2.49521255493164,2.25898742675781,1.94191253185272,-2.45700001716614,-1.4389500617981,-0.98700004816055,-0.52002501487732,-0.39434999227524,-0.37097498774529,-0.08882500231266,-0.06008749827743,-0.16445000469685,1.89900004863739,1.62105011940002,1.23300004005432,9.27600002288818,9.22605037689209,10.0620002746582,SWING_RIGHT
0.46694999933243,0.56484997272491,0.59675002098083,0.35595002770424,0.61905002593994,0.90195006132126,-0.14753749966621,-0.13584999740124,-0.04427500069141,0.00797499995679,-0.0591249987483,-0.07177499681711,3.91995024681091,3.56295013427734,4.15500020980835,9.05400085449219,10.0710000991821,9.73605060577393,0.93623751401901,0.01031249947846,-0.13653749227524,3.74295020103455,4.88505029678345,6.05100011825562,0.34732499718666,0.43463748693466,0.52291250228882,-0.78374999761581,-0.50077497959137,-0.32615000009537,7.84800052642822,7.47405052185059,4.70100021362305,13.8150005340576,13.8960008621216,15.0049505233765,-5.02974987030029,-7.54654979705811,-9.57384967803955,18.5610008239746,27.2299518585205,25.2859516143799,1.74570000171661,2.35977506637573,2.1235499382019,-2.5972375869751,-2.04379987716675,-2.0873875617981,-15.4090509414673,-19.8349514007568,-23.8180503845215,20.1330013275146,16.7970008850098,10.3800001144409,-10.7690000534058,-10.1028127670288,-9.25993728637695,7.31595039367676,3.4789502620697,-0.85695004463196,0.50269997119904,-0.10917499661446,-0.72105002403259,-2.50139999389648,-2.56629991531372,-1.73414993286133,-17.8279514312744,-17.6869506835938,-18.4150505065918,8.73705005645752,10.3210506439209,12.2700004577637,-4.91699981689453,-3.51216244697571,-2.06909990310669,-11.4100503921509,-12.9810009002686,-12.4399509429932,0.50063747167587,0.86570000648499,1.10302495956421,-0.21340000629425,0.08030000329018,0.39008748531342,-13.8070507049561,-11.2470006942749,-8.62905025482178,13.6999502182007,12.4740009307861,10.6390504837036,SWING_RIGHT
0.42212501168251,0.48069998621941,0.47437500953674,1.13895010948181,1.46505010128021,1.74300003051758,0.03767500072718,0.02804999984801,0.02488750033081,0.18466250598431,0.15702499449253,0.09735000133514,4.00605010986328,3.94395017623901,4.15904998779297,9.08205032348633,8.99595069885254,9.18795013427734,0.37317499518394,0.2774749994278,0.04124999791384,2.15505003929138,2.55495023727417,2.98095011711121,0.05472499877214,0.04619999974966,0.23141250014305,-0.20267499983311,-0.34540000557899,-0.48468750715256,5.08395004272461,5.58405017852783,7.29195022583008,9.1230001449585,9.69795036315918,11.1250505447388,-1.24327504634857,-1.86161243915558,-2.54168748855591,12.1470003128052,14.1750011444092,16.4959506988525,0.45911249518394,0.76876246929169,0.73686248064041,-1.57231247425079,-1.5361499786377,-1.54261243343353,3.56100010871887,0.31095001101494,-3.93495011329651,14.0470504760742,12.4690504074097,9.79095077514648,-7.76682472229004,-8.73743724822998,-9.41531276702881,18.5989513397217,16.0650005340576,13.2169504165649,-0.35296249389648,-0.0591249987483,0.3994374871254,-2.34602499008179,-2.39813756942749,-2.06401252746582,-17.5960502624512,-18.3720016479492,-17.15505027771,12.5929508209229,14.5690507888794,13.1389503479004,-8.32452487945557,-7.64018726348877,-7.07836246490479,-0.99105006456375,-2.2129499912262,-4.27005004882813,0.28874999284744,0.11110000312328,-0.34966251254082,-1.73621249198914,-1.19776248931885,-0.76147496700287,-12.0160503387451,-11.2680006027222,-10.6020002365112,12.5770502090454,10.5840005874634,9.43005084991455,SWING_RIGHT
-0.19827499985695,-0.1545500010252,-0.08964999765158,1.11000001430511,0.6889500617981,0.51900005340576,0.08868750184774,-0.02516249939799,-0.08153750002384,0.15166249871254,0.171875,0.08249999582767,4.30800008773804,4.2480001449585,4.01805019378662,8.38500022888184,8.30205059051514,8.62695026397705,0.22962500154972,0.34773749113083,0.37001249194145,-0.12000000476837,0.44505003094673,0.89505004882813,-0.31776249408722,-0.3783999979496,-0.42528748512268,0.28366249799728,0.18039999902248,0.04839999973774,4.50195026397705,4.54995012283325,5.2300500869751,8.35395050048828,8.87595081329346,9.46995067596436,0.88618749380112,0.10298749804497,-0.70908749103546,6.72195053100586,19.5659999847412,30.928050994873,0.43889999389648,1.42326247692108,2.13730001449585,0.2549250125885,1.10522496700287,1.2615624666214,14.3860502243042,4.11899995803833,-8.61705017089844,24.5970020294189,20.3770503997803,17.4600009918213,-10.3582878112793,-10.7509870529175,-11.1042251586914,21.8130016326904,20.9749507904053,8.91795063018799,3.03228759765625,3.13555002212524,3.12702488899231,0.53047502040863,0.62314999103546,0.37303748726845,-26.3430004119873,-21.8089504241943,-19.8139514923096,9.97800064086914,7.55895042419434,5.33895015716553,-8.06066226959229,-8.1787748336792,-7.37206268310547,3.51000022888184,-0.48600003123283,-8.46405029296875,1.46794998645782,1.21783745288849,0.87518751621246,-2.19711256027222,-1.39892494678497,-0.23361249268055,-17.3830509185791,-15.3330011367798,-13.6680002212524,11.5560007095337,12.5689506530762,8.55495071411133,SWING_RIGHT
0.00082499999553,0.15619999170303,0.24873749911785,0.27000001072884,1.33995008468628,3.59595012664795,0.12925000488758,0.27926251292229,0.47079998254776,-0.68268752098083,-0.54862499237061,-0.57736247777939,8.0580005645752,8.62095069885254,8.41095066070557,12.6510009765625,13.2640504837036,13.711950302124,-2.48627495765686,-4.36782503128052,-4.84343767166138,17.1619510650635,14.4940509796143,14.1700506210327,0.54848748445511,0.61984997987747,0.4974749982357,-0.64542502164841,-0.59537500143051,-0.44110000133514,0.28905001282692,-7.53405046463013,-13.3330507278442,11.7240009307861,10.6410007476807,9.11100006103516,-10.8987998962402,-12.1332750320435,-12.3036375045776,19.159049987793,13.4089508056641,9.76395034790039,-0.26991251111031,-0.28159999847412,0.28352499008179,-0.98285001516342,-0.64762496948242,1.92142498493195,-32.7400512695313,-31.2160511016846,-25.2150020599365,8.54594993591309,10.9960508346558,12.0739507675171,-4.93391227722168,-3.48136258125305,-2.58637499809265,-14.8129510879517,-12.775050163269,-13.1490001678467,1.3338874578476,0.83366250991821,0.45374998450279,-0.50709998607635,0.03877500072122,0.45498749613762,-16.6240501403809,-11.3070001602173,-8.62905025482178,7.72005033493042,7.9830002784729,6.08100032806396,3.47324991226196,3.33808755874634,2.95927500724792,-2.70405006408691,-0.75000005960464,-0.16500000655651,-1.19900000095367,-1.11058747768402,-0.98188751935959,0.2239875048399,-0.01539999991655,-0.14946250617504,0.03000000119209,0.54300004243851,0.67200005054474,7.08495044708252,8.25795078277588,8.74005031585693,SWING_RIGHT
0.24337500333786,0.22742499411106,0.46158748865128,1.00005006790161,1.11000001430511,3.61095023155212,0.00041249999776,-0.0772750005126,-0.21779999136925,0.02818750031292,0.60183751583099,0.86886250972748,5.57505035400391,4.76100015640259,4.12604999542236,10.078950881958,9.22800064086914,9.17805004119873,0.28173750638962,-0.05032499879599,-0.59839999675751,5.56800031661987,8.14004993438721,12.8440504074097,0.33673748373985,-0.168850004673,-0.63703751564026,-2.32375001907349,-1.76715004444122,-1.70747494697571,5.09805011749268,2.33700013160706,1.00305008888245,11.401050567627,10.2289505004883,10.2270002365112,-6.96973752975464,-8.79807472229004,-9.95912456512451,22.4260501861572,21.178050994873,19.0279502868652,-0.40191251039505,-0.35186249017715,-0.49128749966621,-2.7259373664856,-1.87247502803802,-0.77948749065399,-15.6079511642456,-18.5320510864258,-18.8170509338379,14.1649503707886,13.1920509338379,10.921950340271,-10.2613496780396,-9.83991241455078,-9.2621374130249,8.83005046844482,5.11200046539307,1.07205009460449,-0.75088751316071,0.24832500517368,1.05820000171661,1.79588747024536,-0.28366249799728,-2.00021243095398,-15.7369508743286,-14.8939504623413,-16.0339508056641,7.94700050354004,9.93000030517578,10.8190507888794,-8.01693725585938,-7.27842473983765,-5.72357511520386,-2.3689501285553,-7.9200005531311,-11.6899509429932,0.21106250584126,-0.14107500016689,-0.5380374789238,0.01429999992251,0.42198750376701,1.02533745765686,-15.5239505767822,-13.678050994873,-11.9290504455566,8.62695026397705,8.1670503616333,8.3929500579834,SWING_RIGHT
0.10931249707937,0.13062499463558,0.18163749575615,1.44600009918213,1.25400006771088,1.27995002269745,0.05788749828935,0.08552499860525,0.24626250565052,-0.02076249942183,-0.11329999566078,-0.32092499732971,4.56405019760132,4.17105007171631,3.75495028495789,8.97705078125,9.36705017089844,9.89400005340576,0.68296247720718,0.63827496767044,0.37221249938011,2.72700023651123,4.91595029830933,6.73905038833618,0.05788749828935,-0.45925000309944,-0.70840001106262,0.16541250050068,-0.54436248540878,-0.91891247034073,7.84500026702881,7.69905042648315,7.3690505027771,7.75995016098022,6.46500015258789,9.7600507736206,-5.08722496032715,-7.04742479324341,-7.51684999465942,21.6169509887695,15.7180509567261,19.6480503082275,0.73576247692108,-0.88824999332428,-0.93610000610352,-0.08456250280142,1.17328751087189,1.10192501544952,-15.5940008163452,-21.8569507598877,-19.3540515899658,9.66405010223389,6.40905046463013,8.07600021362305,-8.23198699951172,-6.88888740539551,-6.18860006332397,-0.26295000314713,-3.94005012512207,-5.73600006103516,1.26046252250671,0.83902502059937,0.29411250352859,0.43999999761581,0.40603750944138,0.32931250333786,-16.9729499816895,-17.1389999389648,-16.6020011901855,6.05700016021729,5.21205043792725,6.3400502204895,-1.85418748855591,-0.0449624992907,0.69354999065399,-10.78005027771,-10.4659509658813,-9.00495052337646,0.32504999637604,-0.4657124876976,-0.6434999704361,-0.27513748407364,-0.06008749827743,-0.06655000150204,-5.82405042648315,-2.07105016708374,-0.47895002365112,4.8550500869751,6.0600004196167,8.44799995422363,SWING_RIGHT
-1.07414996623993,-1.76577496528625,-2.4065248966217,10.1800508499146,10.7290506362915,11.3040008544922,0.56663751602173,0.71665000915527,1.06136250495911,-0.31556248664856,-0.63167500495911,-0.58052498102188,2.19300007820129,2.17905020713806,0.90195006132126,12.4759502410889,14.1670503616333,13.8870010375977,-5.67682504653931,-6.96024990081787,-8.35326290130615,18.1650009155273,15.961950302124,10.9660501480103,0.18342499434948,0.08662500232458,0.31748750805855,-0.85194998979568,-0.48798748850822,0.33041250705719,-15.2110509872437,-15.8950510025024,-16.818000793457,10.4590501785278,10.8210000991821,8.91495037078857,-8.65974998474121,-8.56295013427734,-8.62784957885742,0.96000003814697,-0.0430500023067,-1.0150500535965,2.15435004234314,1.80427503585815,0.79323750734329,-2.54608750343323,-0.30167499184608,0.32931250333786,-19.5120010375977,-18.9349517822266,-16.9609508514404,16.5910511016846,8.26605033874512,5.84400033950806,-2.4554750919342,-1.17727494239807,0.17215000092983,-11.9269504547119,-12.9760503768921,-10.9549503326416,-0.08470000326633,-0.5986750125885,-0.85098749399185,0.97006249427795,0.23567499220371,0.17929999530315,-6.56700038909912,-3.46305012702942,-1.93305003643036,7.29600048065186,6.63000011444092,7.97100019454956,2.64742493629456,2.16108751296997,1.75559997558594,-1.37205004692078,0.12600000202656,-0.34995001554489,-0.9179499745369,-0.54449999332428,0.03121249936521,-0.1229249984026,-0.23251250386238,-0.46351251006126,1.40805006027222,1.16805005073547,1.03200006484985,11.2999505996704,11.60205078125,11.167950630188,SWING_RIGHT
0.95644998550415,1.09793746471405,1.09683752059937,-0.56505000591278,-0.22305001318455,0.37500002980232,0.26757499575615,0.18452499806881,0.10889999568462,-0.16224999725819,-0.22935000061989,-0.21119999885559,3.5440502166748,3.92895007133484,4.71495008468628,9.03705024719238,9.24300003051758,9.46995067596436,-0.07686249911785,-0.18122500181198,-0.03011249937117,1.77900004386902,0.49005001783371,0.62205004692078,-0.04537500068545,-0.03052499890327,-0.06875000149012,0.0472999997437,-0.00797499995679,-0.30483749508858,3.84300017356873,4.06605005264282,4.56900024414063,9.90105056762695,9.421950340271,10.3680000305176,0.03478749841452,-0.03753750026226,-1.81898748874664,6.47295045852661,11.4900007247925,27.5040016174316,0.67402499914169,1.40195000171661,1.75958752632141,-0.28036248683929,0.26771250367165,-0.23993749916553,6.11400032043457,-1.39395010471344,-11.0340003967285,19.0099506378174,15.1230010986328,7.92495059967041,-8.39258766174316,-9.14072513580322,-9.68673706054688,13.8469505310059,11.0899505615234,6.87495040893555,1.24121248722076,1.37431252002716,1.30831253528595,-1.86078751087189,-2.36307501792908,-2.47156238555908,-20.1709518432617,-18.3930015563965,-16.0390510559082,10.6849508285522,10.921950340271,12.046950340271,-7.53802490234375,-6.7846622467041,-6.10032510757446,-2.86200022697449,-3.83895015716553,-3.57600021362305,0.90172499418259,0.07273750007153,-0.7732999920845,-1.41803753376007,-1.29992496967316,-1.1339625120163,-12.0799503326416,-12.41100025177,-12.6859502792358,8.48099994659424,8.44995021820068,9.6670503616333,SWING_RIGHT
0.3605250120163,0.23388749361038,0.16994999349117,1.37895011901855,1.46205008029938,1.15095007419586,-0.13255000114441,0.10999999940395,0.17393749952316,-0.23361249268055,-0.49004998803139,-0.61668747663498,3.56805014610291,5.92695045471191,6.55695009231567,10.5480003356934,11.0290508270264,11.7019510269165,-0.8761500120163,-1.53491246700287,-2.25857496261597,11.5120506286621,13.1170501708984,14.2470006942749,0.50916248559952,0.59001249074936,0.53143751621246,-0.64968746900558,-0.21972499787807,0.11123749613762,3.4740002155304,0.96000003814697,-2.36595010757446,12.2749509811401,11.1760501861572,9.43005084991455,-6.69102478027344,-7.67538738250732,-10.4476623535156,14.0149507522583,16.9489517211914,13.0590009689331,-0.27527499198914,0.0323125012219,0.51342499256134,-1.71819996833801,-1.94480001926422,-1.87783753871918,-21.2680511474609,-20.6280002593994,-19.7899513244629,11.8920001983643,13.7880010604858,12.5569505691528,-9.50688743591309,-8.76411247253418,-8.10851287841797,0.97605001926422,0.27195000648499,-0.32100000977516,-1.74803745746613,-1.90987503528595,-1.38833749294281,0.32078748941422,1.10948753356934,1.07428753376007,-18.235050201416,-18.6310501098633,-17.90505027771,7.87995052337646,11.7289505004883,12.4999504089355,-0.14396250247955,1.1863499879837,1.92802500724792,-10.8919506072998,-7.80795049667358,-5.22105026245117,1.35836243629456,1.48500001430511,1.00498747825623,-0.2771999835968,0.0686125010252,0.15482500195503,-7.06500053405762,-3.54900026321411,-2.24100017547607,10.1029500961304,6.08595037460327,5.71500015258789,SWING_RIGHT
0.48289999365807,0.45512500405312,0.40191251039505,0.22905001044273,0.28695002198219,0.11595000326633,-0.22522500157356,-0.17627499997616,-0.08153750002384,0.19208750128746,0.18150000274181,-0.05376249924302,3.43605017662048,3.22095012664795,3.08400011062622,9.37395000457764,9.31695079803467,9.09195041656494,0.73933750391006,0.71266251802444,0.64143747091293,0.49005001783371,0.58095002174377,-0.03105000220239,-0.35186249017715,-0.33907499909401,-0.39338749647141,0.25066250562668,0.16541250050068,0.06435000151396,3.09405016899109,3.5179500579834,4.22595024108887,9.2359504699707,9.14505004882812,9.40605068206787,0.55206251144409,-0.09927500039339,-0.52607500553131,5.51205015182495,11.5410003662109,20.1049518585205,0.12498749792576,-0.07933750003576,0.02378750033677,-1.10728752613068,-0.60500001907349,-0.75927501916885,6.07800006866455,-1.78905010223389,-6.28905010223389,13.5559511184692,13.5490503311157,15.8460006713867,-8.48732471466064,-9.58141231536865,-10.1762371063232,22.3450508117676,19.2930011749268,15.3820505142212,1.6275874376297,1.20614993572235,0.66453748941422,-1.33182501792908,-1.28713750839233,-1.01048743724823,-16.7770500183105,-18.3190517425537,-18.5350513458252,9.90900039672852,8.30205059051514,9.64800071716309,-10.4614124298096,-10.7339372634888,-10.4966125488281,11.4109506607056,7.23195028305054,3.20595026016235,-1.29153752326965,-1.38091254234314,-1.08721244335175,-0.03987500071526,0.84438747167587,1.07222497463226,-24.4219512939453,-24.3979511260986,-23.6070003509521,10.1580009460449,11.4940509796143,12.0040502548218,SWING_RIGHT
0.65106248855591,0.62975001335144,0.56911247968674,0.57405000925064,0.41595003008842,0.70605003833771,-0.01773750036955,-0.04221250116825,-0.10807500034571,0.19525000452995,0.10587500035763,0.0867625027895,3.26595020294189,3.22995018959045,5.31600046157837,9.35295009613037,9.27405071258545,10.4260501861572,-0.23443749547005,-0.69629997014999,-0.75267499685287,4.98600006103516,3.76905012130737,4.08000040054321,0.18246249854565,0.25685000419617,0.46860000491142,-0.60390001535416,-0.71885001659393,-0.73383748531342,5.65200042724609,6.97800016403198,7.06005048751831,13.0129508972168,14.9839506149292,17.002950668335,-3.33767509460449,-4.27941226959229,-5.18718767166138,17.0279998779297,18.0100517272949,23.1880512237549,2.43003749847412,2.3310375213623,1.95648753643036,-1.13066244125366,-0.80189996957779,-0.23787499964237,-2.02800011634827,-8.34405040740967,-15.6079511642456,14.8900508880615,11.9350509643555,8.38094997406006,-11.0287370681763,-10.8286752700806,-10.4007749557495,9.55305004119873,6.5779504776001,1.23300004005432,1.0922999382019,0.76669996976852,0.31542500853539,-0.37303748726845,-0.48262500762939,0.02076249942183,-19.0470008850098,-17.8309516906738,-17.239049911499,5.84895038604736,6.00495052337646,7.03200054168701,-5.91937494277954,-5.3766622543335,-4.66578769683838,-5.34600019454956,-7.81995058059692,-10.4209508895874,0.55701249837875,0.81661248207092,0.92949998378754,0.48262500762939,0.47093749046326,0.54009997844696,-16.1299514770508,-15.0450010299683,-13.5510005950928,9.72405052185059,9.38400077819824,7.81095027923584,SWING_RIGHT
0.4476999938488,0.4658499956131,0.44247499108315,-0.12000000476837,0.02805000171065,0.36300000548363,-0.09212499856949,-0.08689999580383,-0.01443750038743,-0.06764999777079,-0.09418749809265,-0.04523750022054,2.96400022506714,3.21105003356934,3.51300024986267,9.60000038146973,10.2970504760742,10.0999507904053,0.15936249494553,0.11783749610186,0.17957499623299,0.88305002450943,0.55200004577637,0.8400000333786,-0.01017499994487,-0.00921249948442,0.03341250121593,0.14313749969006,0.10051249712706,-0.0472999997437,3.28500008583069,3.57705020904541,4.42005014419556,10.0740003585815,10.3470001220703,11.0320501327515,0.1348875015974,-0.18658749759197,-0.91341251134872,6.55200052261353,11.5980005264282,21.3100509643555,-0.0527999997139,0.022824998945,0.26111251115799,-0.63057500123978,0.02392499893904,0.6678375005722,12.2329502105713,5.29005002975464,-4.31805038452148,16.2430515289307,16.6549510955811,17.601001739502,-9.64204978942871,-10.1155996322632,-10.1858625411987,22.078950881958,18.235050201416,18.0960006713867,2.2980375289917,3.11849999427795,3.17281246185303,2.10017490386963,-0.04303750023246,-0.06338749825954,-22.5060005187988,-23.4040508270264,-22.828950881958,8.91495037078857,10.1430006027222,7.95705032348633,-9.66968727111816,-8.38832473754883,-7.73176240921021,5.4859504699707,-0.19395001232624,-1.92105007171631,1.53174996376038,1.15293753147125,0.60280001163483,-0.00261249998584,0.39751249551773,1.12323749065399,-22.230001449585,-23.3850002288818,-24.0979518890381,7.81500053405762,7.60695028305054,7.81095027923584,SWING_RIGHT
-0.57502502202988,-1.06136250495911,-1.7019749879837,7.85505056381226,10.0099506378174,11.0470504760742,1.08803749084473,1.01997494697571,0.95177501440048,-0.23677499592304,-0.3272500038147,-0.18466250598431,5.26095008850098,3.6540002822876,0.0949500054121,12.8929510116577,13.8460502624512,14.9479503631592,-7.04646253585815,-9.00033760070801,-9.4940996170044,17.6909999847412,14.7859506607056,11.8420505523682,2.06497502326965,1.65632498264313,1.23282504081726,-0.31982499361038,-0.81152498722076,-0.99879997968674,-21.2320518493652,-22.0390510559082,-22.2589511871338,5.08500003814697,5.35605049133301,6.42600011825562,-8.84592533111572,-8.1298246383667,-7.13583755493164,-3.39795017242432,-6.73695039749146,-9.97005081176758,1.10082495212555,0.90392500162125,0.14726249873638,0.16541250050068,0.37193748354912,0.26977500319481,-21.0330009460449,-21.1140003204346,-18.4489517211914,9.89895057678223,8.64600086212158,9.68595027923584,-0.3301374912262,2.43031239509583,3.16359996795654,-14.2219505310059,-9.14895057678223,-4.7590503692627,0.79433751106262,0.45801249146461,-0.57213747501373,1.10302495956421,1.11691248416901,0.89017498493195,-2.44500017166138,0.52095001935959,3.82905006408691,5.21400022506714,3.54000020027161,3.87600016593933,-0.09501250088215,-0.18122500181198,0.80643749237061,-2.26605010032654,-6.56895017623901,-6.53805017471313,-0.13365000486374,-0.11453749984503,-0.36671251058578,-0.70936250686646,-0.64006251096725,-0.46351251006126,0.39900001883507,0.4570500254631,-0.99795007705688,8.2369499206543,7.56600046157837,10.1790008544922,SWING_RIGHT
-0.19937500357628,-0.09391249716282,-0.01842499896884,-0.00195000006352,-0.1000500023365,0.03000000119209,-0.1199000030756,-0.19428749382496,-0.27527499198914,0.30387499928474,0.39957499504089,0.37193748354912,3.11505007743835,2.88000011444092,2.67405009269714,9.21195030212402,8.87400054931641,9.13500022888184,0.02199999988079,0.08167500048876,0.1380500048399,-0.79695004224777,-0.84300005435944,-0.25394999980927,-0.20927499234676,-0.17091250419617,-0.02406249940395,-0.04633750021458,-0.34966251254082,-0.7177500128746,3.22995018959045,3.81000018119812,4.76100015640259,10.1890506744385,10.9170007705688,12.0619506835938,-0.77398747205734,-1.44649994373322,-3.38978743553162,11.4070501327515,14.439001083374,23.3430004119873,1.24341249465942,1.28919994831085,1.04761254787445,-0.30813750624657,-0.00164999999106,-0.02612499892712,1.85805010795593,-4.59105014801025,-10.3410005569458,15.6400508880615,13.2829504013062,12.9000005722046,-10.3008127212524,-11.0116872787476,-11.0435876846313,17.4829502105713,12.6810007095337,7.38105058670044,1.92981243133545,2.55241250991821,2.7971625328064,1.66925001144409,1.28507494926453,0.68901246786118,-20.9010009765625,-19.6720504760742,-19.1119518280029,7.77705049514771,5.91795015335083,4.04805040359497,-7.79460000991821,-7.22411251068115,-6.03226232528687,-3.29100012779236,-8.85900020599365,-11.613000869751,0.91561251878738,0.86666250228882,0.88907498121262,-0.75501251220703,0.10271249711514,0.58368748426437,-20.8890018463135,-20.7139511108398,-19.3800010681152,10.7560501098633,10.1620502471924,8.95800018310547,SWING_RIGHT
-0.51328748464584,-0.6569749712944,-1.14537501335144,4.80405044555664,7.46700048446655,10.5199508666992,1.1475750207901,1.30831253528595,1.74886250495911,-0.41552498936653,-0.45182499289513,-0.86253750324249,5.95800018310547,4.41795015335083,3.01005005836487,13.3429508209229,14.2990503311157,14.9929504394531,-4.30498743057251,-5.23517513275146,-6.00558757781982,13.7149505615234,14.0989503860474,12.6450004577637,1.49888753890991,1.55952501296997,1.37857496738434,-0.5986750125885,0.05802499875426,0.33687499165535,-3.91605019569397,-6.15705013275146,-8.71305084228516,14.0950508117676,10.8280506134033,8.00699996948242,-8.43301200866699,-9.3600378036499,-10.634937286377,14.1250505447388,14.4600009918213,7.21095037460327,1.41789996623993,2.80678749084473,1.99691247940063,-0.57736247777939,-1.80015003681183,-0.88701248168945,-22.8270015716553,-21.7420501708984,-20.074951171875,14.5500011444092,10.3920001983643,9.71505069732666,-7.02295017242432,-5.89283752441406,-3.5844874382019,-9.48405075073242,-11.7379503250122,-11.812050819397,0.90392500162125,0.49307498335838,0.174899995327,-0.10381250083447,0.42198750376701,0.75927501916885,-16.2550506591797,-14.2500009536743,-11.7550506591797,8.23200035095215,7.81500053405762,7.79100036621094,1.42999994754791,1.72906243801117,1.91633749008179,-6.28005027770996,-5.36700010299683,-4.91895008087158,-0.14863750338554,-0.35928750038147,-0.5295125246048,0.42941248416901,0.25588750839233,0.15592500567436,-1.57800006866455,-0.50295001268387,0.40605002641678,5.10705041885376,5.60700035095215,6.08400011062622,SWING_RIGHT
-1.62112498283386,-2.48847508430481,-3.66863751411438,15.5910005569458,16.7670001983643,13.3900508880615,1.42862498760223,1.03908753395081,0.96029996871948,-2.28428745269775,-2.32471251487732,-2.14596247673035,-7.95600032806396,-9.22305011749268,-12.0349502563477,15.5680503845215,17.1439514160156,20.2930507659912,-6.6483998298645,-7.15604972839355,-7.18478727340698,8.55405044555664,3.41205024719238,2.10195016860962,1.6574250459671,1.60737502574921,1.72548747062683,-2.70146250724792,-2.15668749809265,-1.57134997844696,-17.6220016479492,-18.2070007324219,-18.5610008239746,14.6290502548218,14.7390003204346,12.1050004959106,-7.28901243209839,-6.8718376159668,-5.96626234054565,-5.61405038833618,-8.67000007629395,-21.8710517883301,0.67938750982285,0.34306249022484,-0.50833749771118,-1.53945004940033,-2.23849987983704,-1.52020001411438,-8.50395011901855,-4.04295015335083,0.76095002889633,5.82300043106079,5.95005035400391,8.14305019378662,1.00746250152588,0.48606249690056,0.23911249637604,-4.97400045394897,-4.51200008392334,-5.03205013275146,-0.20281249284744,-0.22522500157356,-0.22948749363422,0.03561250120401,0.1409374922514,0.38362500071526,4.96695041656494,5.26095008850098,5.10300016403198,9.32700061798096,9.41295051574707,9.54900074005127,-0.06201250106096,0.2231625020504,0.21147499978542,-5.5900502204895,-3.95895028114319,-3.6739501953125,-0.17311249673367,-0.16458749771118,-0.20391249656677,0.31982499361038,0.2441999912262,0.1537249982357,4.17105007171631,4.07295036315918,4.0639500617981,8.98905086517334,8.27505016326904,8.6419506072998,SWING_RIGHT
0.15716250240803,-0.07796250283718,-0.35365000367165,1.34805011749268,1.60095012187958,0.38205000758171,0.45691248774529,0.41868749260902,0.45911249518394,0.19841249287128,-0.49224999547005,0.33893749117851,2.30100011825562,2.74905014038086,2.24805021286011,9.97305011749268,10.6819505691528,13.8799505233765,-1.48912501335144,-1.54770004749298,-1.77746248245239,5.46195030212402,5.11200046539307,9.23205089569092,1.08267498016357,0.9315624833107,1.15183746814728,-1.88416254520416,-1.79052495956421,-1.65962493419647,-1.42695009708405,-3.01005005836487,-5.54700040817261,15.6900005340576,18.2380504608154,20.4319515228271,-5.82477474212646,-6.34301233291626,-7.49553728103638,10.1880006790161,9.20100021362305,4.95195007324219,3.04081249237061,2.97591257095337,2.70875000953674,-2.98031258583069,-3.00904989242554,-3.03888750076294,-22.4269504547119,-22.9369506835938,-21.1360511779785,17.0599498748779,14.9500503540039,12.5449504852295,-6.90167474746704,-6.42386245727539,-5.82793760299683,-10.5640506744385,-10.4470500946045,-21.0430507659912,1.6744749546051,1.27215003967285,0.85497498512268,-1.54467499256134,-1.35107493400574,-1.17218744754791,-7.17300033569336,-0.8929500579834,0.71505004167557,8.30895042419434,4.79295015335083,4.17705011367798,-0.89099997282028,0.25616249442101,0.37743750214577,-12.9160509109497,-9.70395088195801,-7.55400037765503,-0.37743750214577,-0.31253749132156,-0.16664999723434,0.28998750448227,0.07823749631643,-0.51026248931885,4.54995012283325,4.90200042724609,5.25900030136108,8.59605026245117,7.61895036697388,8.52705001831055,SWING_RIGHT
0.27321249246597,0.06352499872446,-0.63249999284744,4.39604997634888,6.25500011444092,8.11800003051758,0.44412499666214,0.25685000419617,0.16747500002384,-0.31666249036789,-0.89980000257492,-1.53725004196167,2.83500003814697,1.71405005455017,0.96900004148483,10.0399503707886,11.053050994873,14.2720508575439,-1.87756252288818,-2.65443754196167,-3.75375008583069,13.0639505386353,16.4700012207031,14.2519502639771,1.68932497501373,1.90313744544983,1.75628745555878,-2.31096243858337,-3.0271999835968,-2.40350008010864,-4.45905017852783,-5.44605016708374,-7.08405017852783,17.8380012512207,18.1350002288818,18.844051361084,-6.12163734436035,-6.80913734436035,-7.12511253356934,13.0399503707886,9.37604999542236,5.86005020141602,2.63106250762939,3.17913746833801,3.53883743286133,-2.01079988479614,-2.02784991264343,-1.96721243858337,-18.1489505767822,-19.981050491333,-20.6830501556396,20.344051361084,18.6910514831543,15.1579504013062,-7.24968767166138,-6.71976232528687,-5.49271249771118,-6.45705032348633,-9.50295066833496,-11.1799507141113,1.81169998645782,1.89571249485016,1.09656250476837,-1.89695000648499,-2.3365375995636,-2.63876247406006,-10.6240501403809,-6.06600046157837,-0.56295001506805,8.35395050048828,5.10195016860962,4.21095037460327,-0.10670000314713,0.29342499375343,0.42006251215935,-13.4340009689331,-9.50100040435791,-7.60905027389526,-0.50503748655319,-0.598812520504,-0.52525001764297,-0.46241250634193,-0.56141251325607,0.23471249639988,4.4320502281189,4.93800020217896,5.56995010375977,5.98800039291382,7.53000020980835,8.26605033874512,SWING_RIGHT
-0.35048750042915,-1.0176374912262,-1.16558754444122,5.8090500831604,5.63505029678345,7.54305028915405,0.54202497005463,0.8485124707222,1.01145005226135,-0.25272500514984,-0.39957499504089,-0.92537498474121,0.60300004482269,-0.70095002651215,-2.81595015525818,15.0769510269165,14.872950553894,16.2910499572754,-3.60263752937317,-4.26456260681152,-4.87973737716675,11.3230504989624,11.0400009155273,12.1440010070801,2.53316259384155,2.6747875213623,2.96848750114441,-1.33828747272491,-2.18954992294312,-3.35389995574951,-15.8449506759644,-18.1900501251221,-20.8080005645752,16.8880500793457,18.0949516296387,19.7760009765625,-8.59265041351318,-8.83533763885498,-8.96307468414307,0.29895001649857,-2.31600022315979,-5.88705015182495,1.68396246433258,1.82971251010895,1.70527493953705,-3.57197499275208,-2.68551254272461,-1.24134993553162,-19.7470512390137,-14.9470510482788,-9.67800045013428,16.7029514312744,14.5810508728027,9.65700054168701,-4.16033744812012,-3.48562502861023,-1.01337504386902,-17.8279514312744,-18.4339504241943,-20.6350517272949,0.08868750184774,-1.44801247119904,-1.3894374370575,-0.19318750500679,0.14423750340939,0.11866249889135,2.32500004768372,3.51000022888184,3.69000005722046,2.7810001373291,7.53705024719238,10.6969509124756,0.83723747730255,0.83613747358322,0.64459997415543,-5.68605041503906,-3.882000207901,-2.76900005340576,-0.31253749132156,-0.21670000255108,-0.11769999563694,0.46351251006126,0.51988750696182,0.56141251325607,4.65795040130615,4.63395023345947,4.24095010757446,8.93895053863525,8.6220006942749,7.64505052566528,SWING_RIGHT
0.17847499251366,0.07741250097752,-0.18975000083447,-0.58200001716614,0.80100005865097,1.87005007266998,-0.38376250863075,0.10257499665022,0.34842500090599,0.5378999710083,0.21449999511242,-0.36987498402596,2.44005012512207,1.5660001039505,1.25895011425018,12.6559505462646,12.1260004043579,10.6680002212524,-0.89636248350143,-1.19652497768402,-2.21058750152588,4.92600011825562,6.88500022888184,10.1520004272461,1.22319996356964,1.97986245155334,2.06607508659363,-0.58368748426437,-1.92994999885559,-2.74615001678467,-1.6429500579834,-6.04995012283325,-7.65705013275146,17.0460014343262,15.9660005569458,16.6339511871338,-4.54877519607544,-5.36923742294312,-6.92834997177124,13.6440010070801,18.5100002288818,17.2579517364502,3.08660006523132,3.28349995613098,3.19096255302429,-3.5986499786377,-4.13503742218018,-3.72528743743896,-24.4480514526367,-25.17405128479,-24.7450504302979,19.2060012817383,18.2940006256104,14.8900508880615,-8.1628246307373,-7.30826234817505,-6.43128728866577,-10.9860000610352,-13.5559511184692,-14.5180511474609,0.81661248207092,1.17314994335175,1.47757494449615,-1.28713750839233,-1.69798743724823,-1.82242500782013,-12.4279508590698,-9.63495063781738,-6.75405025482178,11.367000579834,11.0050506591797,8.35200023651123,-2.57991242408752,-1.00594997406006,1.07140004634857,-24.3960018157959,-22.1560516357422,-11.4150009155273,-0.96909999847412,-1.21811246871948,-1.34584999084473,-0.32188749313354,0.32931250333786,0.71678751707077,3.27600026130676,3.56505012512207,3.87000012397766,7.70505046844482,8.83995056152344,11.1730508804321,SWING_RIGHT
0.01457499992102,-0.26317501068115,-0.63992500305176,3.00195002555847,4.80795001983643,5.80200004577637,0.09831249713898,0.518649995327,0.62823748588562,-0.03891250118613,-0.43161249160767,-0.60500001907349,2.44005012512207,0.85395002365112,-0.3570000231266,12.6199502944946,13.9729509353638,13.44105052948,-2.53522491455078,-3.05882501602173,-4.01128768920898,11.3680505752563,14.0550003051758,14.1730508804321,1.44457495212555,1.84786248207092,1.8660124540329,-2.56203746795654,-3.23674988746643,-3.45070004463196,-8.77500057220459,-11.5560007095337,-12.7560005187988,19.795051574707,18.7579517364502,18.6289501190186,-5.93326234817505,-6.697350025177,-7.75417518615723,11.4109506607056,13.7920503616333,13.3489503860474,3.14833736419678,3.98268747329712,4.04868745803833,-1.29030001163483,-2.36527490615845,-3.63687491416931,-24.4669513702393,-28.6009521484375,-29.6190013885498,20.53005027771,16.0810508728027,13.2180004119873,-9.79838752746582,-9.35467529296875,-8.30431270599365,-8.41394996643066,-15.1240510940552,-21.5790004730225,1.83933746814728,1.73717498779297,1.25399994850159,-1.25839996337891,-1.4499374628067,-2.13963747024536,-17.4589500427246,-13.1629505157471,-4.9980001449585,8.44500064849854,6.16995048522949,5.22600030899048,-1.04211246967316,0.21257500350475,1.39810001850128,-24.4390506744385,-19.6819515228271,-10.9789505004883,-1.2500125169754,-1.54481244087219,-1.42986249923706,-0.23361249268055,-0.23251250386238,-0.00481249997392,3.58905005455017,3.8580002784729,4.40805006027222,5.51595020294189,9.02205085754394,10.9620008468628,SWING_RIGHT
-2.07019996643066,-2.56080007553101,-2.80981254577637,9.75405025482178,8.45805072784424,8.83395004272461,0.67938750982285,0.96992498636246,1.22952497005463,-2.55997490882874,-2.24606251716614,-1.08074998855591,-2.23395013809204,-4.11705017089844,-8.02995014190674,17.8650016784668,17.9610004425049,17.8620014190674,-5.34049987792969,-5.86836242675781,-6.61966228485107,10.6069507598877,12.1680002212524,10.6309509277344,2.88969993591309,2.86948752403259,2.69706249237061,-0.96786248683929,-0.74126249551773,-0.73589998483658,-19.2439517974854,-19.6390514373779,-20.053050994873,15.0120010375977,12.9330005645752,12.6600008010864,-8.00841236114502,-8.57890033721924,-8.40111255645752,1.77105009555817,-2.74695014953613,-23.2320003509521,3.35898756980896,2.17566251754761,0.40700000524521,-1.96185004711151,-1.77773749828339,-0.73273748159409,-19.0570507049561,-11.4720001220703,-2.93595004081726,2.70195007324219,0.39300000667572,1.38000011444092,0.12526249885559,1.06397497653961,1.73222494125366,-18.4870510101318,-14.1469507217407,-4.59794998168945,-1.44471251964569,-1.27668750286102,-0.54339998960495,0.47299998998642,0.75817501544952,0.22824999690056,3.64395022392273,4.03200006484985,4.70504999160767,10.6129503250122,11.0959501266479,12.0739507675171,0.07631249725819,-0.02791249938309,-0.11948750168085,-2.85000014305115,-3.11595010757446,-3.70005011558533,0.06957499682903,-0.06242499873042,-0.03684999793768,0.02186249941587,-0.0622874982655,-0.04839999973774,3.38295006752014,3.32100009918213,3.40995025634766,8.12895011901855,9.05595016479492,9.6739501953125,SWING_RIGHT
-1.84566247463226,-2.35647487640381,-2.97907495498657,8.02995014190674,9.01200008392334,9.30105018615723,1.21893751621246,1.54357504844666,1.16682493686676,-1.31271255016327,-1.14565002918243,0.07823749631643,-4.86900043487549,-6.9859504699707,-7.69305038452148,15.4870510101318,13.3690509796143,13.4680509567261,-5.36181259155273,-6.01837491989136,-6.46222496032715,10.3020000457764,8.60700035095215,4.77705001831055,2.18954992294312,1.86064994335175,1.57327497005463,-2.79083752632141,-2.88873744010925,-1.90327501296997,-12.3799505233765,-12.2530508041382,-13.5750007629395,11.6830501556396,13.1680507659912,13.6690502166748,-7.39763736724854,-7.62643766403198,-7.86266231536865,2.44395017623901,-0.11505000293255,-6.01905012130737,2.23313736915588,2.29267501831055,1.48816251754761,-2.12368750572205,-2.09165000915527,-0.25272500514984,-18.646951675415,-15.153000831604,-8.05200004577637,13.8100509643555,11.896050453186,3.25500011444092,-3.00561237335205,-1.65302503108978,-0.49403750896454,-22.2400512695313,-20.5519504547119,-17.5189514160156,-0.34553748369217,-0.65298748016357,-0.8456249833107,-0.71142500638962,-0.37509998679161,0.12608750164509,0.45900002121925,1.02705001831055,1.84095013141632,6.48405027389526,7.99305057525635,9.19200038909912,0.91602498292923,0.82238751649857,0.77549999952316,-5.58705043792725,-4.72800016403198,-3.05805015563965,-0.1740749925375,-0.22096249461174,-0.20074999332428,0.11439999938011,0.4475624859333,0.49967500567436,3.70695018768311,3.23505020141602,3.10605025291443,9.58005046844482,9.29805088043213,9.17805004119873,SWING_RIGHT
0.15716250240803,0.10615000128746,0.07204999774694,-0.34200000762939,-0.4909500181675,-0.48105001449585,0.07919999957085,0.09295000135899,0.12388750165701,-0.00591249996796,-0.01223750039935,-0.0472999997437,1.51800012588501,1.77600014209747,1.92000007629395,9.84600067138672,9.95895004272461,10.0759506225586,-0.08332499861717,-0.26633748412132,-1.19652497768402,2.50005006790161,4.7989501953125,8.88000011444092,0.9092875123024,0.91135001182556,0.60060000419617,0.55494999885559,-0.05582499876618,-2.64302492141724,-0.67005002498627,-1.49700009822845,-3.49605011940002,12.363000869751,10.3470001220703,15.5610008239746,-3.85054993629456,-4.4763126373291,-5.18512487411499,10.2520503997803,10.0249500274658,9.17205047607422,1.18483746051788,1.78090000152588,2.12671256065369,-1.84263753890991,-1.51277494430542,-1.33512496948242,-10.9380006790161,-12.6409502029419,-14.7840003967285,20.4799518585205,18.4560012817383,15.7690505981445,-7.5593376159668,-8.69274997711182,-8.68958759307861,6.73905038833618,-0.77295005321503,-4.92600011825562,1.98948752880096,1.74143743515015,1.34131252765656,-1.99705004692078,-1.61493754386902,-1.60957503318787,-16.185001373291,-15.2299509048462,-9.14400005340576,10.0120506286621,9.53505039215088,8.84295082092285,-4.27528762817383,-3.05456256866455,-2.23300004005432,-19.5360012054443,-17.4330005645752,-15.784951210022,0.24736249446869,0.20047499239445,-0.08579999953508,-0.01223750039935,0.0591249987483,-0.13887499272823,1.02900004386902,2.24805021286011,3.3880500793457,7.33200025558472,5.2020001411438,4.8600001335144,SWING_RIGHT
0.13695000112057,0.21463750302792,0.10724999755621,-0.40905001759529,1.00995004177094,4.27695035934448,-0.1900250017643,0.06324999779463,0.82940000295639,0.41978749632835,1.21371245384216,1.1061874628067,3.01005005836487,0.37995001673698,-1.98300004005432,10.1029500961304,16.090051651001,13.8820505142212,-3.78468751907349,-4.28161239624023,-5.20959997177124,9.74400043487549,8.86305046081543,9.5910005569458,1.74570000171661,2.10223746299744,2.37572503089905,-2.59407496452332,-2.47802495956421,-2.38012504577637,-9.66795063018799,-12.3220510482788,-13.2850503921509,20.1520500183105,20.4300003051758,20.1280517578125,-8.08940029144287,-8.82997512817383,-9.8378496170044,9.89100074768066,7.47195053100586,-1.79895007610321,2.04159998893738,2.08408737182617,1.87660002708435,-3.61886239051819,-1.11691248416901,0.86363750696182,-20.0290508270264,-17.7730503082275,-14.4420003890991,18.5089511871338,14.6460008621216,7.65000057220459,-4.08155012130737,-3.06625008583069,-0.66756248474121,-17.9549999237061,-19.4950504302979,-17.9389514923096,0.77508747577667,0.04619999974966,-0.73383748531342,-1.08281254768372,-0.98175001144409,-0.79970002174377,0.99600005149841,2.3779501914978,3.00300025939941,0.74505001306534,0.75705003738403,2.90295004844666,1.41831254959106,1.52047502994537,1.43962502479553,-7.91805028915405,-5.64705038070679,-4.00395011901855,-1.65013754367828,-1.12227499485016,-0.03684999793768,0.37193748354912,0.23251250386238,-0.06971249729395,3.88905024528503,4.12305021286011,3.91305017471313,12.5119504928589,13.5540008544922,10.4620504379272,SWING_RIGHT
-3.40257501602173,-3.79733753204346,-4.2358250617981,6.54495048522949,6.41805028915405,6.8730001449585,0.21546250581741,0.40163749456406,0.55907499790192,-2.19175004959106,-1.91826248168945,-1.98742496967316,-5.07000017166138,-5.71395015716553,-5.8560004234314,14.15505027771,13.4580001831055,12.4710006713867,-6.05247497558594,-6.21307516098022,-6.20895004272461,2.33700013160706,1.23000001907349,1.08900010585785,0.10573749989271,-0.0591249987483,-0.28159999847412,-1.96611249446869,-1.64367496967316,-1.50108754634857,-6.50505018234253,-6.49305009841919,-7.90995025634766,10.7179508209229,9.96105003356934,11.2690505981445,-7.37948751449585,-7.01346254348755,-6.47171258926392,-4.31805038452148,-7.20405054092407,-9.89400005340576,1.09340000152588,1.56791245937347,1.35189998149872,-0.3091000020504,-0.45814999938011,-0.86680001020432,-7.2330002784729,-5.01300001144409,-2.16705012321472,13.4890508651733,9.11595058441162,7.10895013809204,-2.03293752670288,-1.47317504882813,-0.94104999303818,-11.9650506973267,-10.7580003738403,-10.2289505004883,-0.03684999793768,-0.33054998517036,-0.37633749842644,0.56993746757507,0.57736247777939,0.5986750125885,2.27505016326904,2.84895014762878,3.02895021438599,6.36405038833618,7.75995016098022,8.53905010223389,0.21037499606609,0.20295000076294,0.19016249477863,-4.33200025558472,-3.92505025863647,-3.79800009727478,-0.20707499980927,-0.2230249941349,-0.28049999475479,0.14203749597073,-0.10587500035763,-0.28572499752045,3.4980001449585,3.77595019340515,3.882000207901,8.3299503326416,8.12400054931641,9.44895076751709,SWING_RIGHT
-1.8712375164032,-2.4224750995636,-2.8524374961853,9.02595043182373,8.11605072021484,7.89795017242432,0.77412497997284,0.43353748321533,-0.10601250082254,-1.51703751087189,-2.34176254272461,-2.96546244621277,-2.11199998855591,-4.09800004959106,-4.39200019836426,10.6800003051758,10.9909505844116,14.671950340271,-3.87832498550415,-4.62852478027344,-5.65234994888306,8.09205055236816,10.1880006790161,9.40395069122314,1.12846255302429,0.767662525177,0.60060000419617,-2.07679986953735,-2.36101245880127,-1.94700002670288,-8.47305011749268,-11.8669509887695,-13.5910511016846,13.4680509567261,11.8939504623413,9.8730001449585,-9.5462121963501,-9.45147514343262,-7.99562501907349,3.30900025367737,-11.1529502868652,-16.5949516296387,0.08978749811649,0.33137500286102,0.57832497358322,-2.18954992294312,-1.36372494697571,-0.75611251592636,-10.032000541687,-6.73905038833618,-4.60095024108887,13.8049507141113,13.2900009155273,9.08700084686279,-2.38301253318787,-1.96913743019104,-1.36564993858337,-13.7160005569458,-14.3029508590698,-15.8880004882813,-0.00494999997318,-0.18259999155998,-0.32518750429153,-0.51136249303818,-0.35488748550415,-0.08249999582767,1.26405000686646,2.11199998855591,2.69805002212524,8.11905002593994,8.39505004882813,8.85195064544678,0.57543748617172,0.39765000343323,0.37963750958443,-4.95795011520386,-4.9699501991272,-4.77300024032593,-0.30497500300407,-0.3092375099659,-0.31459999084473,0.49857500195503,0.43573749065399,0.34540000557899,3.43095016479492,3.45795011520386,3.46500015258789,8.62995052337646,8.70900058746338,9.2160005569458,SWING_RIGHT
-0.22797499597073,-0.58354997634888,-0.95700001716614,4.02495002746582,4.76805019378662,5.8090500831604,0.29631251096725,0.47189998626709,0.28352499008179,2.3396999835968,1.97243750095367,0.46667498350143,-0.06195000186563,-1.4800500869751,-1.51605010032654,10.7490005493164,8.425950050354,8.37795066833496,-2.25114989280701,-3.03861236572266,-5.10523748397827,12.5610008239746,14.4460506439209,11.5980005264282,0.49101248383522,0.65271252393723,0.99756246805191,-1.69798743724823,-1.59046244621277,-1.50851249694824,-9.61800003051758,-10.6579504013062,-11.2800006866455,16.6120510101318,17.1250514984131,18.2410507202148,-6.54513740539551,-7.38264989852905,-8.30637454986572,8.74305057525635,8.35800075531006,3.38295006752014,2.27356243133545,2.65567493438721,2.36829996109009,-0.51026248931885,-1.77993750572205,-2.04696249961853,-19.1220016479492,-19.3900508880615,-16.8990001678467,13.9270505905151,11.8080005645752,10.8280506134033,-6.70271253585815,-5.60436248779297,-4.52952480316162,-13.9170007705688,-14.0539503097534,-13.6849508285522,1.34351253509521,0.94118750095367,0.75487500429153,-1.31903743743896,-1.37018752098084,-0.4613125026226,-4.18605041503906,-2.39505004882813,-1.36695003509521,6.32805013656616,8.41200065612793,8.90700054168701,-2.28511238098145,-1.34007501602173,-0.57172501087189,-15.5440511703491,-13.678050994873,-10.6840505599976,0.26647499203682,0.12072499841452,-0.37097498774529,-0.1900250017643,-0.30593749880791,0.34209999442101,1.98195004463196,2.84205007553101,3.92700028419495,6.04995012283325,6.06195020675659,7.77000045776367,SWING_RIGHT
0.14231249690056,-0.29727500677109,-0.86336249113083,4.82505035400391,6.20505046844482,6.73200035095215,0.29837501049042,0.40796250104904,0.51658749580383,0.38582500815392,0.99879997968674,1.33498752117157,1.09395003318787,0.78195005655289,-0.92400002479553,11.6280002593994,11.0100002288818,8.47395038604736,-3.44836258888245,-3.80270004272461,-4.1900372505188,10.0080003738403,10.2190504074097,10.5709505081177,-0.39971250295639,-0.06558749824762,0.21326249837875,-1.76495003700256,-2.13537502288818,-2.2864875793457,-5.80995035171509,-7.92495059967041,-8.83005046844482,15.142050743103,16.5979499816895,15.6180009841919,-5.80346250534058,-6.64097499847412,-7.22301244735718,12.1009502410889,10.0459508895874,8.37195014953613,2.18198752403259,2.5396249294281,2.64921259880066,-1.34035003185272,-0.54546248912811,0.00591249996796,-20.2020015716553,-22.4080505371094,-22.1080513000488,18.8250007629395,15.1990509033203,11.8650007247925,-7.34222507476807,-5.96516227722168,-4.93611240386963,-12.4129505157471,-12.7249507904053,-12.0780010223389,-0.36134999990463,-0.0346499979496,0.4463250041008,-1.15087497234344,-0.39434999227524,-0.1229249984026,-4.11705017089844,-2.70405006408691,-1.54200005531311,12.1789503097534,12.4950008392334,9.77205085754394,-1.47001254558563,-0.73136252164841,-0.37922498583794,-11.8000507354736,-9.84795093536377,-9.55395030975342,-0.18259999155998,-0.51150000095367,-0.5487625002861,-0.24639999866486,-0.00261249998584,0.03781250119209,3.41895008087158,3.95805025100708,3.97695016860962,7.10895013809204,8.26800060272217,9.29295063018799,SWING_RIGHT
-4.98189973831177,-4.96911239624023,-4.90847492218018,5.39505004882813,5.87700033187866,7.59105014801025,0.63896250724792,0.8816499710083,1.01034998893738,-0.22508749365807,-0.7262749671936,-1.23502504825592,-10.3609504699707,-12.1860008239746,-14.5810508728027,12.9840002059937,12.3919506072998,11.8050003051758,-7.53486251831055,-7.87545013427734,-7.92549991607666,3.15300011634827,-0.12000000476837,-2.86005020141602,1.1475750207901,1.10825002193451,0.89649999141693,0.31666249036789,-0.07933750003576,-0.69657498598099,-14.4250507354736,-12.9859504699707,-11.8840503692627,9.90105056762695,8.2630500793457,8.37795066833496,-7.01978731155396,-6.55792474746704,-5.70446252822876,-9.01500034332275,-12.9900007247925,-15.8599510192871,0.11852499842644,0.37922498583794,0.44838750362396,-0.2230249941349,0.07603749632835,-0.21656249463558,-4.93605041503906,-3.36705017089844,-1.84905004501343,10.8690004348755,9.04200077056885,6.93900012969971,-1.35932505130768,-0.69093751907349,-0.15358750522137,-13.2630004882813,-11.9340009689331,-10.5709505081177,-0.03368749842048,-0.54119998216629,-0.67966252565384,-0.09955000132322,0.66247498989105,0.67842501401901,1.86495006084442,2.35605001449585,2.89695024490356,8.87205028533936,8.99400043487549,9.9060001373291,0.81276249885559,0.79035001993179,0.71170002222061,-3.22605013847351,-2.50305008888245,-2.35695004463196,-0.08263749629259,0.01636249944568,0.05678749829531,0.11123749613762,0.18576249480247,0.30813750624657,2.98605012893677,2.94000005722046,2.89005017280579,10.6770000457764,10.4160003662109,9.65505027770996,SWING_RIGHT
-0.23553749918938,-0.25891250371933,-0.30360001325607,2.35095000267029,3.16305017471313,5.16000032424927,0.46227499842644,0.46337500214577,0.05568749830127,-0.41346248984337,0.07397499680519,0.09735000133514,0.591000020504,-0.63000005483627,-1.72395002841949,10.6969509124756,9.30495071411133,7.99005031585693,-3.36104989051819,-4.2719874382019,-4.83821249008179,15.1720504760742,12.4390506744385,10.5349502563477,-1.19583749771118,-0.77439999580383,0.23237499594688,-2.28222489356995,-0.19951249659061,1.07112503051758,-9.32595062255859,-11.5369501113892,-15.3810005187988,19.816951751709,22.1040019989014,18.1429500579834,-7.93828725814819,-8.5225248336792,-9.08008766174316,11.7679510116577,10.5060005187988,9.31305027008057,1.88938748836517,2.5618999004364,2.79290008544922,-2.44928741455078,-1.23282504081726,-0.5293750166893,-25.9110012054443,-28.9390506744385,-31.0060520172119,21.6540012359619,16.3219509124756,10.7920503616333,-10.1219253540039,-8.91412448883057,-7.52537488937378,-12.2580003738403,-16.617000579834,-19.1700000762939,0.68571251630783,0.89856249094009,0.83270001411438,-0.93706250190735,-1.29566252231598,-1.82668745517731,-12.0970506668091,-8.7679500579834,-6.29595041275024,9.70005035400391,8.17005062103271,8.01900005340576,-2.37778759002686,-1.27091252803802,-0.28022500872612,-21.4450511932373,-19.2409515380859,-15.4650011062622,-0.06242499873042,-0.37097498774529,-0.40713748335838,0.02392499893904,-0.58052498102188,-0.87532502412796,1.05300009250641,2.25300002098084,3.19905018806458,5.27205038070679,7.21695041656494,8.87400054931641,SWING_RIGHT
-2.9279248714447,-3.96027493476868,-4.43698740005493,16.873950958252,15.1330509185791,12.8890504837036,-0.18796250224113,-1.03289997577667,-0.82115000486374,-0.90296250581741,-2.25128746032715,-2.13001251220703,-8.81100082397461,-11.3449506759644,-14.8300504684448,6.97005033493042,15.8479509353638,18.400951385498,-8.17024993896484,-8.81938743591309,-8.8364372253418,12.5010004043579,6.91605043411255,5.296950340271,1.28273749351501,2.15861248970032,2.65457487106323,-0.22714999318123,-0.46021249890327,-0.80396246910095,-23.7730503082275,-25.8010520935059,-27.8659515380859,17.9149513244629,15.4339504241943,11.0730009078979,-10.6030378341675,-10.3560876846313,-8.95345020294189,-5.64705038070679,-16.185001373291,-27.844051361084,0.90282499790192,0.93692499399185,0.77412497997284,-0.68062502145767,-1.79684996604919,-1.95222496986389,-12.7320003509521,-7.13505029678345,-3.69300007820129,7.22100019454956,7.52295017242432,6.06495046615601,-1.88925004005432,-1.0176374912262,0.20611250400543,-18.2040004730225,-19.1820011138916,-14.4040508270264,-0.1868624985218,-0.44549998641014,-0.66893750429153,0.09844999760389,0.37936249375343,0.44426250457764,1.66905009746552,2.45700001716614,3.13005018234253,7.06605052947998,6.94800043106079,8.29200077056885,0.77123749256134,0.69891250133514,0.62328749895096,-2.89500021934509,-2.49105000495911,-1.79100012779236,-0.4614500105381,-0.34966251254082,-0.15180000662804,0.62837499380112,0.85717499256134,0.85194998979568,3.99195027351379,3.92700028419495,3.4740002155304,10.9069509506226,11.0290508270264,10.171950340271,SWING_RIGHT
-0.28971248865128,-0.62067496776581,-1.37101244926453,5.82600021362305,9.94995021820068,14.0479507446289,0.18342499434948,0.41222500801086,0.25588750839233,1.12749993801117,1.04981243610382,0.1898874938488,-1.3050000667572,-3.76005029678345,-5.01000022888184,12.1500005722046,9.20700073242188,7.90905046463013,-3.39198756217957,-3.8538498878479,-4.76574993133545,12.0319509506226,14.5780506134033,14.9200506210327,-0.53377497196198,-0.50297498703003,-0.22838750481606,-3.31127500534058,-2.66529989242554,-1.85432493686676,-11.1730508804321,-13.2390003204346,-14.157000541687,17.8770008087158,19.8259506225586,21.0859508514404,-6.99324989318848,-7.54132509231567,-8.55868721008301,8.03894996643066,9.12195014953613,6.24795007705688,1.455162525177,1.92128753662109,1.98948752880096,-1.0008624792099,-0.39957499504089,-0.16445000469685,-22.9540519714355,-24.0739517211914,-21.0949516296387,16.6860008239746,11.9280004501343,6.44505023956299,-7.57748746871948,-6.49838733673096,-5.74695014953613,-15.433051109314,-15.7450504302979,-20.1420001983643,1.02423751354218,0.60912501811981,-0.3965499997139,-1.03606247901917,-1.54261243343353,-0.83490002155304,-5.81505012512207,-2.18595004081726,1.8840000629425,4.01205015182495,3.02505016326904,7.42995023727417,0.02956249937415,0.45622500777245,0.8095999956131,-11.3809509277344,-9.0169506072998,-6.32505035400391,-0.42734998464584,-0.42734998464584,-0.4145624935627,-0.02502499893308,0.07507500052452,0.33261248469353,4.19805002212524,4.68195009231567,5.00205039978027,8.85494995117188,9.43395042419434,10.0090503692627,SWING_RIGHT
0.01251249946654,0.04867500066757,0.07851249724627,0.16200000047684,0.29100000858307,0.50400000810623,0.0599500015378,0.15468749403954,0.12815000116825,0.21119999885559,0.48798748850822,0.55811250209808,2.08800005912781,2.10900020599365,2.05395007133484,9.99000072479248,9.58500003814697,9.52305030822754,-0.41745001077652,-0.95700001716614,-2.03609991073608,6.96405029296875,11.5410003662109,16.3950004577637,0.4281750023365,0.33247500658035,0.54848748445511,2.26407504081726,2.92173743247986,2.08422493934631,-0.74205005168915,-4.15005016326904,-7.963050365448,11.050950050354,10.7179508209229,11.3620510101318,-5.04033756256104,-5.03937482833862,-5.81721258163452,7.77300024032593,11.4109506607056,12.8959503173828,2.01066255569458,2.53852510452271,2.78437495231628,-2.10237503051758,-1.52336251735687,-0.86253750324249,-17.1000003814697,-19.0309505462646,-20.0770511627197,21.2130012512207,17.9250011444092,13.7359504699707,-8.10315036773682,-7.41248750686646,-6.69102478027344,-2.65095019340515,-10.6120500564575,-12.8130006790161,0.89649999141693,0.64528751373291,0.40479999780655,-0.7401624917984,0.06544999778271,-0.91574996709824,-11.1870002746582,-8.38695049285889,-5.08905029296875,7.20900011062622,6.62295007705688,5.58795022964478,-2.12547492980957,-1.10494995117188,0.49348750710487,-18.5059509277344,-17.5099506378174,-11.1529502868652,-0.19855000078678,-0.65092498064041,-0.82541251182556,0.71458750963211,0.84974998235703,-0.09955000132322,1.86705005168915,2.31000018119812,3.02895021438599,5.99295043945313,6.68505048751831,9.54000091552734,SWING_RIGHT
0.05499999970198,-0.02694999985397,-0.14602500200272,0.88305002450943,1.14900004863739,1.93905007839203,-0.03575000166893,-0.19332499802113,-0.2261874973774,0.37193748354912,0.30057498812675,-0.18576249480247,2.55495023727417,3.37905025482178,4.1380500793457,8.54594993591309,8.425950050354,10.0450506210327,-1.75518751144409,-2.61511254310608,-3.36751246452332,10.360050201416,8.78205013275146,8.75505065917969,0.20790000259876,0.09831249713898,-0.05169999971986,-1.06149995326996,-1.30102503299713,-1.6160374879837,-2.25600004196167,-2.67705011367798,-2.90505003929138,12.3319501876831,12.0379505157471,13.7329502105713,-4.39120006561279,-4.88606262207031,-5.31712484359741,10.2589502334595,9.7900505065918,8.97300052642822,0.91135001182556,1.25826251506805,1.4499374628067,-1.78846251964569,-1.62662494182587,-0.97212499380112,-10.7869501113892,-12.0160503387451,-13.0840501785278,16.9330501556396,15.7120504379272,13.8480005264282,-6.62818765640259,-6.79951238632202,-6.6782374382019,-1.63800013065338,-4.78995037078857,-9.29505062103272,0.99549996852875,0.3452624976635,0.15798750519753,-1.54041254520416,-2.19064998626709,-1.97463750839233,-6.59295034408569,-3.88005018234253,-2.09505009651184,4.61805009841919,7.79595041275024,9.70995044708252,-2.92586255073547,-2.49480009078979,-1.58496248722076,-13.2630004882813,-15.5839509963989,-16.3530006408691,0.01636249944568,-0.0559624992311,-0.33687499165535,-0.76573747396469,0.26867499947548,0.51452499628067,1.78395009040833,3.43095016479492,3.41895008087158,9.66405010223389,7.05105018615723,7.66005039215088,SWING_RIGHT
0.16788749396801,0.19868749380112,0.24763749539852,0.62895005941391,0.44505003094673,0.41595003008842,-0.04853750020266,0.08978749811649,0.19194999337196,0.19841249287128,0.15592500567436,0.09418749809265,2.37000012397766,2.20500016212463,1.96605014801025,10.5049505233765,10.3420505523682,10.1550006866455,-0.05238749831915,-0.3121249973774,-0.69739997386932,1.39800012111664,4.29105043411255,5.9389500617981,0.6569749712944,1.16682493686676,1.472212433815,0.52305001020432,2.10017490386963,2.35675001144409,1.13895010948181,-2.72505021095276,-4.4520001411438,13.1509504318237,13.9249505996704,13.1539506912231,-5.47992515563965,-6.75798749923706,-8.12652492523193,20.6710510253906,17.0040016174316,6.58500051498413,0.23127499222755,1.35726249217987,2.18954992294312,-3.35389995574951,-2.12258744239807,-1.57657504081726,-17.9290504455566,-18.0409507751465,-19.4400005340576,26.2210521697998,23.0209503173828,17.5440006256104,-8.51606273651123,-8.47783756256104,-8.14041233062744,-0.83100003004074,-4.32795000076294,-7.04100036621094,1.52322494983673,1.40937495231628,1.22099995613098,-1.08171248435974,-0.86996251344681,-1.43398749828339,-17.8429508209229,-12.76305103302,-10.2460508346558,11.8320007324219,8.8279504776001,8.67495059967041,-3.89743757247925,-2.67038750648499,-0.4823499917984,-20.5609512329102,-20.0680503845215,-16.8299999237061,0.03657500073314,-0.21449999511242,-0.54972499608994,0.2261874973774,-0.39214998483658,-0.16018749773502,0.75105005502701,1.36905002593994,2.46900010108948,4.93395042419434,6.2440505027771,8.12700080871582,SWING_RIGHT
0.44137498736382,0.3605250120163,-2.0286750793457,3.85005021095276,9.80205059051514,15.9670505523682,1.02740001678467,1.09972500801086,-0.32628750801086,1.48940002918243,0.26441249251366,-2.0257875919342,-2.76405024528503,-5.89905023574829,-8.43705081939697,9.26205062866211,6.90495014190674,11.5440006256104,-5.44376230239868,-6.47391223907471,-7.58697509765625,14.6059503555298,14.9920511245728,11.4810009002686,0.60596251487732,1.73827493190765,2.36513757705688,-0.65188747644424,-1.35423743724823,-1.09133744239807,-17.6490001678467,-20.7720012664795,-21.7390518188477,17.3310012817383,18.316951751709,14.0110502243042,-9.77721214294434,-9.53988742828369,-8.38832473754883,0.98295003175735,-10.7389507293701,-18.2359504699707,0.2727999985218,0.34416249394417,0.36753749847412,-3.46128749847412,-1.97573745250702,-0.20061250030994,-14.0700006484985,-10.5619506835938,-7.35705041885376,15.5010004043579,15.3400506973267,11.1610507965088,-1.9626749753952,-1.25716245174408,-0.4461874961853,-14.7820510864258,-14.9809503555298,-13.5220508575439,0.27610000967979,0.19415000081062,-0.14107500016689,-0.3964124917984,0.1229249984026,0.4507249891758,2.11395001411438,2.06400012969971,2.1979501247406,9.4150505065918,7.78905057907104,6.91695022583008,1.20229995250702,1.1863499879837,1.0564124584198,-4.15305042266846,-2.46000003814697,-1.26000010967255,-0.51150000095367,-0.38266250491142,-0.31459999084473,0.73369997739792,0.76669996976852,0.72105002403259,3.29700016975403,3.32400012016296,3.33795022964478,10.4089508056641,10.0710000991821,9.61905002593994,SWING_RIGHT
-1.34860002994537,-1.91166245937347,-2.39153742790222,8.46795082092285,9.6409502029419,10.3429508209229,-0.06448750197887,-0.07947500050068,0.04193750023842,-0.21023750305176,-1.49888753890991,-1.65536248683929,-2.89500021934509,-6.47595024108887,-9.0600004196167,11.238000869751,14.3899507522583,15.3499507904053,-6.04601240158081,-6.72814989089966,-7.34758758544922,13.53600025177,12.5059509277344,11.9260501861572,1.08157503604889,1.75106251239777,2.29487490653992,-0.71142500638962,-0.92001247406006,-0.78485000133514,-19.9380016326904,-22.9110012054443,-24.7240505218506,17.3119506835938,16.5910511016846,13.9009504318237,-9.83138751983643,-10.0112371444702,-9.86342525482178,0.59805005788803,-4.44705009460449,-10.2769508361816,0.71348750591278,0.46021249890327,0.50269997119904,-1.69468748569489,-2.48861241340637,-2.03101253509521,-16.8730506896973,-10.1689500808716,-6.31995010375977,8.17905044555664,11.9560508728027,13.6660509109497,-2.24152493476868,-1.85308754444122,-0.15028749406338,-15.631950378418,-15.282000541687,-13.9840507507324,-0.17091250419617,-0.41139999032021,-0.49871250987053,-0.47630000114441,-0.31556248664856,0.17077499628067,2.00894999504089,2.44905018806458,2.49195003509521,7.12800025939941,8.97495079040527,9.72405052185059,0.90639996528625,0.95851248502731,0.85428750514984,-3.65205025672913,-2.04000020027161,-1.16100001335144,-0.24653749167919,-0.12416250258684,-0.00494999997318,-0.06655000150204,0.01113750040531,0.21766249835491,3.43605017662048,3.33795022964478,3.11805009841919,10.4449501037598,10.7179508209229,10.2700500488281,SWING_RIGHT
-1.91798746585846,-2.95872497558594,-3.62078738212585,14.0050506591797,12.9180002212524,13.57200050354,-0.31776249408722,-0.70193749666214,-0.66041249036789,-0.80189996957779,-1.35107493400574,-1.50961244106293,-5.90805006027222,-7.11300039291382,-8.89500045776367,9.81795024871826,12.6409502029419,17.5630512237549,-6.56328725814819,-7.08262491226196,-7.43806266784668,11.0670003890991,8.63595008850098,5.88600015640259,1.39026248455048,1.85638749599457,2.69183754920959,-0.76889997720718,-0.5847874879837,-0.14533749222755,-16.5949516296387,-17.7250499725342,-16.2979507446289,16.0590000152588,16.4850006103516,8.34000015258789,-8.35752487182617,-8.16488742828369,-7.77012491226196,-3.84405016899109,-7.18305015563965,-13.3309507369995,0.34306249022484,0.21106250584126,0.10573749989271,-1.01901245117188,-0.46351251006126,-0.55288749933243,-10.1260509490967,-6.50205039978027,-4.06905031204224,10.6099500656128,9.1690502166748,10.1050500869751,-0.48881250619888,0.26152500510216,0.9618124961853,-14.8969507217407,-13.1820001602173,-9.96105003356934,-0.27623748779297,-0.56897497177124,-0.79351252317429,0.44110000133514,0.6710000038147,0.04949999973178,2.9520001411438,3.30405020713806,3.7590000629425,6.97695016860962,7.51395034790039,10.1820001602173,0.84356248378754,0.67869997024536,0.45842498540878,-1.10400009155273,-0.87195003032684,-1.17105007171631,-0.04317500069737,-0.06338749825954,-0.08579999953508,0.82417500019073,0.32504999637604,-0.22714999318123,3.23505020141602,3.21300005912781,3.30900025367737,8.87400054931641,8.41200065612793,9.08205032348633,SWING_RIGHT
0.09116250276566,0.09762500226498,0.09872499853373,0.14805001020432,0.08100000023842,0.56400001049042,0.07919999957085,0.01856249943376,-0.01979999989271,0.13351249694824,0.13887499272823,0.12925000488758,1.95795011520386,1.86495006084442,1.79295003414154,9.3390007019043,9.45105075836182,9.68595027923584,0.03808749839664,-0.14286249876022,-0.66646248102188,2.21700000762939,5.28705024719238,8.89395046234131,-0.79777497053146,-0.63387501239777,-0.11769999563694,1.12543749809265,0.8232125043869,0.05266249924898,1.08705008029938,-0.54105001688004,-2.36595010757446,10.2030000686646,11.9160003662109,11.2279500961304,-3.12262487411499,-3.55258750915527,-4.69342517852783,9.47399997711182,10.0150508880615,11.7709503173828,0.00357499998063,0.693274974823,1.16888749599457,-1.49146246910095,-1.16902494430542,-0.60390001535416,-8.99100017547607,-11.5939502716064,-14.0800504684448,18.6670513153076,17.7469501495361,15.8790006637573,-7.46789979934692,-8.00098705291748,-8.62674999237061,6.45405054092407,6.43005037307739,3.68505024909973,2.68867492675781,1.58606255054474,1.02423751354218,-0.82637500762939,-1.50425004959106,-1.83947503566742,-17.5960502624512,-13.3230009078979,-11.860050201416,1.67400002479553,4.69500017166138,6.75705051422119,-5.00101232528687,-3.21309995651245,-2.0297749042511,-19.9480514526367,-17.8620014190674,-14.1499509811401,-0.8232125043869,-0.40713748335838,-0.083599999547,-0.6348375082016,0.24103750288486,0.33151251077652,-3.04605007171631,-2.11695003509521,-0.93405002355576,14.8020009994507,12.8449506759644,10.7470502853394,SWING_RIGHT
-1.56997501850128,-1.72851252555847,-2.81723737716675,7.98900032043457,8.93295001983643,12.6780004501343,0.51768749952316,0.86886250972748,0.79543751478195,-1.52446246147156,-1.40635001659393,-1.42340004444122,-1.23300004005432,-3.4939501285553,-5.37900018692017,14.706000328064,12.5410509109497,10.2150001525879,-5.33513736724854,-5.88005018234253,-6.61649990081787,9.53805065155029,10.8799505233765,9.73500061035156,0.94118750095367,1.37541246414185,2.22997498512268,-0.62314999103546,-1.1339625120163,-1.38297498226166,-14.4580507278442,-14.5540504455566,-15.5340003967285,14.5549507141113,16.3339500427246,14.0929508209229,-8.1298246383667,-7.09967517852783,-5.51182508468628,-4.55805015563965,-18.6880512237549,-21.7710018157959,-0.37303748726845,0.11110000312328,0.32078748941422,-2.18006253242493,-1.92142498493195,-1.10838747024536,-3.84600019454956,-2.0830500125885,-0.8520000576973,12.1570501327515,12.4500007629395,9.71205043792725,-1.122962474823,-0.32807499170303,0.39668750762939,-16.6189498901367,-14.6839504241943,-11.0359506607056,-0.22948749363422,-0.2411749958992,-0.20391249656677,0.23251250386238,0.13461250066757,0.09102500230074,3.08400011062622,3.08205008506775,3.26805019378662,8.06895065307617,8.33700084686279,8.03595066070557,0.98092502355576,0.69148749113083,0.48716250061989,-2.9650502204895,-1.33905005455017,-2.31795001029968,-0.28366249799728,-0.16775000095367,-0.12622499465942,-0.15166249871254,-0.32092499732971,-0.12925000488758,3.69705009460449,3.75195026397705,3.7590000629425,9.421950340271,9.68805027008057,9.5779504776001,SWING_RIGHT
-0.77288746833801,-1.1698499917984,-1.64133751392365,5.79000043869019,7.29900026321411,8.22105026245117,0.50599998235703,0.46117499470711,-0.2050125002861,-0.03671250119805,-1.21687495708466,-2.40996241569519,-2.81895017623901,-4.81095027923584,-9.38295078277588,9.86295032501221,10.4620504379272,14.3269510269165,-5.70982503890991,-6.39718723297119,-7.18368768692017,10.0849504470825,9.99105072021484,10.9350004196167,0.11110000312328,1.58290004730225,2.21292495727539,-1.2531750202179,0.21340000629425,0.16541250050068,-16.6549510955811,-21.961950302124,-24.3640518188477,19.1080513000488,14.3179502487183,10.5580501556396,-10.2390747070313,-9.72179985046387,-9.10249996185303,-6.39195013046265,-8.97195053100586,-14.7319507598877,1.51483750343323,1.91922497749329,1.07951247692108,0.02076249942183,-0.05802499875426,-0.60816252231598,-16.19700050354,-9.68805027008057,-5.3430004119873,11.5230007171631,4.87905025482178,3.21000003814697,-2.0488874912262,-1.03042495250702,-0.10986249893904,-14.9449510574341,-14.8680009841919,-14.451000213623,0.01636249944568,-0.47423750162125,-0.65078747272491,0.10793749988079,-0.14630000293255,-0.14739999175072,1.09095001220703,1.34505009651184,2.3970000743866,5.15205001831055,6.99600028991699,7.94700050354004,1.44278752803802,0.8095999956131,0.72544997930527,-0.88395005464554,-1.91805005073547,-1.48695003986359,-0.67320001125336,-0.5986750125885,-0.11879999935627,0.4974749982357,0.34003749489784,-0.06655000150204,3.68505024909973,3.48600006103516,2.67195010185242,10.006950378418,10.5499505996704,11.2159509658813,SWING_RIGHT
-3.69421243667603,-6.13126230239868,-6.91982507705688,13.7490005493164,9.09495067596436,2.67195010185242,1.20298755168915,1.4753749370575,1.58922493457794,0.57200002670288,-1.86615002155304,-3.73587489128113,-12.1500005722046,-11.6370000839233,-11.1769504547119,10.443000793457,11.568000793457,11.0730009078979,-6.2716498374939,-6.96547508239746,-7.63276243209839,5.86500024795532,5.32605028152466,1.94400012493134,0.40163749456406,1.11883747577667,1.29868745803833,-0.35488748550415,-0.79447501897812,-1.46492505073547,-15.1600503921509,-15.8740510940552,-15.9529504776001,15.4909505844116,12.7470006942749,10.1700000762939,-7.14862489700317,-7.20389986038208,-6.74849987030029,-7.02195024490356,-10.6960506439209,-20.2570514678955,1.00182497501373,0.97624999284744,0.598537504673,0.15592500567436,-0.67732501029968,-0.5656750202179,-9.83595085144043,-5.49900007247925,-3.21600008010864,9.00104999542236,7.69800043106079,7.33200025558472,-0.08964999765158,0.07521250098944,0.28709998726845,-11.0820007324219,-9.0600004196167,-8.03505039215088,-0.15702499449253,-0.09748750180006,-0.33591249585152,-0.58684998750687,-0.50077497959137,-0.00261249998584,1.92000007629395,2.34405016899109,2.43495011329651,8.67495059967041,8.54295063018799,9.60900020599365,0.35199999809265,0.51480001211166,0.56911247968674,-3.72705006599426,-3.12105011940002,-1.66005003452301,-0.12938749790192,-0.01127499993891,-0.01333750039339,0.13255000114441,0.15056249499321,0.00577499996871,2.63100004196167,2.58300018310547,2.25795006752014,10.2750005722046,9.29295063018799,9.11595058441162,SWING_RIGHT
0.00508749997243,-0.06311249732971,-0.13227500021458,0.38205000758171,0.7540500164032,1.27995002269745,0.14519999921322,0.18672500550747,0.21009999513626,0.24846249818802,0.52098751068115,0.74978750944138,1.12305009365082,0.38505002856255,-0.27300000190735,10.6560001373291,11.5399503707886,12.3010501861572,-1.17094993591309,-1.95841252803802,-2.81407499313354,12.3430509567261,13.88805103302,12.8700008392334,0.18452499806881,-0.28586250543594,-0.0346499979496,-1.26582503318787,-2.40143752098084,-2.83662509918213,-6.25995016098022,-7.09395027160645,-12.3870010375977,8.98905086517334,12.6150007247925,16.0330505371094,-6.96231269836426,-7.59123754501343,-8.18509960174561,7.89600038528442,6.41100025177002,3.87900018692017,-0.2261874973774,0.23457500338554,0.58574998378754,-2.49713754653931,-1.78626251220703,-0.28366249799728,-20.6059513092041,-20.7430515289307,-21.3349514007568,18.4780502319336,16.8610515594482,13.8480005264282,-8.97902488708496,-7.01016235351563,-4.76162481307983,-7.74300050735474,-20.6140518188477,-21.586051940918,0.1876875013113,0.26757499575615,-0.13048750162125,-1.51387500762939,-0.51988750696182,1.06260001659393,-4.92405033111572,-2.57205009460449,0.30600002408028,11.9299507141113,10.7970008850098,7.32900047302246,-1.07305002212524,-0.55687499046326,-0.21848750114441,-9.93705081939697,-8.60295009613037,-6.97695016860962,-0.40287500619888,-0.54972499608994,-0.51892501115799,0.20487499237061,0.43147498369217,0.52621251344681,2.33700013160706,2.50395011901855,2.41095018386841,8.22705078125,9.22095012664795,9.55395030975342,SWING_RIGHT
-0.2088624984026,-0.19401249289513,-0.07479999959469,0.36600002646446,-0.19095000624657,0.00600000005215,-0.03781250119209,-0.0283249989152,0.02488750033081,0.05156249925494,0.15056249499321,0.16651250422001,1.81500005722046,2.34195017814636,2.16705012321472,10.0570507049561,10.335000038147,10.3300504684448,-0.84205001592636,-1.00594997406006,-1.75628745555878,4.46100044250488,5.43795013427734,11.7730503082275,0.54738748073578,-0.41249999403954,-0.79983747005463,0.69231247901917,-2.10237503051758,-2.52697491645813,-0.90705001354218,-4.54305028915405,-7.06695032119751,7.09695053100586,10.300950050354,15.8890504837036,-5.54166269302368,-6.01205015182495,-6.68676233291626,11.3080501556396,13.0759506225586,13.0639505386353,0.41978749632835,1.21261250972748,1.73084998130798,-1.29676246643066,-0.6485875248909,0.46241250634193,-16.2430515289307,-18.4770011901855,-19.8589515686035,17.4580516815186,16.4470500946045,12.5839509963989,-8.78954982757568,-8.46931266784668,-7.38058757781982,-5.19195032119751,-12.2839508056641,-17.2180500030518,0.93912500143051,0.1047749966383,-0.14327499270439,-0.64652502536774,0.4464625120163,-0.11976250261068,-8.55000019073486,-3.31695008277893,-1.54695010185242,10.0399503707886,5.96205043792725,9.32895088195801,-0.15358750522137,0.14863750338554,0.16362500190735,-9.64200019836426,-6.88095045089722,-5.90100049972534,-0.36465001106262,-0.40823748707771,-0.31886249780655,-0.06764999777079,-0.42405000329018,-0.36561250686646,1.81200003623962,2.2390501499176,2.3730001449585,8.49300003051758,9.76500034332275,10.288950920105,SWING_RIGHT
