gyro_x_0,gyro_y_0,gyro_z_0,acc_x_0,acc_y_0,acc_z_0,gyro_x_1,gyro_y_1,gyro_z_1,acc_x_1,acc_y_1,acc_z_1,gyro_x_2,gyro_y_2,gyro_z_2,acc_x_2,acc_y_2,acc_z_2,gyro_x_3,gyro_y_3,gyro_z_3,acc_x_3,acc_y_3,acc_z_3,gyro_x_4,gyro_y_4,gyro_z_4,acc_x_4,acc_y_4,acc_z_4,gyro_x_5,gyro_y_5,gyro_z_5,acc_x_5,acc_y_5,acc_z_5,gyro_x_6,gyro_y_6,gyro_z_6,acc_x_6,acc_y_6,acc_z_6,gyro_x_7,gyro_y_7,gyro_z_7,acc_x_7,acc_y_7,acc_z_7,gyro_x_8,gyro_y_8,gyro_z_8,acc_x_8,acc_y_8,acc_z_8,gyro_x_9,gyro_y_9,gyro_z_9,acc_x_9,acc_y_9,acc_z_9,gyro_x_10,gyro_y_10,gyro_z_10,acc_x_10,acc_y_10,acc_z_10,gyro_x_11,gyro_y_11,gyro_z_11,acc_x_11,acc_y_11,acc_z_11,gyro_x_12,gyro_y_12,gyro_z_12,acc_x_12,acc_y_12,acc_z_12,gyro_x_13,gyro_y_13,gyro_z_13,acc_x_13,acc_y_13,acc_z_13,gyro_x_14,gyro_y_14,gyro_z_14,acc_x_14,acc_y_14,acc_z_14,motion_type
-0.04337143152952,-0.07208210229874,-0.09224065393209,-0.02321287989616,0.00183259579353,0.16187928617001,2.09013819694519,2.04704236984253,1.89860188961029,9.34696388244629,9.46667385101318,9.72524738311768,0.15210545063019,0.18631389737129,0.21868975460529,-0.3208230137825,-1.28089785575867,-2.35828876495361,-0.08979719132185,-0.19669860601425,-0.45142942667007,0.03054326213896,-0.22785273194313,-0.4673119187355,1.22104287147522,1.08457338809967,0.69431847333908,8.20492935180664,7.52258157730103,8.19295787811279,1.24555420875549,2.22843647003174,3.18871665000916,-3.23935484886169,-2.71981310844421,2.72699570655823,-0.49480083584785,0.05314527451992,0.59986966848373,-0.83383107185364,-0.463035851717,0.15760323405266,3.60566782951355,4.97993946075439,5.02782344818115,15.8352499008179,17.2286758422852,21.9763774871826,-2.49721717834473,-5.92417097091675,-9.11777496337891,42.5090522766113,42.3199081420898,37.6536102294922,3.96695899963379,4.14838600158691,4.57965660095215,2.10259819030762,2.59556651115417,1.70309233665466,-23.1782665252686,-33.3033447265625,-40.0693588256836,11.4490728378296,9.67736339569092,8.75080680847168,-14.090217590332,-12.9729452133179,-11.5294704437256,3.2776620388031,-2.17632937431335,-2.18590617179871,3.00118088722229,1.6713273525238,1.58580613136292,-1.26388013362885,-1.5668693780899,-2.61205983161926,-34.3424301147461,-31.0049114227295,-22.9867305755615,3.69664740562439,9.0644474029541,13.0699472427368,-2.62061190605164,3.70245432853699,4.61447620391846,-32.2953872680664,-10.6134958267212,-5.57848978042603,SWING_RIGHT
-0.33231070637703,-0.14782938361168,0.01343903504312,-0.25289821624756,-0.18325957655907,-0.06963863968849,1.62087452411652,1.64002811908722,1.84832370281219,10.6972932815552,10.1681747436523,9.33738708496094,0.88697636127472,0.87170469760895,0.8906415104866,1.05105459690094,0.87867200374603,0.46208092570305,-0.23884831368923,-0.31031954288483,-0.51984632015228,-0.56321775913239,-0.50823986530304,-0.45570546388626,1.48919343948364,1.19710087776184,0.82839381694794,8.69095230102539,8.16662216186523,8.49223327636719,1.79472208023071,2.1978931427002,2.71896123886108,0.48123455047607,1.85550630092621,6.77319669723511,0.05314527451992,0.4459316432476,0.43737950921059,-2.31823348999023,-2.29624247550964,-2.41475033760071,2.28406834602356,3.94085597991943,4.771644115448,11.2599306106567,11.2503538131714,15.1050186157227,-1.80938291549683,-5.60285615921021,-8.91130256652832,49.1050758361816,47.441104888916,45.0540885925293,0.89369583129883,0.50885075330734,1.36772727966309,2.18445420265198,2.84357762336731,2.58212733268738,-24.8733615875244,-36.4421424865723,-45.5712356567383,6.01662874221802,9.87129402160644,8.26957225799561,-15.5611810684204,-13.0798463821411,-9.5606517791748,4.13718032836914,-11.9638261795044,-14.7363119125366,3.15939497947693,2.09710049629211,1.4379768371582,-0.08552113175392,0.06414084881544,-0.56932640075684,-22.064962387085,-18.8471565246582,-15.6413192749023,1.6136919260025,2.64080452919006,5.96395635604858,-2.33533787727356,-0.61330872774124,0.61575216054916,-20.8941974639893,-16.9772834777832,-13.6301898956299,SWING_RIGHT
-0.52595496177673,-0.22479841113091,0.16187928617001,-0.23518311977386,0.09285151958466,0.16615535318851,0.24660277366638,0.38546648621559,0.36391866207123,10.8122148513794,10.8888292312622,9.37090587615967,2.54669713973999,3.26385307312012,2.62122273445129,-0.59136784076691,5.93522596359253,18.3778915405273,-0.49968776106834,-0.03787364438176,0.23396138846874,-0.97249746322632,-1.05068826675415,-0.87964594364166,4.22097778320313,5.23611927032471,3.15316367149353,16.783353805542,16.9270057678223,17.3076839447021,-5.10255718231201,-7.45744276046753,-9.40365982055664,41.4388427734375,38.5251007080078,35.9561195373535,2.35855078697205,2.86190366744995,3.17039060592651,0.44470989704132,-0.32925635576248,-0.60353487730026,-25.7999172210693,-31.2275733947754,-36.0901947021484,16.8312377929688,16.0219974517822,13.2519063949585,-13.1433763504028,-13.2160692214966,-12.7359294891357,21.0929164886475,14.9326362609863,8.80826759338379,3.25163578987122,2.57052087783813,1.73730075359344,-2.08182883262634,-1.7446311712265,-1.61451685428619,-32.6497268676758,-31.2778511047363,-34.2825736999512,9.74200630187988,8.25760173797607,9.47385597229004,-10.3804330825806,-10.3523330688477,-8.80989837646484,0.68474167585373,-11.8512983322144,-23.5373973846436,1.21073496341705,1.88940620422363,2.13863921165466,-1.83442831039429,-0.85032439231873,-0.08796459436417,-19.8862400054932,-16.8815155029297,-14.0659351348877,17.767370223999,13.6756801605225,10.8720703125,1.46546566486359,2.00669240951538,2.32006621360779,-9.74679470062256,-8.65982723236084,-8.71728801727295,SWING_RIGHT
-0.71349060535431,-0.96028017997742,-1.3567316532135,-0.06841690838337,-0.27366763353348,-0.22663100063801,2.43011474609375,1.64242231845856,-0.01197100803256,8.68616390228271,8.15225696563721,9.51455783843994,5.01031684875488,4.9217414855957,3.25957703590393,7.35977602005005,20.0993232727051,26.6738014221191,-0.32131510972977,-0.32986724376678,-0.11850785464048,-3.57417249679565,-2.23882102966309,-0.02809980139136,0.39743748307228,-0.4525041282177,-0.92655605077744,9.97663879394531,10.6134958267212,8.96867942810059,-3.43000841140747,-6.2625904083252,-8.82822418212891,41.0222511291504,40.859447479248,40.9552154541016,0.57482421398163,0.70799279212952,1.06107294559479,1.09467053413391,1.33657312393188,1.93827545642853,-25.6371116638184,-34.6608581542969,-41.0557708740234,10.6374378204346,9.82580375671387,9.96227359771728,-15.1891641616821,-15.1378517150879,-14.4268045425415,22.9771537780762,16.9629192352295,10.7691192626953,1.84420216083527,0.24129177629948,-1.11543989181519,-1.33962750434875,-0.94561940431595,-0.44898596405983,-38.2832870483398,-32.9897041320801,-31.78542137146,2.28167414665222,3.32794046401978,7.49385118484497,-8.67734050750732,-7.71461725234985,-6.56313610076904,-1.73340201377869,-7.2113356590271,-13.4027414321899,1.42331600189209,1.96332085132599,2.3469443321228,-0.96822142601013,-0.99387776851654,-0.53633970022202,-23.9635639190674,-18.9070110321045,-14.1473379135132,13.0938892364502,12.5815296173096,11.2910556793213,2.61328148841858,2.88328385353088,2.64626812934875,-4.90332508087158,-1.20667767524719,0.08379705995321,SWING_RIGHT
-0.53878313302994,-0.63407814502716,-0.76052725315094,0.05375614017248,0.01466076634824,0.04153883829713,3.07415509223938,2.59531474113464,2.88261890411377,8.09718990325928,8.20971775054932,8.64306831359863,1.89551484584808,2.05311799049377,1.97065126895905,2.43490314483643,5.25048446655273,10.3644990921021,-0.63896507024765,-0.62002819776535,-1.16553092002869,-2.09221339225769,-1.49478721618652,-0.16737708449364,2.88501310348511,2.5282769203186,2.17393517494202,10.1394443511963,7.99902772903442,8.15704536437988,-2.85029721260071,-4.2235221862793,-5.66760778427124,22.8670196533203,26.1901721954346,33.5020637512207,0.55955255031586,1.51066970825195,2.07083320617676,1.32191240787506,0.74403387308121,0.26267206668854,-6.99585723876953,-12.8879880905151,-20.2166385650635,16.5678749084473,14.415488243103,10.886435508728,-12.583212852478,-13.2930383682251,-13.5288324356079,30.279468536377,25.8717441558838,22.0817222595215,2.57296442985535,3.03905463218689,3.00606775283813,0.75197511911392,0.27794370055199,-0.31887164711952,-31.9194965362549,-30.5978984832764,-29.0249080657959,12.8640460968018,9.63187313079834,7.20415306091309,-11.0108461380005,-9.960768699646,-8.94917583465576,7.15387487411499,4.29040956497192,-1.0414776802063,0.25900685787201,0.61514127254486,1.30053210258484,-0.62491512298584,-0.21807889640331,-0.63896507024765,-28.4287509918213,-26.1087703704834,-21.3299427032471,11.9805850982666,14.0084743499756,14.2287406921387,-1.2168436050415,0.74220126867294,2.01585531234741,-17.5590744018555,-13.5751237869263,-7.07486581802368,SWING_RIGHT
-0.29626965522766,-0.50518554449081,-0.5583308339119,-0.82039201259613,-0.61880648136139,-0.23518311977386,1.6903064250946,1.60172092914581,1.41018486022949,8.96628570556641,9.79946708679199,9.54568195343018,2.7269024848938,1.82587623596191,0.55955255031586,11.113883972168,14.9924907684326,15.9310178756714,-0.14233160018921,0.16126842796803,-0.06536258012056,-0.91324353218079,-0.5589417219162,-0.3720169365406,3.67749381065369,3.89536619186401,2.99275207519531,11.9877681732178,9.09317779541016,8.26717853546143,-7.64558935165405,-10.0096378326416,-10.3700485229492,35.7621917724609,24.1143989562988,26.7982997894287,1.41354215145111,2.39703512191772,2.66092896461487,2.18201065063477,0.52351152896881,0.16249015927315,-14.2502889633179,-20.6739311218262,-25.5078258514404,17.74342918396,14.853627204895,12.5240688323975,-13.6815490722656,-13.9423885345459,-14.0303525924683,28.285099029541,24.0689105987549,12.4378776550293,3.9901716709137,2.98285508155823,1.33290791511536,-1.19424152374268,-1.34817957878113,-1.08245325088501,-28.6825370788574,-25.3019237518311,-24.6866130828857,6.40448951721191,3.1196448802948,3.72537779808044,-8.0597562789917,-6.7018027305603,-5.32979917526245,1.25695586204529,-2.54743051528931,-8.67658710479736,-1.05129909515381,0.63346725702286,2.37748742103577,-0.14416420459747,-0.26145032048225,0.03604105114937,-22.4360637664795,-17.5590744018555,-14.0204448699951,18.6053409576416,17.6189308166504,11.5065336227417,1.88818442821503,2.28524684906006,2.25653624534607,-5.4755392074585,-3.29920983314514,-3.03824186325073,SWING_RIGHT
-0.25289821624756,-0.37873646616936,-0.59864795207977,0.55405479669571,0.6010913848877,-0.06536258012056,2.58094954490662,2.31279873847961,2.42293214797974,8.10437297821045,7.15148067474365,7.08683681488037,0.88697636127472,0.46670106053352,-0.40072759985924,9.49779796600342,16.103401184082,24.0042667388916,-0.55588740110397,-0.79045963287354,-0.76052725315094,-1.25838243961334,-1.02075576782227,-1.70981180667877,4.88656568527222,5.37258863449097,1.93212080001831,11.6669445037842,14.9086942672729,15.5910415649414,-6.9540901184082,-8.31204319000244,-9.93083667755127,29.8724536895752,32.1876487731934,33.842041015625,-1.6334536075592,-1.00548422336578,0.5412266254425,0.77885317802429,1.92117118835449,2.89000344276428,-21.6459770202637,-24.0665149688721,-27.2891101837158,14.401123046875,13.1250133514404,8.22168827056885,-13.2484455108643,-14.0358505249023,-14.2093362808228,27.6650009155273,20.1711502075195,11.1904983520508,2.78188037872314,2.26936435699463,1.4801265001297,-0.81245076656342,-1.65300130844116,-2.42818927764893,-30.7750682830811,-30.145393371582,-29.7024669647217,5.09486103057861,5.29118585586548,4.60644388198853,-7.69079351425171,-5.58086490631104,-3.009122133255,-5.43004941940308,-12.1338138580322,-18.4904193878174,0.31276300549507,1.78861343860626,2.79593014717102,-0.17837265133858,0.48808133602142,0.5283984541893,-18.5383033752441,-13.007698059082,-7.66623401641846,20.0514392852783,15.6413192749023,8.48744487762451,2.75744581222534,2.3347270488739,1.88757359981537,-0.80205756425858,-0.32321724295616,-1.25456166267395,SWING_RIGHT
0.10567969083786,0.00305432616733,-0.48136180639267,-1.5534303188324,-0.61269783973694,-0.37018433213234,3.97437477111816,4.92487287521362,2.35828876495361,8.77474880218506,8.11873817443848,11.1521911621094,-4.13433599472046,-5.45197248458862,-6.49044322967529,26.0106067657471,26.4870529174805,28.368896484375,0.47647488117218,0.54550266265869,1.55892813205719,1.07145762443542,2.40436553955078,2.52409529685974,-8.4706859588623,-15.2414884567261,-21.0761566162109,9.25598335266113,12.1505737304688,10.9127712249756,-10.247875213623,-11.6821870803833,-12.5716066360474,26.4415626525879,19.7258281707764,4.75488471984863,1.9779816865921,-0.10384709388018,-1.45630276203156,-3.07387399673462,-3.03172421455383,-2.97124862670898,-35.5874137878418,-38.5394630432129,-34.4908714294434,2.79642748832703,9.67257499694824,23.3314952850342,-8.26867198944092,-3.96146106719971,-0.43799036741257,-32.6257858276367,-26.9275856018066,-15.7634239196777,2.97491383552551,2.59678816795349,2.11786985397339,0.34819319844246,0.50946164131165,0.71349060535431,-10.4387197494507,-4.66151094436646,0.02394201606512,8.48265647888184,6.56011247634888,6.86417627334595,1.40865528583527,1.28770399093628,1.31091678142548,-4.99191045761108,-4.80276870727539,-2.76051449775696,0.36774086952209,-0.13011430203915,-0.10323622822762,0.1667662113905,0.14416420459747,0.129503428936,4.8602294921875,4.92726707458496,4.29280376434326,6.16028118133545,9.35654067993164,10.5991306304932,0.1685988008976,0.38423424959183,0.39889499545097,-4.12760353088379,-3.33272886276245,-2.59292054176331,SWING_RIGHT
-0.30604347586632,-0.68905597925186,-1.11482906341553,0.29138273000717,0.7922922372818,0.62186080217361,1.63523972034454,1.20188927650452,0.61052143573761,5.81551599502563,6.447585105896,7.20175886154175,2.80570411682129,1.34268176555634,-0.50640726089478,15.5168209075928,17.2095222473145,11.566388130188,-0.62919121980667,-0.29688051342964,0.07635815441608,0.08185594528913,0.15821409225464,0.1685988008976,2.71741890907288,3.48835182189941,4.11084413528442,14.3149318695068,14.9062995910645,13.9246768951416,-3.20337724685669,-5.60407781600952,-6.68775272369385,24.3394546508789,22.9196929931641,23.2405166625977,1.42270517349243,2.19728231430054,2.84846472740173,0.00549778714776,-0.20708331465721,-1.6890424489975,-8.64306831359863,-14.2143754959106,-19.1679782867432,17.2071285247803,16.3763389587402,16.8336315155029,-11.6925716400146,-12.9863843917847,-12.7811336517334,21.981164932251,14.2119808197021,11.8058090209961,0.80328780412674,0.23273965716362,-0.28283059597015,-3.09342169761658,-3.01828527450562,-2.25959062576294,-27.8709011077881,-30.6194458007813,-28.5939502716064,11.4921684265137,12.8401041030884,18.1336841583252,-6.80198431015015,-1.40376830101013,1.98225772380829,-17.9086284637451,-20.7912483215332,-12.3349275588989,1.68965327739716,1.70370316505432,1.19912850856781,0.32131510972977,0.40011674165726,0.17104226350784,-3.56975483894348,1.00077629089355,2.06859016418457,10.2495775222778,7.80749177932739,6.43321990966797,1.74829638004303,1.67499256134033,1.75990271568298,-1.93690919876099,-3.56496644020081,-2.48757553100586,SWING_RIGHT
-0.33231070637703,-0.60597831010818,-0.8662069439888,0.64629542827606,0.28344148397446,0.23212879896164,2.74614930152893,2.28885674476624,2.2361843585968,6.90487766265869,7.50342798233032,8.72207641601563,1.1423180103302,1.34756875038147,1.7256942987442,1.08936178684235,0.07182604819536,1.46046304702759,-0.95905846357346,-1.13926362991333,-1.23822391033173,0.25167647004128,-0.05803219974041,0.14660765230656,3.10767388343811,3.21541285514832,3.01429986953735,7.48427438735962,8.10676670074463,8.89445972442627,1.33596229553223,1.36711645126343,0.36346483230591,5.60482597351074,14.0850887298584,22.1415767669678,-1.14537239074707,-0.80328780412674,-0.28283059597015,-0.53695052862167,-0.34574973583221,-0.20402899384499,5.61200857162476,6.67742872238159,5.46596240997314,13.5990657806396,15.8663749694824,14.7554655075073,-6.22044086456299,-8.66878890991211,-9.91922950744629,32.5348052978516,26.8964614868164,23.082498550415,2.16429567337036,2.71896123886108,2.81059098243713,1.04702305793762,0.2981022298336,-0.10262536257505,-12.2247934341431,-23.9922943115234,-26.4966297149658,15.6221656799316,11.7986259460449,9.82580375671387,-12.1769876480103,-11.4970951080322,-10.7597808837891,15.5335807800293,12.8209505081177,9.34456920623779,1.2156218290329,0.01649336144328,-0.91141092777252,-1.90040183067322,-1.86802589893341,-1.55220854282379,-22.2325572967529,-26.9563159942627,-28.9267444610596,3.04542446136475,6.35899972915649,14.5423812866211,-6.98218965530396,-4.63096952438354,-2.30540537834167,-14.2718362808228,-16.0291805267334,-13.8217267990112,SWING_RIGHT
-0.47403141856194,-0.54611355066299,-0.45570546388626,0.11850785464048,-0.16065755486488,-0.43921211361885,5.70777702331543,5.60961437225342,8.63109683990479,8.40364837646484,9.6989107131958,12.6677207946777,0.31948253512383,-1.14720487594604,-3.00484609603882,18.3084602355957,21.9739837646484,25.7304859161377,0.53756141662598,0.34941491484642,0.13439035415649,-2.06961154937744,-1.78555905818939,-0.35124751925468,9.17218685150146,4.14196872711182,-1.26892685890198,10.7763013839722,9.86411094665527,9.09557247161865,-9.54599094390869,-10.2460432052612,-11.4274559020996,26.9682884216309,28.8836498260498,21.8901863098145,-0.26511552929878,-0.05314527451992,0.18081611394882,-0.23701570928097,-0.34330627322197,-0.81183993816376,-21.5980930328369,-22.8263187408447,-26.3960742950439,10.4961805343628,11.5759649276733,10.9199542999268,-10.5661363601685,-9.87402629852295,-7.3273286819458,10.0221281051636,-6.06930112838745,-17.2885303497314,0.93706727027893,1.94316232204437,2.58457088470459,-0.88208943605423,-0.73426002264023,-0.70188415050507,-26.3793144226074,-16.3093013763428,-10.4219598770142,12.6461734771729,13.5511817932129,9.92157173156738,2.57846212387085,3.05493712425232,2.89489030838013,-7.10359621047974,-1.86508309841156,2.4899697303772,0.51434850692749,0.14110986888409,0.21563543379307,-0.0598647929728,-0.06841690838337,-0.23457226157188,2.47560453414917,1.97761058807373,1.82917010784149,6.35181713104248,9.44512557983398,10.9534730911255,1.80327415466309,1.69637274742126,1.07695543766022,-0.7182605266571,2.75333189964294,0.87148940563202,SWING_RIGHT
-0.35430184006691,-0.6010913848877,-0.8533787727356,-0.129503428936,-0.04886921867728,0.05742133408785,6.33745193481445,6.18661737442017,5.9902925491333,7.3885064125061,7.5465235710144,8.73644161224365,-1.93094503879547,-2.72140455245972,-4.64990615844727,11.7938375473022,14.0300216674805,21.7513217926025,0.46425759792328,0.25228735804558,-0.13683381676674,-0.56077426671982,0.16493362188339,0.59559363126755,1.70467162132263,-1.64002811908722,-2.61446833610535,10.0771951675415,8.99501609802246,10.6015253067017,-8.69505596160889,-9.51911354064941,-10.8550758361816,25.5964107513428,30.7630977630615,28.6801414489746,-0.05681046843529,1.13865280151367,3.85761404037476,1.33535146713257,1.35550999641418,-0.5705481171608,-19.4193706512451,-20.5278854370117,-28.4598751068115,15.0954418182373,15.9693250656128,15.8807401657104,-10.075611114502,-9.60707759857178,-9.02248001098633,14.1329727172852,12.8329210281372,3.17231726646423,0.42516219615936,0.73242741823196,1.45202672481537,-0.59498274326324,-0.657290995121,-0.68966686725616,-26.6354942321777,-22.5701389312744,-18.8040599822998,16.7689895629883,17.1161479949951,13.9965028762817,-0.39828413724899,0.94073247909546,1.87535631656647,-10.4387197494507,-9.0668420791626,-6.88093566894531,1.75929188728333,1.24372160434723,0.52900928258896,-0.17287486791611,-0.08063421398401,0.15638150274754,-4.23773717880249,-2.24576115608215,-1.07260239124298,6.32069253921509,5.82988119125366,6.16028118133545,2.39886784553528,2.13863921165466,1.73424637317657,-0.75177931785583,0.02633621916175,0.21547815203667,SWING_RIGHT
-0.21135938167572,0.07819075137377,0.5839871764183,-2.20033669471741,-1.57419979572296,-0.38851028680801,7.08444261550903,4.20182418823242,0.82839381694794,14.7147636413574,15.3252849578857,13.0220632553101,-6.67431354522705,-7.80380344390869,-8.73109722137451,27.3058700561523,26.3984680175781,24.6985855102539,0.91507613658905,1.31641459465027,1.35062301158905,-0.2101376503706,-0.76663589477539,-1.27487576007843,-18.4401416778564,-20.9013805389404,-23.9970836639404,12.0069217681885,10.6063137054443,9.13866806030273,-11.1684494018555,-10.9314336776733,-10.2368793487549,9.32062721252441,5.14513921737671,4.12999773025513,-0.65362578630447,-1.20829141139984,-1.07451200485229,-1.54854345321655,-1.15881133079529,-1.70797920227051,-32.5300178527832,-32.3672142028809,-29.7671089172363,9.96945571899414,13.9965028762817,17.1544551849365,-7.20576620101929,-4.8661527633667,-1.8600846529007,-22.6802730560303,-26.070463180542,-20.5422496795654,2.7892107963562,2.45262384414673,1.31030595302582,-0.59376102685928,0.08491026610136,0.42882740497589,-7.65426301956177,-3.98155736923218,-0.19393034279346,8.67179870605469,3.55778384208679,2.25294375419617,2.05372905731201,1.87535631656647,2.026850938797,-0.59136784076691,-2.3247697353363,-3.96000957489014,-0.20158553123474,0.14844025671482,0.22968533635139,1.40071403980255,1.13559854030609,1.02136671543121,-0.42377370595932,0.03591302409768,0.1723825186491,12.7898254394531,10.8050327301025,12.2271881103516,2.01524448394775,2.36832451820374,2.43735241889954,-4.48433971405029,-2.92810869216919,0.6703764796257,SWING_RIGHT
-0.67073005437851,-1.12521374225616,-1.31702542304993,-0.38117989897728,-0.3158173263073,-0.2119702398777,1.06063139438629,1.85311210155487,2.14041638374329,6.10042572021484,7.40287160873413,9.7180643081665,1.19301986694336,0.54733526706696,0.34269541501999,9.53849983215332,7.92001914978027,12.6318082809448,-0.60597831010818,-0.5839871764183,-0.16432274878025,0.54244834184647,0.5711590051651,0.36224308609962,5.03979444503784,4.17309379577637,4.39575433731079,12.9813613891602,15.9884786605835,19.3427562713623,-5.02009057998657,-6.2106671333313,-8.44948768615723,24.2724170684814,33.875560760498,28.7902755737305,1.98409032821655,2.08305048942566,2.0201313495636,1.13559854030609,1.52288711071014,1.46974182128906,-14.8344736099243,-20.8151893615723,-26.2667865753174,12.4666080474854,10.4554786682129,11.2383823394775,-12.6253633499146,-12.6113128662109,-11.6192674636841,23.3171310424805,14.6213893890381,4.50828170776367,3.12335395812988,1.93949711322784,1.2712105512619,0.27183502912521,0.23396138846874,-0.31948253512383,-33.3296813964844,-31.9554100036621,-28.7112674713135,5.23851346969604,7.41723680496216,10.3453454971313,-4.56499576568604,-2.61633586883545,-0.92057394981384,-16.7546234130859,-17.142484664917,-16.0435447692871,3.01523089408875,2.80875849723816,2.4678955078125,-0.84910267591476,-0.72570788860321,-0.69394290447235,-12.0141038894653,-7.72369480133057,-4.36223554611206,5.98550415039063,5.14274501800537,4.35984134674072,2.34388995170593,2.21133208274841,2.02501821517944,-4.33111095428467,-3.7541081905365,-3.99831676483154,SWING_RIGHT
-0.40866884589195,-0.40194934606552,-0.18570303916931,0.6878342628479,0.2981022298336,-0.03848451003432,2.91853189468384,2.75812029838562,2.93768548965454,8.927978515625,10.0005807876587,8.29351425170898,1.59130394458771,1.52166533470154,1.48440253734589,2.35828876495361,1.1947066783905,4.78600931167603,-0.34513887763023,-0.30909782648087,-0.27733281254768,0.10995574295521,0.17898350954056,-0.21746802330017,4.25928497314453,5.832275390625,9.17218685150146,8.69095230102539,8.40843677520752,10.2950668334961,0.80573123693466,-0.82222461700439,-1.84481298923492,17.8368034362793,17.413028717041,19.8455371856689,0.55955255031586,-0.81550508737564,-1.40865528583527,-1.6157386302948,-0.80206608772278,-0.36102136969566,7.97029733657837,0.64643448591232,-4.33829355239868,8.85854625701904,11.0564231872559,19.2134685516357,-7.88443756103516,-8.82639217376709,-9.76773548126221,29.3409423828125,31.263484954834,31.4789638519287,3.22353601455688,3.18321871757507,2.63221836090088,-0.7006624341011,-2.9657506942749,-4.14288806915283,-24.8973026275635,-26.745626449585,-26.5660629272461,11.1186723709106,10.704475402832,3.40216064453125,-11.0780410766602,-9.68587970733643,-8.88564586639404,7.1227502822876,7.06528902053833,8.34379291534424,-2.32678580284119,-1.31336033344269,1.08428585529327,-1.76845490932465,-1.14781582355499,-0.34941491484642,-31.8859786987305,-29.1518001556396,-21.4664115905762,19.9508819580078,20.7936420440674,16.3476085662842,-0.93584555387497,1.00853848457336,2.27302956581116,-18.7178688049316,-14.1425495147705,-6.72291851043701,SWING_RIGHT
-0.02138028293848,0.14233160018921,-0.00916297826916,0.25289821624756,0.12156218290329,-0.09040805697441,2.61686253547669,2.20027136802673,1.99676418304443,8.36294651031494,6.54095888137817,4.7907977104187,0.63652157783508,0.75502943992615,0.7611380815506,4.5226469039917,5.79636240005493,9.30147361755371,-1.20157194137573,0.36529740691185,1.0378600358963,0.63346725702286,-0.54305922985077,-0.62247169017792,5.90410137176514,6.34463453292847,6.42364311218262,16.2302932739258,16.6492786407471,15.9405946731567,-2.91993594169617,-4.43549251556396,-7.29495286941528,23.5541572570801,26.1159515380859,28.4048080444336,0.85460048913956,1.2156218290329,1.80388510227203,0.5155702829361,-0.00366519158706,-0.21258109807968,-10.0077629089355,-15.828067779541,-21.4113464355469,17.2238864898682,17.2143096923828,15.3181028366089,-10.7261829376221,-11.5447425842285,-11.7909212112427,26.1398944854736,20.0729866027832,14.6189956665039,2.5112669467926,2.35671806335449,1.72202908992767,-2.41963720321655,-2.07755279541016,-1.69270753860474,-37.1077308654785,-37.1675872802734,-33.0016746520996,14.0659351348877,11.4801969528198,8.57363605499268,-6.91438388824463,-4.64501953125,-2.82158660888672,-14.9326362609863,-17.1233310699463,-19.0985469818115,2.39031577110291,2.56991004943848,2.42024803161621,-0.60475659370422,-0.36407569050789,-0.26083946228027,-11.4011888504028,-6.93839645385742,-2.56179571151733,10.5799770355225,7.76439619064331,5.16668748855591,2.58701419830322,2.46972823143005,2.18017816543579,-2.4013843536377,-0.63446342945099,-1.73340201377869,SWING_RIGHT
0.61880648136139,0.04031710699201,-0.8600982427597,-1.44591808319092,-0.38728857040405,0.42638394236565,2.88022470474243,2.44447994232178,2.69108271598816,6.79235029220581,4.61841487884521,5.15711069107056,2.41475033760071,1.76295709609985,0.97310835123062,7.85298156738281,10.3166151046753,9.68694019317627,-1.00426244735718,-0.45692721009254,-0.39522981643677,0.14355333149433,-0.6450737118721,-1.26510190963745,4.67587614059448,4.81234550476074,3.49074602127075,11.3964004516602,10.405200958252,11.6621561050415,-2.87534260749817,-3.01828527450562,-3.94435691833496,16.783353805542,22.1080589294434,27.4231853485107,-1.54365646839142,-1.40743350982666,-1.07634460926056,-0.81489425897598,-0.54428094625473,0.5839871764183,-4.55137729644775,-8.16901588439941,-17.1376953125,10.8289747238159,11.9781913757324,6.69897651672363,-11.4604425430298,-13.1519289016724,-13.4182662963867,31.1916599273682,19.766529083252,11.6094837188721,1.39521622657776,0.90652400255203,-0.19303341209888,-0.36163222789764,-1.51494586467743,-0.69699722528458,-33.4685440063477,-34.7374725341797,-31.6896533966064,9.51695156097412,4.54898309707642,6.93600225448608,-7.43911695480347,-4.54789161682129,-0.32192599773407,-19.7904720306396,-20.6523838043213,-15.4497833251953,1.88024318218231,2.05922675132751,1.73668992519379,-0.43676865100861,-0.56260687112808,-0.52045720815659,-10.2854900360107,-5.564124584198,-2.01591777801514,8.9471321105957,5.95437955856323,4.58250188827515,2.42391324043274,2.0323486328125,1.58091926574707,0.03830722719431,0.72544312477112,-1.43652105331421,SWING_RIGHT
0.11606439948082,-0.64079761505127,-1.16980695724487,-0.40866884589195,0.18936823308468,0.16126842796803,4.49870491027832,5.2672438621521,5.96156215667725,5.13556241989136,6.5361704826355,8.87769985198975,-0.1795943826437,-1.0867292881012,-2.03295946121216,12.8329210281372,13.3716163635254,13.1250133514404,-0.56199604272842,0.17409659922123,0.66706484556198,0.70310592651367,0.01099557429552,-0.05192354694009,5.2672438621521,4.94642066955566,3.02866506576538,15.5168209075928,14.4777374267578,13.5679407119751,-5.30047750473022,-6.59612274169922,-7.53685522079468,22.5390148162842,22.2277679443359,23.6451358795166,1.13254415988922,1.40987694263458,1.78433740139008,-0.33536502718925,0.13133603334427,0.39889499545097,-10.75954246521,-16.8647575378418,-22.2588939666748,16.1919860839844,15.8567981719971,15.1385374069214,-11.2606897354126,-11.4146280288696,-11.0725431442261,17.7913131713867,12.5863180160522,8.57842445373535,2.9236011505127,2.07205486297607,1.23761296272278,-0.81550508737564,-0.81306165456772,-0.75625115633011,-27.8661136627197,-29.3816432952881,-28.0672264099121,3.85945320129395,4.21618938446045,7.11556768417358,-7.76409721374512,-6.16301965713501,-4.24612426757813,-13.6589202880859,-18.1983280181885,-19.9413051605225,0.4673119187355,0.79107052087784,1.49600899219513,-1.11299645900726,-0.81489425897598,-0.73792523145676,-15.8615865707397,-11.1450090408325,-7.09641361236572,13.2471179962158,13.4362602233887,9.9000244140625,1.75868105888367,1.87108027935028,1.80510675907135,-4.57292509078979,-2.91374349594116,-1.10612118244171,SWING_RIGHT
-0.69211030006409,-0.73487091064453,-0.55038958787918,-1.13315498828888,-1.55526292324066,-1.31641459465027,7.71890640258789,6.46913290023804,5.17387008666992,9.53610515594482,12.1984577178955,15.2031812667847,-4.89730644226074,-5.59613656997681,-6.82825183868408,23.5924644470215,28.7352085113525,30.2172203063965,1.69881629943848,0.56688296794891,-0.01404990069568,-2.33045101165771,-0.86193084716797,-1.05435335636139,-12.1577558517456,-13.4745674133301,-18.0618572235107,8.39646530151367,9.93354320526123,13.2112045288086,-9.49467849731445,-10.7041921615601,-10.9705286026001,25.7592163085938,19.2852954864502,14.9565782546997,0.68172562122345,-0.54244834184647,-1.21989786624908,-2.78004765510559,-3.14106917381287,-2.49110841751099,-28.8094291687012,-30.9689998626709,-34.6129722595215,11.049241065979,14.6788501739502,17.5973815917969,-10.5032167434692,-10.1287565231323,-8.8544921875,7.68538761138916,-2.50433492660522,-10.8624935150146,1.59496915340424,2.44895887374878,3.01278734207153,-0.56382864713669,-0.95722585916519,-1.42575943470001,-25.9004745483398,-21.8806095123291,-18.0905876159668,15.9669313430786,13.0029096603394,10.2926731109619,-1.53876960277557,-0.19303341209888,0.69088858366013,-14.3915462493896,-10.7308120727539,-7.78115558624268,1.66460776329041,0.96089100837708,0.10873401165009,-1.28464961051941,-1.35062301158905,-0.96089100837708,-4.80755710601807,-3.227383852005,-2.18351197242737,6.24886655807495,6.43321990966797,8.08521938323975,0.83138757944107,0.83322018384933,0.81122905015945,-4.56095409393311,-4.33829355239868,-3.14598107337952,SWING_RIGHT
0.40927970409393,0.42271876335144,0.46792277693748,0.23823744058609,0.03420845419168,-0.33841934800148,4.2760443687439,4.00310516357422,4.13239192962646,9.897629737854,10.074800491333,10.5991306304932,-2.21438646316528,-2.6700918674469,-2.85335159301758,7.57046556472778,7.18978786468506,8.02297019958496,0.24068090319633,0.29871311783791,0.8478809595108,-0.75197511911392,-0.50213122367859,-0.87231558561325,4.52025270462036,4.58489608764648,5.07810163497925,12.526463508606,15.4162645339966,16.4768962860107,-4.16610097885132,-5.87713432312012,-6.43057823181152,17.0323505401611,18.0546741485596,17.7649765014648,0.71226888895035,-0.26878070831299,-0.00183259579353,-0.37507125735283,0.76724672317505,1.55770635604858,-3.87621259689331,-8.13549709320068,-12.2415533065796,9.05008220672607,14.1784620285034,22.3666324615479,-7.87222051620483,-8.6889476776123,-8.89236545562744,20.7074508666992,15.2845840454102,14.4729490280151,3.91564631462097,2.60656189918518,1.09222710132599,-2.27058601379395,-2.17406940460205,-1.71592044830322,-19.7904720306396,-19.1320667266846,-21.3634624481201,7.23288345336914,5.45877981185913,4.80037450790405,-8.94551086425781,-9.19840908050537,-9.02553367614746,12.0308637619019,5.7628436088562,-5.55215358734131,-1.17835903167725,0.65851271152496,1.51861095428467,-0.54916787147522,-0.83688539266586,-0.9828822016716,-28.5293083190918,-22.7712516784668,-18.7585697174072,13.8935527801514,13.4051351547241,12.3564748764038,0.48197266459465,1.25227379798889,1.41109871864319,-8.29351425170898,-3.92888498306274,0.03591302409768,SWING_RIGHT
-0.36774086952209,-0.22174409031868,-0.04948008432984,0.63652157783508,0.56749379634857,0.42760565876961,2.55461311340332,3.21780705451965,3.51468801498413,10.8600988388062,10.8385515213013,9.75158309936523,1.57053458690643,1.63467538356781,1.19240891933441,2.92332029342651,5.62158536911011,5.67665243148804,0.4239404797554,0.60048055648804,0.43737950921059,0.06108652427793,0.13377949595451,0.18264870345592,2.90895509719849,2.48039293289185,2.11408019065857,10.2280292510986,7.92241334915161,7.18021106719971,0.62552601099014,0.37018433213234,0.52045720815659,4.61841487884521,3.05021286010742,0.99838209152222,-0.19486601650715,-0.70127332210541,-1.29259085655212,0.06414084881544,-0.21807889640331,-0.84421575069427,5.90410137176514,8.94473743438721,11.0707883834839,5.56173038482666,4.82910490036011,5.79396820068359,-1.95599055290222,-5.19540882110596,-10.2417669296265,39.2218132019043,35.6664237976074,30.7487316131592,0.6444628238678,1.04885566234589,1.02747535705566,0.54183745384216,0.25961771607399,-0.74830991029739,-27.4495220184326,-30.588321685791,-31.4502334594727,9.48103904724121,7.52976417541504,8.67658710479736,-13.7853956222534,-12.8049573898315,-10.930212020874,3.7038300037384,-7.18499946594238,-12.4163303375244,1.48195910453796,0.39645153284073,-0.90530228614807,-2.40131139755249,-1.97737073898315,-1.22173047065735,-22.1966438293457,-22.0027141571045,-18.8423671722412,6.82586908340454,10.6709566116333,19.361909866333,-1.39949226379395,0.30787608027458,1.07267940044403,-11.7722902297974,-6.45955610275269,-3.48595762252808,SWING_RIGHT
-0.05558873713017,-0.15149457752705,-0.20708331465721,-0.16737708449364,-0.01466076634824,-0.23212879896164,1.79565131664276,2.07098436355591,2.18111777305603,9.26795482635498,9.34696388244629,9.58877754211426,-0.020158553496,0.01649336144328,0.06902777403593,-0.08379705995321,-0.04070143029094,0.18195933103561,-0.35124751925468,0.0226020142436,0.15760323405266,-0.05253441259265,-0.61697387695313,-0.90591317415237,3.23456645011902,5.43962621688843,7.18021106719971,10.6877164840698,10.6925048828125,9.44033718109131,-3.01217651367188,-4.36585378646851,-5.91317558288574,18.6053409576416,21.3682498931885,23.5086669921875,-0.64629542827606,0.52167892456055,1.69515109062195,0.72876220941544,0.27977627515793,0.65790188312531,1.61608612537384,-2.61925673484802,-7.86255836486816,22.0051078796387,21.0450325012207,14.2909898757935,-11.1208019256592,-12.1018514633179,-12.4524879455566,28.7399978637695,24.5453567504883,20.9588413238525,2.54791903495789,2.75561308860779,2.62122273445129,0.98654735088348,0.17226399481297,-0.46425759792328,-27.6266937255859,-30.9785766601563,-30.7343673706055,8.80587387084961,7.5465235710144,6.60081386566162,-9.42381858825684,-7.14773416519165,-4.95167350769043,-5.92804336547852,-7.73805999755859,-9.66299819946289,0.64018678665161,0.78740531206131,1.07817721366882,-0.41050145030022,-0.34330627322197,-0.13805554807186,-18.9381351470947,-14.7123699188232,-10.8050327301025,10.3309803009033,11.0420579910278,10.7954559326172,1.27731919288635,1.64322745800018,1.84969997406006,-5.81791019439697,-5.41807842254639,-4.07253694534302,SWING_RIGHT
-0.60597831010818,-0.46486845612526,-0.15332718193531,-0.53084188699722,-0.06780604273081,-0.12156218290329,10.321403503418,11.6525793075562,8.69813442230225,14.5304098129272,15.3947172164917,17.2574062347412,-6.81542348861694,-8.04081916809082,-8.56249809265137,25.6562652587891,24.1503124237061,26.9467391967773,1.2400563955307,1.64444923400879,2.59678816795349,1.36711645126343,0.7739662528038,-0.47036623954773,-11.2551422119141,-17.496826171875,-21.9524345397949,10.6015253067017,13.4841442108154,10.3932294845581,-11.8269624710083,-11.8636140823364,-11.4353971481323,18.6460437774658,13.8528509140015,7.07965421676636,0.44287729263306,-0.69272118806839,-1.0800096988678,-1.6890424489975,-1.39827048778534,-1.00731682777405,-31.3975620269775,-31.976957321167,-29.1709537506104,6.49786329269409,10.7236289978027,17.7362461090088,-5.15936803817749,-2.18384313583374,0.26816985011101,-21.4400768280029,-20.0155258178711,-15.842432975769,2.8014280796051,2.138028383255,0.90346968173981,-0.21807889640331,-0.03665191307664,0.11728613078594,-8.25999546051025,-2.88980150222778,1.3910311460495,5.32231044769287,2.40856695175171,3.72777199745178,2.69635915756226,2.0079140663147,1.32557761669159,1.13245737552643,1.01514148712158,0.00957680679858,-0.57848936319351,-0.31154128909111,-0.08063421398401,0.10629054903984,0.22968533635139,0.28955012559891,2.67432332038879,2.22181916236877,1.68072962760925,11.4083709716797,11.0300874710083,11.2503538131714,0.42516219615936,0.10201449692249,0.10812314599752,-1.43652105331421,-3.5003228187561,-5.07810163497925,SWING_RIGHT
0.67806041240692,0.24740041792393,-0.10201449692249,-0.46792277693748,-0.57421332597733,-0.58887410163879,8.89206504821777,8.65503883361816,9.07163047790527,6.26323175430298,7.3190746307373,8.55927085876465,-5.03352975845337,-6.77754974365234,-7.91314840316772,29.6066989898682,26.5732440948486,22.6347827911377,0.52045720815659,1.03724920749664,1.33840572834015,0.2119702398777,0.08979719132185,-0.08979719132185,-11.8991823196411,-16.2135334014893,-18.0546741485596,12.3660516738892,11.0875482559204,8.7077112197876,-11.2967309951782,-11.8886594772339,-11.6314849853516,25.5317668914795,19.0267200469971,16.6325187683105,0.80878555774689,0.93095862865448,0.40744712948799,-0.57971113920212,-0.70554935932159,-0.78801614046097,-39.274486541748,-42.293571472168,-41.2449111938477,8.81066226959229,6.2201361656189,10.0939540863037,-4.39639711380005,-0.93340212106705,1.5778648853302,-28.2611560821533,-20.1639671325684,-8.35336971282959,3.98100876808167,3.28401160240173,1.80755031108856,0.09285151958466,-0.15332718193531,-0.09773843735456,-4.53940629959106,1.58735573291779,5.1978120803833,1.74537301063538,-1.47482824325562,0.40222588181496,1.638951420784,1.05190992355347,0.52473324537277,0.59376204013824,-0.28969839215279,-2.50433492660522,-0.44409903883934,-0.08796459436417,0.09896016865969,-0.12034045159817,-0.04520402848721,-0.07819075137377,1.42694425582886,0.22266076505184,-0.43574470281601,11.9207305908203,10.9558668136597,9.79946708679199,-0.1795943826437,-0.03054326213896,0.18753562867641,-3.12682747840881,-3.89057779312134,-3.93367338180542,SWING_RIGHT
0.77213364839554,1.34390354156494,1.32741022109985,-0.78190749883652,-1.11055302619934,-1.05313169956207,8.9471321105957,8.47547435760498,7.81467437744141,13.4410486221313,10.7284173965454,9.15782165527344,-4.60531330108643,-5.10683345794678,-5.75373983383179,14.3843641281128,16.8551807403564,20.9325046539307,0.41172316670418,0.32925635576248,0.42760565876961,-0.57910025119781,-0.27000242471695,-0.3933972120285,-3.33272886276245,-6.38054752349854,-10.8457336425781,11.6956748962402,13.2040224075317,15.2319116592407,-9.94855117797852,-10.4115867614746,-10.2020606994629,21.4616241455078,15.1624794006348,12.7802486419678,1.50150680541992,1.09222710132599,1.02686452865601,-1.14476144313812,-1.1233811378479,-1.19729590415955,-29.1925010681152,-29.4630470275879,-28.4790287017822,10.1298675537109,12.3899936676025,13.9079179763794,-6.03840303421021,-3.91870045661926,0.34574973583221,-14.7482824325562,-19.1775550842285,-13.4290771484375,2.6523768901825,2.19056272506714,1.51311326026917,-0.53267449140549,-0.46364670991898,-0.35552358627319,-9.16979217529297,-4.67348194122314,-1.62805712223053,6.10281991958618,4.83628749847412,6.72052431106567,1.64506006240845,1.64994704723358,1.47279608249664,-3.24414324760437,-1.18034148216248,0.07182604819536,-0.37507125735283,-0.4202753007412,-0.10934487730265,0.16982053220272,0.11789698898792,0.25228735804558,0.75177931785583,0.74699091911316,0.9241618514061,10.5584297180176,12.5719528198242,12.6006832122803,0.77213364839554,0.94806283712387,1.06412720680237,-2.90895509719849,-2.3511061668396,-2.47321033477783,SWING_RIGHT
-0.75075340270996,-0.3072652220726,-0.22785273194313,-0.09162978827953,0.14966198801994,-0.13866640627384,6.83065748214722,7.79791498184204,7.65905141830444,11.9757966995239,12.6030778884888,14.9302415847778,-2.86495804786682,-3.92358756065369,-4.71587991714478,18.6675910949707,18.9357414245605,21.5597858428955,1.78372657299042,1.84481298923492,1.39094018936157,-0.66462141275406,-0.87964594364166,-0.65484756231308,2.7126305103302,-0.56263738870621,-3.8690299987793,13.9845323562622,11.2766895294189,10.2902784347534,-7.72255849838257,-8.01394081115723,-8.85388088226318,22.2349510192871,25.7376689910889,28.0456790924072,1.10872042179108,1.73363554477692,2.25592541694641,-0.49663344025612,0.15210545063019,-0.56566119194031,-24.5118370056152,-26.5253601074219,-27.7966823577881,15.2079696655273,14.0204448699951,11.3940057754517,-10.4971084594727,-9.98764705657959,-7.01334381103516,2.26012635231018,-19.0482692718506,-24.8709678649902,0.19181168079376,1.07267940044403,1.7880026102066,-0.57421332597733,-0.5400048494339,-1.28037357330322,-20.4776077270508,-11.1737394332886,-7.04852962493896,11.6765213012695,11.9853734970093,9.40921306610107,0.7305948138237,1.27731919288635,1.0567969083786,-8.73404788970947,-4.75967311859131,-1.26174426078796,-0.55955255031586,-0.15821409225464,0.27427849173546,0.00244346098043,0.15332718193531,0.01893682219088,1.49158763885498,0.08379705995321,-0.08379705995321,11.0372695922852,12.8401041030884,11.2048635482788,0.58520889282227,0.64690631628036,0.51923543214798,-4.1347861289978,-2.08056116104126,-5.07091903686523,SWING_RIGHT
1.16491997241974,1.72508347034454,1.99080979824066,-1.29747772216797,-1.50272846221924,-1.14292883872986,10.936713218689,9.00938129425049,7.55849456787109,16.4337997436523,14.499285697937,12.8329210281372,-7.27907037734985,-7.78120136260986,-8.43177318572998,22.3881797790527,27.7152786254883,28.9195613861084,0.0,0.76785761117935,2.29074478149414,0.34269541501999,0.95783668756485,0.7000515460968,-10.7763013839722,-15.4473896026611,-19.5438690185547,19.7808952331543,20.8367366790771,16.5343570709229,-10.9155511856079,-11.007791519165,-10.640661239624,21.9668006896973,18.3252201080322,15.7658185958862,0.82650065422058,-0.18753562867641,-0.05192354694009,-0.67867130041122,-0.44348818063736,-0.44409903883934,-32.807746887207,-36.5187568664551,-37.3279991149902,5.30555105209351,9.99100399017334,14.0372047424316,-5.98770093917847,-3.22292494773865,-0.30543261766434,-19.7449817657471,-24.8446311950684,-20.6619606018066,3.11296939849854,3.14473438262939,2.14780211448669,0.04031710699201,0.03420845419168,0.13133603334427,-13.8648223876953,-5.86579418182373,0.13646949827671,8.15943908691406,1.18991827964783,0.1268926858902,1.25288462638855,0.76969021558762,0.62735861539841,-0.9528923034668,-4.08929634094238,-4.51546430587769,0.42332962155342,0.17837265133858,0.00366519158706,-0.09162978827953,-0.13255776464939,-0.25961771607399,2.03746557235718,0.89064306020737,-0.14125789701939,5.70777702331543,6.36857652664185,7.61116743087768,-0.3591887652874,-0.04092797264457,0.4147774875164,-7.02698183059692,-6.3470287322998,-4.89135408401489,SWING_RIGHT
0.53267449140549,0.21868975460529,-0.60658919811249,0.10262536257505,0.36774086952209,0.16432274878025,2.166752576828,2.05422496795654,2.00394678115845,6.81389808654785,6.2584433555603,8.24563026428223,1.1966849565506,1.17835903167725,1.29075825214386,4.23534297943115,3.22977805137634,4.89853668212891,-0.63835418224335,-0.76358157396317,-0.58520889282227,0.58276546001434,0.4416555762291,0.39706242084503,4.52982950210571,5.29597425460815,6.25126075744629,8.36055278778076,10.1897220611572,11.4083709716797,-0.34208452701569,-0.59559363126755,-2.18017816543579,7.37414121627808,17.8439846038818,23.4272632598877,-0.36590829491615,-0.61086523532867,0.13439035415649,-1.09589219093323,0.25961771607399,0.20830504596233,12.7778549194336,9.62947940826416,5.20260047912598,11.7411651611328,17.2933197021484,19.165584564209,-7.44522571563721,-8.76286220550537,-9.83615207672119,30.4183330535889,30.3105926513672,21.5406322479248,0.85276788473129,2.19667148590088,2.32861828804016,0.50213122367859,-0.26939156651497,-0.6884451508522,-15.1864213943481,-21.02587890625,-20.9588413238525,13.2016277313232,10.3070383071899,7.81706857681274,-9.0689058303833,-7.65963935852051,-6.8429126739502,4.85065269470215,6.30632734298706,6.14831018447876,0.40500366687775,1.19363069534302,1.69331848621368,-1.20706975460052,-1.351233959198,-1.38238799571991,-22.6683025360107,-22.6515426635742,-23.1136226654053,15.4713315963745,14.0994539260864,12.5312519073486,-2.71224164962769,-0.98166042566299,0.30909782648087,-12.1386022567749,-10.0843772888184,-7.41484260559082,SWING_RIGHT
0.10384709388018,-0.40744712948799,-0.78068578243256,-0.46364670991898,-0.26572638750076,0.13927727937698,5.25048446655273,4.90571928024292,5.13556241989136,7.11077928543091,9.34935760498047,12.4857616424561,-2.90649676322937,-2.97369194030762,-3.05005025863647,7.85776996612549,9.93354320526123,12.0452289581299,0.67195177078247,0.85826569795609,1.09283792972565,0.01282817032188,-0.83322018384933,-0.38484510779381,0.39743748307228,-1.02471828460693,-3.46440982818604,14.1880388259888,14.3891525268555,13.6804685592651,-6.64438104629517,-6.92782258987427,-7.30900287628174,15.8304615020752,15.8472213745117,27.9163913726807,1.42637038230896,1.60962986946106,2.29440975189209,0.10751228034496,0.45387288928032,-0.18936823308468,-17.1137542724609,-23.8366718292236,-28.4574813842773,12.648567199707,14.8512334823608,13.8504571914673,-10.5643033981323,-10.1898431777954,-8.71826839447021,10.3381633758545,-1.01274728775024,-10.9103775024414,1.28587138652802,1.65910995006561,1.92056035995483,-0.53145277500153,-0.95539325475693,-1.20645880699158,-26.4248046875,-22.6970329284668,-18.322826385498,11.5999069213867,10.5512466430664,9.95987892150879,-1.62245810031891,-0.41233405470848,0.60597831010818,-14.3891525268555,-12.5049152374268,-9.05247688293457,1.92544722557068,1.49600899219513,0.87598073482513,-1.30602991580963,-1.14659404754639,-0.80573123693466,-4.49631071090698,-2.31998133659363,-0.79966336488724,6.51941108703613,6.11479091644287,6.94079065322876,0.98043870925903,1.04152524471283,1.02625358104706,-5.63834476470947,-5.39653062820435,-4.27125597000122,SWING_RIGHT
1.15942227840424,1.67865765094757,1.33718407154083,-1.32618844509125,-2.27669477462769,-2.1569652557373,16.0603046417236,15.6221656799316,12.471396446228,10.1681747436523,5.42286682128906,4.04380655288696,-6.87712097167969,-7.89298963546753,-8.93451499938965,31.7399311065674,35.9992179870605,36.1763877868652,-1.52533054351807,-0.42577308416367,0.75564032793045,0.01893682219088,0.9511171579361,1.27670836448669,-12.526463508606,-17.7194862365723,-23.0202484130859,24.588451385498,21.9596176147461,19.3834571838379,-12.1549968719482,-12.3578042984009,-11.8251295089722,27.9355449676514,20.9372940063477,17.1688213348389,1.02869701385498,-0.26267206668854,-0.96822142601013,-0.48930305242538,-0.30848693847656,-0.16187928617001,-36.1332931518555,-40.8426856994629,-39.5546073913574,1.83156430721283,6.43561410903931,12.648567199707,-6.95286798477173,-3.62548518180847,-0.64385199546814,-23.8175182342529,-19.9724311828613,-11.1737394332886,2.9358184337616,2.77821516990662,2.64382481575012,0.29260444641113,0.21563543379307,0.12156218290329,-14.1856451034546,-7.05810642242432,-3.24414324760437,6.31350994110107,6.45716190338135,3.92649078369141,2.02990531921387,1.57175624370575,1.33046448230743,0.60094463825226,-1.85311210155487,-2.40856695175171,-0.46059238910675,-0.69699722528458,-0.34880405664444,0.2767219543457,0.43004912137985,0.01221730466932,0.56503158807755,-0.38786068558693,-0.26575639843941,7.25682544708252,10.3908357620239,10.5368814468384,0.28405234217644,0.06536258012056,0.12583823502064,-1.65678763389587,-3.21301865577698,-4.73812532424927,SWING_RIGHT
-0.0598647929728,-0.00122173049022,-0.03543018549681,0.23090706765652,0.05436700582504,-0.08796459436417,3.79002118110657,4.97515106201172,6.35421133041382,8.81066226959229,8.5880012512207,7.09401941299438,0.57543504238129,0.40072759985924,-0.37507125735283,5.35822343826294,10.1681747436523,16.3763389587402,0.75197511911392,0.5400048494339,0.19120082259178,-1.11482906341553,-0.64873886108398,-0.74647730588913,13.496114730835,13.3572511672974,12.0931129455566,7.74524259567261,7.82185697555542,10.6182842254639,-5.00726222991943,-6.40553283691406,-7.75859928131104,23.4248695373535,26.1949615478516,28.0815925598145,1.11971604824066,1.82526540756226,3.18016457557678,0.49357911944389,1.0256427526474,0.92484998703003,-5.53539419174194,-12.4690027236938,-18.3156433105469,21.8255424499512,24.0306034088135,23.6092224121094,-11.6333179473877,-12.2362413406372,-12.4738683700562,29.4965648651123,24.80153465271,14.4083061218262,3.71467161178589,1.44347453117371,-0.24801129102707,-2.2467622756958,-2.02990531921387,-1.90162348747253,-25.986665725708,-26.1901721954346,-29.9035797119141,4.49391651153564,7.70454120635986,15.375563621521,-7.50081443786621,-5.74152231216431,-3.18016457557678,-5.67665243148804,-16.1512851715088,-15.7634239196777,2.52714943885803,3.49109482765198,3.9437460899353,-0.49480083584785,-0.32681289315224,-0.16310101747513,-18.8615207672119,-13.9031295776367,-8.95670890808105,16.508020401001,11.0037508010864,5.71017122268677,1.68476629257202,1.70920097827911,1.56198239326477,-3.29202723503113,-2.52588272094727,-3.42131423950195,SWING_RIGHT
-0.80267691612244,-0.63285636901855,-0.4850270152092,0.08979719132185,-0.2944370508194,-0.21258109807968,4.09887313842773,4.44363832473755,5.31512784957886,9.77552509307861,10.1226844787598,10.857705116272,-0.00488692196086,-0.26450464129448,-1.50517201423645,5.63595056533813,13.1178312301636,14.8703870773315,1.89429306983948,1.92422556877136,1.50639367103577,-2.14658045768738,-1.56320416927338,-0.99387776851654,10.4291429519653,11.2527475357056,9.52413463592529,8.67179870605469,5.86100578308105,5.11880302429199,-6.2039475440979,-6.61383819580078,-6.33039665222168,13.4865379333496,12.4235124588013,16.7139225006104,-2.05922675132751,-1.92056035995483,-1.34634697437286,-0.8662069439888,-0.61941736936569,-0.35124751925468,2.50433492660522,-1.60650932788849,-4.83149909973145,13.4554138183594,15.4186592102051,17.9325714111328,-8.59548473358154,-8.72498798370361,-8.75247764587402,17.851167678833,16.5678749084473,13.3764047622681,1.97370564937592,2.31395745277405,2.00852489471436,0.18264870345592,-0.02321287989616,-0.13194689154625,-12.1577558517456,-12.6102600097656,-13.9941091537476,13.6637086868286,9.05247688293457,6.78995609283447,-7.73355388641357,-7.69445848464966,-7.32244157791138,11.911153793335,8.97346782684326,5.4444146156311,0.01832595653832,0.11972958594561,0.08552113175392,-0.54916787147522,-0.4331034719944,-0.39706242084503,-19.4169750213623,-19.2757186889648,-18.3635272979736,10.6877164840698,9.78749656677246,10.3118267059326,-4.04270601272583,-2.83869075775146,-1.55526292324066,-4.99430465698242,-7.5776481628418,-8.93276691436768,SWING_RIGHT
0.48197266459465,0.80756384134293,1.28281700611115,-0.49480083584785,-0.86681777238846,-1.37200331687927,7.67341661453247,7.44596719741821,6.91206026077271,12.4306955337524,13.5080862045288,14.4921026229858,-4.7659707069397,-5.78306150436401,-6.39087200164795,15.9525661468506,15.7706069946289,16.5535106658936,0.49418997764587,-0.9523389339447,-2.18628668785095,-1.45447015762329,-0.70982539653778,0.30054569244385,3.45722723007202,-0.1508347094059,-3.98155736923218,4.75727891921997,5.34864664077759,10.7403888702393,-8.53806400299072,-9.31997108459473,-9.95954704284668,24.4783172607422,23.4224758148193,23.4631767272949,1.34756875038147,1.5723671913147,1.48806774616241,0.61025440692902,0.30604347586632,-0.34025195240974,-17.6404781341553,-22.211009979248,-28.6418342590332,8.88488292694092,7.74524259567261,7.77876138687134,-11.0365028381348,-10.7023591995239,-9.30531024932861,16.6564617156982,3.27287364006042,-9.95509052276611,1.24372160434723,2.02990531921387,2.14841318130493,-0.68661254644394,-0.22907446324825,0.2981022298336,-28.7615451812744,-23.5685214996338,-17.171215057373,17.3651447296143,13.086706161499,10.8050327301025,0.39645153284073,1.29992127418518,1.43370068073273,-7.36695861816406,-3.60087943077087,-0.39504328370094,1.89673662185669,1.18996548652649,0.64629542827606,0.19975294172764,0.31826078891754,0.64629542827606,-0.15322890877724,0.55784898996353,0.98641109466553,4.3454761505127,5.51863479614258,9.20091724395752,0.48930305242538,0.50823986530304,0.34880405664444,-4.38857173919678,-2.8467059135437,-3.74692559242249,SWING_RIGHT
0.11972958594561,0.47891834378242,0.00916297826916,-0.70860368013382,-0.4972442984581,-0.35124751925468,7.36217021942139,8.25520706176758,7.73805999755859,13.6661033630371,9.73721790313721,9.8808708190918,-5.80871772766113,-6.867347240448,-8.00111293792725,20.0203151702881,23.0705280303955,13.7499008178711,0.97982788085938,1.97553825378418,2.1911735534668,2.39398097991943,2.31090331077576,2.32617473602295,-4.68784713745117,-8.57363605499268,-12.526463508606,19.2110748291016,13.1537437438965,10.4961805343628,-8.8477725982666,-8.71826839447021,-8.43788146972656,17.0443210601807,15.7275114059448,15.8232793807983,2.60411858558655,1.94866013526917,1.56503677368164,1.2168436050415,1.00731682777405,1.16003310680389,-21.1048889160156,-26.1351051330566,-29.2858753204346,3.28963303565979,5.40371322631836,8.40843677520752,-5.97487306594849,-3.74582576751709,-1.55892813205719,-13.594277381897,-15.9812965393066,-13.8169384002686,2.34755516052246,2.63405084609985,2.36832451820374,0.18264870345592,-0.36468654870987,-0.33231070637703,-18.7801189422607,-13.8360919952393,-9.89523601531982,7.161057472229,5.19062948226929,6.61039066314697,2.36649203300476,2.59556651115417,2.37993097305298,-5.77002620697021,-2.67911171913147,-3.56975483894348,1.75012898445129,0.89797192811966,0.30604347586632,-0.49846604466438,-0.32009339332581,-0.20402899384499,-0.28012159466743,1.83156430721283,1.79086291790009,5.41329002380371,4.9105076789856,5.85382318496704,1.60596477985382,1.25716066360474,1.24983024597168,-2.92092609405518,-5.832275390625,-7.41244840621948,SWING_RIGHT
-0.40866884589195,-1.1001683473587,-0.83749628067017,0.24862214922905,0.18692477047443,-0.37323865294456,6.64151573181152,6.33745193481445,7.0317702293396,4.78361511230469,9.43315505981445,12.9909381866455,-1.48195910453796,-1.8912388086319,-2.22599291801453,8.87291145324707,9.09557247161865,10.0795888900757,0.44898596405983,0.51068335771561,0.84055060148239,-1.18507862091064,-1.37994456291199,-1.24311077594757,12.7610950469971,12.9981212615967,11.8872117996216,12.3109855651855,13.8313035964966,15.2702188491821,-4.94739770889282,-6.25159502029419,-7.37986326217651,26.2141151428223,26.8078765869141,25.189395904541,-0.60658919811249,-1.53143918514252,-1.51311326026917,-0.52106803655624,0.41355577111244,0.62980204820633,-3.77805018424988,-8.43956089019775,-15.1169891357422,7.90325975418091,11.8345394134521,18.0211563110352,-9.87158203125,-10.2209968566895,-10.2662010192871,22.7113971710205,19.0171432495117,16.7689895629883,2.84235596656799,1.8301522731781,0.32742378115654,-0.62124997377396,-0.80145519971848,-0.45204028487206,-24.6339416503906,-24.4184627532959,-26.3793144226074,5.13556241989136,2.52348852157593,3.99113416671753,-8.35236072540283,-7.51425361633301,-6.13980674743652,3.5960910320282,-4.40772533416748,-12.5767412185669,1.26143670082092,2.76783037185669,3.50086879730225,-0.04337143152952,-0.03970624133945,0.0299323964864,-23.245304107666,-19.436128616333,-14.8129262924194,16.7282867431641,12.2080345153809,7.48188018798828,1.37627935409546,1.77150917053223,1.62917757034302,-5.31273365020752,-2.03507137298584,-1.84832370281219,SWING_RIGHT
-0.06597344577312,0.10812314599752,0.30298915505409,-0.30054569244385,-0.04581489413977,-0.22785273194313,4.72854852676392,5.93283176422119,8.56884765625,10.6230726242065,10.6733512878418,12.0715646743774,-1.01464712619781,-1.21440005302429,-1.37994456291199,3.66791701316834,4.71418333053589,4.55616569519043,-0.54550266265869,-0.67378437519073,0.04153883829713,-0.31826078891754,-0.69516462087631,-0.51801371574402,5.30794525146484,3.79241538047791,4.51546430587769,6.94797325134277,15.7945489883423,15.2103633880615,-3.97551107406616,-4.76841402053833,-6.67370271682739,18.6244945526123,27.5812034606934,27.4830417633057,0.84055060148239,1.1612548828125,1.43308985233307,1.13804197311401,0.74403387308121,-0.3500257730484,-5.96635055541992,-9.91678333282471,-15.8591918945313,11.3964004516602,10.6972932815552,9.08120727539062,-10.967474937439,-11.5441312789917,-11.3523197174072,22.5294380187988,16.4697132110596,10.8265800476074,1.31763637065887,-0.12889257073402,-1.64811444282532,-1.67926859855652,-1.61634945869446,-0.8344419002533,-25.4575462341309,-25.6514778137207,-27.7128849029541,5.01585245132446,4.55137729644775,9.63905620574951,-6.74456310272217,-5.29803419113159,-3.35120677947998,-2.86107110977173,-9.98382091522217,-12.3061971664429,2.42696762084961,2.93337488174438,2.54608631134033,0.37995818257332,0.49663344025612,0.7617489695549,-16.1201591491699,-12.0907182693481,-8.83939266204834,11.9303073883057,6.92163705825806,5.98789834976196,1.28037357330322,1.53021740913391,1.57908666133881,-5.09007263183594,-4.01507616043091,-1.20907187461853,SWING_RIGHT
-0.69516462087631,-0.54489177465439,-0.10079276561737,0.31948253512383,0.15882496535778,-0.7367035150528,2.58573794364929,3.02387666702271,5.85621738433838,9.81862163543701,10.6805334091187,10.3190097808838,0.51190507411957,-0.23884831368923,-0.57543504238129,8.29351425170898,8.4299840927124,14.6213893890381,-0.16310101747513,0.29565876722336,0.81855940818787,-0.64812803268433,-0.48075094819069,-0.61269783973694,11.310209274292,9.58877754211426,7.78833818435669,11.1306438446045,10.9199542999268,11.6142721176147,-6.05367469787598,-6.75861310958862,-7.14773416519165,18.4688720703125,19.7210388183594,22.5007076263428,-0.47342056035995,-2.68963956832886,-3.11419105529785,-1.34879040718079,-0.15088371932507,2.13680672645569,2.67911171913147,-2.84191751480103,-9.26077175140381,0.36631286144257,7.50582218170166,19.4576778411865,-9.41160106658936,-10.1464719772339,-10.8593511581421,26.3170642852783,24.4974708557129,19.0913639068604,1.33840572834015,0.1685988008976,-0.79351395368576,-0.52962017059326,-0.6884451508522,-0.53695052862167,-24.1048221588135,-25.3785381317139,-25.0241966247559,4.74051952362061,5.96874475479126,10.9822034835815,-6.37743330001831,-4.65173864364624,-3.08853459358215,-3.35427665710449,-6.04775333404541,-6.76122570037842,2.02135300636292,2.62000107765198,2.9480357170105,0.52595496177673,0.57421332597733,0.3500257730484,-15.9956617355347,-12.8424978256226,-9.59596061706543,13.0699472427368,11.2072582244873,7.48188018798828,-0.07696902006865,0.07819075137377,0.25595253705978,-3.91451978683472,-4.01747035980225,-3.8690299987793,SWING_RIGHT
-0.28955012559891,-0.08979719132185,0.65179324150085,-1.31946897506714,-0.97860610485077,-1.04580128192902,9.41400146484375,11.2000751495361,12.2080345153809,13.6254014968872,16.8934879302979,14.0779056549072,-4.8038444519043,-6.39148283004761,-7.73355388641357,29.4702281951904,26.7432327270508,21.5358448028564,-1.64689266681671,-1.29686689376831,-0.49296826124191,1.63467538356781,2.71407437324524,3.1624493598938,-1.76452660560608,-12.6294136047363,-16.8049011230469,11.501745223999,11.8752403259277,10.3477401733398,-9.05057907104492,-9.44092273712158,-9.94427490234375,27.0760269165039,25.0864448547363,21.2150211334229,1.33535146713257,0.9822713136673,0.97738438844681,1.41842913627625,1.13437676429749,0.72082096338272,-31.5795211791992,-34.2179298400879,-33.5116424560547,4.2257661819458,6.62954473495483,10.1514148712158,-7.66391515731812,-5.18013715744019,-2.54730796813965,-11.6573677062988,-13.8720045089722,-11.3485164642334,3.08425855636597,3.27851366996765,3.60777020454407,0.51129418611526,0.44959682226181,0.10812314599752,-18.480842590332,-14.484920501709,-8.46350288391113,8.21689987182617,7.49863958358765,7.4387845993042,2.02807259559631,1.99691843986511,1.87718892097473,-2.43011474609375,-2.48039293289185,-3.82114601135254,2.10320901870728,1.51800012588501,1.01037108898163,-0.50029861927032,-0.58215457201004,-0.37934732437134,-1.25216746330261,-0.73023152351379,-0.66798228025436,5.74129581451416,6.18422317504883,7.32146883010864,1.97981429100037,2.19056272506714,2.27119708061218,-5.4946928024292,-4.84586429595947,-3.24893164634705,SWING_RIGHT
-0.27122417092323,-0.11850785464048,0.1685988008976,-0.38301250338554,-0.85582220554352,-0.89308500289917,5.22654247283936,5.24569606781006,5.77481460571289,13.2973966598511,14.6357545852661,15.6963863372803,-3.23636412620544,-3.63525915145874,-4.19725513458252,13.0412168502808,16.1752262115479,18.4712657928467,0.81367248296738,0.85276788473129,0.83749628067017,-0.17715092003345,0.09834930300713,0.09957103431225,4.03422975540161,3.14837527275085,-0.34715923666954,14.9015111923218,15.2199401855469,16.6923751831055,-7.56495523452759,-9.31874942779541,-10.4464063644409,29.9299163818359,25.3593845367432,21.6172466278076,1.45691359043121,2.49660634994507,3.44772338867188,1.78372657299042,1.75073981285095,0.58765238523483,-25.8549842834473,-30.1477870941162,-31.4957237243652,15.5910415649414,13.9127063751221,9.23443603515625,-10.5606384277344,-10.5142126083374,-9.97176456451416,15.8304615020752,8.93994903564453,-4.71897172927856,1.02747535705566,1.45080494880676,2.04334425926209,-0.32620203495026,-0.94867372512817,-0.69394290447235,-29.1877136230469,-24.3418483734131,-19.6899147033691,10.6015253067017,10.7786960601807,10.8170032501221,-1.03419482707977,0.71593403816223,1.76601147651672,-15.3827457427979,-9.70848751068115,-4.14675712585449,2.47889113426209,1.5668693780899,0.62063908576965,-0.18753562867641,-0.1991420686245,-0.52412235736847,-3.00711727142334,-0.68474167585373,0.36631286144257,2.03028297424316,3.28245043754578,5.78917980194092,1.72874867916107,1.58153009414673,1.21501100063324,-1.50834703445435,-0.39983168244362,0.28012159466743,SWING_RIGHT
0.30909782648087,0.17348572611809,0.03481931984425,-0.07208210229874,0.24740041792393,0.12400564551353,2.65038132667542,3.62721562385559,4.28322696685791,8.64785671234131,8.48026275634766,8.24323654174805,-0.05131268128753,-0.72937309741974,-1.35306656360626,7.90565395355225,8.16422748565674,5.95677375793457,0.04520402848721,0.04398229718208,0.07635815441608,-0.67989301681519,-1.1178834438324,-1.15025925636292,9.48343276977539,10.675745010376,10.9630498886108,11.0707883834839,12.0859298706055,13.5176630020142,-5.06590557098389,-5.89546060562134,-7.2063775062561,18.4114112854004,24.3562145233154,30.9522399902344,0.54733526706696,-0.13988813757896,-0.53817230463028,-0.23090706765652,0.11056660860777,0.60658919811249,-0.66319388151169,-7.49145698547363,-14.2646541595459,11.5544176101685,12.9119300842285,14.4466133117676,-11.3456001281738,-11.6803541183472,-11.5368013381958,27.89723777771,24.8853321075439,26.4774761199951,0.54244834184647,-0.38545596599579,-0.51740288734436,1.68720984458923,1.85825204849243,1.99875104427338,-26.1853847503662,-30.2076435089111,-32.5036811828613,0.50038814544678,2.88740730285645,7.38371801376343,-9.74513339996338,-8.17643165588379,-6.42569160461426,6.46913290023804,-0.5434837937355,-9.78749656677246,1.46302223205566,2.51981902122498,3.20520997047424,0.97249746322632,0.66950833797455,0.46181413531303,-28.4502983093262,-22.9675769805908,-16.9270057678223,11.9662199020386,9.78510189056396,6.20098257064819,1.78555905818939,1.95660138130188,1.62551236152649,-3.11246228218079,0.15562310814857,-0.12449848651886,SWING_RIGHT
0.42760565876961,0.07024950534105,-0.00366519158706,-0.14844025671482,-0.08735372871161,-0.63713246583939,6.74686050415039,7.04374122619629,6.99825143814087,7.07007741928101,8.83221054077148,9.58398914337158,-1.43431162834167,-1.86924767494202,-2.31090331077576,8.74123001098633,10.9822034835815,17.1831855773926,0.22602014243603,0.37262779474258,0.08185594528913,-1.15820050239563,-1.7379115819931,-0.81550508737564,7.86255836486816,6.84502267837524,5.10922622680664,14.1162128448486,13.254301071167,13.8193321228027,-6.3627724647522,-7.2650203704834,-8.67062091827393,25.7520332336426,29.4007968902588,27.3657245635986,0.69272118806839,1.54243469238281,2.59495544433594,0.88819807767868,1.38483154773712,0.83383107185364,-13.7211694717407,-15.2989492416382,-18.8591270446777,16.4194355010986,14.745888710022,13.7427177429199,-10.8263645172119,-11.2435855865479,-10.9583120346069,22.9987010955811,17.1472721099854,10.433931350708,2.94192695617676,1.51005887985229,-0.25289821624756,-1.67926859855652,-1.54976511001587,-1.27915179729462,-25.7041492462158,-25.543737411499,-26.144681930542,6.58644866943359,5.05894804000854,8.25999546051025,-6.2803053855896,-5.24550008773804,-3.77942323684692,-1.33357036113739,-7.20415306091309,-14.1473379135132,2.62183356285095,3.20337724685669,3.21315121650696,-0.25411993265152,0.10079276561737,0.31398472189903,-16.8815155029297,-13.4506254196167,-9.78749656677246,14.4490070343018,9.95987892150879,6.47870969772339,1.64444923400879,1.40926611423492,1.12887895107269,-1.22343707084656,-0.5243301987648,-3.01429986953735,SWING_RIGHT
-0.40378192067146,-0.4416555762291,-0.24862214922905,-0.49968776106834,-0.44287729263306,-0.34941491484642,6.52419948577881,6.93600225448608,7.80509757995605,10.1705684661865,11.2192287445068,12.2032461166382,-0.93828904628754,-1.46241140365601,-1.82526540756226,8.07564258575439,8.36294651031494,11.6453971862793,0.56260687112808,0.70127332210541,0.95050632953644,-0.86681777238846,-1.07206845283508,-1.46424400806427,10.5033626556396,10.3070383071899,9.11951446533203,11.4155540466309,12.4163303375244,10.6877164840698,-5.77756357192993,-6.68469858169556,-7.29861783981323,22.1487598419189,23.0082778930664,27.4854354858398,-1.34817957878113,-1.42575943470001,-0.3378084897995,0.75869464874268,1.95537960529327,2.81792140007019,-7.45314979553223,-12.6318082809448,-17.0562934875488,13.1274080276489,16.670825958252,18.1336841583252,-9.80988502502441,-10.0572853088379,-9.95466041564941,21.6004886627197,16.8575744628906,11.9829797744751,4.92540645599365,3.86738777160645,2.11237192153931,-0.76235979795456,-1.48073732852936,-1.72141826152802,-26.1566543579102,-25.9770889282227,-24.7799873352051,3.87381839752197,2.60728573799133,6.07648372650146,-7.39879989624023,-5.82276773452759,-3.60899186134338,-7.80270338058472,-14.1569147109985,-14.563928604126,2.44895887374878,3.11480188369751,2.7824912071228,-0.88819807767868,-1.0567969083786,-0.74525558948517,-14.3795757293701,-10.951078414917,-7.97747993469238,12.555193901062,7.56328296661377,6.40209531784058,1.36955988407135,1.24127817153931,0.94745200872421,-0.95528650283813,-1.74297881126404,-3.227383852005,SWING_RIGHT
-0.19730947911739,-0.12644910812378,0.19425514340401,-0.44226643443108,-1.10566604137421,-1.67743599414825,3.15555787086487,3.08133769035339,4.89614248275757,10.7116584777832,12.2846488952637,11.7267999649048,-1.01159286499023,-1.06351637840271,-1.70981180667877,7.49145698547363,12.3085908889771,17.6165351867676,0.64996063709259,0.07391469180584,-0.63468897342682,-1.56503677368164,-1.43186807632446,-1.10749864578247,12.1577558517456,12.5049152374268,10.7475709915161,7.15626907348633,7.46751499176025,7.96790313720703,-5.90767765045166,-7.36703491210938,-8.53806400299072,29.6497936248779,30.2507381439209,28.4886054992676,-0.47952923178673,0.78923791646957,1.58519530296326,1.60229957103729,1.3946053981781,1.07878804206848,-11.9470663070679,-17.609354019165,-22.2445278167725,18.1169242858887,14.4633722305298,11.3700637817383,-10.3364505767822,-10.720685005188,-10.8379707336426,26.5732440948486,21.2916355133057,13.7091989517212,1.56931281089783,1.0677924156189,0.51251596212387,0.04886921867728,-0.12644910812378,0.09773843735456,-32.0104751586914,-29.1781368255615,-26.178201675415,6.30153894424438,7.00064563751221,8.99980449676514,-5.06101846694946,-3.20765328407288,-1.70187056064606,-12.1290254592896,-12.2008514404297,-12.4354839324951,1.70187056064606,2.2345449924469,2.47278261184692,-0.2138028293848,-0.13866640627384,-0.4844161272049,-12.5360403060913,-9.5815954208374,-6.74925470352173,10.5751886367798,6.99825143814087,3.21780705451965,1.0800096988678,0.83077675104141,0.82711154222488,-2.44447994232178,-3.83551120758057,-4.25210237503052,SWING_RIGHT
1.07512283325195,0.97799527645111,0.60964351892471,-0.8472700715065,-1.09161615371704,-0.66706484556198,6.50744009017944,6.10281991958618,4.64953947067261,11.3126029968262,10.5344877243042,11.3437280654907,-5.43181371688843,-5.84964561462402,-6.50632572174072,20.6452007293701,23.4607830047607,23.4248695373535,-0.49357911944389,0.08307767659426,0.86376345157623,0.80573123693466,0.95905846357346,0.6139195561409,-3.96000957489014,-6.88572406768799,-12.5935010910034,15.1888151168823,15.1720561981201,12.5456171035767,-9.3731164932251,-9.97481822967529,-10.0640048980713,23.9013156890869,20.429723739624,17.0108032226563,0.27000242471695,-0.59009581804276,-0.72082096338272,0.59437185525894,1.2168436050415,1.84359133243561,-25.6562652587891,-27.0065956115723,-35.0391426086426,3.58651423454285,5.6335563659668,8.20732307434082,-9.00598621368408,-8.03532123565674,-5.30719709396362,-1.06541979312897,-18.0714340209961,-20.312406539917,1.98531210422516,1.59130394458771,1.43370068073273,0.1777617931366,0.00061086524511,-0.06841690838337,-24.9667358398438,-19.8335666656494,-14.6788501739502,4.12281513214111,5.66707563400269,9.43794345855713,2.16857171058655,3.33837866783142,3.48437547683716,-12.5791358947754,-5.12119722366333,2.43490314483643,2.25653624534607,1.23822391033173,0.79778999090195,-0.78251838684082,-0.38362336158752,-0.41783183813095,0.66079968214035,1.50595283508301,2.1284453868866,1.83395850658417,6.19140577316284,7.95593214035034,2.04212260246277,1.94560575485229,1.36833810806274,-2.80839848518372,-0.40940847992897,-0.62728083133698,SWING_RIGHT
0.26083946228027,-0.21930062770844,-0.60353487730026,-0.5283984541893,0.08796459436417,1.01525807380676,6.03578233718872,4.49152231216431,1.65678763389587,11.6286373138428,12.0308637619019,14.1569147109985,-5.90095806121826,-7.15995168685913,-7.69568014144897,17.221492767334,18.7657527923584,19.7593460083008,1.31885802745819,1.32741022109985,0.51923543214798,0.77274453639984,0.26083946228027,0.36590829491615,-12.746729850769,-11.7866554260254,-15.3659868240356,8.64546203613281,7.36695861816406,5.39174222946167,-8.36824321746826,-8.27783489227295,-7.9149808883667,13.1369848251343,10.3836526870728,7.64468622207642,-0.15088371932507,-0.30115658044815,0.09162978827953,0.9089674949646,1.04580128192902,0.5100724697113,-26.2452392578125,-26.582820892334,-25.1750316619873,6.4858922958374,9.50019264221191,13.5320281982422,-3.49048399925232,-1.83626091480255,-0.16554448008537,-14.5471696853638,-15.842432975769,-13.2638778686523,2.6645941734314,2.2101104259491,1.30358648300171,-0.47647488117218,-0.51618111133575,-0.40683624148369,-11.8321447372437,-8.08761310577393,-3.227383852005,5.47314500808716,5.71256542205811,6.00226354598999,2.26753187179565,2.01035761833191,1.86985850334167,0.40462008118629,-0.77093297243118,0.43574470281601,0.54916787147522,0.53389620780945,0.40194934606552,-0.0745255574584,0.21258109807968,0.3720169365406,0.0,0.76135611534119,0.96246910095215,9.45709705352783,9.10993766784668,9.15782165527344,1.27609753608704,1.32679927349091,1.08856189250946,-2.53545951843262,-0.53390699625015,-1.86029469966888,SWING_RIGHT
0.52473324537277,0.70249503850937,0.5839871764183,-0.34208452701569,-0.35613444447517,-0.84177231788635,7.99902772903442,8.81066226959229,9.40921306610107,10.5727949142456,9.23443603515625,8.38928318023682,-3.74949097633362,-4.5179591178894,-5.35117959976196,16.266206741333,17.9134178161621,20.9612350463867,-0.2119702398777,-1.11971604824066,-1.28220617771149,-0.77457714080811,-0.10262536257505,0.19486601650715,1.63763391971588,-3.86424160003662,-8.34139919281006,9.44752025604248,13.524845123291,15.4641485214233,-8.71521472930908,-9.47513103485107,-9.87219333648682,22.8765964508057,20.2405815124512,15.9741134643555,2.51065611839294,1.71469879150391,0.56505036354065,0.05742133408785,0.06108652427793,-0.00244346098043,-19.9484882354736,-18.6053409576416,-24.2796001434326,4.37181234359741,2.85867691040039,3.34948825836182,-7.78486680984497,-8.0597562789917,-6.5949010848999,7.52018737792969,-8.17141056060791,-16.1967754364014,0.88941979408264,1.41720736026764,1.50211763381958,-0.20158553123474,-0.11911872029305,-0.19730947911739,-19.086576461792,-15.7873659133911,-12.5671644210815,12.0308637619019,8.53532886505127,7.58004236221313,-0.88025683164597,-0.37507125735283,0.1490511149168,-7.91762495040894,-7.6375036239624,-6.52419948577881,1.20523715019226,0.59070670604706,-0.0274889357388,-0.28955012559891,-0.12217304855585,-0.03970624133945,-4.51067590713501,-3.65355181694031,-3.12443327903748,5.25287866592407,5.9017071723938,7.87452936172485,0.4844161272049,0.51740288734436,0.66217792034149,-4.82910490036011,-5.48032760620117,-4.54898309707642,SWING_RIGHT
-0.36774086952209,-0.74281215667725,-1.20218276977539,-0.40378192067146,-0.90224796533585,-0.94134336709976,6.26323175430298,9.55525875091553,11.2934494018555,7.81946277618408,8.81784439086914,11.4610433578491,-1.69270753860474,-2.266921043396,-3.32555031776428,8.37252330780029,13.1992340087891,19.9891891479492,2.0635027885437,3.07570648193359,3.20520997047424,-0.81122905015945,-0.50457471609116,-0.40561452507973,9.92636013031006,10.5512466430664,10.8888292312622,19.5797805786133,13.9414367675781,9.44991397857666,-6.65232229232788,-7.48676443099976,-8.15077495574951,23.4943008422852,24.7297096252441,23.8821620941162,-1.3011429309845,-0.83993971347809,-0.19853121042252,0.50396382808685,0.60414570569992,0.92912602424622,-6.61757326126099,-11.4059772491455,-15.9860849380493,12.8353157043457,13.4147119522095,11.21204662323,-9.75918292999268,-9.06401824951172,-7.91925716400146,22.1703071594238,9.55286502838135,6.83784008026123,1.65055787563324,1.41965079307556,2.05861592292786,0.38240164518356,0.14416420459747,0.18936823308468,-26.6019744873047,-24.042573928833,-19.2876892089844,7.05331802368164,8.39407157897949,8.80108547210693,-1.934610247612,-1.58030843734741,-0.71165800094604,-5.01585245132446,-10.0580415725708,-10.3525285720825,1.93827545642853,1.26510190963745,0.58032196760178,-0.09407325088978,0.02382374368608,-0.24678955972195,-7.06528902053833,-4.85065269470215,-3.80438661575317,4.73094272613525,4.80276870727539,7.26400804519653,0.25228735804558,0.46425759792328,0.72448617219925,-2.98317527770996,-3.30878663063049,-2.10210919380188,SWING_RIGHT
1.59496915340424,0.9950994849205,0.07880161702633,-1.12887895107269,-1.18813288211823,0.28038713335991,1.75016140937805,1.95127439498901,2.37504816055298,7.14669227600098,6.17704057693481,8.01578712463379,1.16736352443695,1.66582953929901,0.65484756231308,-1.70946002006531,3.94803857803345,6.33505773544312,-0.24984388053417,-1.04580128192902,-0.65851271152496,-0.47891834378242,0.39217549562454,0.00244346098043,5.79636240005493,5.50666379928589,6.47870969772339,5.61440277099609,8.80587387084961,16.4816837310791,-0.34697145223618,-1.26876711845398,-1.60779738426209,16.4936561584473,14.1712799072266,16.0076332092285,1.66766214370728,1.09650313854218,-0.1667662113905,-0.54611355066299,-2.49538445472717,-1.82954144477844,9.34696388244629,6.52419948577881,3.40694904327393,11.1904983520508,5.92804336547852,6.58166027069092,-6.61750316619873,-10.9436511993408,-11.2386989593506,40.3997611999512,24.8135070800781,21.7369575500488,2.20644521713257,3.43306279182434,3.17405581474304,1.16064393520355,0.09590584039688,-0.37934732437134,-30.554801940918,-34.0742797851563,-34.0048484802246,12.8377094268799,6.41885471343994,3.12682747840881,-10.0725574493408,-8.91435623168945,-7.59366607666016,5.39653062820435,-3.30399823188782,-13.5296335220337,-0.76235979795456,-0.33169981837273,1.2779301404953,-0.97494095563889,-0.42271876335144,-0.33353242278099,-24.9020919799805,-20.5278854370117,-15.729905128479,15.3947172164917,17.963695526123,12.5647706985474,0.00733038317412,1.07756626605988,1.4611896276474,-8.746018409729,-6.49307489395142,-2.77009129524231,SWING_RIGHT
-0.32559117674828,-0.27183502912521,-0.04948008432984,0.0250454749912,-0.25961771607399,-0.25473082065582,3.76847338676453,5.0876784324646,6.1890115737915,10.498574256897,11.374852180481,12.00452709198,-0.57910025119781,-1.88757359981537,-2.79776287078857,9.04050540924072,10.5943422317505,19.874267578125,0.13866640627384,-1.23333692550659,-1.60779738426209,-0.64934974908829,-0.097127571702,1.36589467525482,10.2807016372681,5.47314500808716,-4.09408473968506,4.85783529281616,9.46906757354736,20.1448135375977,-9.01026248931885,-10.0994348526001,-10.9974069595337,26.0034255981445,26.2452392578125,27.2891101837158,2.18017816543579,1.14659404754639,0.52045720815659,0.70799279212952,1.47401785850525,1.46057879924774,-17.9589061737061,-24.1503124237061,-33.1357498168945,1.24019646644592,0.00478840339929,3.86184740066528,-14.7242956161499,-13.6491727828979,-10.9173831939697,16.8408145904541,2.57616114616394,-12.3947820663452,0.60292398929596,-0.72326445579529,-0.84849184751511,-0.7177666425705,-0.39645153284073,0.12156218290329,-31.7519035339355,-25.8478012084961,-19.6563968658447,4.53940629959106,9.83777523040772,11.8177795410156,2.56319046020508,2.82769513130188,2.18995189666748,-1.54904854297638,2.44926834106445,2.18590617179871,1.33535146713257,0.6884451508522,-0.17470745742321,-0.00183259579353,0.00977384392172,-0.10873401165009,1.40060794353485,1.88184249401093,0.11013327538967,5.02782344818115,4.97754526138306,7.10359621047974,-0.44104471802711,-0.48685958981514,-0.28649580478668,-4.39096593856812,-5.96395635604858,-4.82431650161743,SWING_RIGHT
-0.67806041240692,0.032375857234,0.9511171579361,0.72326445579529,0.43127086758614,-0.34086281061172,4.74051952362061,5.30555105209351,5.33906984329224,13.2566947937012,13.4673843383789,10.3884410858154,-2.84357762336731,-3.22659015655518,-3.7415497303009,12.0859298706055,14.2742309570313,16.1800155639648,0.40317106246948,-0.27488934993744,-1.02319931983948,-1.07695543766022,-1.19179809093475,-1.0378600358963,6.44040250778198,4.07253694534302,-2.69826531410217,8.46829128265381,10.9343194961548,17.2693767547607,-8.15627288818359,-9.20573902130127,-9.81965923309326,27.4758586883545,26.2380561828613,28.2827053070068,1.34084916114807,-0.11239920556545,-1.57847583293915,-1.97065126895905,-1.0500773191452,-0.23457226157188,-22.6898498535156,-27.0449028015137,-31.89794921875,4.3454761505127,4.67827033996582,11.6525793075562,-10.909441947937,-10.3895959854126,-9.34135150909424,14.8129262924194,7.19936466217041,-1.92014980316162,1.61024081707001,2.12092423439026,2.30968141555786,-0.05314527451992,0.02626720629632,-0.03359758853912,-30.3560829162598,-26.1351051330566,-21.1503772735596,12.363657951355,11.2862672805786,8.81305599212646,-0.46853363513947,0.78068578243256,1.48684597015381,-10.3070383071899,-7.20415306091309,-5.03979444503784,1.75257241725922,0.77213364839554,-0.06414084881544,0.06230825558305,0.22235494852066,0.37995818257332,-4.90332508087158,-2.72699570655823,-1.90817880630493,3.32554626464844,5.11162042617798,7.76679039001465,1.84786736965179,1.40926611423492,1.10077917575836,-1.40779054164886,-2.41096115112305,-3.50989961624146,SWING_RIGHT
-0.07696902006865,-0.47342056035995,-0.60903263092041,-0.81611597537994,-1.01464712619781,-1.40926611423492,10.2783079147339,10.2902784347534,9.59356594085693,5.59285497665405,7.24724864959717,10.0676183700562,-5.41470956802368,-6.88933801651001,-7.77264928817749,26.5133895874023,23.3554382324219,19.7138576507568,0.71593403816223,-0.82955497503281,-1.7324138879776,-2.50638008117676,-2.26325583457947,-1.03969264030457,-5.75805521011353,-11.3197860717773,-15.3707752227783,7.44357299804688,11.3485164642334,18.1600208282471,-10.337061882019,-10.9320440292358,-11.0804843902588,22.8358955383301,23.9324398040771,22.6706962585449,0.65423667430878,-0.04276056587696,-0.45204028487206,0.44104471802711,0.42882740497589,0.34452798962593,-30.4877643585205,-33.6217727661133,-36.6145248413086,6.56729507446289,7.32625722885132,11.1450090408325,-9.41221141815186,-7.09336709976196,-4.15021848678589,-7.45554399490356,-17.5159797668457,-21.2413578033447,1.91078650951386,2.28158164024353,2.4245240688324,0.48136180639267,0.39950588345528,0.34147366881371,-23.4200801849365,-17.6524486541748,-12.4809732437134,10.2495775222778,7.21372985839844,5.09964942932129,2.86190366744995,2.65054440498352,2.23698854446411,-1.02950668334961,-0.13407529890537,-1.53468334674835,0.79656827449799,0.31948253512383,-0.23945917189121,-0.1991420686245,-0.34758231043816,-0.22846360504627,-1.5442601442337,-1.66875863075256,-1.4484920501709,4.35265874862671,4.39575433731079,6.69179391860962,1.8857409954071,1.60352122783661,1.21745443344116,-1.93212080001831,-1.99915838241577,-3.96000957489014,SWING_RIGHT
-0.32803463935852,-0.89675015211105,-0.89736104011536,0.09407325088978,0.21685716509819,-0.02932153269649,6.90727186203003,9.10754299163818,9.68215179443359,7.58722496032715,11.1234607696533,14.0443868637085,-3.3646457195282,-5.63889694213867,-6.61750316619873,25.3402309417725,20.037073135376,20.4440879821777,0.96150189638138,0.73242741823196,0.64996063709259,0.08491026610136,-0.09651670604944,0.09468411654234,0.23942017555237,-4.94642066955566,-11.0444526672363,13.7355356216431,14.4897089004517,16.5894241333008,-10.2558164596558,-10.6260013580322,-10.9906873703003,23.5326080322266,23.2907943725586,22.3905735015869,2.4868323802948,1.09833574295044,0.020158553496,-1.53021740913391,-0.43921211361885,0.07330382615328,-25.7568225860596,-30.4446697235107,-35.1037864685059,4.48433971405029,5.30555105209351,5.90888977050781,-10.192286491394,-9.35906600952148,-7.52219486236572,7.48906278610229,-5.94001436233521,-13.2207813262939,1.98836636543274,1.9712620973587,1.80755031108856,-0.37629300355911,0.16737708449364,-0.03420845419168,-22.644359588623,-17.305290222168,-10.4147777557373,8.36773490905762,7.38132381439209,6.69658231735229,0.02443460933864,0.5528330206871,0.8906415104866,-7.1227502822876,-5.2672438621521,-2.82276391983032,0.67195177078247,0.14844025671482,-0.62247169017792,-0.04642575979233,-0.09346238523722,0.01160643994808,-0.53630119562149,-0.77093297243118,-1.81959331035614,5.7628436088562,6.71813011169434,10.6877164840698,0.12644910812378,0.47830748558044,0.7916813492775,-5.29836845397949,-5.68383502960205,-2.14520478248596,SWING_RIGHT
-0.15577064454556,0.49663344025612,1.11666166782379,-0.7489207983017,-1.46363317966461,-2.03418135643005,7.37653541564941,8.40843677520752,9.01656341552734,13.1369848251343,13.1345901489258,10.1131076812744,-2.2724187374115,-2.09343528747559,-2.62916398048401,8.53293514251709,13.7068042755127,19.3858509063721,-1.27976274490356,-1.51983273029327,-1.13682019710541,-1.20706975460052,-1.30969512462616,-0.57360243797302,4.23773717880249,1.64002811908722,-1.67354702949524,11.3221797943115,16.9772834777832,22.1080589294434,-5.91439723968506,-7.12574291229248,-8.55028057098389,23.9061031341553,27.9570941925049,27.7727394104004,1.06351637840271,1.02930796146393,1.43431162834167,1.35978603363037,2.2724187374115,1.4312572479248,-16.4840793609619,-20.4273281097412,-24.229320526123,10.5799770355225,9.80904483795166,7.00303983688354,-11.5569591522217,-11.8544511795044,-11.758544921875,23.5421848297119,19.2014980316162,14.6261777877808,0.23396138846874,-0.22174409031868,-0.76602500677109,-0.71593403816223,-1.04946649074554,-0.92423909902573,-34.3424301147461,-31.0312480926514,-26.5804271697998,3.96479797363281,5.72453641891479,10.9558668136597,-3.53996419906616,-1.09283792972565,0.40011674165726,-17.5662574768066,-12.0691709518433,-6.59841966629028,2.50943446159363,2.3035728931427,1.78494822978973,-1.43858766555786,-1.00059723854065,-0.59070670604706,-12.4115419387817,-8.81545066833496,-2.97120428085327,8.28872585296631,8.69813442230225,8.04691219329834,1.65422308444977,0.97066485881805,0.57665681838989,1.90339040756226,-0.58179098367691,-3.50989961624146,SWING_RIGHT
0.42699480056763,-0.17409659922123,-0.3933972120285,0.34269541501999,0.78679442405701,0.24495697021484,0.86430680751801,1.49398183822632,1.4293384552002,6.08127212524414,8.02536392211914,9.15303325653076,2.49294114112854,2.40925264358521,1.57175624370575,-0.03591302409768,1.12048637866974,3.45483303070068,0.2138028293848,0.18081611394882,0.1069014146924,-0.48808133602142,-0.29688051342964,0.05436700582504,2.6240451335907,2.86346530914307,2.74136090278625,9.12909126281738,8.91361331939697,7.58004236221313,0.98471474647522,0.22174409031868,0.35185837745667,3.92649078369141,0.23223756253719,0.33039984107018,0.29626965522766,0.58032196760178,0.68539083003998,-1.12277030944824,-1.96148824691772,-1.58886051177979,9.05726528167725,10.8720703125,11.7363767623901,13.0100917816162,13.8169384002686,14.4466133117676,-4.97183227539063,-10.921049118042,-12.8324460983276,33.3919296264648,29.0847625732422,17.5854110717773,0.30360001325607,2.05617237091064,2.30845975875854,0.50396382808685,-0.38545596599579,-0.31154128909111,-22.2157974243164,-24.3083305358887,-24.5788745880127,13.2926082611084,9.61990261077881,5.38216543197632,-8.74636840820313,-7.3407678604126,-3.87655091285706,3.1699230670929,-4.2257661819458,-11.403582572937,1.90956473350525,2.26325583457947,1.60229957103729,-0.11117747426033,-0.24312436580658,-0.07757988572121,-15.3037376403809,-10.9558668136597,-6.89051246643066,11.0372695922852,5.4946928024292,2.73657250404358,1.49478721618652,1.74646377563477,1.64322745800018,-5.42765522003174,-3.05021286010742,-1.3215993642807,SWING_RIGHT
-0.16432274878025,0.59192842245102,1.36711645126343,-0.32803463935852,-0.80756384134293,-1.06840336322784,6.33745193481445,7.22330665588379,9.0261402130127,13.3955583572388,12.3971767425537,8.38210010528564,-2.75439143180847,-2.953533411026,-3.00057005882263,13.8289089202881,17.9541187286377,26.3170642852783,-0.73914694786072,-1.55159771442413,-1.61085164546967,-0.57482421398163,-0.35613444447517,-0.1148426681757,2.99275207519531,-0.05746084079146,-3.29442143440247,7.93917274475098,14.5830821990967,20.424934387207,-6.62300109863281,-7.2827353477478,-8.56310939788818,25.1989727020264,27.3705139160156,23.7792110443115,1.51983273029327,1.49478721618652,1.42392683029175,-0.27977627515793,0.05253441259265,0.15454891324043,-20.3219833374023,-22.2349510192871,-24.5669040679932,14.0587520599365,12.1697273254395,10.4842090606689,-10.3993701934814,-10.6418838500977,-10.4641218185425,17.3675384521484,12.6772975921631,5.7819972038269,0.68600165843964,-0.42821654677391,-0.07024950534105,0.87170469760895,0.49602258205414,0.25350907444954,-34.560302734375,-28.8405532836914,-24.8542079925537,4.55377149581909,8.70531749725342,10.7020816802979,-2.99323964118958,-0.57726764678955,1.25471723079681,-23.6475296020508,-19.7210388183594,-12.5336456298828,1.85703039169312,1.5045610666275,0.93584555387497,-0.43066000938416,-0.32986724376678,-0.14416420459747,-6.13394498825073,-3.39018964767456,-1.52510643005371,5.61679697036743,4.39336013793945,5.30315685272217,1.41109871864319,1.203404545784,1.23333692550659,-2.96402168273926,-4.51546430587769,-4.66629934310913,SWING_RIGHT
-0.34147366881371,0.75502943992615,1.54304563999176,0.09590584039688,-0.81061816215515,-1.49723076820374,7.00064563751221,6.17943477630615,6.45476770401001,14.7722244262695,13.0986776351929,9.57680702209473,-4.73603820800781,-5.00237560272217,-5.58269739151001,15.4569664001465,19.1751613616943,25.0625038146973,-1.91872775554657,-1.93338847160339,-0.9511171579361,-0.33353242278099,0.50640726089478,0.48258355259895,-0.36152446269989,-6.1507043838501,-10.6087074279785,11.3700637817383,17.4465484619141,19.3810634613037,-10.0236873626709,-10.8599624633789,-11.3999671936035,28.644229888916,27.1430644989014,26.0393371582031,1.90528869628906,1.88757359981537,1.64506006240845,-0.46059238910675,-1.30664074420929,-2.04762029647827,-27.7128849029541,-32.0607566833496,-40.0693588256836,8.24802494049072,7.88171195983887,12.3971767425537,-10.5252084732056,-8.15443992614746,-1.12643551826477,-2.2170307636261,-17.9014453887939,-13.3045787811279,2.10015463829041,2.28891205787659,2.50821280479431,0.35613444447517,0.57971113920212,0.25961771607399,-12.4594259262085,-6.35421133041382,-1.88184249401093,11.8584814071655,9.87368774414062,5.12359142303467,1.10261178016663,0.58032196760178,0.45875978469849,0.7493851184845,-2.54264211654663,-4.25449657440186,-0.27977627515793,-0.47280970215797,-0.49907690286636,0.02076941914856,0.05742133408785,0.07696902006865,2.11168599128723,1.60411512851715,1.0989385843277,9.25119495391846,10.0652236938477,10.6637744903564,-0.03054326213896,-0.08613199740648,0.14110986888409,-3.03105926513672,-4.73573112487793,-5.69580602645874,SWING_RIGHT
0.10934487730265,0.06658431142569,0.33475416898727,-0.87659162282944,-0.72448617219925,-0.94378679990768,9.89044761657715,10.8936176300049,8.94234371185303,11.3126029968262,13.3835878372192,13.510479927063,-4.880202293396,-5.82826519012451,-6.36582660675049,18.2797298431396,21.0474262237549,24.830265045166,-0.16798794269562,-0.77030110359192,-1.25349545478821,-0.46181413531303,0.21807889640331,1.02136671543121,-2.05183076858521,-7.20175886154175,-12.5168867111206,10.498574256897,11.1234607696533,14.4370365142822,-9.92289543151856,-10.4745063781738,-10.8984470367432,26.3027000427246,25.3881149291992,25.9435691833496,3.00790047645569,2.69025063514709,2.01768779754639,0.82466810941696,0.41355577111244,-0.05314527451992,-29.9442806243896,-32.8005638122559,-35.7190933227539,5.77960300445557,2.85867691040039,4.41969633102417,-10.2912464141846,-9.55393218994141,-7.43117570877075,9.07881259918213,-4.66869354248047,-19.5725994110107,0.49296826124191,1.32435584068298,2.38542866706848,-0.73487091064453,-0.31642818450928,-0.39645153284073,-28.9267444610596,-23.7265396118164,-18.3802871704102,14.5328044891357,14.9254531860352,9.48343276977539,3.28523325920105,3.34326553344727,2.96758341789246,-2.81318688392639,0.37110126018524,1.24259066581726,0.33047810196877,-0.27855455875397,-0.6023131608963,0.13866640627384,0.0842994004488,0.07696902006865,0.12928688526154,1.00317049026489,0.80445176362991,5.07810163497925,7.35738182067871,8.91840171813965,1.17713737487793,0.67622780799866,0.57543504238129,-1.33117616176605,-3.5506010055542,-5.74847841262817,SWING_RIGHT
-0.08002334833145,0.37568211555481,0.79656827449799,-0.88819807767868,-0.22724187374115,0.38606682419777,3.15555787086487,3.32794046401978,3.11725068092346,12.4522428512573,12.167332649231,9.81862163543701,1.50150680541992,1.07329022884369,0.71410149335861,-0.105344876647,3.95282697677612,1.7597382068634,0.20891591906548,0.08796459436417,-0.37690386176109,0.8600982427597,0.42577308416367,-0.25595253705978,3.44286203384399,3.26329684257507,4.79558610916138,8.15943908691406,7.62553262710571,6.09563732147217,0.42332962155342,1.00304079055786,0.4202753007412,2.87783050537109,10.4267482757568,23.6403484344482,-0.98654735088348,-0.56199604272842,0.08368854224682,-0.90713489055634,-1.19485247135162,-0.27183502912521,10.4794206619263,9.89523601531982,5.08528423309326,16.8886985778809,20.0179195404053,21.2198104858398,-7.56128978729248,-10.0010862350464,-11.6974582672119,37.5793914794922,34.4310150146484,30.8492889404297,3.05738043785095,2.71712851524353,2.18201065063477,0.54855698347092,0.3897320330143,0.11239920556545,-27.7487983703613,-29.5731792449951,-32.1421585083008,8.53532886505127,7.17542266845703,6.81150388717651,-12.78724193573,-12.0566473007202,-11.2325897216797,14.7434940338135,10.9893856048584,7.58004236221313,0.81367248296738,0.09773843735456,-0.93523466587067,-0.79717916250229,-0.91080009937286,-0.70799279212952,-34.5722732543945,-32.0583610534668,-28.2946758270264,4.32153415679932,3.66312861442566,9.41878986358643,-3.08486938476563,-0.03665191307664,2.07877445220947,-21.4496536254883,-17.3028964996338,-11.2527475357056,SWING_RIGHT
0.129503428936,0.34269541501999,0.68233644962311,-0.44715335965157,-0.65606927871704,-0.24068090319633,7.57285976409912,7.9846625328064,8.35336971282959,10.5344877243042,11.4490728378296,8.18098735809326,-2.71101999282837,-3.19115996360779,-3.90281796455383,11.1497974395752,13.1896572113037,13.4147119522095,0.69455379247665,0.76602500677109,0.58520889282227,-1.35306656360626,-1.01159286499023,-0.87598073482513,9.55286502838135,9.63666152954102,9.17458057403564,10.5440645217896,9.84256362915039,9.87368774414062,-5.71403360366821,-6.55519485473633,-7.31083536148071,20.6475963592529,21.8853969573975,25.0146198272705,-1.1966849565506,-1.56076073646545,-1.74035513401031,-0.25045475363731,-0.15699236094952,0.18936823308468,-6.62475633621216,-12.4881563186646,-17.305290222168,6.69179391860962,7.7260890007019,10.6015253067017,-10.1715173721313,-10.5288734436035,-10.4060897827148,21.6292190551758,17.4321823120117,13.1920509338379,0.16310101747513,-0.42760565876961,-0.91690874099731,-0.36713001132011,-0.51495939493179,-0.22235494852066,-26.9060382843018,-28.177360534668,-27.5285320281982,6.50744009017944,7.05810642242432,8.92319011688232,-6.00236177444458,-3.88510298728943,-1.79227864742279,-9.06205368041992,-12.540828704834,-10.3381633758545,1.94621670246124,2.15513253211975,2.12275671958923,0.52045720815659,0.57726764678955,0.43799036741257,-14.125789642334,-10.6015253067017,-7.65905141830444,10.2495775222778,8.99262142181396,6.29914474487305,1.02747535705566,0.9217956662178,0.6322455406189,-2.24576115608215,-1.40300214290619,-1.9249382019043,SWING_RIGHT
-0.1472185254097,-0.54794609546661,-0.90102624893188,-0.463035851717,-0.27427849173546,0.01649336144328,0.33518823981285,0.56263738870621,1.24259066581726,7.46990919113159,7.62553262710571,9.15063858032227,0.97860610485077,1.24188899993896,0.92668259143829,-1.34314715862274,2.0829553604126,11.9015769958496,-0.69516462087631,-0.67439520359039,-0.36774086952209,-0.70799279212952,-0.71959924697876,-0.67928212881088,4.12760353088379,5.85861158370972,6.73010110855103,11.7172231674194,15.5048503875732,16.6253356933594,-2.42085886001587,-4.3371434211731,-6.54175567626953,22.4312763214111,25.8717441558838,20.0442562103271,0.46425759792328,1.30053210258484,2.517986536026,1.7880026102066,2.46728467941284,3.56989645957947,-3.04303026199341,-9.2033109664917,-22.1894607543945,16.9701023101807,11.580753326416,7.90565395355225,-12.9772214889526,-13.6412315368652,-13.3406858444214,20.5326728820801,12.6868743896484,2.05901336669922,3.46177339553833,1.638951420784,0.02076941914856,-0.68111473321915,-0.78435099124908,-0.49357911944389,-25.356990814209,-21.2485408782959,-19.8694801330566,-0.50996494293213,1.74297881126404,5.40371322631836,-3.89487671852112,-2.45690011978149,-0.01710422709584,-6.44040250778198,-6.50025749206543,-9.897629737854,1.52960658073425,1.46668744087219,1.06168377399445,-0.37507125735283,-0.44348818063736,-0.38728857040405,-10.1322612762451,-7.00782823562622,-4.21379518508911,8.62630844116211,6.73249530792236,6.17704057693481,2.41963720321655,2.45384573936462,2.26203393936157,-3.90015459060669,-2.28885674476624,-1.14921677112579,SWING_RIGHT
-0.3591887652874,-0.7189884185791,-0.69394290447235,-0.04092797264457,-0.01221730466932,-0.17226399481297,4.2760443687439,5.13077402114868,5.89691877365112,7.93917274475098,10.1657800674438,10.2112703323364,1.95599055290222,-0.71715581417084,-3.36342406272888,22.9196929931641,23.4583873748779,17.3507804870605,1.50944805145264,3.06959795951843,3.11358022689819,-1.58947134017944,-1.24555420875549,-0.85887652635574,5.59285497665405,2.76051449775696,-0.96725749969482,19.8503265380859,10.0795888900757,4.96796846389771,-10.6748704910278,-11.9027090072632,-12.7634181976318,25.2851638793945,24.3945217132568,17.1879749298096,-0.79290306568146,-1.00792765617371,-1.22967171669006,-0.04276056587696,-0.94989544153214,-0.59315013885498,-24.8374481201172,-26.3003063201904,-30.0759620666504,7.73087739944458,8.7077112197876,10.0197343826294,-9.01942539215088,-3.86433362960815,-0.93401294946671,-7.79312658309937,-20.0442562103271,-12.8592576980591,1.27426493167877,1.09405970573425,0.62124997377396,-0.46364670991898,-0.39584067463875,-0.41172316670418,-13.8073616027832,-4.45800352096558,-1.21625447273254,8.59278964996338,5.97592735290527,4.46758031845093,3.06226754188538,2.41902637481689,1.84481298923492,2.07098436355591,0.06464344263077,-2.5091233253479,-1.10383355617523,-0.80023348331451,-0.27061331272125,-0.19853121042252,-0.0421497002244,-0.01588249579072,1.00077629089355,-0.26575639843941,-1.1180921792984,12.5982894897461,13.5775175094604,13.2183876037598,0.99265605211258,0.99021255970001,1.35978603363037,-2.84910011291504,-4.51307010650635,-2.49954652786255,SWING_RIGHT
0.7006624341011,0.78923791646957,0.55771994590759,-1.79716551303864,-1.94866013526917,-1.41170954704285,6.09084892272949,7.51300477981567,9.27274322509766,8.00142192840576,6.62954473495483,4.89614248275757,-1.68171203136444,-3.31088972091675,-4.43915796279907,18.9836254119873,21.7656879425049,25.239673614502,-2.4501805305481,-1.63223195075989,-0.57971113920212,1.80877196788788,1.78372657299042,1.56625843048096,-5.01585245132446,-9.10275459289551,-13.318943977356,14.8009548187256,13.0172748565674,10.2016935348511,-10.7701654434204,-11.1153039932251,-11.2649660110474,16.0076332092285,12.6365966796875,8.20971775054932,1.17286121845245,1.12521374225616,0.59315013885498,0.59070670604706,-0.69577550888062,-1.14170718193054,-20.8487091064453,-22.6970329284668,-25.8932914733887,5.2863974571228,4.35026454925537,3.05739545822144,-4.40494918823242,-0.80634212493896,1.83076310157776,-24.1239757537842,-20.5901336669922,-12.2223997116089,1.31152772903442,1.31702542304993,0.7183775305748,-0.39278635382652,-0.20891591906548,0.07086037099361,-11.8465099334717,-2.64080452919006,0.03112462162971,9.83538055419922,5.564124584198,5.70059442520142,2.99751567840576,2.60106420516968,2.15330004692078,0.94570964574814,0.19153612852097,-0.08858546614647,-0.58215457201004,-0.3378084897995,0.32070425152779,0.06047565862536,0.03909537568688,-0.10384709388018,0.06224924325943,0.18435353040695,0.3208230137825,11.7818670272827,12.2032461166382,11.9303073883057,1.37689030170441,1.50700461864471,1.48195910453796,-1.95606279373169,-0.84994161128998,-1.42455005645752,SWING_RIGHT
0.26816985011101,-0.14172074198723,-0.46609017252922,-1.1178834438324,-0.87659162282944,-0.40744712948799,4.28083276748657,4.99669885635376,6.60799646377563,8.31745624542236,9.09796619415283,10.1466264724731,-0.87353730201721,-1.50761544704437,-2.58151650428772,14.4298534393311,19.2038917541504,23.8127307891846,-0.57421332597733,-0.10445795953274,0.0177150927484,-0.04520402848721,0.20769418776035,0.65973448753357,6.70855331420898,-1.59214413166046,-8.43716716766357,13.3309154510498,14.0683288574219,14.2047986984253,-8.3364782333374,-9.01637077331543,-9.79033756256104,22.8382892608643,21.8303318023682,23.1399593353271,2.60350775718689,2.07999610900879,1.44164192676544,-1.04885566234589,-1.37261426448822,-1.19607412815094,-28.2204551696777,-30.638599395752,-31.8572483062744,6.63912153244019,6.07648372650146,5.61679697036743,-11.1232452392578,-10.6687612533569,-6.28458166122437,4.31674575805664,-5.94001436233521,-18.1001644134521,0.28710666298866,0.77885317802429,0.96699970960617,0.05681046843529,0.22907446324825,0.10384709388018,-16.6133651733398,-13.6541318893433,-10.3692874908447,13.5775175094604,10.8936176300049,10.4554786682129,-0.02076941914856,0.52534413337708,1.08917272090912,-7.55849456787109,-7.60877323150635,-6.61278486251831,1.33840572834015,0.99021255970001,0.4850270152092,0.32742378115654,0.33903020620346,0.30360001325607,-1.82677590847015,-0.69431847333908,-0.04309562966228,7.1227502822876,6.35660552978516,6.90727186203003,1.351233959198,1.16797435283661,1.15025925636292,-2.13083958625793,-3.75650238990784,-4.6830587387085,SWING_RIGHT
-1.38483154773712,-1.14537239074707,-0.42149701714516,0.60903263092041,-0.18692477047443,-0.80939644575119,9.17697525024414,10.089165687561,8.84896945953369,13.5032978057861,16.7378635406494,18.1049537658691,-3.49659276008606,-4.96755599975586,-5.80810689926147,21.2796649932861,20.0035552978516,25.8310413360596,1.40743350982666,0.67622780799866,-0.02687807008624,-0.88819807767868,0.1276708394289,0.84421575069427,-3.56257224082947,-9.53610515594482,-15.8232793807983,9.7396125793457,8.64785671234131,10.5847654342651,-10.0133028030396,-10.8599624633789,-11.3187217712402,29.8054161071777,24.0713043212891,19.4983787536621,2.52104091644287,2.14047193527222,1.07267940044403,0.27000242471695,-0.07024950534105,0.29871311783791,-31.78542137146,-36.7486000061035,-40.1459732055664,5.79636240005493,2.82994651794434,4.1659107208252,-10.0249099731445,-6.29618787765503,-3.74277138710022,-5.95677375793457,-18.6699848175049,-18.3850746154785,2.82769513130188,2.91993594169617,2.81547784805298,-0.47219884395599,-0.48808133602142,-0.6010913848877,-18.6340713500977,-14.0898771286011,-10.2543659210205,9.33738708496094,7.39329481124878,6.49546909332275,2.74217414855957,2.95719861984253,2.77882599830627,-4.99669885635376,-1.3215993642807,-1.31202256679535,1.72325086593628,1.5845844745636,1.25593888759613,-1.16614174842834,-0.64996063709259,-0.23640485107899,-0.38307225704193,0.38546648621559,1.1372457742691,7.87692356109619,6.95515584945679,8.15943908691406,1.88207578659058,2.20766711235046,2.32006621360779,-4.19224739074707,-2.45166254043579,0.37828385829926,SWING_RIGHT
-0.15577064454556,-0.43615779280663,-0.56016343832016,-0.4673119187355,-0.17226399481297,-0.32253685593605,7.65905141830444,9.15303325653076,10.8002443313599,9.2033109664917,10.0556468963623,12.648567199707,-1.4679092168808,-2.89611220359802,-4.47519874572754,19.2900829315186,22.974760055542,25.3833255767822,1.29503428936005,1.11177480220795,0.29382619261742,-0.7006624341011,-1.01098203659058,-0.38179078698158,7.44357299804688,-5.1379566192627,-10.2160587310791,13.6852569580078,8.20732307434082,7.41005420684814,-10.1257019042969,-10.4164743423462,-10.3511114120483,25.6538715362549,23.0226440429688,16.7689895629883,1.64933621883392,0.17043140530586,-0.07513642311096,0.26206117868423,0.73975783586502,0.49846604466438,-28.0504665374756,-31.8428821563721,-28.3928375244141,5.2863974571228,5.31273365020752,11.9231243133545,-5.51672410964966,-2.86068201065063,0.71959924697876,-19.8048362731934,-18.4377479553223,-9.47625064849854,1.95843398571014,1.89184963703156,1.80510675907135,-0.97249746322632,-0.91935217380524,-0.78618359565735,-8.73165321350098,-5.97592735290527,-4.25689077377319,8.14507389068604,8.00381660461426,6.50504589080811,3.15450811386108,2.72812414169312,2.17223691940308,-0.23702596127987,0.87388360500336,-0.14125789701939,-0.92851519584656,-0.52045720815659,-0.14782938361168,0.51984632015228,0.3378084897995,0.13377949595451,-2.43729734420776,-1.27371525764465,-0.71586632728577,13.7403240203857,13.6756801605225,13.8935527801514,1.78922426700592,1.80083072185516,1.74218773841858,-3.12682747840881,-2.47560453414917,-3.88100099563599,SWING_RIGHT
-0.50213122367859,-0.0274889357388,0.70921456813812,0.32559117674828,-0.22968533635139,-1.38544237613678,8.49941635131836,9.72524738311768,9.85692882537842,12.830527305603,14.4274597167969,15.2534589767456,-3.97795438766479,-4.73542737960815,-5.36095333099365,17.2478294372559,17.6069583892822,21.0210914611816,0.89247411489487,0.11972958594561,-0.54305922985077,-1.27548658847809,-0.84482663869858,-0.40439277887344,6.31111574172974,0.76614451408386,-4.69263553619385,7.39808320999146,7.27358484268188,9.07641887664795,-9.46596813201904,-10.205114364624,-10.6999158859253,28.2204551696777,28.3401660919189,27.7511920928955,-1.66644036769867,-0.80206608772278,1.62978851795197,1.77517437934875,1.33168625831604,0.57971113920212,-26.8940677642822,-30.7152137756348,-35.2019462585449,12.5958948135376,20.5542221069336,13.6014595031738,-10.4824476242065,-9.79644584655762,-7.2204270362854,9.83538055419922,-10.8289747238159,-24.4184627532959,1.73607897758484,1.7012597322464,1.68843150138855,-0.17348572611809,-0.23823744058609,-0.42088615894318,-23.7768173217773,-18.6460437774658,-13.347674369812,10.3309803009033,8.57842445373535,6.36618232727051,2.18995189666748,2.33717036247253,2.51371049880981,-5.60482597351074,-5.832275390625,-5.655104637146,0.71654492616653,0.62308257818222,0.49296826124191,-0.17104226350784,-0.20341812074184,-0.18387043476105,-0.95049810409546,-0.72304892539978,-0.30885201692581,8.15943908691406,7.96072053909302,7.89368295669556,1.73485732078552,1.40315747261047,1.50395023822784,-1.79325711727142,-3.30399823188782,-3.43328523635864,SWING_RIGHT
-0.30176743865013,-0.24862214922905,-0.12705996632576,0.60414570569992,0.5717698931694,-0.06780604273081,3.93367338180542,4.01986455917358,4.32153415679932,8.84896945953369,8.37491798400879,7.40287160873413,0.86193084716797,-0.04825835302472,-0.24007004499435,8.88009452819824,3.73734879493713,1.19231247901917,-1.36467289924622,-1.24494338035584,-0.89430671930313,0.12400564551353,-0.42577308416367,-0.88208943605423,7.36695861816406,8.21689987182617,8.89685344696045,10.5225162506104,12.4187240600586,15.1481142044067,-2.97124862670898,-3.33226990699768,-4.42205333709717,13.2423295974731,24.4328289031982,32.2858085632324,1.71286618709564,1.14048540592194,0.39706242084503,-1.35306656360626,-0.33903020620346,0.70982539653778,7.83382797241211,3.3734302520752,-6.20577096939087,11.9207305908203,10.5344877243042,11.063606262207,-11.0792627334595,-12.3584146499634,-12.5618324279785,38.2641334533691,27.1885547637939,16.1105823516846,3.47154712677002,2.24737334251404,-0.06841690838337,-0.74769908189774,-0.9511171579361,-0.48197266459465,-29.3792495727539,-28.6466236114502,-29.9370975494385,6.86657047271729,1.13485157489777,3.93367338180542,-7.43667364120483,-5.80383062362671,-3.79713845252991,-1.4484920501709,-9.78749656677246,-11.4299192428589,2.61022710800171,3.12701916694641,2.71712851524353,-0.26267206668854,-0.61269783973694,-0.70738196372986,-20.8534965515137,-16.4984436035156,-11.1665563583374,11.2790842056274,5.85861158370972,4.66869354248047,0.90408056974411,1.40804433822632,1.40621185302734,-8.68855762481689,-5.32231044769287,-3.23217225074768,SWING_RIGHT
-0.65790188312531,-0.45692721009254,0.3158173263073,-0.27855455875397,-0.25717425346375,-0.5711590051651,10.4099893569946,11.5161104202271,11.403582572937,12.6413850784302,16.0148143768311,19.3020534515381,-4.02315855026245,-4.72504281997681,-5.47518539428711,14.9661550521851,17.2382526397705,21.3131828308105,2.49049758911133,2.02318572998047,1.29320168495178,-1.02014493942261,-1.03541660308838,-0.99998641014099,6.73010110855103,2.05183076858521,-1.58974993228912,8.73644161224365,6.11239671707153,5.28160905838013,-8.62602806091309,-8.67245388031006,-8.66634559631348,21.571756362915,21.1575603485107,23.9803237915039,-0.84849184751511,-1.56442594528198,-1.13865280151367,-1.51189148426056,-1.166752576828,-0.83138757944107,-16.1297359466553,-21.8279361724854,-30.0544147491455,4.94163227081299,12.2990140914917,16.5798473358154,-9.57958889007568,-8.47880935668945,-5.37866830825806,3.77086758613586,-14.676456451416,-13.9151000976563,1.23944556713104,0.99937552213669,1.39827048778534,-0.65912359952927,-0.5412266254425,-0.56932640075684,-21.7776584625244,-17.6261119842529,-14.0395984649658,10.9175596237183,13.5679407119751,14.0994539260864,0.27488934993744,1.25227379798889,1.78006136417389,-11.0157222747803,-7.7763671875,-6.009446144104,0.53023105859756,-0.06352998316288,-0.27550023794174,-0.22174409031868,-0.0842994004488,0.2119702398777,-2.30082774162292,-0.84994161128998,0.16519992053509,7.54173517227173,9.4044246673584,10.8074264526367,1.71103358268738,1.48195910453796,1.18019163608551,-2.00394678115845,-0.96246910095215,-0.91458505392075,SWING_RIGHT
0.36224308609962,0.17043140530586,-0.27122417092323,-0.2767219543457,-0.39095374941826,-0.01527163106948,3.32554626464844,3.74213719367981,3.45243883132935,7.37653541564941,6.77798509597778,7.41244840621948,0.34147366881371,0.68905597925186,0.74586647748947,-0.52911859750748,1.66875863075256,4.10605573654175,-0.55161130428314,-0.44898596405983,-0.46120324730873,-0.34819319844246,-0.26694810390472,-0.18264870345592,3.59130263328552,4.39336013793945,5.48032760620117,10.4315366744995,10.1155023574829,10.7308120727539,0.62613689899445,0.17165313661098,-1.29564523696899,9.23204135894775,19.3259963989258,26.4894485473633,-0.97188657522202,-1.27731919288635,-0.67439520359039,-0.13561208546162,1.11238563060761,1.8613064289093,13.057975769043,10.7834844589233,4.83868169784546,14.6884269714355,19.2182579040527,22.6012649536133,-8.02310371398926,-10.0554523468018,-11.280237197876,36.686351776123,30.2986221313477,25.8908977508545,4.58881950378418,3.95413064956665,2.28830122947693,-0.25106561183929,-1.14476144313812,-0.97188657522202,-19.3164196014404,-20.0897464752197,-20.9947547912598,8.23605346679688,4.065354347229,4.58968448638916,-10.6217250823975,-9.88135623931885,-9.07867908477783,14.0803003311157,13.3692226409912,7.62792682647705,1.95782315731049,1.59802353382111,0.48075094819069,-0.69394290447235,-0.99387776851654,-0.89675015211105,-35.268985748291,-29.8580894470215,-25.2803764343262,8.08282470703125,4.65672206878662,10.3190097808838,0.39278635382652,1.98531210422516,2.5369234085083,-13.7235641479492,-7.80988597869873,-4.85783529281616,SWING_RIGHT
2.10381984710693,2.04762029647827,1.28526043891907,-1.50395023822784,-1.55098688602448,-1.07023596763611,7.07486581802368,6.96952104568481,6.29675054550171,11.2599306106567,7.20654726028442,3.98634576797485,-5.90156936645508,-7.04877424240112,-7.98889589309692,26.7240791320801,25.8310413360596,21.7154102325439,-0.94684112071991,0.38179078698158,1.08611845970154,0.77091193199158,1.00914943218231,0.60597831010818,-14.9829139709473,-16.1704387664795,-14.4657669067383,15.7131462097168,11.8704519271851,9.17458057403564,-7.03533506393433,-6.74761772155762,-8.08235836029053,10.3309803009033,19.9389114379883,20.0346794128418,0.88270026445389,0.70493847131729,0.85398960113525,0.09773843735456,0.21991148591042,0.30787608027458,-25.8094940185547,-27.1789779663086,-31.6441631317139,9.30865573883057,10.6709566116333,11.8034143447876,-9.62296009063721,-9.1587028503418,-7.34382200241089,1.67833542823792,-11.3772468566895,-21.4137401580811,2.14291524887085,2.41536116600037,2.19056272506714,-0.30970868468285,-0.601702272892,-0.44287729263306,-21.3538856506348,-17.9469356536865,-14.2502889633179,11.1330375671387,7.69975280761719,6.07648372650146,1.46057879924774,2.23637771606445,2.65665292739868,-8.80826759338379,-6.12676191329956,-4.44363832473755,0.68172562122345,0.51129418611526,0.15271630883217,-0.28283059597015,-0.22724187374115,-0.11667526513338,-3.96000957489014,-3.2776620388031,-0.28490999341011,7.87692356109619,8.03733539581299,9.0476884841919,1.80083072185516,1.58947134017944,1.42331600189209,-2.24576115608215,-2.74614930152893,-3.86184740066528,SWING_RIGHT
0.72998398542404,0.657290995121,0.4025602042675,-0.07024950534105,-0.03848451003432,0.15088371932507,3.32075786590576,2.98317527770996,3.70622420310974,9.43315505981445,7.48906278610229,7.10359621047974,1.49356555938721,1.12765729427338,1.0445796251297,2.559401512146,0.50996494293213,-1.37666594982147,0.04581489413977,-0.01099557429552,-0.22785273194313,0.6750060915947,0.20341812074184,0.31031954288483,4.09408473968506,3.82354021072388,4.18267059326172,8.71968269348145,7.87452936172485,8.47547435760498,1.27365398406982,1.27731919288635,-0.01343903504312,0.65840548276901,3.53863000869751,16.0411510467529,-0.25839599967003,-1.43614423274994,-2.72201561927795,-3.1190779209137,-2.31029224395752,1.05618596076965,13.8336973190308,13.8815813064575,11.8967885971069,3.24174904823303,4.82671070098877,9.22725296020508,-4.64501953125,-6.24854040145874,-7.35115242004395,29.6569766998291,28.6178932189941,28.9961776733398,0.74953162670135,1.69026410579681,1.71225523948669,1.27548658847809,0.3371976017952,0.15882496535778,-4.51785850524902,-7.49863958358765,-10.4028062820435,13.6158246994019,12.2511301040649,9.68454551696777,-9.95832538604736,-10.2411556243896,-9.62723636627197,23.1519298553467,18.8974342346191,12.4977331161499,1.34879040718079,1.43064641952515,1.33535146713257,-0.05619960278273,-0.29932397603989,-0.52900928258896,-25.3378372192383,-27.3202362060547,-27.3082637786865,9.25598335266113,9.06923580169678,8.98543930053711,-3.55523562431335,-0.98837995529175,2.46300864219666,-16.187198638916,-13.6277961730957,-3.665522813797,SWING_RIGHT
0.64079761505127,0.84910267591476,0.97188657522202,-0.81245076656342,-0.50762903690338,-1.10139000415802,7.5273699760437,7.55610036849976,5.08289003372192,12.102689743042,11.5208988189697,8.35576438903809,-4.81728315353394,-5.48556995391846,-5.71647691726685,14.7961664199829,13.9007349014282,16.2901477813721,-0.88331115245819,-1.37078166007996,-1.41537475585938,-0.38851028680801,0.41783183813095,0.74036866426468,2.34152936935425,-0.60812723636627,-6.97430944442749,9.11711978912354,10.3788642883301,14.1640968322754,-9.46718978881836,-10.2912464141846,-10.4115867614746,27.6817607879639,21.4305000305176,17.7003326416016,2.81303453445435,0.89186328649521,-1.82465445995331,-0.48197266459465,-0.66217792034149,0.29871311783791,-26.3529777526855,-26.341007232666,-28.5340957641602,-1.41976165771484,-0.85712420940399,17.4609127044678,-5.10255718231201,-3.60715937614441,-1.98286855220795,-9.94790840148926,-13.5152683258057,-14.6189956665039,3.68229579925537,2.64626812934875,1.51494586467743,-0.23762658238411,0.1050688251853,0.34208452701569,-17.1568489074707,-11.4490728378296,-6.94557905197144,4.23294878005981,3.88100099563599,6.72531270980835,2.7201828956604,2.78432369232178,2.42513513565063,-5.3366756439209,-1.63523972034454,-1.3718775510788,0.34086281061172,0.14416420459747,-0.05192354694009,0.27183502912521,0.23518311977386,0.39645153284073,1.20907187461853,2.1475989818573,2.28406834602356,7.69257020950317,8.01818180084229,8.24802494049072,1.93094503879547,1.61146247386932,1.27548658847809,-0.67755907773972,-0.64404028654099,-3.3231520652771,SWING_RIGHT
-0.73242741823196,0.23823744058609,1.27243232727051,-0.70371675491333,0.0226020142436,-0.07574728876352,12.7563066482544,11.4562549591064,8.42519569396973,19.0171432495117,18.890251159668,15.8256731033325,-6.20516920089722,-7.55945730209351,-8.16115951538086,26.391284942627,25.0289840698242,28.0768032073975,0.88025683164597,-0.58581978082657,-1.63589715957642,-0.11850785464048,0.24312436580658,1.07939887046814,-5.34385824203491,-10.0317049026489,-14.5998420715332,0.41898530721664,3.71101260185242,10.26633644104,-10.5581951141357,-10.3895959854126,-10.6241683959961,20.750545501709,21.9500408172607,19.0937576293945,1.78922426700592,0.78496181964874,-0.27366763353348,0.06169738993049,0.15699236094952,0.36163222789764,-30.0687789916992,-38.0223159790039,-39.1619567871094,0.8451532125473,4.17788219451904,10.6374378204346,-7.09153461456299,0.09346238523722,1.51983273029327,-20.4369049072266,-13.977349281311,-9.66778659820557,2.68719625473022,1.2278391122818,0.77518796920776,-0.17531833052635,0.29077184200287,0.36957347393036,-9.32302188873291,-1.45806884765625,0.31124621629715,4.3837833404541,5.15232229232788,8.41561889648438,2.17712378501892,1.74768543243408,1.44408547878265,-1.00556468963623,-1.14682257175446,-1.34554135799408,0.15577064454556,0.31459560990334,0.61758476495743,0.44959682226181,0.28160887956619,0.10079276561737,1.60411512851715,1.64242231845856,1.83395850658417,9.94312000274658,10.5991306304932,9.84256362915039,1.35184478759766,1.21256756782532,1.13437676429749,-1.89620769023895,-2.03507137298584,-3.02387666702271,SWING_RIGHT
-0.5705481171608,0.68966686725616,0.73914694786072,0.08735372871161,-0.09285151958466,0.31337386369705,0.95049810409546,1.19710087776184,0.86191260814667,15.5144271850586,10.0149459838867,9.91678333282471,1.85519778728485,-0.29016098380089,1.25838243961334,9.36132907867432,-2.20984816551209,7.06050062179565,-0.73609262704849,-1.11299645900726,0.41783183813095,-0.34941491484642,0.30054569244385,-0.16798794269562,6.74686050415039,9.8808708190918,13.524845123291,7.76200199127197,13.072340965271,14.7985610961914,-2.3212878704071,-3.37930655479431,-4.2613959312439,13.6134309768677,18.614917755127,27.6099338531494,-0.76235979795456,-1.38727498054504,-1.6701055765152,-0.83688539266586,-0.33536502718925,0.10812314599752,9.89284133911133,4.22337198257446,-3.07415509223938,6.24407815933228,9.48103904724121,10.5608234405518,-9.87158203125,-10.9198274612427,-11.0884256362915,36.1308975219727,30.9187202453613,26.4176216125488,0.50640726089478,2.30662727355957,3.77392554283142,1.61512768268585,0.98471474647522,0.60292398929596,-20.9612350463867,-24.3753681182861,-28.4000205993652,13.8336973190308,10.4004125595093,6.36378812789917,-9.69992923736572,-8.87648296356201,-1.55526292324066,8.94473743438721,-13.2112045288086,-18.1312885284424,-0.40072759985924,0.54794609546661,1.18080246448517,-0.80145519971848,-0.98471474647522,-0.88025683164597,-21.3682498931885,-15.2989492416382,-10.3668937683105,15.1074123382568,13.3117618560791,12.131420135498,2.61755752563477,2.49049758911133,2.05067467689514,-2.22660756111145,0.3256114423275,0.67755907773972,SWING_RIGHT
-0.61330872774124,-0.45631635189056,-0.3591887652874,0.89980453252792,0.7434229850769,-0.13500121235847,4.03183555603027,3.80678081512451,4.00789356231689,9.03092861175537,8.31985092163086,7.40287160873413,0.51679199934006,0.22357667982578,0.51923543214798,2.57855534553528,-1.32638776302338,-2.94726228713989,-0.56382864713669,-0.48136180639267,-0.46120324730873,-0.21991148591042,-0.4147774875164,-0.10812314599752,3.59848523139954,3.76607918739319,3.96240377426147,9.50737476348877,9.31583881378174,8.82742214202881,0.42882740497589,1.13437676429749,1.70736837387085,-5.07570743560791,-3.53384160995483,3.33033466339111,-0.38301250338554,-0.82344633340836,-2.60900545120239,-0.72937309741974,-0.40927970409393,0.23823744058609,5.88973617553711,8.22887134552002,10.0364933013916,6.71334171295166,4.62080907821655,20.7218151092529,-0.46547931432724,-4.11845350265503,-6.0206880569458,40.859447479248,31.1557464599609,30.3776302337646,2.95780944824219,3.9003746509552,3.91625714302063,0.71532320976257,-0.64201939105988,-0.9511171579361,-2.28167414665222,-15.6101951599121,-21.0330619812012,16.8695449829102,12.1242370605469,7.86016416549683,-11.5007600784302,-11.5728416442871,-10.075611114502,22.6084461212158,15.1122007369995,19.5103492736816,-0.5155702829361,-0.75380772352219,0.0299323964864,-0.601702272892,-0.06963863968849,-0.4850270152092,-34.7374725341797,-33.442211151123,-26.9682884216309,11.6741275787354,16.5343570709229,15.7346935272217,-3.30600261688232,-2.09771132469177,-0.96211278438568,-10.6925048828125,-12.9909381866455,-13.4027414321899,SWING_RIGHT
