gyro_x_0,gyro_y_0,gyro_z_0,acc_x_0,acc_y_0,acc_z_0,gyro_x_1,gyro_y_1,gyro_z_1,acc_x_1,acc_y_1,acc_z_1,gyro_x_2,gyro_y_2,gyro_z_2,acc_x_2,acc_y_2,acc_z_2,gyro_x_3,gyro_y_3,gyro_z_3,acc_x_3,acc_y_3,acc_z_3,gyro_x_4,gyro_y_4,gyro_z_4,acc_x_4,acc_y_4,acc_z_4,gyro_x_5,gyro_y_5,gyro_z_5,acc_x_5,acc_y_5,acc_z_5,gyro_x_6,gyro_y_6,gyro_z_6,acc_x_6,acc_y_6,acc_z_6,gyro_x_7,gyro_y_7,gyro_z_7,acc_x_7,acc_y_7,acc_z_7,gyro_x_8,gyro_y_8,gyro_z_8,acc_x_8,acc_y_8,acc_z_8,gyro_x_9,gyro_y_9,gyro_z_9,acc_x_9,acc_y_9,acc_z_9,gyro_x_10,gyro_y_10,gyro_z_10,acc_x_10,acc_y_10,acc_z_10,gyro_x_11,gyro_y_11,gyro_z_11,acc_x_11,acc_y_11,acc_z_11,gyro_x_12,gyro_y_12,gyro_z_12,acc_x_12,acc_y_12,acc_z_12,gyro_x_13,gyro_y_13,gyro_z_13,acc_x_13,acc_y_13,acc_z_13,gyro_x_14,gyro_y_14,gyro_z_14,acc_x_14,acc_y_14,acc_z_14,motion_type
0.35907500982285,0.22753900289536,0.14028799533844,0.43099999427795,0.82300001382828,0.90200001001358,0.32403498888016,0.38819399476051,0.45592498779297,-0.4589270055294,-0.57727301120758,-0.84686297178268,5.16900014877319,5.56099987030029,5.875,8.9709997177124,9.20600032806396,9.59799957275391,-0.35408300161362,-0.52256602048874,-0.57597297430038,4.27500009536743,6.70699977874756,-0.74500000476837,-0.00457700015977,-2.2752320766449,-7.02978610992432,-2.03978490829468,4.05884885787964,7.45332717895508,-11.2270002365112,-22.8390007019043,-34.3720016479492,14.1490001678467,19.3269996643066,10.1470003128052,4.20274305343628,2.32667708396912,0.7615180015564,-15.1809997558594,2.62800002098084,15.5729999542236,-7.48729991912842,-6.58194398880005,-4.45725011825562,2.31505107879639,-0.13435800373554,-6.23348379135132,-38.2159996032715,-27.7029991149902,-0.94900000095367,20.503999710083,8.57800006866455,-4.60099983215332,-3.63736295700073,-2.89426589012146,-2.7412109375,33.9309997558594,21.5349998474121,18.0049991607666,4.02920913696289,4.29811096191406,5.54676008224487,-6.12906217575073,-3.93900489807129,-2.35633301734924,-2.12599992752075,-2.75399994850159,-3.30299997329712,9.75500011444092,10.1470003128052,11.1669998168945,2.4439709186554,5.07306623458862,5.65176391601563,10.3950004577637,11.1789999008179,8.66899967193604,5.75051879882813,3.32163095474243,1.03913104534149,-0.49252599477768,-0.18138200044632,0.22025099396706,-6.59800004959106,-6.67700004577637,-6.67700004577637,6.85200023651123,5.98899984359741,5.98899984359741,SWING_LEFT
-0.42595800757408,-0.2851380109787,-0.26039099693298,-1.05900001525879,-1.13699996471405,-1.05900001525879,-0.02892599999905,0.05439899861813,0.12498500198126,-0.45510500669479,-0.74581998586655,-0.71612799167633,3.44300007820129,3.05100011825562,3.05100011825562,9.44099998474121,8.73499965667725,8.89200019836426,-0.59915101528168,-0.55488502979279,-0.44759500026703,-0.98000001907349,-2.31399989128113,-4.03999996185303,-0.72347402572632,-2.40518999099731,-5.79686594009399,0.53746598958969,2.33192110061646,4.72435712814331,-5.2649998664856,-17.503999710083,-28.8799991607666,12.5799999237061,13.5209999084473,11.0100002288818,2.68550896644592,1.23992705345154,-0.37994599342346,-31.5779991149902,-1.76499998569489,12.9049997329712,-7.04783916473389,-6.19946098327637,-5.40944719314575,1.46575999259949,-0.20911100506783,-2.35477900505066,-39.9420013427734,-29.8209991455078,-20.0139999389648,18.6989994049072,14.0699996948242,-1.69799995422363,-5.73299121856689,-5.65391397476196,-4.07531976699829,39.3450012207031,36.2070007324219,32.2050018310547,2.80174708366394,4.4450249671936,4.84090900421143,-11.0649070739746,-10.3498058319092,-8.86285495758057,-2.28299999237061,-1.49899995326996,-3.93099999427795,7.55800008773804,7.08799982070923,4.42000007629395,-2.61310505867004,-1.55321395397186,-0.66867101192474,20.0450000762939,16.6709995269775,15.1020002365112,3.98264002799988,3.71177005767822,3.33479499816895,-2.88731288909912,-2.52065491676331,-2.27263998985291,-9.89299964904785,-12.168999671936,-15.9350004196167,6.61700010299683,5.0479998588562,4.02799987792969,SWING_LEFT
-2.75448298454285,-2.30952191352844,-2.00049996376038,0.03900000080466,0.50900000333786,0.43099999427795,1.00601303577423,0.82108497619629,0.50936698913574,-0.83613699674606,-0.75419002771378,-0.55232101678848,2.03099989891052,2.03099989891052,2.26600003242493,10.2259998321533,10.3830003738403,10.3830003738403,-0.53632497787476,-0.50014501810074,-0.46445700526237,1.60800004005432,1.05799996852875,-0.58799999952316,0.19577799737453,-0.87935000658035,-4.43406581878662,-0.43269500136375,1.00776696205139,3.95226788520813,-3.61700010299683,-17.8169994354248,-23.7019996643066,11.8730001449585,13.0500001907349,12.1090002059937,6.28460597991943,2.73525905609131,0.86839497089386,-30.7940006256104,4.82399988174438,18.1620006561279,-6.24684906005859,-5.42545604705811,-4.60578393936157,1.09112596511841,-0.6201040148735,-2.87363195419312,-38.6080017089844,-25.42799949646,-14.2869997024536,14.1490001678467,4.42000007629395,-4.05200004577637,-5.45571088790894,-5.22984504699707,-4.1791729927063,38.1679992675781,35.5009994506836,32.6759986877441,3.5305700302124,4.4629430770874,4.67180490493774,-9.57531356811523,-8.29320430755615,-6.56664991378784,-3.61700010299683,-2.28299999237061,-1.26300001144409,11.8730001449585,8.81400012969971,5.59700012207031,-2.62915110588074,-1.60797905921936,-0.17913800477982,13.5329999923706,10.5520000457764,8.19799995422363,6.9306321144104,8.31095218658447,8.51044940948486,-2.31524991989136,-2.35620999336243,-2.14441204071045,-3.53800010681152,-5.5,-6.20599985122681,7.16599988937378,6.14599990844727,4.9689998626709,SWING_LEFT
0.00249100010842,-0.14932499825954,-0.41803601384163,1.37199997901917,1.60800004005432,2.31399989128113,-0.03563300147653,0.02175699919462,-0.0397959984839,-0.97707998752594,-1.64939999580383,-1.88800203800201,3.36500000953674,3.36500000953674,1.40299999713898,11.7950000762939,11.3240003585815,10.3039999008179,-1.4783890247345,-1.19213402271271,-0.8439159989357,2.0,3.17700004577637,-3.96199989318848,-0.6829439997673,-3.06125211715698,-6.75410985946655,-0.05546899884939,4.57796621322632,6.79655790328979,-12.4040002822876,-22.3680000305176,-33.6660003662109,7.71500015258789,11.9519996643066,10.8540000915527,4.40641498565674,2.46475291252136,0.67788898944855,-33.382999420166,-5.76599979400635,17.7700004577637,-5.69622993469238,-5.19228601455688,-5.12033176422119,3.47849988937378,1.52084803581238,-0.72076398134232,-39.9420013427734,-32.0960006713867,-19.7000007629395,10.4610004425049,2.06599998474121,-3.89499998092651,-6.09709215164185,-5.90577077865601,-4.96626901626587,38.8740005493164,34.3240013122559,26.9489994049072,2.63089108467102,3.65749788284302,4.01818704605103,-10.4454536437988,-9.11267375946045,-7.18130588531494,0.38299998641014,0.14800000190735,-0.87099999189377,7.24499988555908,6.77400016784668,7.08799982070923,-3.8626549243927,-2.33003711700439,2.6757709980011,4.51000022888184,1.37199997901917,0.03900000080466,12.4250516891479,9.78555297851562,7.7018837928772,-1.4855250120163,0.03291599825025,0.94541800022125,-2.67499995231628,-1.26300001144409,-1.34200000762939,13.128999710083,13.0500001907349,11.3240003585815,SWING_LEFT
-2.30526208877563,-2.67598509788513,-3.74311494827271,-0.74500000476837,1.84300005435944,2.86299991607666,1.78408300876617,1.77437996864319,1.62835597991943,-1.23903596401215,-1.69928896427155,-2.18795299530029,3.20799994468689,3.59999990463257,4.69799995422363,13.28600025177,13.6780004501343,11.8730001449585,-5.26401805877686,-5.06131219863892,-4.29616403579712,3.96099996566772,-0.82400000095367,-2.0,1.9342999458313,2.13001298904419,2.36251592636108,-1.39543104171753,-1.12844300270081,-0.18216300010681,5.6399998664856,4.54099988937378,-0.32199999690056,7.71500015258789,7.63700008392334,10.0690002441406,-0.36499500274658,3.28183007240295,3.08597707748413,-20.7509994506836,-28.4400005340576,-33.7750015258789,-7.28948593139648,-7.5428729057312,-6.89837980270386,7.47636890411377,6.70142793655396,5.32209777832031,-33.0379981994629,-39.0789985656738,-39.7070007324219,4.81199979782104,7.87200021743774,7.24499988555908,-2.69293308258057,-4.10178709030151,-6.13432693481445,12.5129995346069,28.8320007324219,29.3810005187988,-3.34202790260315,-1.2223219871521,0.97654801607132,-5.77698802947998,-9.01164627075195,-10.561427116394,-22.681999206543,-12.2469997406006,-5.34299993515015,13.128999710083,6.30299997329712,2.6159999370575,-2.54179406166077,-1.99237895011902,-1.83603501319885,17.8479995727539,10.1590003967285,6.31500005722046,3.56950998306274,22.5952377319336,15.4530344009399,-6.46571779251099,-12.6028537750244,-9.44543266296387,-2.83200001716614,-6.12799978256226,-5.81400012969971,6.46000003814697,9.59799957275391,10.1470003128052,SWING_LEFT
-3.235671043396,-2.87506699562073,-2.71575689315796,-1.45099997520447,-0.98000001907349,-0.43099999427795,1.85413599014282,2.13474988937378,2.17076396942139,0.4363340139389,-0.28685998916626,-0.76253700256348,0.38299998641014,0.85399997234344,2.34500002861023,9.83399963378906,11.0100002288818,13.2069997787476,-3.21976804733276,-3.39567899703979,-3.4872899055481,4.90299987792969,6.78599977493286,6.47200012207031,2.6015419960022,2.48654389381409,2.10954189300537,-2.66794109344482,-2.51312708854675,-2.15008211135864,11.1319999694824,7.83699989318848,2.97199988365173,25.5249996185303,25.2889995574951,23.4850006103516,-2.21471905708313,-1.08191001415253,1.2800190448761,-8.98299980163574,-29.617000579834,-37.3839988708496,-6.57214021682739,-10.781792640686,-10.6431274414063,6.35888910293579,8.74037933349609,8.87655544281006,-36.9609985351563,-39.2360000610351,-39.7849998474121,-34.6500015258789,-24.8430004119873,-8.21000003814697,-0.05486600100994,-1.39934802055359,-3.03026700019836,10.081000328064,24.4379997253418,19.8880004882813,-3.98484897613525,0.81667000055313,2.49019503593445,3.04570889472961,-3.57990097999573,-5.80251502990723,-22.2110004425049,-21.6620006561279,-14.9930000305176,18.4640007019043,18.7779998779297,18.8560009002686,-2.66903305053711,-1.10771596431732,0.01651199907064,22.7910003662109,19.9659996032715,15.3369998931885,4.95417976379395,5.24191617965698,5.23854494094849,-7.29020118713379,-6.54635190963745,-5.68670797348022,-4.79400014877319,-3.30299997329712,-2.51900005340576,10.7749996185303,7.63700008392334,7.79400014877319,SWING_LEFT
-2.25239109992981,-2.4910581111908,-2.8964159488678,-0.90200001001358,-0.43099999427795,2.0,1.49443602561951,1.71712696552277,1.79343497753143,-1.29170298576355,-1.91174399852753,-2.30575799942017,2.18799996376038,3.05100011825562,2.26600003242493,16.0319995880127,19.6410007476807,22.1509990692139,-3.12786793708801,-2.44476699829102,-1.62988805770874,0.90200001001358,-2.0789999961853,-4.11899995803833,0.65825200080872,-0.23391899466515,-6.55701112747192,-0.44338798522949,1.28211295604706,5.78415489196777,-7.14699983596802,-22.3680000305176,-37.2750015258789,14.3059997558594,0.18400000035763,-2.56100010871887,2.32122898101807,0.92976599931717,-0.58596497774124,-22.7910003662109,-13.3760004043579,19.181999206543,-5.05048990249634,-4.2793140411377,-3.3830349445343,3.83998703956604,2.21353697776794,-0.60391598939896,-39.9420013427734,-31.3899993896484,-9.42300033569336,8.26399993896484,9.83399963378906,-16.9190006256104,-7.1719651222229,-1.87748003005981,-1.80576705932617,35.1870002746582,15.0240001678467,11.8070001602173,5.04743099212646,4.80621576309204,7.35500812530518,-10.2407169342041,-8.10968589782715,-5.86624097824097,-0.63599997758865,-3.93099999427795,-8.16699981689453,6.22499990463257,9.36299991607666,12.1870002746582,6.27622509002686,10.3930006027222,11.2232236862183,-5.4520001411438,-4.58900022506714,-3.25600004196167,2.79127502441406,1.88588500022888,2.67466306686401,-1.01173496246338,-0.74835902452469,-1.65647804737091,-3.53800010681152,-1.18499994277954,-0.32199999690056,7.16599988937378,9.52000045776367,8.6569995880127,SWING_LEFT
-0.98187601566315,-1.15791702270508,-1.57951295375824,-0.58799999952316,-0.50999999046326,-0.03900000080466,0.70789402723312,0.85329902172089,0.76186698675156,-0.63438999652863,-1.00727999210358,-1.74582505226135,0.46200001239777,0.93300002813339,1.16799998283386,11.6379995346069,13.9130001068115,17.757999420166,-2.65505290031433,-2.50516510009766,-2.02846789360046,6.00099992752075,3.09800004959106,-1.68700003623962,0.64114099740982,1.09421002864838,1.14825701713562,-0.3739530146122,0.40519100427628,4.51675176620483,5.6399998664856,4.07100009918213,-1.81200003623962,11.08899974823,1.04700005054474,-5.07200002670288,5.64128684997559,3.43446111679077,0.35242599248886,-38.4819984436035,-36.5209999084473,-10.1599998474121,-3.34505295753479,-2.94599890708923,-3.21296405792236,6.36533117294312,3.33532404899597,1.1560070514679,-39.3930015563965,-39.7849998474121,-32.9589996337891,36.5089988708496,19.0130004882813,2.92899990081787,-6.91620111465454,-5.57017993927002,-2.14102292060852,32.2840003967285,30.4009990692139,27.2630004882813,0.2527439892292,1.25329303741455,1.23124098777771,-14.8830451965332,-13.9132528305054,-8.27381134033203,-4.08799982070923,-5.2649998664856,-7.06899976730347,-2.64000010490417,4.5770001411438,9.59799957275391,-2.54688692092896,-0.12777499854565,3.71066188812256,4.51000022888184,0.98000001907349,-0.74500000476837,7.17597818374634,6.40736389160156,5.63647794723511,-2.76999497413635,-1.86475205421448,-1.16655898094177,-3.53800010681152,-3.53800010681152,-3.14599990844727,9.99100017547607,9.91199970245361,9.67700004577637,SWING_LEFT
-2.5946900844574,-2.33833503723145,-2.10099101066589,-1.2940000295639,-0.74500000476837,-0.50999999046326,0.82647800445557,0.69080501794815,0.55736702680588,-0.20018200576305,-0.19126699864864,-0.17619299888611,0.69700002670288,0.54000002145767,1.08899998664856,9.91199970245361,10.7749996185303,11.1669998168945,-1.476557970047,-2.11937594413757,-3.20407009124756,3.01999998092651,7.88399982452393,7.09999990463257,1.77376401424408,1.95706403255463,2.11700201034546,-2.62045788764954,-2.66898703575134,-2.66691899299622,12.8579998016357,12.7790002822876,11.3669996261597,22.9360008239746,18.0709991455078,8.57800006866455,-3.89360499382019,-2.58698892593384,5.96530723571777,-13.0629997253418,-30.0879993438721,-37.5410003662109,-5.71912288665771,-8.19701290130615,-7.80749988555908,12.0261640548706,10.9655208587646,9.28777313232422,-37.2750015258789,-39.3139991760254,-39.7849998474121,5.28299999237061,2.38000011444092,-0.99199998378754,-3.73928999900818,-4.57572984695435,-5.64235210418701,1.60800004005432,6.62900018692017,20.7509994506836,-4.56049823760986,-3.7839949131012,-1.58533096313477,-3.28830695152283,-7.58332586288452,-11.2626218795776,-29.7430000305176,-25.6630001068115,-9.8149995803833,4.81199979782104,7.79400014877319,9.75500011444092,-2.57293796539307,-3.00478005409241,-3.47078895568848,27.8899993896484,18.7889995574951,8.11900043487549,3.1707329750061,3.59087896347046,3.98961710929871,-7.02334022521973,-5.23064708709717,-4.05107498168945,-8.8730001449585,-9.97200012207031,-9.02999973297119,7.32299995422363,5.36199998855591,6.06799983978271,SWING_LEFT
-2.12010097503662,-2.06720209121704,-2.05407094955444,1.37199997901917,1.68599998950958,2.07800006866455,0.43137601017952,0.43149900436401,0.40977799892426,-0.67230099439621,-0.70619398355484,-0.77884298563004,1.16799998283386,0.77600002288818,0.61900001764297,12.9720001220703,13.2069997787476,13.6780004501343,-1.68455398082733,-1.45289099216461,-1.45105695724487,2.31399989128113,3.56900000572205,4.19700002670288,1.12486398220062,1.59187197685242,2.16268801689148,-0.77242600917816,-0.84439301490784,-0.75141102075577,8.69999980926514,10.7399997711182,12.4659996032715,16.423999786377,12.5010004043579,1.59599995613098,-2.52108311653137,6.16653203964233,8.33189487457275,-22.3990001678467,-34.3240013122559,-37.3059997558594,-4.82567119598389,-5.35808420181274,-5.26709222793579,11.6575193405151,8.52492904663086,7.49118995666504,-35.0779991149902,-37.9809989929199,-39.4710006713867,27.1720008850098,1.8309999704361,-26.4120006561279,-4.89183282852173,-5.72587776184082,-6.43737077713013,-13.8470001220703,8.51200008392334,23.4179992675781,-4.24013376235962,-5.19382286071777,-5.26600503921509,0.81021898984909,-0.65328502655029,-7.03689908981323,-35.3919982910156,-28.6439990997314,-20.7199993133545,-2.16899991035461,-2.875,2.92899990081787,-4.94969987869263,-4.29439496994019,-4.12590408325195,29.2240009307861,26.7140007019043,21.1429996490479,2.62807703018188,3.55525708198547,5.0716381072998,-10.2837791442871,-8.23496627807617,-6.78465604782104,-2.98900008201599,-3.7739999294281,-4.63700008392334,7.63700008392334,8.6569995880127,8.42099952697754,SWING_LEFT
-2.35037207603455,-2.17247104644775,-2.04648804664612,-0.27399998903275,0.1169999986887,2.0,0.8347259759903,0.96111297607422,0.95048499107361,-0.70499700307846,-1.39702498912811,-1.87897300720215,1.95200002193451,2.65899991989136,2.89400005340576,12.1090002059937,12.2659997940063,11.9519996643066,-3.17998290061951,-3.50980710983276,-3.66868090629578,5.60900020599365,5.8439998626709,5.37400007247925,1.67156302928925,1.94454503059387,2.24403309822083,-2.5978569984436,-2.4464099407196,-2.23278307914734,10.8179998397827,10.2690000534058,7.67999982833862,12.1090002059937,7.79400014877319,4.73400020599365,-3.84320306777954,-0.93734902143478,7.73380994796753,-14.4750003814697,-30.3229999542236,-36.5989990234375,-6.77761077880859,-7.87058687210083,-7.42021417617798,11.8743324279785,9.20119285583496,7.24724292755127,-35.8619995117188,-38.9220008850098,-39.7070007324219,17.8360004425049,11.0100002288818,0.96799999475479,-3.0793149471283,-4.65685701370239,-5.16530609130859,-1.68700003623962,9.13899993896484,14.710000038147,-4.46810817718506,-3.83737993240356,-2.19327211380005,-0.86735302209854,-3.34176993370056,-6.24091720581055,-22.681999206543,-18.9160003662109,-17.6609992980957,10.539999961853,12.2659997940063,12.2659997940063,-3.29431796073914,-2.80542898178101,-2.56954908370972,24.0459995269775,21.8490009307861,19.2600002288818,3.25311708450317,3.7979850769043,4.4107837677002,-7.59553289413452,-5.00341796875,-4.00903415679932,-1.73399996757507,-2.98900008201599,-5.02899980545044,9.99100017547607,8.81400012969971,8.10799980163574,SWING_LEFT
-2.20030808448792,-2.26822400093079,-2.54635310173035,0.66600000858307,0.98000001907349,2.39199995994568,0.91020399332047,0.85094898939133,0.72239297628403,-1.20399796962738,-1.63587403297424,-1.82796895503998,0.93300002813339,1.08899998664856,0.54000002145767,12.2659997940063,14.0699996948242,14.3839998245239,-2.20511507987976,-1.52939605712891,-0.93776601552963,-0.74500000476837,-3.17700004577637,-3.33400011062622,1.59263396263123,2.12981700897217,2.49553298950195,0.57836699485779,1.38862800598145,2.86208009719849,8.85700035095215,8.14999961853027,6.26800012588501,12.2659997940063,8.10799980163574,1.20299994945526,4.22588491439819,7.92733383178711,3.55894994735718,-19.4179992675781,-29.8519992828369,-31.4209995269775,-4.81710577011108,-4.1901969909668,-3.48060607910156,9.84514713287354,7.02951812744141,5.22415399551392,-37.5880012512207,-39.3930015563965,-39.7849998474121,16.3449993133545,9.99100017547607,-3.89499998092651,-6.14381790161133,-7.62271595001221,-7.7748818397522,7.96299982070923,28.0470008850098,33.6180000305176,-2.49057197570801,-1.18248295783997,1.09077501296997,-6.03675889968872,-10.4517478942871,-11.3579711914063,-16.5620002746582,-11.3059997558594,-6.91200017929077,11.0100002288818,9.1269998550415,8.26399993896484,-3.86094188690186,-3.68039488792419,-3.79053497314453,20.6720008850098,16.3570003509521,9.2180004119873,3.71178889274597,4.36507701873779,8.11314487457275,-6.09060478210449,-4.71923685073853,-5.0197172164917,-4.32299995422363,-4.87200021743774,-4.55800008773804,9.99100017547607,9.83399963378906,8.57800006866455,SWING_LEFT
-1.43453001976013,-1.35195398330688,-1.25784301757813,-0.66699999570847,-0.74500000476837,1.45099997520447,0.51978898048401,0.84362399578094,1.03395795822144,-0.32902801036835,-1.0324159860611,-1.52653801441193,3.12899994850159,4.61999988555908,6.89499998092651,13.7559995651245,15.4040002822876,16.738000869751,-2.55353307723999,-2.98018789291382,-2.91508102416992,8.35499954223633,6.07999992370605,5.21700000762939,1.34631097316742,1.24875295162201,1.02938103675842,-2.26463389396667,-2.02676892280579,-1.72274494171143,8.30700016021729,6.11100006103516,0.93300002813339,17.757999420166,14.6979999542236,11.4809999465942,-1.58497798442841,-0.18215399980545,1.81062495708466,-6.0019998550415,-14.710000038147,-31.1079998016357,-7.81642818450928,-10.4784069061279,-9.38424396514893,7.29953479766846,10.0896835327148,9.89088153839111,-34.2929992675781,-38.5299987792969,-39.6279983520508,-15.8210000991821,-11.9759998321533,-2.79699993133545,-1.04048597812653,-1.80754995346069,-2.70818495750427,-7.41400003433228,-0.98000001907349,15.4160003662109,-3.94141793251038,-2.8969509601593,-1.69717299938202,3.89024591445923,1.21389496326447,-2.08489108085632,-39.9420013427734,-35.6269989013672,-23.7800006866455,13.835000038147,18.306999206543,14.1490001678467,-5.97314977645874,-5.04250192642212,-3.18662595748901,27.9689998626709,27.9689998626709,26.7140007019043,4.07610416412354,4.84442090988159,5.07265996932983,-9.38973522186279,-8.23361778259277,-7.03564405441284,-8.32400035858154,-6.59800004959106,-5.10799980163574,17.2870006561279,12.2659997940063,7.40100002288818,SWING_LEFT
-1.13569796085358,-1.03953099250793,-0.85687500238419,-0.58799999952316,-0.74500000476837,0.03900000080466,0.14036400616169,0.39680498838425,0.69882500171661,0.11700200289488,-0.19367900490761,-0.85805702209473,1.7960000038147,2.97199988365173,4.30600023269653,11.4029998779297,13.128999710083,14.4619998931885,-2.01085996627808,-2.48548293113709,-2.79329490661621,4.66699981689453,3.4909999370575,3.01999998092651,1.47266399860382,1.48152899742126,1.71587896347046,-2.22691297531128,-1.84624898433685,-0.77478301525116,5.71799993515015,4.46299982070923,1.87399995326996,11.6379995346069,10.4610004425049,8.81400012969971,-0.06083500012755,2.88646101951599,3.71542811393738,-11.1009998321533,-28.3619995117188,-33.931999206543,-6.59279108047485,-7.34273386001587,-7.20455408096313,8.20840740203857,7.63561105728149,6.80040979385376,-36.0979995727539,-39.0009994506836,-39.7070007324219,1.75300002098084,-4.13100004196167,-0.20800000429153,-2.92739796638489,-3.82754492759705,-5.69737577438354,4.82399988174438,9.92399978637695,28.3610000610352,-4.10511493682861,-2.5798020362854,-0.47400200366974,-3.25766205787659,-5.9352970123291,-8.75956630706787,-19.4650001525879,-17.1900005340576,-14.2080001831055,2.06599998474121,4.81199979782104,8.57800006866455,-4.04276609420776,-3.7992639541626,-3.86964297294617,26.3999996185303,22.3199996948242,17.4559993743896,3.10889101028442,3.22144198417664,3.28127598762512,-5.91023921966553,-4.08768320083618,-2.55904197692871,-0.63599997758865,-2.91100001335144,-4.16599988937378,9.28400039672852,8.26399993896484,7.55800008773804,SWING_LEFT
-0.30600500106812,-0.41588100790977,-0.48927000164986,0.19499999284744,0.58799999952316,0.66600000858307,0.1212489977479,0.12498600035906,0.14938700199127,-0.29026401042938,-0.27496901154518,-0.38592100143433,0.07000000029802,0.07000000029802,1.63900005817413,10.3039999008179,10.3039999008179,13.6780004501343,-1.2236670255661,-1.83188796043396,-2.42765092849731,6.70699977874756,6.70699977874756,12.6700000762939,0.51198202371597,0.44796699285507,0.52852100133896,-2.84722089767456,-3.06489992141724,-2.76693105697632,5.48299980163574,5.56099987030029,5.32600021362305,19.2479991912842,17.4440002441406,14.8549995422363,-2.23629903793335,-1.28052604198456,1.00650298595428,-5.37400007247925,-14.6319999694824,-30.7150001525879,-7.0546669960022,-7.50344276428223,-6.68718814849854,10.5397939682007,9.70041370391846,8.13273143768311,-36.8819999694824,-38.451000213623,-39.7849998474121,9.99100017547607,12.5799999237061,10.6969995498657,-1.27609503269196,-2.69379711151123,-4.10103988647461,6.07999992370605,18.3190002441406,26.3999996185303,-3.98036694526672,-3.49141693115234,-2.58348488807678,0.32888400554657,-3.02866506576538,-6.34406185150146,-29.5860004425049,-18.5240001678467,-16.7189998626709,14.0699996948242,3.87100005149841,2.06599998474121,-4.81443500518799,-3.83296394348145,-3.36515188217163,25.6940002441406,23.3400001525879,19.1030006408691,3.18488311767578,3.29167294502258,3.74677610397339,-7.54909801483154,-6.34724092483521,-4.86151123046875,-4.24499988555908,-4.24499988555908,-4.79400014877319,8.0290002822876,9.36299991607666,10.1470003128052,SWING_LEFT
-2.09242606163025,-2.76895189285278,-3.21217608451843,7.33500003814697,8.66899967193604,8.59000015258789,1.2245090007782,1.28824996948242,1.39676201343536,-2.78613090515137,-2.69934391975403,-2.55052590370178,8.22900009155273,9.17000007629394,9.5629997253418,16.8159999847412,13.5989999771118,11.4809999465942,-3.44098091125488,-2.54350090026855,-0.25468799471855,-2.54999995231628,-8.82600021362305,-15.6520004272461,1.02968204021454,-4.71390104293823,-8.7780933380127,6.44887781143188,10.0601453781128,10.2498073577881,-15.8559999465942,-28.4090003967285,-36.8040008544922,0.81099998950958,0.18400000035763,1.20299994945526,-0.03394300118089,-2.24117088317871,-3.15339303016663,-25.5370006561279,-2.0,12.5129995346069,-4.84150314331055,-4.2306170463562,-3.51400399208069,3.31275010108948,1.06162297725677,-1.9037070274353,-39.9420013427734,-35.3919982910156,-17.3470001220703,12.7360000610352,15.168999671936,5.67500019073486,-6.0157618522644,-5.43777704238892,-4.29524898529053,28.2040004730225,23.9680004119873,21.2999992370605,3.03429794311523,3.92248797416687,4.14780282974243,-8.39082336425781,-7.46538686752319,-6.5198450088501,-10.3640003204346,-7.93200016021729,-5.65700006484985,14.3059997558594,9.20600032806396,7.32299995422363,-0.97848701477051,0.97285801172256,3.61298608779907,10.3159999847412,6.55000019073486,2.47099995613098,8.51158237457275,8.94157695770264,8.08231925964355,-5.7022271156311,-5.21367597579956,-3.78107595443726,-3.06800007820129,-2.44000005722046,-0.47900000214577,7.95100021362305,8.10799980163574,8.81400012969971,SWING_LEFT
-2.7594940662384,-2.4033670425415,-1.85041797161102,2.86299991607666,0.50900000333786,-0.90200001001358,1.05496096611023,1.37699699401855,1.70694398880005,-0.08911900222301,1.1029200553894,2.21145796775818,4.54099988937378,4.77699995040894,4.61999988555908,13.0500001907349,11.3240003585815,8.9709997177124,1.95333695411682,3.26790690422058,4.37102699279785,-9.06099987030029,-15.4160003662109,-24.125,-3.07344007492065,-4.97759819030762,-5.34564399719238,8.02740001678467,8.10092830657959,7.12347221374512,-23.8589992523193,-35.3129997253418,-37.6669998168945,7.32299995422363,8.73499965667725,7.71500015258789,-3.14681005477905,-4.11447191238403,-4.9861741065979,-14.8669996261597,4.82399988174438,19.8880004882813,-3.96004509925842,-3.87747001647949,-3.29524302482605,1.94058299064636,-0.87129199504852,-4.7905158996582,-35.2350006103516,-24.878999710083,-14.9930000305176,16.5020008087158,16.8950004577637,9.28400039672852,-5.64976787567139,-4.1752290725708,-3.17346405982971,24.3600006103516,22.0849990844727,20.7509994506836,3.09516906738281,3.5490300655365,3.56467199325562,-8.00326538085938,-6.86980009078979,-5.73983812332153,-9.6579999923706,-2.20499992370605,-1.41999995708466,13.3640003204346,6.93100023269653,7.16599988937378,-0.33391401171684,0.65851002931595,2.84024691581726,3.56900000572205,1.52900004386902,-0.58799999952316,9.91206741333008,8.91493606567383,5.71991920471191,-5.6284818649292,-4.29175996780396,-1.78842794895172,-3.93099999427795,-3.7739999294281,-2.36199998855591,8.73499965667725,8.18599987030029,9.04899978637695,SWING_LEFT
-1.78488099575043,-2.91927695274353,-3.93758010864258,8.98200035095215,11.1789999008179,10.3950004577637,0.96104001998901,0.70148897171021,0.53457200527191,-3.58005094528198,-3.50367307662964,-2.98879408836365,5.01200008392334,3.75699996948242,0.69700002670288,15.9530000686646,16.1100006103516,15.7959995269775,-1.8884220123291,0.05199800059199,2.69637703895569,-3.41300010681152,-12.1999998092651,-24.5170001983643,-3.44974708557129,-6.46161079406738,-7.77332496643066,5.19716215133667,7.33712482452393,8.33073711395264,-22.132999420166,-32.4889984130859,-36.2550010681152,1.125,-3.34599995613098,-2.01200008392334,1.43144094944,0.28121599555016,-0.93280202150345,-20.9869995117188,-3.41300010681152,14.7880001068115,-4.7404580116272,-4.09950590133667,-3.25741505622864,4.1273398399353,1.89696800708771,-0.67047697305679,-39.9420013427734,-26.1340007781982,-19.2299995422363,14.3839998245239,11.08899974823,6.77400016784668,-6.05977487564087,-5.8618631362915,-4.57184982299805,25.5370006561279,25.3010005950928,23.1049995422363,2.79873394966125,3.83128690719604,4.1674919128418,-7.56827878952026,-6.49311017990112,-5.48440217971802,-8.32400035858154,-4.63700008392334,-2.51900005340576,11.1669998168945,8.81400012969971,8.5,-1.08222794532776,0.0481720007956,5.5351390838623,8.98200035095215,2.62800002098084,1.13699996471405,12.669041633606,9.68825531005859,6.72442293167114,-6.52116584777832,-4.39095306396484,-2.11468100547791,-3.6949999332428,-3.14599990844727,-3.06800007820129,9.99100017547607,10.6180000305176,9.91199970245361,SWING_LEFT
-1.29689395427704,-1.10474801063538,-0.8211709856987,2.47099995613098,1.76499998569489,-0.43099999427795,1.23694002628326,0.91280698776245,0.30991798639297,0.07525599747896,0.69788098335266,1.49636197090149,1.32500004768372,0.14800000190735,-2.91100001335144,6.77400016784668,6.77400016784668,7.40100002288818,1.14248394966125,1.77670395374298,1.28777205944061,-8.43400001525879,-15.3380002975464,-18.7110004425049,-6.19476318359375,-6.44418811798096,-6.1837329864502,6.80769681930542,6.93010187149048,6.31932401657104,-20.7199993133545,-32.5670013427734,-38.1380004882813,3.40000009536743,0.26199999451637,2.69400000572205,-2.47014188766479,-3.30781292915344,-4.29310083389282,-1.76499998569489,11.6499996185303,23.7320003509521,-4.22662115097046,-3.2507688999176,-1.90102696418762,0.53538197278976,-2.13312792778015,-4.69100713729858,-35.7840003967285,-23.6229991912842,-18.4449996948242,20.9740009307861,17.5219993591309,9.20600032806396,-5.55126905441284,-4.30726003646851,-2.91098499298096,25.9290008544922,24.2029991149902,21.5349998474121,3.74911999702454,4.27099323272705,4.24100017547607,-8.50058555603027,-7.86797904968262,-6.88333606719971,-6.44099998474121,-3.6949999332428,-2.83200001716614,8.3430004119873,6.85200023651123,7.16599988937378,-0.92557400465012,0.05620500072837,3.8769690990448,7.49200010299683,4.90299987792969,3.17700004577637,14.7713060379028,12.9373474121094,9.48627281188965,-7.3473219871521,-5.36583089828491,-2.54695391654968,-1.26300001144409,-1.41999995708466,-1.34200000762939,9.04899978637695,9.44099998474121,9.36299991607666,SWING_LEFT
-2.29534292221069,-2.61916708946228,-2.62115406990051,8.04100036621094,7.25600004196167,4.51000022888184,0.72725999355316,0.52256900072098,0.2452799975872,-1.8829540014267,-1.09372699260712,0.11427599936724,-0.32199999690056,-2.44000005722046,-4.00899982452393,12.4230003356934,13.2069997787476,12.9720001220703,2.2303318977356,3.6391909122467,3.69920611381531,-11.0229997634888,-15.3380002975464,-21.693000793457,-5.90357303619385,-6.19004487991333,-5.87313508987427,6.65534687042236,7.51298522949219,7.33823919296265,-24.9570007324219,-32.8810005187988,-38.2159996032715,1.98800003528595,1.8309999704361,1.43900001049042,-0.51906800270081,-1.52280700206757,-2.66353797912598,-7.02199983596802,6.94299983978271,17.3770008087158,-3.61861991882324,-2.86794400215149,-2.0543749332428,2.2786979675293,-0.00817499961704,-2.53943109512329,-36.8819999694824,-24.7999992370605,-21.113000869751,20.3470001220703,14.4619998931885,7.32299995422363,-5.63479709625244,-4.59759187698364,-3.34679102897644,25.3010005950928,25.3010005950928,25.3799991607666,3.23293995857239,3.83531093597412,3.96367597579956,-8.2664041519165,-7.74156999588013,-6.61473989486694,-5.5,-2.91100001335144,-2.20499992370605,9.52000045776367,9.1269998550415,9.28400039672852,-2.01546907424927,0.46292200684547,7.91774606704712,6.55000019073486,0.50900000333786,-0.74500000476837,11.3711996078491,7.9498291015625,4.08379602432251,-4.63455486297607,-2.35570907592773,0.38089001178741,-3.6949999332428,-3.06800007820129,-0.32199999690056,9.36299991607666,9.1269998550415,9.83399963378906,SWING_LEFT
-1.10008895397186,-1.00095999240875,-1.06312298774719,1.13699996471405,2.31399989128113,1.68599998950958,0.51477700471878,0.78405702114105,1.26567804813385,-0.83632302284241,-1.0175689458847,-1.41586899757385,3.36500000953674,5.56099987030029,7.52299976348877,10.6180000305176,11.7950000762939,14.3839998245239,-2.48109602928162,-2.56345200538635,-2.3723840713501,2.94099998474121,2.47099995613098,1.68599998950958,1.56742799282074,1.26639604568481,0.76744699478149,-1.04219305515289,-0.38833200931549,0.54111099243164,5.48299980163574,4.30600023269653,-2.12599992752075,17.9930000305176,17.1299991607666,11.0100002288818,0.95344400405884,2.51164102554321,3.2488911151886,-9.68900012969971,-24.988000869751,-33.8530006408691,-8.98256874084473,-8.84914398193359,-8.08615875244141,7.63022422790527,7.38768005371094,6.62273788452148,-38.7649993896484,-39.6279983520508,-39.8639984130859,3.71399998664856,-1.07099997997284,-3.97399997711182,-2.00868010520935,-3.00624489784241,-5.21289491653442,5.60900020599365,21.2999992370605,34.2449989318848,-3.360347032547,-1.39767599105835,0.84937697649002,-4.31812381744385,-6.92988920211792,-7.91756105422974,-17.1900005340576,-14.2080001831055,-13.1890001296997,6.46000003814697,12.3439998626709,12.9720001220703,-4.48247289657593,-3.95784306526184,-3.56103610992432,24.2029991149902,19.3390007019043,14.16100025177,4.2042350769043,4.51629686355591,4.78073215484619,-5.42519187927246,-4.21323680877686,-3.19159293174744,-2.04800009727478,-3.7739999294281,-5.18599987030029,8.6569995880127,10.0690002441406,8.3430004119873,SWING_LEFT
-0.30584600567818,-0.39155000448227,-0.5191770195961,1.13699996471405,1.37199997901917,1.84300005435944,0.58500200510025,0.94203197956085,1.28846299648285,-0.78347998857498,-1.30034399032593,-1.90826904773712,3.83500003814697,6.42399978637695,7.60099983215332,12.8929996490479,15.0900001525879,15.168999671936,-2.53242492675781,-2.6650230884552,-2.71040606498718,4.74599981307983,4.74599981307983,4.51000022888184,1.46267795562744,1.48801803588867,1.50314700603485,-1.92992496490479,-1.45406794548035,-0.41150599718094,5.9539999961853,2.73699998855591,-2.98900008201599,9.20600032806396,5.20499992370605,3.24300003051758,0.72347700595856,6.17479276657104,4.77045297622681,-22.7129993438721,-29.8519992828369,-26.7919998168945,-9.3715295791626,-8.64681053161621,-7.40957689285278,8.36221218109131,6.86350297927856,5.41893911361694,-37.2750015258789,-39.3139991760254,-39.7849998474121,7.71500015258789,7.63700008392334,5.83199977874756,-2.81401705741882,-3.55217695236206,-4.01668214797974,12.9049997329712,18.3969993591309,19.8090000152588,-3.14609694480896,-1.73521196842194,-0.05736799910665,-3.90892601013184,-5.95026922225952,-6.97951984405518,-13.6590003967285,-13.423999786377,-10.9919996261597,9.36299991607666,9.59799957275391,10.7749996185303,-3.52014493942261,-3.17186188697815,-2.70277810096741,16.9850006103516,14.3170003890991,11.96399974823,4.07326793670654,4.68300580978394,6.17982292175293,-4.47645807266235,-3.725182056427,-3.42376589775085,-1.34200000762939,-1.73399996757507,-1.89100003242493,7.08799982070923,8.18599987030029,9.1269998550415,SWING_LEFT
-2.01395606994629,-1.97732901573181,-1.86373102664948,4.58900022506714,3.6470000743866,3.7260000705719,0.85813599824905,0.68441599607468,0.43468099832535,-1.35202705860138,-1.11630094051361,-0.22342500090599,3.5220000743866,1.7960000038147,-0.00800000037998,13.128999710083,13.2069997787476,12.8929996490479,0.91414999961853,2.37062406539917,3.57036304473877,-10.081000328064,-12.3570003509521,-13.4549999237061,-3.34943604469299,-6.10470676422119,-5.63687896728516,6.93792486190796,8.01132297515869,6.65910482406616,-13.2670001983643,-29.5069999694824,-38.5299987792969,2.06599998474121,15.168999671936,12.3439998626709,-1.83762001991272,-3.02514505386353,-4.01910781860352,-3.01999998092651,10.3159999847412,18.8680000305176,-3.89568710327148,-3.58958292007446,-2.94310688972473,0.41588199138641,-2.04564809799194,-5.05100393295288,-34.7639999389648,-21.4260005950928,-17.2679996490479,18.4640007019043,16.1100006103516,13.5989999771118,-3.34056401252747,-2.37816905975342,-2.03426194190979,22.7119998931885,19.8880004882813,18.0830001831055,3.88331007957459,4.00951290130615,4.41412782669067,-7.45271921157837,-6.28714179992676,-5.21213006973267,-5.18599987030029,-3.38199996948242,-3.06800007820129,10.3039999008179,10.1470003128052,9.36299991607666,1.26738905906677,5.64519309997559,7.75391101837158,6.39300012588501,3.09800004959106,1.60800004005432,6.4416241645813,4.48359298706055,3.38176298141479,-2.48522591590881,-1.03670394420624,-0.06168099865317,-3.6949999332428,-3.6949999332428,-2.12599992752075,8.18599987030029,8.18599987030029,9.52000045776367,SWING_LEFT
-1.59378397464752,-1.36050701141357,-0.92269200086594,1.13699996471405,0.03900000080466,-0.50999999046326,1.25807905197144,2.21885800361633,2.38860011100769,0.23501400649548,0.82541197538376,0.80774199962616,6.34600019454956,8.07199954986572,8.38599967956543,10.6969995498657,12.3439998626709,13.9130001068115,-0.79505401849747,-1.16698503494263,-1.4247339963913,-1.68700003623962,0.50900000333786,-2.62800002098084,1.85434103012085,1.11127495765686,-2.02548289299011,0.48330798745155,3.06707692146301,7.39834499359131,1.08899998664856,-7.38299989700317,-15.9350004196167,4.65500020980835,3.32200002670288,7.40100002288818,1.41455101966858,-1.08476495742798,-2.58102297782898,-14.710000038147,-10.8660001754761,-16.201000213623,-6.96734523773193,-6.4444899559021,-5.51094818115234,4.28364276885986,3.51373791694641,1.12571799755096,-35.7050018310547,-38.8440017700195,-35.1559982299805,4.02799987792969,1.98800003528595,7.87200021743774,-4.0374641418457,-4.00339794158936,-4.07687711715698,14.003999710083,18.5540008544922,23.6539993286133,-3.79483294487,-1.80069804191589,0.2046619951725,-6.16689109802246,-8.63334846496582,-9.64554309844971,-17.5820007324219,-13.1099996566772,-9.26599979400635,7.40100002288818,9.36299991607666,8.73499965667725,-3.560702085495,-3.28839898109436,-2.88458609580994,24.0459995269775,16.4360008239746,11.3360004425049,4.99702978134155,5.96706914901733,7.93617820739746,-6.14249277114868,-5.56394815444946,-5.78214311599731,-5.4210000038147,-5.10799980163574,-4.32299995422363,7.55800008773804,8.0290002822876,8.5,SWING_LEFT
-1.38006103038788,-1.77187299728394,-1.76290702819824,3.4909999370575,3.01999998092651,-0.195999994874,0.56480598449707,0.65952098369598,0.81974202394485,-1.27775502204895,-0.61133897304535,0.41846799850464,1.32500004768372,2.18799996376038,3.67799997329712,11.4029998779297,12.1090002059937,11.3240003585815,0.74005597829819,1.4950350522995,1.80928802490234,-2.86299991607666,-3.4909999370575,-2.86299991607666,1.8549610376358,3.16524791717529,3.2695209980011,2.49744009971619,0.47216999530792,-0.31839001178741,8.22900009155273,5.09100008010864,0.69700002670288,10.539999961853,6.14599990844727,5.67500019073486,-1.75607097148895,1.08615005016327,0.96907901763916,-17.8479995727539,-23.4969997406006,-21.693000793457,-7.55644178390503,-7.87814807891846,-7.28831720352173,7.22983598709106,5.55186700820923,3.96794509887695,-31.7830009460449,-31.7830009460449,-32.3320007324219,7.08799982070923,7.08799982070923,8.6569995880127,-4.56306314468384,-4.89568996429443,-5.23189306259155,2.54900002479553,4.58900022506714,3.4909999370575,-4.76781511306763,-4.13691186904907,-3.35816192626953,-1.10221600532532,-2.00459003448486,-3.10469508171082,-15.0719995498657,-16.7980003356934,-17.6609992980957,2.92899990081787,8.10799980163574,15.7959995269775,-3.48802304267883,-2.38748288154602,-1.46287703514099,8.27600002288818,10.1590003967285,10.8649997711182,2.55238604545593,3.14444398880005,3.54979491233826,-4.9714298248291,-4.92018890380859,-4.99777889251709,-9.26599979400635,-6.67700004577637,-4.87200021743774,13.835000038147,11.3240003585815,11.08899974823,SWING_LEFT
-2.33323788642883,-2.61598300933838,-2.55663394927979,4.66699981689453,5.37400007247925,5.76599979400635,0.95352298021317,0.85100197792053,0.48981800675392,-1.57939994335175,-1.73521399497986,-1.70073902606964,3.28600001335144,0.85399997234344,-5.02899980545044,10.3830003738403,7.48000001907349,6.14599990844727,-0.71874099969864,0.9311820268631,3.34466195106506,1.52900004386902,-6.39400005340576,-25.5370006561279,-9.68234252929688,-9.03301906585693,-7.30458879470825,5.41646909713745,7.19268608093262,6.99256181716919,-37.1180000305176,-39.2360000610351,-39.7849998474121,6.06799983978271,8.6569995880127,7.08799982070923,0.99931699037552,-0.17852200567722,-1.59016501903534,0.35199999809265,16.9069995880127,30.9500007629395,-3.49134707450867,-1.55030000209808,-0.1530620008707,2.08071708679199,-4.20836877822876,-6.42474985122681,-39.9420013427734,-21.6620006561279,-19.386999130249,21.5240001678467,7.16599988937378,12.9720001220703,-4.0505747795105,-2.8865659236908,-2.05797290802002,29.4599990844727,25.3010005950928,20.3589992523193,4.43514204025269,4.35886478424072,4.69522094726563,-7.06863117218018,-6.25487184524536,-5.06367492675781,-5.89200019836426,-4.16599988937378,-3.46000003814697,4.10599994659424,8.10799980163574,10.3039999008179,0.38087299466133,2.07550597190857,6.02121591567993,3.25500011444092,-0.66699999570847,-1.76499998569489,9.04162693023682,7.56446886062622,4.69635820388794,-3.42762088775635,-1.89451694488525,0.02104399912059,-3.61700010299683,-2.91100001335144,-0.87099999189377,9.28400039672852,9.04899978637695,9.20600032806396,SWING_LEFT
-0.14321100711823,-1.23171496391296,-1.67704904079437,0.35199999809265,1.9210000038147,2.70600008964539,0.72272700071335,0.88280099630356,1.0460250377655,-1.33660995960236,-1.708624958992,-1.90153503417969,1.40299999713898,2.50200009346008,3.75699996948242,14.0699996948242,15.4040002822876,16.6590003967285,-3.22145009040833,-3.31058192253113,-3.70394706726074,5.13800001144409,9.76700019836426,10.8649997711182,1.20184004306793,0.92947202920914,0.59189999103546,-2.08729004859924,-1.6674610376358,-0.88713401556015,1.87399995326996,-2.36199998855591,-6.67700004577637,19.1700000762939,16.423999786377,14.1490001678467,-0.12475000321865,2.76519298553467,6.75971412658691,-13.0629997253418,-29.2250003814697,-37.3059997558594,-9.69876098632812,-9.85734176635742,-8.2397403717041,5.35102415084839,5.63328981399536,4.82149410247803,-38.6080017089844,-39.6279983520508,-39.8639984130859,-4.67999982833862,-2.71799993515015,1.125,1.62767696380615,0.06539800018072,-1.74439203739166,6.86399984359741,16.5139999389648,22.9479999542236,-3.05044293403625,-2.11980891227722,-0.72972202301025,-0.16272799670696,-2.09962201118469,-4.33819007873535,-24.1720008850098,-20.8770008087158,-17.6609992980957,5.75400018692017,8.73499965667725,14.3839998245239,-5.01967287063599,-4.19738101959229,-3.67906999588013,26.3999996185303,21.2999992370605,18.7110004425049,4.03491115570068,4.31024980545044,4.19820022583008,-6.06011009216309,-4.92941188812256,-3.06522393226624,-3.06800007820129,-3.06800007820129,-3.46000003814697,7.63700008392334,7.63700008392334,9.44099998474121,SWING_LEFT
-3.26567697525024,-4.02797317504883,-3.99569702148438,9.60999965667725,8.98200035095215,7.64900016784668,0.47696799039841,0.26936900615692,0.1526859998703,-2.55916595458984,-2.2457480430603,-1.93747699260712,1.95200002193451,1.48199999332428,-0.55699998140335,17.4440002441406,14.1490001678467,7.24499988555908,-2.01314401626587,-0.71420502662659,2.29298210144043,0.90200001001358,-10.7089996337891,-20.3589992523193,-6.16210889816284,-8.61834907531738,-8.33911037445068,3.8643798828125,5.7634072303772,5.9846339225769,-34.7639999389648,-38.6870002746582,-39.6279983520508,6.77400016784668,3.94899988174438,-4.28700017929077,3.09007811546326,0.94817698001862,-0.65518897771835,-8.19799995422363,6.23699998855591,6.23699998855591,-3.76861000061035,-2.99438309669495,-1.79439294338226,2.9334819316864,0.88425898551941,-1.78987598419189,-37.3530006408691,-23.3090000152588,-14.7580003738403,18.7779998779297,16.9729995727539,8.0290002822876,-5.8325572013855,-5.38559722900391,-3.95546388626099,29.3810005187988,26.0069999694824,26.0069999694824,4.5891637802124,5.13985204696655,5.11798810958862,-7.17005395889282,-6.64962387084961,-5.83298110961914,-12.0120000839233,-4.55800008773804,-2.20499992370605,16.8950004577637,8.6569995880127,8.0290002822876,-0.33423501253128,3.07273101806641,7.25555801391602,6.31500005722046,0.98000001907349,0.1169999986887,10.9748220443726,8.51239585876465,4.66494512557983,-5.60296201705933,-3.59781908988953,-0.44979301095009,-2.98900008201599,-2.44000005722046,-1.41999995708466,8.42099952697754,9.36299991607666,9.75500011444092,SWING_LEFT
-3.98537111282349,-4.39248418807983,-3.96687889099121,11.2580003738403,8.98200035095215,7.41300010681152,0.43392398953438,0.35911700129509,0.35148298740387,-2.76317405700684,-2.29181790351868,-1.47266399860382,1.40299999713898,0.46200001239777,-1.02799999713898,13.9919996261597,9.20600032806396,7.79400014877319,-0.08514600247145,3.32264399528503,7.29049301147461,-12.6700000762939,-18.94700050354,-26.2430000305176,-5.53936576843262,-6.61564779281616,-6.07583379745483,7.15929889678955,7.30976676940918,6.45151615142822,-24.7220001220703,-33.7439994812012,-38.3730010986328,7.95100021362305,9.91199970245361,10.3039999008179,0.71874898672104,-1.03591597080231,-2.6196870803833,-5.13899993896484,7.72700023651123,17.298999786377,-3.76431107521057,-3.37827897071838,-2.74212193489075,1.99411904811859,0.15595699846745,-1.97290301322937,-39.0789985656738,-28.7229995727539,-19.8570003509521,14.0699996948242,14.8549995422363,5.12599992752075,-5.69836091995239,-4.96697616577148,-3.87974309921265,27.1060009002686,26.0069999694824,23.1830005645752,2.79687404632568,3.86916208267212,4.0560998916626,-8.26772975921631,-7.53881120681763,-6.35417604446411,-5.65700006484985,-5.02899980545044,-5.89200019836426,12.7360000610352,10.8540000915527,8.26399993896484,-1.86639595031738,-0.25429800152779,4.11518383026123,1.84300005435944,0.58799999952316,0.27399998903275,10.4871091842651,8.79697418212891,6.95251798629761,-6.78216314315796,-6.10813903808594,-4.85224008560181,-3.61700010299683,-2.28299999237061,-2.59699988365173,10.1470003128052,9.83399963378906,8.73499965667725,SWING_LEFT
-3.97568607330322,-4.16702508926392,-4.12994718551636,6.55000019073486,8.43299961090088,8.43299961090088,1.0811710357666,0.89662599563599,0.77008301019669,-2.7520489692688,-2.3042049407959,-1.80512797832489,3.99200010299683,1.32500004768372,-2.20499992370605,15.875,14.2270002365112,12.3439998626709,-0.75737702846527,1.41690695285797,4.37295007705688,-6.15899991989136,-15.9659996032715,-28.6749992370605,-6.1041522026062,-8.28061676025391,-7.94099283218384,5.42855978012085,6.6643967628479,6.61290216445923,-34.7639999389648,-38.6870002746582,-39.3139991760254,1.98800003528595,3.94899988174438,5.0479998588562,1.43269598484039,0.04562800005078,-1.47738599777222,-4.98199987411499,10.9440002441406,23.9680004119873,-4.3707480430603,-3.53022909164429,-2.46148800849915,2.50085401535034,0.28939700126648,-2.18389797210693,-39.5499992370605,-28.8799991607666,-22.8390007019043,15.4820003509521,15.6389999389648,7.55800008773804,-5.71777296066284,-3.51051092147827,-2.59200811386108,29.2240009307861,25.4580001831055,23.8110008239746,4.42143583297729,4.52439785003662,4.56272506713867,-7.26329183578491,-6.4144492149353,-5.16732788085938,-3.85199999809265,-3.53800010681152,-3.85199999809265,6.38199996948242,5.75400018692017,6.85200023651123,-1.17379999160767,0.13172200322151,8.84801483154297,3.41199994087219,0.98000001907349,-0.195999994874,12.4411191940308,8.67122936248779,6.10228300094604,-6.99381923675537,-4.50209712982178,-2.3589780330658,-5.02899980545044,-4.40100002288818,-3.14599990844727,9.44099998474121,9.1269998550415,9.44099998474121,SWING_LEFT
-2.39679002761841,-2.27923607826233,-2.22861003875732,4.35400009155273,3.88299989700317,3.6470000743866,1.29918301105499,1.6444890499115,2.04478311538696,-1.71684598922729,-1.26572299003601,-0.23223799467087,6.89499998092651,6.73799991607666,5.2480001449585,13.0500001907349,11.4809999465942,6.93100023269653,-0.44473600387573,2.68172788619995,6.1760721206665,-11.5719995498657,-15.6520004272461,-28.2830009460449,-4.75927400588989,-6.49457120895386,-6.81803321838379,8.28865242004395,7.51119995117188,6.20843076705933,-24.2509994506836,-35.4700012207031,-38.8440017700195,13.128999710083,11.8730001449585,6.46000003814697,-1.7277979850769,-3.04916906356812,-4.11747694015503,-5.68800020217896,8.19799995422363,24.5949993133545,-4.96758794784546,-4.66222095489502,-3.88005399703979,1.02962505817413,-0.94638901948929,-3.34120488166809,-36.8040008544922,-28.8799991607666,-20.9559993743896,11.9519996643066,12.5010004043579,10.6969995498657,-5.59464979171753,-3.72263097763062,-2.49584603309631,30.4009990692139,27.9689998626709,26.7140007019043,3.78560090065002,4.63653182983398,4.93598222732544,-9.9459810256958,-8.56150913238525,-7.00878715515137,-2.75399994850159,-1.18499994277954,-1.65600001811981,9.67700004577637,9.1269998550415,7.79400014877319,-1.57495403289795,-0.39783701300621,5.74441719055176,3.56900000572205,-1.84300005435944,-4.19700002670288,11.4725303649902,7.16739892959595,4.47951221466064,-5.6105899810791,-3.07262992858887,-1.01727294921875,-6.51999998092651,-3.38199996948242,-2.36199998855591,7.79400014877319,10.8540000915527,11.246000289917,SWING_LEFT
-3.30119204521179,-4.19313621520996,-4.87785005569458,10.7089996337891,14.710000038147,11.7279996871948,0.92185801267624,0.87595599889755,0.79218000173569,-3.56216597557068,-2.87091994285584,-1.94174098968506,6.58099985122681,5.6399998664856,2.10899996757507,21.2099990844727,22.1509990692139,18.9340000152588,-1.98162496089935,-0.74114400148392,1.72263503074646,-3.33400011062622,-6.23699998855591,-17.3780002593994,-2.40668606758118,-6.52572107315063,-8.41535663604736,5.20668077468872,7.22450494766235,7.65791511535645,-20.4069995880127,-30.6840000152588,-37.3530006408691,2.92899990081787,6.46000003814697,10.8540000915527,2.03753805160522,0.33672600984573,-1.24426102638245,-13.3760004043579,-1.13699996471405,10.6300001144409,-4.54090690612793,-3.84280610084534,-3.21612000465393,3.46813988685608,1.92826998233795,0.1186769977212,-39.9420013427734,-32.7239990234375,-25.8980007171631,12.2659997940063,13.9919996261597,10.539999961853,-4.91122722625732,-3.56698203086853,-2.29340004920959,24.2029991149902,22.3199996948242,21.0650005340576,3.35125088691711,4.22949886322021,4.79351806640625,-8.22213077545166,-7.53725290298462,-6.53257179260254,-8.48099994659424,-5.65700006484985,-5.02899980545044,13.6780004501343,11.4029998779297,9.59799957275391,-0.13372099399567,0.81267899274826,5.4348669052124,8.04100036621094,6.07999992370605,2.39199995994568,9.33768844604492,8.1967887878418,6.42928695678711,-6.46629190444946,-5.53519010543823,-3.78644895553589,-3.46000003814697,-3.38199996948242,-3.61700010299683,8.89200019836426,8.5,8.42099952697754,SWING_LEFT
-2.890291929245,-2.9268479347229,-2.76330494880676,5.29500007629395,4.27500009536743,4.27500009536743,0.75960797071457,1.27570402622223,1.67996394634247,-2.09821510314941,-1.5672470331192,-1.16916394233704,6.42399978637695,8.14999961853027,5.56099987030029,13.5209999084473,9.52000045776367,8.10799980163574,-2.25096797943115,-1.27850294113159,1.48704898357391,-4.43200016021729,-9.8459997177124,-14.9460000991821,-1.78032600879669,-6.34732723236084,-8.44157695770264,6.71904516220093,7.62567377090454,6.62928009033203,-18.2099990844727,-33.1160011291504,-38.2159996032715,7.79400014877319,12.1090002059937,14.8549995422363,0.21991799771786,-1.63543903827667,-2.70798897743225,-22.7129993438721,8.59000015258789,25.4580001831055,-5.60722303390503,-4.36472511291504,-1.41146504878998,1.15628397464752,-1.31052803993225,-5.62306308746338,-35.2350006103516,-19.3080005645752,-16.0909996032715,28.5849990844727,19.1700000762939,19.0130004882813,-4.91707515716553,-3.7408299446106,-2.87575507164001,23.8110008239746,21.92799949646,19.0249996185303,3.80902409553528,3.6547520160675,3.43257999420166,-5.7314658164978,-5.01553821563721,-3.93484807014465,-0.87099999189377,-0.55699998140335,-1.26300001144409,3.63599991798401,5.83199977874756,7.16599988937378,-1.38698101043701,-1.32401096820831,2.60781192779541,-1.84300005435944,-1.2940000295639,-0.43099999427795,12.3252410888672,8.60486030578613,6.35232305526733,-4.28165102005005,-2.24477005004883,-1.08429300785065,-0.71399998664856,-0.79299998283386,-0.87099999189377,10.539999961853,12.1870002746582,12.6579999923706,SWING_LEFT
-0.23733800649643,-0.28519800305367,-0.87212699651718,-2.0,0.74500000476837,1.9210000038147,1.89420294761658,2.00400900840759,1.95156896114349,-0.87687200307846,-0.81618201732635,-0.55292499065399,3.44300007820129,2.81500005722046,2.89400005340576,14.1490001678467,14.1490001678467,14.7760000228882,-0.94315099716187,-0.80459898710251,-0.7406240105629,-2.0,0.03900000080466,0.43099999427795,0.5191850066185,-0.6645439863205,-5.56925678253174,0.06290400028229,0.66429001092911,3.61899399757385,-6.04899978637695,-16.1700000762939,-37.4309997558594,10.6180000305176,10.3830003738403,1.75300002098084,-0.51506197452545,-0.78344398736954,-1.33312201499939,-24.4389991760254,-9.14000034332275,8.35499954223633,-5.97566509246826,-4.58053684234619,-2.92305493354797,0.67960298061371,-1.36415803432465,-3.57413792610169,-34.9990005493164,-24.878999710083,-23.2310009002686,20.8959999084473,10.7749996185303,7.95100021362305,-5.48887014389038,-4.55129384994507,-3.44080209732056,29.6159992218018,30.7929992675781,30.7929992675781,3.66181802749634,4.07040691375732,3.91222405433655,-8.47495746612549,-8.65568923950195,-7.64546585083008,-3.93099999427795,-3.14599990844727,-3.14599990844727,-4.99399995803833,0.18400000035763,0.18400000035763,-2.80200695991516,-3.21744298934937,-3.75989294052124,7.33500003814697,2.78399991989136,0.66600000858307,-3.46052002906799,12.3699541091919,8.81486415863037,1.28370201587677,-5.72144412994385,-3.28470706939697,-5.2649998664856,-4.87200021743774,-3.53800010681152,10.3039999008179,11.4809999465942,11.7950000762939,SWING_LEFT
-2.69768190383911,-3.27497792243958,-3.55096793174744,6.23699998855591,7.64900016784668,8.11900043487549,0.96099799871445,0.66209000349045,-0.01759500056505,-2.52707004547119,-2.55351805686951,-1.46831905841827,3.83500003814697,0.61900001764297,-7.53999996185303,15.4040002822876,14.3059997558594,13.9130001068115,0.68638801574707,2.43014597892761,4.31950521469116,-3.88299989700317,-8.04100036621094,-19.4179992675781,-6.02701282501221,-7.24989795684814,-6.94891977310181,3.04750990867615,4.54892110824585,5.20451307296753,-34.9990005493164,-39.3139991760254,-39.7849998474121,9.52000045776367,9.28400039672852,5.20499992370605,2.02289795875549,0.52114200592041,-0.95816898345947,-6.39400005340576,18.7889995574951,32.9119987487793,-4.86347484588623,-3.90961790084839,-2.55475497245789,2.38811898231506,0.09208299964666,-2.28279590606689,-39.5499992370605,-27.0750007629395,-20.0139999389648,19.4839992523193,19.7980003356934,9.20600032806396,-5.15376806259155,-4.16029977798462,-3.57770609855652,31.6560001373291,29.9300003051758,17.5340003967285,4.48613786697388,3.79832291603088,2.63810896873474,-5.89563989639282,-4.84310102462769,-3.10716509819031,-7.61800003051758,-6.91200017929077,-4.95100021362305,9.75500011444092,7.87200021743774,7.32299995422363,-2.35718202590942,-0.30791598558426,10.8692693710327,0.66600000858307,-1.52999997138977,-2.86299991607666,9.66251277923584,7.45158386230469,5.91673612594604,-6.01231479644775,-4.5942211151123,-3.13060688972473,-5.10799980163574,-4.16599988937378,-2.67499995231628,11.5600004196167,10.9320001602173,10.539999961853,SWING_LEFT
-3.15343594551086,-3.6450629234314,-4.76415395736694,3.17700004577637,4.27500009536743,9.29599952697754,1.41499996185303,1.29607403278351,1.22705900669098,-2.79188990592957,-2.73033308982849,-2.16168904304504,7.75799989700317,5.6399998664856,3.36500000953674,13.9130001068115,11.5600004196167,11.6379995346069,-2.88740491867065,2.15036392211914,5.93862915039063,-0.58799999952316,-7.80600023269653,-10.3950004577637,-4.1935510635376,-5.80002212524414,-7.91567277908325,4.11716508865356,3.80600690841675,4.39699792861938,-22.9169998168945,-22.9169998168945,-39.1580009460449,21.2880001068115,21.2880001068115,-0.60000002384186,1.61471998691559,0.40179398655891,-0.90122902393341,-2.94199991226196,9.13899993896484,20.2019996643066,-4.26889514923096,-2.80664610862732,-1.47466099262238,0.0458119995892,-1.82274496555328,-3.63674998283386,-39.0009994506836,-22.4459991455078,-15.1499996185303,13.9919996261597,7.08799982070923,3.79200005531311,-4.22890710830688,-3.45665693283081,-2.9792320728302,26.8700008392334,26.8700008392334,16.1219997406006,4.70924377441406,4.24402284622192,4.85278606414795,-6.55695486068726,-3.85210490226746,-3.26631903648376,-4.79400014877319,-4.55800008773804,-4.32299995422363,6.14599990844727,5.91099977493286,6.38199996948242,9.34537696838379,10.8195629119873,10.1977338790894,2.31399989128113,1.84300005435944,2.0,7.05516815185547,6.3215389251709,5.85107278823853,-1.9840190410614,-1.25409698486328,-0.80376499891281,-1.81200003623962,-1.34200000762939,-1.34200000762939,9.59799957275391,9.91199970245361,9.59799957275391,SWING_LEFT
-0.80799901485443,-0.78073197603226,-0.92773002386093,0.66600000858307,1.9210000038147,4.11800003051758,0.49140200018883,0.69645297527313,0.75787997245789,-0.99528700113297,-1.52873301506042,-1.87532794475555,2.34500002861023,2.57999992370605,2.03099989891052,13.128999710083,16.1889991760254,18.7779998779297,-3.04891204833984,-3.15473008155823,-3.25484991073608,8.19799995422363,10.1590003967285,8.74699974060059,0.81371599435806,0.8125159740448,1.1621550321579,-2.00442910194397,-1.56868100166321,-0.76056599617004,5.01200008392334,4.77699995040894,2.34500002861023,12.3439998626709,9.20600032806396,7.08799982070923,-1.24657201766968,5.26498413085938,9.52851963043213,-22.9479999542236,-27.2630004882813,-31.1079998016357,-7.10621500015259,-7.54683303833008,-6.00340700149536,7.63113880157471,6.63770389556885,4.0836968421936,-36.3330001831055,-39.0789985656738,-39.9420013427734,8.3430004119873,9.04899978637695,7.48000001907349,-1.49118101596832,-2.71490001678467,-3.69921398162842,7.80600023269653,13.3760004043579,18.1620006561279,-3.96696591377258,-2.97074103355408,-1.57015597820282,-1.05931496620178,-2.9076030254364,-5.89718198776245,-20.9559993743896,-14.4440002441406,-10.7559995651245,10.9320001602173,11.7950000762939,11.246000289917,-3.96468591690064,-3.37811207771301,-2.29530811309814,19.496000289917,15.5729999542236,7.96299982070923,3.98539996147156,4.6216402053833,6.58869886398315,-4.56607723236084,-4.06270217895508,-5.29144477844238,-6.99100017547607,-6.28399991989136,-6.04899978637695,12.0299997329712,9.04899978637695,8.42099952697754,SWING_LEFT
-2.01101493835449,-1.83568203449249,-1.48289501667023,3.17700004577637,3.09800004959106,-2.47099995613098,1.02782797813416,0.26411101222038,-0.91553801298141,-0.03088100068271,1.22351098060608,2.53144788742065,-2.83200001716614,-5.02899980545044,-5.18599987030029,11.4029998779297,11.7170000076294,11.3240003585815,2.38712811470032,2.8691029548645,2.69850897789001,-9.68900012969971,-7.17799997329712,-4.98199987411499,-2.6089940071106,-2.66027903556824,-3.51582789421082,4.00431203842163,4.01563501358032,4.60168123245239,-6.04899978637695,-15.1499996185303,-26.2910003662109,6.93100023269653,5.98899984359741,4.42000007629395,0.64966797828674,-0.95215100049973,-2.39374804496765,-16.75,-4.74599981307983,7.02099990844727,-4.05295991897583,-3.07806992530823,-2.51934409141541,1.79097402095795,0.00198599998839,-1.95602798461914,-39.8639984130859,-34.1360015869141,-19.5440006256104,32.9000015258789,23.4060001373291,3.71399998664856,-5.13108587265015,-4.413489818573,-3.1819760799408,22.3199996948242,23.1049995422363,23.9680004119873,1.68020498752594,2.67422103881836,3.30597305297852,-8.96137142181396,-9.04820823669434,-8.19406414031982,-10.6780004501343,-5.7350001335144,-1.96899998188019,17.9930000305176,12.8929996490479,5.44000005722046,-1.41656303405762,-1.17529404163361,-1.00268197059631,11.5719995498657,7.25600004196167,3.6470000743866,5.06932210922241,10.2211942672729,14.2302074432373,-3.65473890304565,-4.65763711929321,-4.84007883071899,-2.04800009727478,-2.83200001716614,-3.22499990463257,10.0690002441406,11.5600004196167,11.7170000076294,SWING_LEFT
1.35597097873688,1.30153596401215,1.0580849647522,-2.39299988746643,-3.64800000190735,-4.58900022506714,-1.48601400852203,-1.467689037323,-1.38655996322632,2.09730195999146,1.67534697055817,1.26665604114532,-0.94900000095367,-0.32199999690056,-0.00800000037998,11.3240003585815,11.4809999465942,7.71500015258789,-0.88474297523499,-1.10269296169281,-1.36127495765686,-1.21599996089935,-3.17700004577637,-9.45400047302246,-0.24860000610352,-2.13645601272583,-4.20147514343262,1.49816298484802,3.4297890663147,4.23182010650635,-11.4630002975464,-20.8770008087158,-28.6439990997314,11.5600004196167,8.6569995880127,4.02799987792969,-0.5927540063858,-1.34112405776978,-2.00825595855713,-16.9069995880127,-9.375,5.13800001144409,-5.1814341545105,-4.7915940284729,-4.0230860710144,1.80097103118896,-0.21288399398327,-2.49142694473267,-36.0979995727539,-22.9169998168945,-15.5419998168945,16.1889991760254,13.6780004501343,8.81400012969971,-4.67882394790649,-4.77043294906616,-3.82987499237061,31.8920001983643,22.0060005187988,20.9860000610352,3.08922910690308,3.89753603935242,4.42238092422485,-8.09909915924072,-7.85076999664307,-7.12390422821045,-4.32299995422363,-1.10599994659424,-0.47900000214577,3.94899988174438,3.71399998664856,4.18499994277954,-0.72877901792526,-0.01064699981362,2.26783204078674,3.01999998092651,1.84300005435944,3.01999998092651,10.2158966064453,9.56429195404053,8.24631309509277,-2.37522888183594,-0.68575900793076,0.47354298830032,0.22599999606609,0.54000002145767,0.61900001764297,11.246000289917,11.5600004196167,10.6180000305176,SWING_LEFT
-1.82858502864838,-2.05413007736206,-1.69294798374176,6.07999992370605,4.58900022506714,1.2150000333786,0.67666900157928,0.36195600032806,-0.12824299931526,0.0919089987874,1.14010298252106,1.96853697299957,-2.20499992370605,-3.14599990844727,-3.93099999427795,16.423999786377,15.0120000839233,12.3439998626709,2.33306407928467,2.61084294319153,2.36499190330505,-9.29699993133545,-10.3950004577637,-14.16100025177,-3.31772899627686,-3.7463800907135,-3.86780691146851,5.92392015457153,6.82391881942749,6.80337476730347,-11.6979999542236,-25.5849990844727,-35.0779991149902,6.53800010681152,12.9720001220703,14.1490001678467,-2.09889507293701,-2.58186888694763,-2.80401492118835,-18.2409992218018,-7.25699996948242,9.68900012969971,-4.21338701248169,-4.18556976318359,-4.05843114852905,1.69426894187927,-0.52380901575089,-2.95471405982971,-39.9420013427734,-32.8030014038086,-27.5459995269775,12.5010004043579,7.71500015258789,4.18499994277954,-3.98433089256287,-3.31263208389282,-2.77485489845276,33.6180000305176,31.4209995269775,27.4979991912842,2.01216602325439,2.87590003013611,4.22387981414795,-10.3526735305786,-9.52327632904053,-6.43623399734497,-7.46099996566772,-5.10799980163574,-2.59699988365173,3.16499996185303,3.63599991798401,7.63700008392334,-0.89164197444916,1.38815903663635,4.93167114257813,3.56900000572205,1.05799996852875,-0.1169999986887,9.99686622619629,8.02563858032227,6.40813589096069,-3.09822010993958,-0.72721302509308,0.66004997491837,-4.08799982070923,-2.98900008201599,-2.04800009727478,11.08899974823,10.9320001602173,10.539999961853,SWING_LEFT
-2.69616389274597,-2.71851801872253,-2.12316703796387,9.375,7.49200010299683,7.02099990844727,0.58117198944092,0.65010297298431,0.6068519949913,-1.62071895599365,-1.22478294372559,-0.60154801607132,0.14800000190735,-0.32199999690056,-1.65600001811981,12.8929996490479,11.7950000762939,12.5010004043579,2.84833407402039,4.33999013900757,5.08284378051758,-3.09899997711182,-10.7089996337891,-18.7110004425049,-4.73216676712036,-5.64483022689819,-5.10634088516235,3.71320796012878,5.09590005874634,6.59289789199829,-28.5659999847412,-32.9589996337891,-38.1380004882813,13.28600025177,14.4619998931885,11.08899974823,-0.75019198656082,-2.8778920173645,-3.85367107391357,-4.90299987792969,22.7119998931885,34.3240013122559,-3.99157905578613,-3.11599588394165,-1.50982296466827,1.38288402557373,-2.11395001411438,-5.34904289245605,-37.0390014648438,-21.5049991607666,-13.8950004577637,24.4260005950928,15.168999671936,10.0690002441406,-3.96920204162598,-3.22305011749268,-1.72924697399139,21.5349998474121,17.0629997253418,15.8079996109009,4.6865439414978,5.41555881500244,5.69511985778809,-6.20571184158325,-5.76520490646362,-4.9450101852417,-5.18599987030029,-6.51999998092651,-7.30399990081787,10.3039999008179,6.93100023269653,8.73499965667725,4.01835584640503,5.58641004562378,6.87568521499634,0.43099999427795,0.19499999284744,0.27399998903275,4.38955783843994,4.01474285125732,4.10016489028931,-1.96746098995209,-1.25503396987915,-0.9763839840889,-1.34200000762939,-0.63599997758865,-0.16500000655651,8.3430004119873,7.71500015258789,8.26399993896484,SWING_LEFT
-1.69208800792694,-1.56945502758026,-1.73798799514771,1.60800004005432,3.6470000743866,4.74599981307983,0.75471597909927,0.97209000587463,1.2657870054245,-1.76507997512817,-2.02842211723328,-2.35341596603394,2.65899991989136,2.65899991989136,4.77699995040894,12.5010004043579,12.5010004043579,12.3439998626709,-3.05150890350342,-3.65287208557129,-3.62334299087524,8.43299961090088,6.07999992370605,6.07999992370605,1.9453250169754,1.72549104690552,0.61723899841309,-1.10930299758911,0.70532202720642,2.8745379447937,-0.16500000655651,-3.6949999332428,-9.97200012207031,12.7360000610352,11.5600004196167,11.8730001449585,3.81678509712219,2.98860907554626,1.3880649805069,-27.4990005493164,-30.4799995422363,-26.556999206543,-5.99865484237671,-5.67884492874146,-5.17769622802734,7.5392599105835,7.42764711380005,6.50891780853271,-37.1959991455078,-39.3139991760254,-39.7849998474121,-2.79699993133545,3.16499996185303,9.36299991607666,-3.24505710601807,-3.99142289161682,-4.47368812561035,11.414999961853,22.0849990844727,23.1830005645752,-4.63858222961426,-2.95762395858765,-0.83996099233627,-3.54129195213318,-6.15123081207275,-8.19821739196777,-22.4459991455078,-19.8570003509521,-15.3070001602173,8.42099952697754,16.1100006103516,18.3850002288818,-2.62568402290344,-2.0266649723053,-1.24705100059509,16.5930004119873,15.1809997558594,12.9049997329712,3.78921008110046,4.53902387619019,5.21393585205078,-6.57129192352295,-5.9101710319519,-5.64952182769775,-2.91100001335144,-1.73399996757507,-2.36199998855591,5.51900005340576,5.98899984359741,6.77400016784668,SWING_LEFT
-1.77622294425964,-1.89972794055939,-2.34302997589111,3.96099996566772,5.76599979400635,5.76599979400635,0.75203597545624,0.85423702001572,0.98621898889542,-1.75033497810364,-1.93035697937012,-2.09440088272095,2.89400005340576,5.01200008392334,5.79699993133545,13.5989999771118,13.3640003204346,13.28600025177,-3.0640070438385,-2.53431391716003,-1.26459395885468,4.90299987792969,-1.2940000295639,-2.86299991607666,1.51720595359802,1.22876000404358,-0.41931998729706,0.83476102352142,2.36756300926209,4.79211616516113,-0.24300000071526,-5.34299993515015,-10.2069997787476,10.7749996185303,10.6180000305176,10.6180000305176,3.98959803581238,2.43243288993835,0.39607301354408,-34.7949981689453,-28.1259994506836,-18.7900009155273,-5.47044277191162,-4.84382200241089,-4.36485481262207,7.67032194137573,6.15195417404175,3.23602390289307,-39.1580009460449,-39.7849998474121,-38.3730010986328,14.3059997558594,14.4619998931885,4.10599994659424,-4.87994384765625,-5.08159589767456,-4.76013898849487,15.4160003662109,23.0259990692139,22.9479999542236,-0.57463002204895,1.49055695533752,3.19635105133057,-8.80942344665527,-9.14247035980225,-8.32985687255859,-10.4429998397827,-7.85400009155273,-5.65700006484985,13.9130001068115,12.0299997329712,8.10799980163574,-2.26573491096497,-1.4862539768219,-0.49185898900032,11.0220003128052,8.43299961090088,6.78599977493286,5.98234987258911,7.28575801849365,7.45481300354004,-5.0774621963501,-5.13249206542969,-3.68970489501953,-3.61700010299683,-4.24499988555908,-2.91100001335144,8.18599987030029,9.1269998550415,9.99100017547607,SWING_LEFT
-2.05553698539734,-2.68329906463623,-3.25952410697937,7.80600023269653,11.1789999008179,8.43299961090088,0.89565199613571,0.94043201208115,1.17709994316101,-2.8619589805603,-2.24484705924988,-1.58430898189545,2.89400005340576,5.40500020980835,5.40500020980835,16.1100006103516,13.9130001068115,13.9130001068115,-1.49081003665924,-0.63647902011871,0.97541701793671,-1.92200005054474,-7.49200010299683,-15.3380002975464,1.65389394760132,-1.38311302661896,-4.7616810798645,6.36639881134033,9.38531684875488,8.87885761260986,0.22599999606609,-6.28399991989136,-22.0540008544922,2.6159999370575,4.49900007247925,8.6569995880127,-2.41108393669128,-3.73391103744507,-4.64727783203125,-10.1599998474121,-3.41300010681152,2.23499989509583,-4.18385410308838,-4.29486703872681,-4.14501714706421,2.3795690536499,0.52136200666428,-1.7153480052948,-37.4309997558594,-29.8999996185303,-29.8999996185303,8.5,11.246000289917,11.246000289917,-5.1027889251709,-3.63340210914612,-2.40066409111023,17.8479995727539,18.2399997711182,18.1620006561279,0.31461501121521,1.92116403579712,2.95448303222656,-10.9343881607056,-10.4863147735596,-9.54424858093262,-10.128999710083,-7.14699983596802,-6.20599985122681,8.10799980163574,9.52000045776367,10.3830003738403,-0.73300397396088,-0.0853009968996,1.09559404850006,9.06099987030029,5.68699979782104,3.17700004577637,6.70506191253662,7.06863689422607,4.83912801742554,-5.51690006256104,-5.13958501815796,-3.22328209877014,-5.89200019836426,-6.20599985122681,-3.6949999332428,7.00899982452393,7.24499988555908,9.36299991607666,SWING_LEFT
-2.11159896850586,-2.668536901474,-3.21366500854492,7.49200010299683,9.13899993896484,8.82600021362305,1.56569802761078,1.49715805053711,1.30859303474426,-3.02920198440552,-3.05652809143066,-2.83986401557922,8.14999961853027,7.05200004577637,4.38500022888184,14.6190004348755,14.5410003662109,12.0299997329712,-2.56933808326721,-1.42999005317688,1.23765003681183,1.45099997520447,-9.8459997177124,-30.3229999542236,-3.46263098716736,-7.75871181488037,-8.94111919403076,5.72415208816528,7.69360303878784,8.23909378051758,-34.4500007629395,-38.6080017089844,-39.6279983520508,8.3430004119873,-2.16899991035461,0.96799999475479,1.21223199367523,0.08492500334978,-1.02692699432373,-15.8090000152588,-1.52999997138977,16.9069995880127,-5.55913209915161,-5.37734699249268,-4.17466688156128,3.72173094749451,0.48928999900818,-3.32634091377258,-39.9420013427734,-34.6069984436035,-30.7630004882813,11.4029998779297,12.6579999923706,7.95100021362305,-4.37798023223877,-4.55610990524292,-4.62154483795166,33.2249984741211,39.1879997253418,36.3639984130859,2.27478408813477,2.89939308166504,3.12624192237854,-7.91812181472778,-7.19876718521118,-6.21458911895752,-6.36299991607666,-5.7350001335144,-5.18599987030029,4.26300001144409,5.75400018692017,7.79400014877319,-3.55801701545715,-2.58098697662354,1.46472001075745,-1.84300005435944,-8.35499954223633,-9.45400047302246,6.78872585296631,5.46935319900513,4.60002613067627,-3.23285102844238,-2.05949807167053,-1.39538502693176,-5.97100019454956,-2.28299999237061,0.07000000029802,15.168999671936,15.4040002822876,12.0299997329712,SWING_LEFT
-2.11204695701599,-1.86840605735779,-1.30670201778412,2.23499989509583,1.60800004005432,1.2150000333786,1.50768005847931,1.6815220117569,1.62475395202637,0.31208598613739,0.61940097808838,1.08421397209167,3.75699996948242,2.42300009727478,0.07000000029802,12.6579999923706,11.8730001449585,10.4610004425049,2.42373204231262,3.66752004623413,3.73881101608276,-11.414999961853,-15.4160003662109,-14.0830001831055,-3.64000201225281,-4.65811014175415,-5.08363914489746,5.45842885971069,5.46451902389526,5.23250484466553,-14.8360004425049,-20.4069995880127,-26.2910003662109,6.93100023269653,7.87200021743774,12.3439998626709,-2.12765407562256,-3.00094604492188,-3.71453189849854,-9.45400047302246,-2.31399989128113,6.07999992370605,-5.25847005844116,-4.96516704559326,-4.42085695266724,1.42561101913452,-1.18684995174408,-3.97680711746216,-37.3530006408691,-30.7630004882813,-20.25,5.20499992370605,9.83399963378906,11.0100002288818,-3.05887889862061,-2.97990894317627,-2.99720191955566,25.3010005950928,25.4580001831055,24.673999786377,1.98788404464722,3.72151899337769,4.63560199737549,-8.81008338928223,-7.93552494049072,-6.81645488739014,-4.79400014877319,-2.83200001716614,-1.49899995326996,11.8730001449585,11.08899974823,9.04899978637695,-3.00107908248901,-1.9103330373764,1.66041994094849,10.5520000457764,5.76599979400635,1.84300005435944,13.5638456344604,12.2943134307861,9.40625953674316,-5.42645215988159,-4.46079778671265,-2.65713095664978,-3.22499990463257,-2.83200001716614,-2.28299999237061,8.73499965667725,9.20600032806396,9.1269998550415,SWING_LEFT
-2.60655808448792,-3.15838503837585,-3.46741890907288,7.64900016784668,7.57000017166138,7.72700023651123,1.66239905357361,1.40244901180267,1.12976002693176,-2.72248196601868,-2.38430094718933,-1.64464700222015,3.75699996948242,-0.32199999690056,-4.40100002288818,13.9130001068115,16.0319995880127,16.5020008087158,1.20876801013947,4.15224409103394,5.43907022476196,-15.2589998245239,-24.7530002593994,-27.2630004882813,-6.29067802429199,-7.4194130897522,-6.94929218292236,6.25066709518433,7.47285985946655,8.00701236724854,-31.3899993896484,-36.4119987487793,-39.0789985656738,-5.38600015640259,-3.97399997711182,1.9099999666214,-0.40697899460793,-1.49015295505524,-2.62454390525818,-3.8050000667572,8.11900043487549,16.2000007629395,-5.09000778198242,-4.42431879043579,-3.25095295906067,2.64022397994995,-0.78274101018906,-4.32314205169678,-37.4309997558594,-28.4090003967285,-21.113000869751,7.48000001907349,6.93100023269653,4.5770001411438,-4.80802488327026,-3.88474106788635,-3.16601705551147,26.9489994049072,25.8509998321533,22.1630001068115,3.6660840511322,4.48789405822754,4.96618509292603,-9.36308670043945,-8.16105175018311,-6.94502019882202,-6.51999998092651,-4.24499988555908,-3.6949999332428,9.52000045776367,7.48000001907349,6.38199996948242,-1.13059103488922,0.29755699634552,2.94916796684265,5.68699979782104,2.78399991989136,1.13699996471405,9.99685668945312,8.60238838195801,5.38666820526123,-6.09879112243652,-4.87446880340576,-1.64047002792358,-5.10799980163574,-4.40100002288818,-3.30299997329712,8.89200019836426,9.52000045776367,10.4610004425049,SWING_LEFT
0.47321799397469,0.31466999650002,0.09760700166225,-1.2940000295639,-1.21599996089935,-1.05900001525879,0.19360800087452,0.63549602031708,1.15764904022217,0.26118698716164,-0.09235499799252,-0.61581498384476,1.7960000038147,3.44300007820129,5.32600021362305,11.6379995346069,13.4429998397827,14.7760000228882,-1.12387895584106,-1.57941102981567,-2.06366801261902,2.86299991607666,4.03999996185303,6.55000019073486,1.70436704158783,1.17372894287109,0.52705198526382,-2.40367007255554,-2.19251298904419,-1.9083559513092,4.14900016784668,-1.10599994659424,-5.57800006866455,21.5240001678467,14.8549995422363,4.34200000762939,-0.45244398713112,1.41328799724579,3.59782600402832,-13.2200002670288,-29.068000793457,-37.2270011901855,-9.36710357666016,-8.79435253143311,-7.45017385482788,7.73462581634521,9.42804145812988,8.4771842956543,-35.3129997253418,-38.7649993896484,-39.7070007324219,-13.9379997253418,-11.8979997634888,-2.79699993133545,-0.84101498126984,-1.88803696632385,-3.21064496040344,0.74500000476837,10.3950004577637,18.3190002441406,-3.65971207618713,-2.74710011482239,-1.30855596065521,1.22959005832672,-2.65824604034424,-6.65554189682007,-30.4489994049072,-28.3309993743896,-26.8400001525879,12.3439998626709,10.8540000915527,10.539999961853,-3.9577169418335,-2.58187794685364,-1.86831605434418,25.9290008544922,25.5370006561279,22.8689994812012,3.89541602134705,4.25203800201416,4.67431020736694,-10.4938516616821,-9.34295272827148,-8.18848037719727,-5.4210000038147,-3.30299997329712,-4.00899982452393,6.22499990463257,6.53800010681152,6.53800010681152,SWING_LEFT
-0.02459199912846,-0.09011799842119,-0.36813798546791,-0.43099999427795,1.2940000295639,2.94099998474121,0.59008502960205,0.8948900103569,1.19081401824951,-0.73214900493622,-1.09726297855377,-1.56586802005768,0.46200001239777,1.71700000762939,3.12899994850159,13.3640003204346,14.6190004348755,16.8950004577637,-3.32434511184692,-3.38315796852112,-2.70397901535034,6.78599977493286,1.9210000038147,0.03900000080466,1.1607049703598,1.11882603168488,0.27838200330734,-1.06352603435516,0.18479700386524,2.66129302978516,-0.63599997758865,-5.02899980545044,-13.0319995880127,14.7760000228882,13.0500001907349,11.5600004196167,6.1455512046814,5.2938551902771,3.53944897651672,-31.0289993286133,-28.5970001220703,-29.4599990844727,-5.09899187088013,-4.67190504074097,-5.00209522247314,5.84657001495361,4.56051111221313,2.97218108177185,-36.0979995727539,-39.8639984130859,-39.8639984130859,6.61700010299683,-0.28600001335144,1.04700005054474,-3.78676295280457,-4.22200918197632,-4.29106378555298,31.3419990539551,31.4209995269775,30.4009990692139,-2.11876893043518,0.17732399702072,1.61998701095581,-10.4371309280396,-10.014458656311,-8.57087230682373,-10.5209999084473,-7.38299989700317,-6.04899978637695,8.89200019836426,9.1269998550415,9.99100017547607,-4.23037481307983,-3.29030203819275,-1.63374400138855,8.98200035095215,3.56900000572205,1.45099997520447,7.49165678024292,9.26969337463379,8.33815479278564,-4.9971661567688,-5.35985612869263,-4.25373220443726,-3.85199999809265,-3.30299997329712,-2.91100001335144,8.73499965667725,7.79400014877319,7.63700008392334,SWING_LEFT
0.26702800393105,0.30713799595833,0.34818801283836,0.19499999284744,0.98000001907349,0.98000001907349,0.44264099001884,0.83402097225189,1.23225903511047,-0.5584300160408,-0.94017398357391,-1.22823297977448,1.87399995326996,2.65899991989136,3.12899994850159,12.0299997329712,13.128999710083,13.835000038147,-0.75298601388931,-0.96593797206879,-1.13955795764923,3.4909999370575,4.43200016021729,1.68599998950958,1.54314804077148,1.19954597949982,0.40969800949097,-1.09404003620148,-0.00657099997625,1.6783230304718,0.07000000029802,-3.14599990844727,-7.53999996185303,14.5410003662109,13.9919996261597,13.28600025177,2.31659507751465,2.13948488235474,1.11294794082642,-21.2220001220703,-22.242000579834,-19.0249996185303,-4.81892395019531,-5.28358888626099,-5.42168378829956,6.44837188720703,5.71168088912964,4.45148181915283,-33.3520011901855,-34.0579986572266,-32.0960006713867,7.48000001907349,8.89200019836426,8.10799980163574,-3.24382710456848,-3.82788610458374,-3.97458291053772,5.76599979400635,10.5520000457764,12.9049997329712,-4.86999893188477,-3.91402411460876,-2.42383098602295,-3.55297589302063,-5.49627113342285,-7.80988216400146,-15.9350004196167,-15.2279996871948,-13.1099996566772,1.28199994564056,4.26300001144409,8.73499965667725,-3.17808103561401,-3.14410090446472,-2.92978310585022,19.0249996185303,18.0049991607666,13.5329999923706,3.37467789649963,4.42159795761108,6.10972595214844,-5.88376379013062,-4.97906303405762,-4.80726623535156,-4.32299995422363,-4.87200021743774,-4.87200021743774,9.36299991607666,9.91199970245361,8.9709997177124,SWING_LEFT
-0.1961580067873,-0.12224200367928,-0.25528499484062,0.66600000858307,1.76499998569489,2.78399991989136,0.46947300434113,0.64312398433685,0.62756997346878,-0.77386498451233,-1.02862703800201,-1.08179295063019,1.24600005149841,0.85399997234344,1.71700000762939,11.6379995346069,11.6379995346069,13.5209999084473,-1.21105003356934,-1.67885804176331,-2.18906998634338,6.31500005722046,8.9040002822876,6.00099992752075,0.69941902160645,0.54325598478317,0.29144701361656,-1.87047302722931,-1.27232205867767,-0.23539499938488,-1.41999995708466,-2.75399994850159,1.0110000371933,11.0100002288818,10.1470003128052,8.18599987030029,1.60702800750732,3.42409706115723,4.92686700820923,-5.68800020217896,-19.0249996185303,-34.3240013122559,-4.55315923690796,-5.42596578598022,-5.51756191253662,7.87622976303101,6.9936728477478,6.03407192230225,-27.4680004119873,-39.0009994506836,-39.7070007324219,9.75500011444092,-1.07099997997284,3.32200002670288,-2.62417793273926,-3.74491000175476,-4.7151780128479,0.58799999952316,10.6300001144409,19.8880004882813,-4.18264389038086,-3.57477498054504,-2.39164805412292,-0.16109499335289,-2.94588994979858,-5.02191019058228,-23.1520004272461,-18.8369998931885,-16.2479991912842,7.24499988555908,2.8510000705719,5.98899984359741,-5.24481296539307,-4.6247091293335,-4.13487386703491,22.3199996948242,18.2399997711182,14.6309995651245,2.81399202346802,3.33718800544739,4.24108695983887,-6.72907304763794,-5.65107202529907,-4.72260093688965,-4.95100021362305,-3.61700010299683,-3.22499990463257,9.44099998474121,7.63700008392334,6.77400016784668,SWING_LEFT
-3.4829089641571,-4.41487407684326,-5.30516004562378,2.86299991607666,4.27500009536743,4.98099994659424,0.84810501337051,0.44293999671936,0.14520299434662,-1.88098502159119,-2.06001996994019,-2.10700488090515,3.44300007820129,3.20799994468689,0.61900001764297,12.9720001220703,12.0299997329712,13.5989999771118,-7.79164505004883,-7.01742792129517,22.3924179077148,-3.41300010681152,-14.6319999694824,-19.8880004882813,-5.43322610855103,-6.71084976196289,-6.14313793182373,1.43534100055695,2.27335000038147,3.87428402900696,-15.7779998779297,-19.1509990692139,-24.7999992370605,7.95100021362305,2.69400000572205,6.14599990844727,2.01787996292114,-0.08372899889946,-1.85021197795868,-4.82499980926514,0.90200001001358,0.90200001001358,-3.31446003913879,-2.56630492210388,-1.86027002334595,1.5861029624939,-0.01145199965686,-1.64049994945526,-31.4689998626709,-25.9769992828369,-21.6620006561279,14.3839998245239,12.1870002746582,7.48000001907349,-3.59761309623718,-2.73299598693848,-1.72214901447296,17.3770008087158,16.8279991149902,17.3770008087158,1.78609395027161,2.96338295936584,3.72290992736816,-8.7274751663208,-8.62316036224365,-7.90619897842407,-11.8549995422363,-8.32400035858154,-6.59800004959106,15.326000213623,12.8149995803833,11.08899974823,-0.04381399974227,0.55777102708817,1.75314605236053,13.2189998626709,10.2379999160767,6.62900018692017,8.94763660430908,10.8972959518433,9.05812644958496,-6.41396522521973,-6.7008171081543,-3.75436997413635,-1.89100003242493,-1.96899998188019,-2.36199998855591,9.20600032806396,9.75500011444092,9.44099998474121,SWING_LEFT
0.75614702701569,0.87680900096893,0.96039098501205,2.23499989509583,3.56900000572205,5.60900020599365,1.21947395801544,1.4932769536972,1.60036897659302,-1.20847296714783,-1.28810298442841,-1.02733397483826,3.36500000953674,3.20799994468689,4.14900016784668,11.4029998779297,10.1470003128052,10.6180000305176,1.04263699054718,0.99204099178314,0.79966402053833,2.07800006866455,1.05799996852875,0.58799999952316,2.87301206588745,2.70220994949341,2.34982204437256,1.44721496105194,2.05941009521484,3.39065289497375,5.09100008010864,1.7960000038147,-0.08600000292063,7.00899982452393,5.91099977493286,5.20499992370605,-4.78827285766602,-6.63720703125,-8.09009647369385,-20.2019996643066,-20.5160007476807,-16.9850006103516,-3.45018196105957,-5.19714784622192,-5.70405006408691,7.0023398399353,4.25131893157959,2.53342199325562,-36.8040008544922,-39.5499992370605,-39.8639984130859,11.9519996643066,7.32299995422363,3.71399998664856,-6.39899396896362,-5.84765386581421,-5.18504476547241,14.8669996261597,22.0849990844727,22.0849990844727,-4.2607741355896,-2.81283211708069,0.64279401302338,-6.34158515930176,-8.44490814208984,-8.43843078613281,-20.4850006103516,-13.581000328064,-4.95100021362305,9.59799957275391,8.42099952697754,5.36199998855591,-4.37395191192627,-4.48629188537598,-4.35669088363647,16.9850006103516,12.6700000762939,8.43299961090088,1.95094001293182,2.23924589157104,6.66668605804443,-3.69766807556152,-2.64338302612305,-3.97064900398254,-5.10799980163574,-5.7350001335144,-5.4210000038147,6.77400016784668,6.38199996948242,7.08799982070923,SWING_LEFT
-0.22412699460983,0.05516999959946,0.21206399798393,1.68599998950958,1.9210000038147,2.47099995613098,0.43970799446106,0.37504398822784,0.5956090092659,-0.75578999519348,-0.6543220281601,-0.90619397163391,1.24600005149841,2.42300009727478,3.91400003433228,11.0100002288818,12.0299997329712,12.5799999237061,-0.18418499827385,-0.37624400854111,-0.52119201421738,11.96399974823,12.2779998779297,6.62900018692017,1.21782100200653,1.21439301967621,0.87748301029205,-2.42585396766663,-1.85870099067688,-0.8946750164032,3.12899994850159,1.48199999332428,-2.20499992370605,7.32299995422363,9.52000045776367,15.0120000839233,-0.71906697750092,-0.83047598600388,-1.0975090265274,-10.7869997024536,-18.0049991607666,-25.3020000457764,-5.11859083175659,-5.953782081604,-6.66345596313477,6.99734592437744,6.39320278167725,5.60562705993652,-35.548999786377,-39.3930015563965,-39.7849998474121,10.539999961853,-4.13100004196167,2.53699994087219,-1.45877397060394,-2.37493300437927,-3.63578796386719,16.5139999389648,30.2439994812012,29.30299949646,-6.38521814346313,-4.94333219528198,-1.29902803897858,-2.24912190437317,-4.89767217636108,-8.20433330535889,-27.4680004119873,-30.5270004272461,-29.3509998321533,-0.05099999904633,4.5770001411438,14.3059997558594,-1.68634903430939,-1.05390799045563,-0.53485602140427,23.5750007629395,17.0629997253418,12.1990003585815,4.1338357925415,4.31942796707153,4.83365392684937,-6.11932992935181,-5.32866907119751,-4.91869115829468,-1.41999995708466,-2.83200001716614,-3.61700010299683,3.40000009536743,6.77400016784668,7.71500015258789,SWING_LEFT
-0.75871497392654,-0.91905200481415,-1.11362302303314,2.86299991607666,4.66699981689453,5.29500007629395,0.47652900218964,0.48838800191879,0.41736799478531,-1.7983980178833,-2.05092692375183,-2.21048903465271,1.08899998664856,1.08899998664856,0.07000000029802,12.0299997329712,11.9519996643066,12.3439998626709,-1.33711004257202,-0.73013001680374,0.15270200371742,-1.68700003623962,-5.9229998588562,-11.1009998321533,0.60035902261734,0.01982700079679,-1.1485960483551,2.46021890640259,4.97640514373779,7.05488777160645,0.38299998641014,-6.36299991607666,-15.9350004196167,16.2670001983643,16.5809993743896,10.8540000915527,0.84360098838806,-0.36582198739052,-1.92822897434235,-25.2229995727539,-20.6730003356934,-20.3589992523193,-4.00041484832764,-4.34440422058105,-4.58293390274048,6.014564037323,4.98417186737061,3.91697311401367,-38.6870002746582,-39.6279983520508,-39.8639984130859,3.55699992179871,-0.67900002002716,3.47900009155273,-5.23231220245361,-5.72579479217529,-6.03574180603027,17.9260005950928,24.673999786377,25.9290008544922,-2.73943710327148,-1.14174604415894,1.27167797088623,-5.54277276992798,-8.97213554382324,-10.4448089599609,-15.9350004196167,-13.0319995880127,-8.8730001449585,4.34200000762939,10.0690002441406,11.7170000076294,-3.67464303970337,-3.30038094520569,-2.71591901779175,15.6510000228882,10.4729995727539,6.39300012588501,4.52202987670898,5.4835410118103,6.10842418670654,-6.90085792541504,-6.4011287689209,-6.31332015991211,-4.40100002288818,-4.87200021743774,-5.02899980545044,2.14499998092651,3.71399998664856,5.83199977874756,SWING_LEFT
0.47120401263237,0.28464901447296,0.07258100062609,2.94099998474121,3.88299989700317,4.82399988174438,1.65664505958557,1.89935195446014,2.03532290458679,-1.19788002967834,-1.39982402324677,-1.45585000514984,6.03200006484985,6.42399978637695,5.48299980163574,14.6979999542236,14.2270002365112,12.1870002746582,-0.23753499984741,-0.26545599102974,-0.2953830063343,-1.05900001525879,-7.72800016403198,-17.6919994354248,-0.2991249859333,-2.74258589744568,-4.28350496292114,3.28498911857605,6.06247806549072,7.78711795806885,-17.4249992370605,-24.7999992370605,-29.8999996185303,14.2270002365112,7.55800008773804,-0.28600001335144,-4.10334205627441,-4.32200813293457,-4.2334189414978,-13.2980003356934,-5.60900020599365,1.9210000038147,-6.31930112838745,-6.78031921386719,-6.43635606765747,4.19620990753174,1.39690101146698,-1.9698760509491,-35.4700012207031,-31.8610000610352,-26.7609996795654,7.71500015258789,9.75500011444092,10.2259998321533,-4.57098913192749,-4.39073514938354,-3.661288022995,24.8309993743896,25.3010005950928,23.4179992675781,1.87141597270966,2.70551109313965,3.12281394004822,-9.18600177764893,-8.28079700469971,-7.19934988021851,-6.04899978637695,-3.22499990463257,-1.81200003623962,6.46000003814697,5.75400018692017,5.12599992752075,-2.72468400001526,-2.08265495300293,-1.02910697460175,7.57000017166138,4.98099994659424,2.94099998474121,16.8187427520752,14.5315351486206,9.99995231628418,-8.34811878204346,-6.69135522842407,-3.98207211494446,-4.40100002288818,-5.5,-5.81400012969971,9.04899978637695,9.52000045776367,9.99100017547607,SWING_LEFT
-0.35793998837471,-0.52605199813843,-0.96066600084305,1.9210000038147,2.94099998474121,2.94099998474121,0.97070997953415,1.19827699661255,1.32153105735779,-1.12234699726105,-1.36844205856323,-1.12866199016571,2.81500005722046,3.28600001335144,3.91400003433228,12.1090002059937,13.6780004501343,14.3059997558594,-0.299232006073,1.37002396583557,3.76538395881653,-5.76599979400635,-12.9840002059937,-24.9099998474121,-1.42201995849609,-3.40063405036926,-4.57247686386108,4.99836301803589,5.56753492355347,5.30588293075562,-8.63799953460693,-31.7040004730225,-37.6669998168945,17.3649997711182,13.5989999771118,6.61700010299683,-1.73326694965363,-3.18178701400757,-4.20415306091309,-11.4940004348755,-7.57100009918213,5.13800001144409,-5.45444107055664,-5.95826721191406,-5.83567476272583,2.68808603286743,0.20943599939346,-3.75005006790161,-37.1959991455078,-30.8409996032715,-25.2709999084473,5.28299999237061,2.06599998474121,-0.60000002384186,-4.48387002944946,-4.26995611190796,-3.92074608802795,29.30299949646,27.9689998626709,24.1240005493164,1.46103703975677,2.31710410118103,1.92239797115326,-8.97599506378174,-7.49596500396729,-2.778804063797,1.48199999332428,1.32500004768372,-4.08799982070923,6.85200023651123,7.48000001907349,11.5600004196167,-10.2331714630127,-14.4264993667603,-14.5513687133789,-0.66699999570847,-1.21599996089935,-0.35299998521805,-12.3919200897217,-9.61426258087158,-7.61046409606934,10.9624767303467,11.0852289199829,10.2078552246094,-4.48000001907349,-4.87200021743774,-4.55800008773804,10.0690002441406,9.44099998474121,9.67700004577637,SWING_LEFT
-3.8610200881958,-3.67000007629395,-3.32852101325989,4.74599981307983,4.43200016021729,2.39199995994568,1.29495298862457,1.07237601280212,0.78254801034927,-1.6450320482254,-1.34384202957153,-1.00555098056793,5.09100008010864,4.22800016403198,3.05100011825562,13.9130001068115,14.1490001678467,14.3059997558594,-0.90307199954987,0.04072799906135,0.9889760017395,-0.90200001001358,-2.15700006484985,-3.88299989700317,-1.29156804084778,-2.31084704399109,-3.96404600143433,2.05094289779663,2.88046193122864,3.89270091056824,-4.79400014877319,-6.67700004577637,-18.2880001068115,10.6180000305176,10.539999961853,11.08899974823,3.3234429359436,2.10846209526062,0.4851990044117,-27.8120002746582,-16.75,0.03900000080466,-5.74898195266724,-4.97309494018555,-4.38008785247803,2.17624092102051,0.71886897087097,-0.81499201059341,-37.0390014648438,-28.6439990997314,-27.0750007629395,19.8759994506836,11.7950000762939,6.14599990844727,-4.54905605316162,-2.6124529838562,-1.63986194133759,30.7150001525879,29.3810005187988,24.988000869751,3.08586406707764,3.4866030216217,3.63377499580383,-8.36892700195313,-7.11700487136841,-4.2513599395752,-2.98900008201599,-2.98900008201599,-0.71399998664856,5.67500019073486,5.67500019073486,9.91199970245361,-2.25824904441834,4.76449012756348,12.8763761520386,6.47200012207031,4.90299987792969,4.27500009536743,14.9627704620361,11.0153255462646,8.07969093322754,-3.92812705039978,-2.0094850063324,-0.73466497659683,-1.89100003242493,-2.36199998855591,-2.75399994850159,9.52000045776367,9.59799957275391,9.99100017547607,SWING_LEFT
-0.64592301845551,-0.66562700271606,-0.62725400924683,4.27500009536743,5.68699979782104,5.4520001411438,-0.248630002141,-1.38771200180054,-3.02208399772644,-0.27630299329758,-0.48093900084496,-0.2763560116291,-7.14699983596802,-11.9329996109009,-15.46399974823,7.71500015258789,8.10799980163574,8.57800006866455,2.37354707717896,3.29661393165588,3.21513509750366,-15.0240001678467,-15.2589998245239,-11.3369998931885,-6.26552391052246,-5.1087498664856,-3.8318989276886,5.74005317687988,6.71582984924316,7.44756507873535,-12.168999671936,-13.9729995727539,-18.6800003051758,1.36000001430511,0.96799999475479,0.81099998950958,-0.2766529917717,-2.0712149143219,-3.95949292182922,3.88299989700317,20.8290004730225,32.6759986877441,-2.40511798858643,-0.1457259953022,2.10792994499207,1.53134799003601,-5.23497486114502,-8.27079677581787,-39.8639984130859,-5.7350001335144,-7.69700002670288,17.6009998321533,8.73499965667725,14.9329996109009,-2.92297506332397,-1.8255170583725,-0.32268199324608,17.1420001983643,16.2789993286133,8.98200035095215,7.93750715255737,8.2396354675293,8.10970878601074,-5.47501182556152,-5.21970415115356,-4.94662189483643,-4.08799982070923,-4.79400014877319,-4.16599988937378,8.0290002822876,6.77400016784668,7.63700008392334,8.30261325836182,8.57679843902588,8.50721263885498,-2.0,-1.2940000295639,-1.2940000295639,3.11575388908386,2.63670492172241,2.47514390945435,1.18220198154449,1.91245794296265,1.65296494960785,-1.18499994277954,-1.10599994659424,-1.02799999713898,6.69500017166138,6.06799983978271,7.00899982452393,SWING_LEFT
-1.45186901092529,-1.58853495121002,-1.60252797603607,5.05999994277954,4.90299987792969,6.55000019073486,0.93998801708221,0.84791201353073,0.69237500429153,-1.90873694419861,-2.07445311546326,-1.80772805213928,4.93400001525879,3.75699996948242,3.28600001335144,15.4820003509521,14.2270002365112,11.246000289917,-1.57426500320435,-1.36592900753021,-1.15342605113983,2.0,1.76499998569489,1.60800004005432,-0.00474700005725,-0.21134400367737,-0.51505702733994,0.4230780005455,1.32294595241547,2.05743408203125,0.46200001239777,-1.65600001811981,-6.67700004577637,15.4820003509521,14.1490001678467,10.9320001602173,3.72014093399048,4.8683500289917,5.62096309661865,-9.92399978637695,-22.0069999694824,-35.4230003356934,-8.21922588348389,-9.03549194335938,-8.50646591186523,5.35714912414551,5.91938781738281,6.45979022979736,-38.451000213623,-39.5499992370605,-39.7849998474121,-9.22999954223633,-18.4099998474121,-18.0170001983643,0.03878400102258,-1.58545303344727,-3.46238303184509,11.8850002288818,27.1060009002686,27.8899993896484,-3.5858519077301,-2.24911689758301,-0.30293399095535,2.47284388542175,-0.58706897497177,-3.28544592857361,-30.9200000762939,-29.8209991455078,-24.5650005340576,16.5020008087158,12.8149995803833,15.4040002822876,-5.46156978607178,-3.8013219833374,-2.48078203201294,25.3799991607666,23.3400001525879,20.9080009460449,4.33942699432373,4.6712121963501,4.97648286819458,-7.55647706985474,-7.2941951751709,-6.07964897155762,-3.22499990463257,-0.08600000292063,-1.02799999713898,5.98899984359741,7.40100002288818,5.36199998855591,SWING_LEFT
0.06379900127649,0.25644800066948,0.00195599999279,0.43099999427795,1.9210000038147,3.41199994087219,1.2578649520874,1.71816098690033,1.89488697052002,-0.92299997806549,-1.57758700847626,-2.18091797828674,6.97399997711182,8.69999980926514,7.91499996185303,18.0709991455078,20.7390003204346,20.9740009307861,-1.7479259967804,-0.71266597509384,1.18421697616577,2.07800006866455,-6.15899991989136,-21.0650005340576,-0.52067798376083,-4.16689205169678,-8.22720718383789,2.26808500289917,4.80299615859985,7.49821090698242,-25.1140003204346,-25.1140003204346,-34.2929992675781,8.10799980163574,8.10799980163574,-6.95499992370605,-0.12403400242329,-1.39858794212341,-2.7246720790863,-15.1809997558594,3.33400011062622,15.2589998245239,-5.5175518989563,-4.91267204284668,-3.67675399780273,3.55217695236206,0.09545700252056,-4.40623617172241,-32.8030014038086,-24.5650005340576,-20.9559993743896,11.4809999465942,6.61700010299683,1.59599995613098,-4.99158716201782,-4.04245185852051,-3.26132488250732,26.3209991455078,24.673999786377,20.9860000610352,3.87233400344849,4.32670879364014,4.62957000732422,-9.78575038909912,-8.48762607574463,-7.11368894577026,-4.55800008773804,-4.16599988937378,-4.63700008392334,7.63700008392334,6.14599990844727,6.93100023269653,-0.97219002246857,1.47959697246552,4.80657911300659,5.13800001144409,4.27500009536743,3.4909999370575,9.62273406982422,7.95355415344238,6.40337896347046,-5.26407194137573,-3.9519898891449,-2.69788908958435,-4.71500015258789,-4.95100021362305,-4.87200021743774,8.81400012969971,9.04899978637695,9.1269998550415,SWING_LEFT
-1.2473109960556,-1.64525604248047,-1.75161504745483,5.4520001411438,4.51000022888184,2.94099998474121,0.95376700162888,0.85205298662186,0.76217901706696,-1.62088799476624,-1.26336002349854,-0.95996701717377,2.81500005722046,2.65899991989136,1.40299999713898,13.7559995651245,12.7360000610352,11.4809999465942,0.40108698606491,2.11258602142334,4.0551118850708,-5.76599979400635,-11.7290000915527,-20.9080009460449,-3.42060399055481,-5.80395889282227,-6.53154611587524,5.76518821716309,7.06595993041992,7.04850912094116,-12.2469997406006,-18.9160003662109,-21.5830001831055,4.34200000762939,3.87100005149841,6.14599990844727,0.89787000417709,-0.38573598861694,-1.66685104370117,-7.96299982070923,-0.82400000095367,6.47200012207031,-4.85911512374878,-4.64593315124512,-4.22137022018433,0.46159300208092,-2.03898692131042,-4.96894693374634,-30.4489994049072,-23.4659996032715,-18.2099990844727,5.91099977493286,2.22300004959106,3.63599991798401,-3.38739991188049,-2.26749610900879,-1.95337295532227,22.9479999542236,23.0259990692139,23.0259990692139,1.96186399459839,2.9076099395752,3.75900602340698,-10.017520904541,-8.63244247436523,-7.22402477264404,-6.99100017547607,-3.93099999427795,-3.30299997329712,7.24499988555908,7.48000001907349,7.95100021362305,-1.48002600669861,-0.42659598588943,1.53750896453857,11.96399974823,8.9040002822876,6.62900018692017,11.717830657959,11.5046329498291,7.15338087081909,-6.36698913574219,-5.35391902923584,-2.33517789840698,-3.6949999332428,-3.6949999332428,-4.87200021743774,7.63700008392334,7.63700008392334,8.9709997177124,SWING_LEFT
-0.2338760048151,-0.18856799602509,-0.15934699773788,-0.82400000095367,-0.82400000095367,-0.74500000476837,-0.06179999932647,-0.05008000135422,-0.02724100090563,0.04681999981403,0.02569399960339,-0.06606700271368,-0.00800000037998,0.22599999606609,0.85399997234344,9.75500011444092,10.2259998321533,10.3830003738403,-0.33949598670006,-1.0007940530777,-1.90237605571747,3.7260000705719,5.29500007629395,7.88399982452393,1.47291302680969,1.38022005558014,1.17043101787567,-3.01934599876404,-3.80208992958069,-3.80099701881409,8.22900009155273,6.11100006103516,3.59999990463257,16.5020008087158,15.2469997406006,13.7559995651245,-3.04945492744446,-1.68559205532074,1.10010802745819,-3.7260000705719,-13.1409997940063,-28.0480003356934,-1.93294203281403,-5.59180116653442,-7.4769082069397,4.89168500900269,6.65634489059448,6.88772106170654,-28.8799991607666,-33.8219985961914,-34.9210014343262,13.9130001068115,0.65399998426437,-6.64099979400635,2.35719203948975,1.25023794174194,0.30397200584412,-18.8680000305176,-7.96299982070923,3.56900000572205,-6.9517297744751,-5.18036079406738,-3.7195360660553,2.13456797599792,-0.50658297538757,-2.52998805046082,-30.2919998168945,-26.6049995422363,-21.7399997711182,6.30299997329712,5.59700012207031,8.9709997177124,-4.40303516387939,-4.41561317443848,-4.12253999710083,26.4780006408691,24.5949993133545,21.5349998474121,3.2965099811554,3.85635709762573,4.07206583023071,-6.93060302734375,-5.89178705215454,-4.87152290344238,-1.57700002193451,-1.02799999713898,-1.34200000762939,5.20499992370605,5.75400018692017,6.30299997329712,SWING_LEFT
-1.54027605056763,-1.60848701000214,-2.05805206298828,0.58799999952316,3.33400011062622,6.86399984359741,1.11994099617004,1.23705494403839,1.04130101203918,-2.24888706207275,-2.80854511260986,-2.77679705619812,4.07100009918213,1.87399995326996,2.50200009346008,17.9930000305176,17.8360004425049,17.757999420166,-2.55857706069946,-2.38801789283752,-1.87574899196625,6.62900018692017,2.78399991989136,-3.41300010681152,0.48359999060631,-0.32496199011803,-3.35921311378479,0.89149898290634,3.36317992210388,6.30749607086182,-4.79400014877319,-14.6009998321533,-25.9769992828369,10.3039999008179,9.44099998474121,3.32200002670288,3.78285598754883,0.55665898323059,-0.81618100404739,-32.048999786377,-13.6899995803833,3.4909999370575,-5.12303495407104,-4.35668802261353,-3.72041392326355,4.30856323242188,2.22514200210571,-0.60077899694443,-39.1580009460449,-26.3689994812012,-18.9160003662109,23.3279991149902,17.9150009155273,8.73499965667725,-5.8013129234314,-4.95319604873657,-3.91483211517334,26.4780006408691,27.3409996032715,28.2830009460449,2.98535990715027,4.31091022491455,4.65988922119141,-10.08189868927,-10.1991672515869,-9.11926364898682,-4.71500015258789,-0.63599997758865,0.93300002813339,7.55800008773804,5.12599992752075,4.49900007247925,-1.23960995674133,-1.37565195560455,-1.20752394199371,10.081000328064,5.4520001411438,2.23499989509583,7.59203290939331,10.9946537017822,8.98371696472168,-4.10739612579346,-2.43949294090271,-0.52468997240067,-2.51900005340576,-1.89100003242493,-1.26300001144409,8.5,9.59799957275391,10.3039999008179,SWING_LEFT
-0.98087197542191,-0.24465499818325,0.608982026577,0.35199999809265,-1.13699996471405,-1.84300005435944,-0.94778299331665,-0.98192501068115,-1.16490995883942,1.61568999290466,2.04519009590149,2.62232398986816,-0.87099999189377,-2.12599992752075,-3.85199999809265,9.83399963378906,9.59799957275391,10.2259998321533,3.25225305557251,3.50349497795105,3.06612706184387,-11.1800003051758,-15.4949998855591,-18.7900009155273,-3.95721292495728,-4.45726013183594,-4.20788478851318,5.93697214126587,6.61003112792969,6.81224584579468,-18.9160003662109,-26.3689994812012,-31.7040004730225,-0.20800000429153,-0.75700002908707,-0.67900002002716,-2.37372398376465,-3.42832708358765,-4.56552886962891,0.27399998903275,12.9049997329712,28.2830009460449,-3.39866089820862,-3.03735709190369,-1.14987397193909,0.67321902513504,-3.71731090545654,-9.6931037902832,-28.3309993743896,-21.0340003967285,-14.6009998321533,8.6569995880127,11.7170000076294,6.85200023651123,-3.63112092018127,-2.97015190124512,-2.97354197502136,35.3440017700195,28.5960006713867,20.5160007476807,5.46374797821045,5.61484909057617,5.89266109466553,-10.2754564285278,-8.7646598815918,-7.59818077087402,-3.30299997329712,-3.30299997329712,-2.75399994850159,3.71399998664856,7.08799982070923,8.18599987030029,-0.52958297729492,2.30071902275085,5.36603116989136,2.70600008964539,1.2940000295639,1.2150000333786,8.59516429901123,7.06627893447876,5.90995597839355,-0.82593899965286,0.85779297351837,1.45191395282745,-2.75399994850159,-2.04800009727478,-2.44000005722046,11.0100002288818,10.4610004425049,10.2259998321533,SWING_LEFT
-0.4412299990654,-0.33030599355698,-0.39193999767303,3.25500011444092,4.66699981689453,5.13800001144409,0.85375601053238,0.93124002218246,1.159343957901,-0.57378399372101,-0.25816398859024,0.27265200018883,1.87399995326996,1.95200002193451,2.97199988365173,14.3839998245239,15.7959995269775,17.6009998321533,1.67584502696991,2.75336694717407,3.88698291778565,-3.09899997711182,-8.04100036621094,-16.9069995880127,-0.99366301298141,-3.23639297485352,-5.00525188446045,3.9689199924469,4.89361381530762,5.94140815734863,-21.5830001831055,-29.7430000305176,-33.2729988098145,14.1490001678467,5.28299999237061,-5.85699987411499,-1.20072495937347,-3.15292310714722,-3.92531394958496,-15.4949998855591,7.64900016784668,23.1830005645752,-5.74873495101929,-4.56136178970337,-2.53793597221375,3.0158109664917,-2.58857488632202,-5.87705087661743,-27.6240005493164,-20.1709995269775,-14.7580003738403,12.6579999923706,10.3039999008179,3.16499996185303,-5.83148384094238,-5.11875915527344,-4.3882999420166,23.8889999389648,21.2220001220703,17.6909999847412,3.23662710189819,3.16887307167053,2.45136189460754,-7.31142282485962,-6.08284521102905,-4.46242713928223,-1.96899998188019,-0.94900000095367,-1.89100003242493,6.22499990463257,6.69500017166138,7.71500015258789,-4.36811685562134,-6.41853618621826,-13.6846656799316,4.58900022506714,2.62800002098084,3.17700004577637,-16.7689514160156,-12.9728755950928,-10.1024742126465,10.4014129638672,9.74008464813232,8.82626533508301,-3.06800007820129,-2.04800009727478,-2.44000005722046,10.4610004425049,9.28400039672852,8.6569995880127,SWING_LEFT
-1.61736297607422,-1.23882603645325,-0.93594002723694,0.27399998903275,-0.43099999427795,-1.45099997520447,-0.16965599358082,-0.3602400124073,-0.42672601342201,0.1180389970541,0.43803599476814,0.73627102375031,-1.89100003242493,-1.18499994277954,-0.08600000292063,8.89200019836426,9.44099998474121,10.3830003738403,0.9397029876709,0.50749897956848,-0.20248599350452,1.76499998569489,1.76499998569489,3.09800004959106,1.65702295303345,2.01698708534241,2.11506009101868,-0.95380997657776,-1.29068899154663,-1.16510403156281,5.2480001449585,5.09100008010864,2.26600003242493,15.5609998703003,16.6590003967285,16.8159999847412,0.08803600072861,1.16500496864319,1.94871699810028,-5.9229998588562,-10.0030002593994,-10.0030002593994,-1.41494905948639,-3.12798190116882,-4.34778308868408,3.28925395011902,3.91786003112793,4.11038208007813,-17.9740009307861,-23.2310009002686,-20.4850006103516,20.5820007324219,15.2469997406006,8.0290002822876,-2.0766019821167,-2.56115889549255,-3.02642202377319,-3.64800000190735,-0.43099999427795,5.53000020980835,-6.43014478683472,-7.69209003448486,-6.36910104751587,2.845134973526,-0.47609800100327,-7.24081802368164,-13.3450002670288,-13.0319995880127,-12.5609998703003,-0.20800000429153,6.61700010299683,7.63700008392334,-3.55339002609253,-3.4853401184082,-3.01260304450989,22.242000579834,21.2999992370605,18.7110004425049,3.65607309341431,4.4484977722168,5.00907897949219,-8.15567493438721,-7.11483097076416,-6.46617221832275,-5.57800006866455,-3.14599990844727,-2.51900005340576,5.67500019073486,4.9689998626709,6.53800010681152,SWING_LEFT
-1.40924501419067,-0.80560797452927,0.45929899811745,-0.35299998521805,-3.25600004196167,-3.25600004196167,0.57135897874832,-0.12814900279045,-0.85280102491379,2.17368602752686,4.04091119766235,5.39818477630615,0.61900001764297,-1.65600001811981,-4.40100002288818,10.2259998321533,8.81400012969971,7.40100002288818,1.12118494510651,-0.05627899989486,-1.2909779548645,-15.6520004272461,-13.6899995803833,-7.33500003814697,-2.54335594177246,-2.31482601165771,-2.47711896896362,5.27729988098145,3.55670309066772,2.58116388320923,-12.0900001525879,-18.1310005187988,-26.7609996795654,19.7980003356934,14.8549995422363,10.9320001602173,-3.68730688095093,-3.78843307495117,-3.70002698898315,-2.70600008964539,6.07999992370605,13.3760004043579,-4.62073421478271,-4.93577003479004,-4.33389902114868,-2.62937498092651,-4.29169082641602,-6.43527317047119,-29.6639995574951,-26.8400001525879,-20.0930004119873,6.22499990463257,5.28299999237061,0.81099998950958,-3.05470991134644,-3.3391420841217,-3.76641392707825,26.2430000305176,24.673999786377,23.1830005645752,0.03132800012827,-0.09038499742746,-0.76354897022247,-7.30428981781006,-5.72393321990967,-3.73322606086731,-3.61700010299683,-3.61700010299683,-4.32299995422363,2.69400000572205,5.59700012207031,8.73499965667725,-4.5027928352356,-4.20405387878418,10.6078214645386,-0.195999994874,-1.37300002574921,-0.90200001001358,12.0549030303955,9.08498954772949,7.42208290100098,-6.76514291763306,-4.54765319824219,-3.66610407829285,-4.32299995422363,-3.53800010681152,-3.38199996948242,12.7360000610352,11.246000289917,10.3039999008179,SWING_LEFT
1.44203102588654,0.94476401805878,0.19112600386143,-0.82400000095367,0.58799999952316,0.58799999952316,0.80909997224808,1.15074801445007,1.27480804920197,-0.20138700306416,-0.46279799938202,-0.31720998883247,2.57999992370605,2.18799996376038,-0.79299998283386,13.7559995651245,15.0120000839233,16.2670001983643,0.97478401660919,2.38435101509094,3.31128191947937,-10.7089996337891,-13.0629997253418,-15.5729999542236,-2.65657210350037,-4.73297214508057,-5.50512409210205,3.02821111679077,3.26477909088135,3.31233501434326,-12.168999671936,-22.5249996185303,-28.2520008087158,12.9720001220703,3.24300003051758,2.92899990081787,-0.45141899585724,-1.68864405155182,-2.87109398841858,0.27399998903275,11.7279996871948,19.8090000152588,-6.80068397521973,-6.66601896286011,-4.96306180953979,-1.25136601924896,-4.13377809524536,-8.38550186157227,-24.4080009460449,-19.5440006256104,-13.6590003967285,-10.6420001983643,-9.93599987030029,-6.09200000762939,-4.59553480148315,-5.02635383605957,-4.74105215072632,26.4780006408691,12.6700000762939,9.5319995880127,2.31995606422424,4.47496891021729,14.3750801086426,-5.46474409103394,-4.45087289810181,-8.62622547149658,-5.34299993515015,-4.40100002288818,-4.48000001907349,7.08799982070923,9.20600032806396,9.52000045776367,8.52826118469238,8.73330307006836,7.16418790817261,3.80399990081787,4.90299987792969,5.68699979782104,6.25041580200195,5.08824396133423,4.11195611953735,-4.46776103973389,-4.74690198898315,-4.61028623580933,-5.2649998664856,-5.65700006484985,-5.97100019454956,5.51900005340576,5.59700012207031,5.59700012207031,SWING_LEFT
-0.84522902965546,-0.86627197265625,-0.8281210064888,-0.195999994874,-0.43099999427795,-0.66699999570847,0.43075400590897,0.37183600664139,0.40923398733139,-0.69925397634506,-0.63380098342896,-0.66606402397156,0.61900001764297,1.48199999332428,2.26600003242493,10.9320001602173,12.0299997329712,13.5989999771118,-1.3561760187149,-1.89633798599243,-2.76075100898743,3.56900000572205,7.25600004196167,9.68900012969971,1.16689205169678,0.84344500303268,0.79203099012375,-2.38260698318481,-2.43128204345703,-2.21790289878845,3.5220000743866,5.40500020980835,2.03099989891052,22.5429992675781,18.1499996185303,16.738000869751,-1.75443601608276,0.32876598834991,4.05503416061401,-14.6319999694824,-24.125,-32.5200004577637,-5.22455978393555,-7.93069982528687,-8.54033374786377,5.62186908721924,6.81655597686768,6.76749181747437,-26.2119998931885,-31.6259994506836,-36.3330001831055,-2.32599997520447,-5.77799987792969,-3.11100006103516,1.53216397762299,-0.33792600035667,-2.19520497322083,-1.84300005435944,11.8850002288818,21.6919994354248,-5.88753318786621,-4.5068998336792,-2.42111611366272,2.19086909294128,-3.73788189888,-8.15131187438965,-25.8199996948242,-27.1539993286133,-26.3689994812012,6.30299997329712,7.48000001907349,6.61700010299683,-3.53639888763428,-2.47562098503113,-1.7107720375061,22.8689994812012,20.5939998626709,16.9069995880127,3.17478489875793,3.35167694091797,3.61295890808105,-9.8572301864624,-8.87889766693115,-7.90956401824951,-9.02999973297119,-7.14699983596802,-6.20599985122681,2.38000011444092,4.18499994277954,4.9689998626709,SWING_LEFT
-1.6739399433136,-1.8970400094986,-1.73956894874573,5.68699979782104,6.23699998855591,4.43200016021729,0.99459201097488,0.84785097837448,0.7340549826622,-1.56793904304504,-1.27045905590057,-0.72361499071121,5.01200008392334,5.32600021362305,1.87399995326996,17.6009998321533,16.3449993133545,15.6389999389648,1.41971600055695,2.48925995826721,4.24726486206055,-9.2180004119873,-15.0240001678467,-19.5750007629395,-6.78459596633911,-7.26372814178467,-7.08027505874634,8.78564357757568,8.38483333587646,7.88060522079468,-28.0170001983643,-32.2529983520508,-34.1360015869141,-2.09100008010864,-10.7209997177124,-15.1140003204346,-1.93396902084351,-3.20089101791382,-4.71733713150024,-7.88500022888184,12.9840002059937,18.3969993591309,-4.78571605682373,-4.14154005050659,-2.43342900276184,1.68212497234344,-2.54167699813843,-8.91882038116455,-38.0589981079102,-28.8010005950928,-18.367000579834,15.326000213623,12.1090002059937,5.91099977493286,-4.96016407012939,-4.14041996002197,-3.44169211387634,34.0880012512207,23.3400001525879,11.1789999008179,4.51995801925659,5.16254615783691,7.99424409866333,-10.1214036941528,-9.37616920471191,-9.21254253387451,-10.2069997787476,-10.5209999084473,-5.02899980545044,7.16599988937378,8.89200019836426,9.44099998474121,7.65029811859131,9.15045642852783,8.98605918884277,3.56900000572205,4.19700002670288,4.74599981307983,5.55417585372925,6.10573196411133,6.12229204177856,-4.94752883911133,-5.32425594329834,-5.55000877380371,-3.06800007820129,-3.53800010681152,-4.16599988937378,5.28299999237061,5.83199977874756,6.53800010681152,SWING_LEFT
-1.448734998703,-1.34319603443146,-1.22037494182587,0.1169999986887,0.35199999809265,0.03900000080466,0.72910702228546,0.68780398368835,0.65169197320938,-0.91585797071457,-0.83501201868057,-0.77047598361969,1.48199999332428,1.55999994277954,2.18799996376038,9.44099998474121,8.9709997177124,9.04899978637695,-0.91215199232101,-1.04158294200897,-1.41477394104004,2.0,3.01999998092651,3.6470000743866,0.88774299621582,0.99859297275543,0.98289000988007,-1.64522397518158,-2.08517694473267,-2.10947799682617,7.44399976730347,7.75799989700317,5.40500020980835,18.5419998168945,20.3470001220703,19.0909996032715,-1.45319902896881,-0.32023000717163,2.21296191215515,-7.88500022888184,-20.9869995117188,-35.0299987792969,-4.55260276794434,-7.06352281570435,-7.62634897232056,5.16311407089233,5.78885078430176,5.47400093078613,-37.9020004272461,-39.4710006713867,-39.8639984130859,19.2479991912842,16.8950004577637,7.63700008392334,0.92681902647018,-0.92632299661636,-2.53686308860779,27.1060009002686,36.8339996337891,39.1879997253418,-6.4702410697937,-5.31940984725952,-2.99685597419739,-2.54724788665771,-6.14330387115479,-9.18569374084473,-28.7229995727539,-18.9160003662109,-5.57800006866455,0.10499999672174,-2.32599997520447,-3.26799988746643,-4.29804992675781,-4.0583119392395,-4.12844085693359,34.7159996032715,23.3400001525879,8.98200035095215,2.19580507278442,1.76611995697021,1.9674459695816,-6.65945196151733,-4.97740507125854,-3.32183694839478,-10.2069997787476,-8.63799953460693,-5.2649998664856,4.81199979782104,6.46000003814697,8.81400012969971,SWING_LEFT
-0.53916901350021,-0.86866402626038,-1.0599410533905,-0.1169999986887,1.05799996852875,2.54900002479553,1.17272698879242,1.38797497749329,1.44293797016144,-1.74365603923798,-1.97019004821777,-1.86811900138855,7.52299976348877,7.83699989318848,9.01299953460693,16.8950004577637,18.0709991455078,19.7189998626709,-1.33408904075623,-1.0786110162735,-0.19402499496937,-0.74500000476837,-7.72800016403198,-21.378999710083,-0.24387900531292,-3.538006067276,-6.3587589263916,2.95197606086731,5.3886079788208,5.850182056427,-20.5629997253418,-20.5629997253418,-37.1180000305176,12.5010004043579,12.5010004043579,5.98899984359741,0.39161199331284,-1.14408004283905,-2.50013589859009,-9.29699993133545,1.84300005435944,11.3360004425049,-7.05080223083496,-6.56120586395264,-5.65244483947754,2.19624996185303,0.22443300485611,-3.34312391281128,-37.6669998168945,-28.4869995117188,-22.0540008544922,4.73400020599365,11.1669998168945,8.73499965667725,-2.88044309616089,-0.84202897548676,-0.75951701402664,28.2040004730225,26.8700008392334,24.5949993133545,2.96719288825989,3.77277708053589,4.13020086288452,-10.7517042160034,-8.71060085296631,-7.2905101776123,-5.81400012969971,-3.85199999809265,-3.30299997329712,10.7749996185303,8.73499965667725,6.69500017166138,-0.81868898868561,1.53429698944092,6.33950996398926,6.94299983978271,3.7260000705719,1.45099997520447,12.1883029937744,8.53633689880371,2.68554592132568,-7.08428716659546,-5.10313415527344,-0.36578100919724,-6.67700004577637,-6.91200017929077,-4.63700008392334,6.85200023651123,7.40100002288818,8.10799980163574,SWING_LEFT
-0.42393898963928,-0.38728600740433,-0.57771998643875,-1.37300002574921,0.1169999986887,0.1169999986887,0.43273198604584,0.45870000123978,0.51997399330139,-0.79532498121262,-0.8701239824295,-1.02435803413391,0.22599999606609,0.14800000190735,2.18799996376038,12.2659997940063,14.3839998245239,17.2080001831055,-1.68584299087524,-2.23274803161621,-2.24118399620056,6.62900018692017,4.98099994659424,2.31399989128113,1.15998697280884,1.26762199401855,1.30737698078156,-1.67817401885986,-1.50128304958344,-1.37058997154236,5.2480001449585,5.2480001449585,2.34500002861023,17.6790008544922,17.6790008544922,12.1870002746582,-0.88985598087311,1.12065100669861,4.16324996948242,-8.7480001449585,-25.3799991607666,-32.6769981384277,-6.21972322463989,-7.79422187805176,-6.72361183166504,6.28555679321289,6.7080020904541,5.60343885421753,-36.0190010070801,-39.7070007324219,-39.8639984130859,-3.58100008964539,8.9709997177124,8.73499965667725,-2.19742107391357,-3.65858793258667,-5.1337718963623,17.4559993743896,26.0069999694824,31.2639999389648,-4.06950616836548,-1.61570703983307,0.81771898269653,-3.43933010101318,-7.74742698669434,-10.2061653137207,-22.4459991455078,-19.386999130249,-17.1900005340576,20.6609992980957,19.0130004882813,15.2469997406006,-2.81737494468689,-1.91333997249603,-1.43047404289246,22.7119998931885,12.121000289917,9.375,4.89537382125854,6.45221519470215,11.5070066452026,-5.07707023620605,-4.97359991073608,-6.44603776931763,-3.6949999332428,-4.48000001907349,-4.71500015258789,9.44099998474121,9.52000045776367,9.1269998550415,SWING_LEFT
-1.97300505638123,-1.6339099407196,-0.82747799158096,-0.50999999046326,-1.05900001525879,-1.92200005054474,0.56497001647949,0.93215000629425,1.57882905006409,0.65785902738571,0.99464499950409,0.96002399921417,5.48299980163574,6.97399997711182,6.81699991226196,9.75500011444092,11.246000289917,11.5600004196167,-0.73392397165298,-1.24807703495026,-1.30558001995087,0.19499999284744,-1.52999997138977,-4.98199987411499,-1.18866395950317,-4.60935401916504,-7.20869779586792,4.51948499679565,7.03331518173218,8.12770652770996,-14.2869997024536,-26.8400001525879,-36.6469993591309,-0.36500000953674,-7.58300018310547,1.43900001049042,-2.01206398010254,-2.98259806632996,-3.9312059879303,-20.9869995117188,-6.31500005722046,9.5319995880127,-5.59801578521729,-4.9523458480835,-3.14498496055603,3.51082897186279,0.91030198335648,-6.12582921981812,-39.5499992370605,-26.1340007781982,-17.3470001220703,15.875,14.0699996948242,6.61700010299683,-5.28598499298096,-3.83267903327942,-3.12100505828857,27.6550006866455,24.5949993133545,22.8689994812012,3.73559188842773,3.8212308883667,4.05858278274536,-9.07788372039795,-7.68255615234375,-6.11488103866577,-3.46000003814697,-3.7739999294281,-4.79400014877319,7.00899982452393,6.30299997329712,6.38199996948242,-0.90333598852158,0.90436601638794,4.98883199691772,5.9229998588562,3.17700004577637,1.37199997901917,9.66480445861816,7.3525857925415,5.28067779541016,-6.22642087936401,-4.74697589874268,-3.04978895187378,-5.65700006484985,-4.95100021362305,-3.93099999427795,7.71500015258789,7.40100002288818,7.48000001907349,SWING_LEFT
