gyro_x_0,gyro_y_0,gyro_z_0,acc_x_0,acc_y_0,acc_z_0,gyro_x_1,gyro_y_1,gyro_z_1,acc_x_1,acc_y_1,acc_z_1,gyro_x_2,gyro_y_2,gyro_z_2,acc_x_2,acc_y_2,acc_z_2,gyro_x_3,gyro_y_3,gyro_z_3,acc_x_3,acc_y_3,acc_z_3,gyro_x_4,gyro_y_4,gyro_z_4,acc_x_4,acc_y_4,acc_z_4,gyro_x_5,gyro_y_5,gyro_z_5,acc_x_5,acc_y_5,acc_z_5,gyro_x_6,gyro_y_6,gyro_z_6,acc_x_6,acc_y_6,acc_z_6,gyro_x_7,gyro_y_7,gyro_z_7,acc_x_7,acc_y_7,acc_z_7,gyro_x_8,gyro_y_8,gyro_z_8,acc_x_8,acc_y_8,acc_z_8,gyro_x_9,gyro_y_9,gyro_z_9,acc_x_9,acc_y_9,acc_z_9,gyro_x_10,gyro_y_10,gyro_z_10,acc_x_10,acc_y_10,acc_z_10,gyro_x_11,gyro_y_11,gyro_z_11,acc_x_11,acc_y_11,acc_z_11,gyro_x_12,gyro_y_12,gyro_z_12,acc_x_12,acc_y_12,acc_z_12,gyro_x_13,gyro_y_13,gyro_z_13,acc_x_13,acc_y_13,acc_z_13,gyro_x_14,gyro_y_14,gyro_z_14,acc_x_14,acc_y_14,acc_z_14,motion_type
2.61139988899231,2.95528745651245,3.02348756790161,13.582950592041,9.45900058746338,8.13000011444092,0.91519999504089,0.73301249742508,0.37743750214577,-2.76636242866516,-1.80509996414185,-0.80987501144409,4.08900022506714,3.26295018196106,1.71105003356934,6.40905046463013,4.54095029830933,3.1039502620697,-1.97697496414185,-3.30769991874695,-6.6336874961853,-3.1519501209259,-8.00205039978027,-14.907000541687,-6.20413732528687,-7.82402515411377,-7.46886253356934,17.5960121154785,20.7510871887207,20.7912368774414,-2.20395016670227,-2.30700016021729,-3.45600008964539,2.35199999809265,2.08605003356934,2.34000015258789,-4.7297248840332,-2.11708760261536,-2.58857488632202,-11.2930507659912,7.23900032043457,31.2010517120361,2.68070006370544,8.32425022125244,16.7781620025635,-10.6761875152588,-23.6075115203857,-25.5191745758057,11.2069501876831,15.8590507507324,13.0420503616333,16.5619506835938,12.0709505081177,4.20105028152466,9.43167495727539,3.67674994468689,-0.33247500658035,16.1479511260986,11.5140008926392,6.72105026245117,5.21358728408813,2.34657502174377,-1.14592504501343,-0.51823747158051,0.02309999987483,0.95933747291565,-1.25805008411407,-3.8539502620697,-5.95905017852783,3.94905018806458,3.3550500869751,2.50005006790161,-3.07271242141724,-11.3255996704102,-10.8682746887207,-19.3399505615234,-26.7859516143799,-17.4700508117676,-4.87231254577637,-1.29538750648499,-0.256437510252,19.6147880554199,5.26240015029907,-0.6044499874115,-7.92795038223267,-7.12095022201538,2.63295006752014,5.76495027542114,9.4079999923706,13.1269502639771,SHAKE
-14.3254375457764,-14.8007745742798,-14.5573997497559,-25.6990509033203,-24.7740020751953,-16.0810508728027,-1.69042503833771,0.08346249908209,1.54467499256134,4.33152484893799,-1.85336244106293,-6.13483762741089,-3.8539502620697,1.54395008087158,9.53805065155029,11.860050201416,11.3760004043579,7.36695051193237,0.08648750185966,8.6645622253418,9.11308765411377,23.1340503692627,20.6250019073486,16.6440010070801,17.6046752929688,11.6403369903564,5.61687517166138,-13.4429626464844,-4.29783725738525,-0.96346247196198,7.60995054244995,2.4580500125885,-2.49300003051758,6.44295024871826,4.27305030822754,3.37200021743774,-0.85030001401901,-0.80465000867844,-7.57735013961792,-8.17500019073486,-15.8100004196167,-23.931001663208,-15.1985626220703,-15.1828870773315,-2.20247507095337,22.7275123596191,24.8591747283936,15.1877002716064,-2.55105018615723,-4.66605043411255,-4.44300031661987,6.11205005645752,6.28200006484985,8.25300025939941,-0.8732625246048,-1.75615000724792,-3.12949991226196,1.72305011749268,18.0090007781982,22.7490005493164,9.17441272735596,23.3492870330811,26.1324253082275,-17.1628875732422,-19.9797115325928,-20.3088874816895,13.6840505599976,14.6509504318237,13.195050239563,-5.50995016098022,-3.35400009155273,4.41600036621094,14.7181377410889,13.5474624633789,-1.39094996452332,14.9650506973267,9.02805042266846,-1.38705003261566,-1.72658753395081,-7.24253749847412,-18.2340126037598,1.58633744716644,3.47366237640381,8.57009983062744,-6.14595031738281,-6.18900012969971,-4.49805021286011,1.47495007514954,2.62695002555847,2.51205015182495,SHAKE
-12.7936878204346,-12.9046497344971,-5.76221227645874,-26.881950378418,-20.1690006256104,-9.23805046081543,1.96239995956421,4.7933874130249,6.80528736114502,3.55258750915527,-0.50283747911453,-5.41172504425049,-2.76900005340576,3.5029501914978,10.7839508056641,9.27105045318604,7.91595029830933,1.8270001411438,-2.14733743667603,12.0544872283936,13.4080371856689,23.2180519104004,23.0359516143799,21.0960006713867,25.5734882354736,22.6491374969482,1.80564999580383,-16.2399883270264,-4.5636248588562,0.44041249155998,9.6940507888794,6.48405027389526,-2.70900011062622,7.98495054244995,6.91395044326782,1.28595006465912,-1.24148750305176,-2.00227499008179,-19.0415496826172,-8.03295040130615,-15.3049507141113,-23.6250019073486,-20.8855628967285,-19.7298755645752,-14.8955125808716,19.1789131164551,20.5451126098633,18.6447257995605,-2.94105005264282,-5.20905017852783,-6.98205041885376,1.00095009803772,4.43100023269653,7.48005056381226,-0.67044997215271,0.41813749074936,-0.25685000419617,-10.1790008544922,-3.58800005912781,15.1090507507324,3.64471244812012,10.354437828064,22.4570503234863,-11.5572872161865,-20.0006122589111,-19.4426364898682,13.3009510040283,15.9060010910034,15.9330005645752,-6.21405029296875,-9.51195049285889,-7.56495046615601,17.3681755065918,17.0730991363525,6.55118751525879,15.1590003967285,9.19500064849854,3.94605016708374,6.44998741149902,2.71700000762939,-5.04019975662231,-2.94029998779297,-1.6411999464035,-1.12626254558563,-0.79800003767014,-5.66700029373169,-3.47295022010803,1.0440000295639,0.9250500202179,3.48495006561279,SHAKE
9.76538753509522,17.2286128997803,17.3681755065918,24.8539505004883,21.373950958252,15.1590003967285,25.1145114898682,18.8575744628906,6.44998741149902,-11.8425998687744,-3.3515625,-2.94029998779297,8.77605056762695,3.93900012969971,-0.79800003767014,-0.61905002593994,0.90495002269745,1.0440000295639,-1.50053751468658,-15.1457624435425,-25.3868999481201,-7.03005027770996,-24.6670513153076,-26.7460517883301,-11.1739377975464,-10.3692874908447,-6.25171232223511,1.24629998207092,1.19267499446869,1.42243754863739,-4.23900032043457,-4.12200021743774,-3.39600014686584,5.87700033187866,6.91695022583008,7.59900045394897,-0.42611250281334,0.17820000648499,-0.12264999747276,-3.70995020866394,14.4360008239746,23.2279510498047,3.77533745765686,22.0665493011475,23.4896755218506,-14.8956499099731,-19.8984489440918,-16.3297748565674,15.856050491333,14.66100025177,10.9800004959106,-10.5349502563477,-1.16505002975464,3.60495018959045,15.9806623458862,0.85304999351501,-1.78488743305206,6.24705028533936,0.41505002975464,-6.18195009231567,-11.3680877685547,-14.8233251571655,-15.8784999847412,1.50864994525909,9.73912525177002,12.0025119781494,-2.57505011558533,-2.83605003356934,-6.18900012969971,6.45900011062622,8.21295070648193,5.63100004196167,-24.6281757354736,-14.4544124603271,-2.19670009613037,-11.2330503463745,-5.90205049514771,1.87395012378693,-0.21298749744892,2.07913756370544,6.91831254959106,0.26688748598099,-3.56441259384155,-14.0068502426147,7.83495044708252,13.8730506896973,17.6809501647949,6.04305028915405,5.94900035858154,4.41600036621094,SHAKE
18.3632621765137,19.4360370635986,19.3931369781494,17.4610500335693,16.3229999542236,12.7210502624512,5.21124982833862,1.48472499847412,-1.26747500896454,0.31239998340607,0.34292501211166,0.42570000886917,5.99805021286011,0.74400001764297,-4.9699501991272,6.1840500831604,7.40805053710938,5.52495002746582,-2.31536245346069,-11.2579498291016,-20.2927989959717,-11.3770503997803,-21.1240501403809,-27.7830009460449,-18.9778881072998,-16.4230003356934,-8.39932537078857,11.9138250350952,13.1565494537354,14.6378374099731,-7.0420503616333,-8.28900051116943,-6.46395015716553,1.40805006027222,2.31105017662048,3.70800018310547,-0.68255001306534,-0.75019997358322,2.75495004653931,17.3940010070801,17.367000579834,18.5100002288818,20.3681507110596,24.2643489837646,24.3055992126465,-16.8320617675781,-16.5499114990234,-12.8365879058838,25.6090507507324,23.590051651001,18.3090000152588,-5.21295022964478,-6.0799503326416,-5.94105005264282,14.4436874389648,-1.04101252555847,-1.83755004405975,9.12405014038086,5.1739501953125,0.73605000972748,2.33502507209778,-0.20638750493526,-7.65311241149902,-1.10164999961853,-0.6569749712944,-1.65164995193481,-6.85200023651123,-9.86295032501221,-8.45700073242188,3.88500022888184,3.12600016593933,2.63205003738403,-23.8356246948242,-24.9601001739502,-25.0940246582031,-31.3510513305664,-19.7140502929688,-9.10095024108887,-2.83002495765686,-1.49063754081726,1.23681247234344,1.33498752117157,-0.05678749829531,-4.20860004425049,-0.56505000591278,10.7070007324219,20.1379508972168,3.29100012779236,7.76895046234131,7.49205017089844,SHAKE
3.78276252746582,4.07357501983643,3.41481256484985,24.4369506835938,24.0370502471924,18.6649513244629,15.9123249053955,9.53273773193359,2.36266255378723,-13.1818494796753,-4.50986242294312,-0.93073749542236,16.6560001373291,9.42105007171631,-4.82595014572144,-4.27200031280518,0.55995005369186,4.40205001831055,-0.45361250638962,-1.91193747520447,-21.9726371765137,-13.8340511322021,-26.8630504608154,-30.2689514160156,-13.6096124649048,-14.2444496154785,-12.6434001922607,3.84573745727539,4.77097511291504,5.19420003890991,-10.1050500869751,-10.1310005187988,-7.87005043029785,3.46305012702942,1.22895002365112,-0.00900000054389,-3.50033736228943,-1.2971750497818,4.28546237945557,6.4680004119873,10.0099506378174,24.2599506378174,9.86521244049072,10.4479370117188,10.3833122253418,-9.26076221466064,-9.45766258239746,-8.6574125289917,27.4099521636963,25.6590003967285,20.416051864624,1.83495008945465,-0.21900001168251,0.09795000404119,-1.39878749847412,-2.67107486724854,-1.84566247463226,9.85905075073242,5.75400018692017,2.70495009422302,-0.77770000696182,-2.65526247024536,-8.90463733673096,0.23581250011921,0.35585001111031,0.31556248664856,-5.25705003738403,-10.4280004501343,-10.3849506378174,4.58400011062622,1.557000041008,-0.81600004434586,-21.5201244354248,-22.5561866760254,-22.6483116149902,-28.6039505004883,-23.3659515380859,-13.678050994873,-10.5338745117188,-1.62607502937317,-0.12003749608994,11.4266624450684,1.40167498588562,-0.48922500014305,-7.70700025558472,4.90605020523071,14.7520503997803,0.59595000743866,3.3030002117157,3.50205016136169,SHAKE
4.71845006942749,4.22014999389648,-1.39878749847412,20.1240005493164,14.6509504318237,9.85905075073242,1.25785005092621,0.28352499008179,-0.77770000696182,-0.12815000116825,0.3119874894619,0.23581250011921,7.9980001449585,1.5700501203537,-5.25705003738403,4.58895015716553,5.25195026397705,4.58400011062622,-0.90392500162125,-4.98052501678467,-21.5201244354248,-11.7720003128052,-22.7170505523682,-28.6039505004883,-17.0570125579834,-16.2944374084473,-10.5338745117188,10.5234251022339,11.153037071228,11.4266624450684,-9.03705024719238,-9.26205062866211,-7.70700025558472,1.00394999980927,1.0110000371933,0.59595000743866,-0.59509998559952,-0.41648748517036,0.604587495327,8.28105068206787,15.2190008163452,23.1630020141602,12.2117872238159,13.6646127700806,13.7977123260498,-12.3615245819092,-13.2026128768921,-12.4048376083374,27.2130012512207,26.7319507598877,21.5230503082275,0.14595000445843,-3.25395011901855,-2.81595015525818,6.03294992446899,-2.40514993667603,-1.9354499578476,10.1460008621216,5.65095043182373,2.29095005989075,-2.16768741607666,-7.16416263580322,-14.5023994445801,0.14217500388622,0.19346250593662,2.18198752403259,-6.98895025253296,-8.89095020294189,-8.58600044250488,3.8490002155304,0.64200001955032,0.91995006799698,-23.8151378631592,-23.9086380004883,-5.4421124458313,-24.4939517974854,-17.1889514923096,0.08205000311136,-2.96917510032654,-1.34255003929138,2.01671242713928,3.70370006561279,1.26142501831055,-2.28745007514954,1.87905013561249,12.7069501876831,21.5440502166748,2.87400007247925,3.31995010375977,1.81095004081726,SHAKE
7.95327472686768,7.36986255645752,6.03294992446899,20.3850002288818,15.5370006561279,10.1460008621216,3.05277490615845,1.40318751335144,-2.16768741607666,-1.17754995822906,-0.21257500350475,0.14217500388622,8.92005062103271,3.87405014038086,-6.98895025253296,3.68100023269653,6.76095008850098,3.8490002155304,-4.07206249237061,-20.0058364868164,-23.8151378631592,-16.9519500732422,-24.3360004425049,-24.4939517974854,-17.0168628692627,-6.25734996795654,-2.96917510032654,9.75383758544922,9.42589950561523,3.70370006561279,-8.1670503616333,-4.31595039367676,1.87905013561249,-0.17895001173019,0.2250000089407,2.87400007247925,-0.90736252069473,0.70235002040863,17.2295742034912,13.2619504928589,17.3959503173828,20.1000003814697,13.4509372711182,13.6090621948242,11.4435749053955,-8.12611198425293,-7.34057474136353,-4.62632513046265,28.7680511474609,25.1989517211914,19.1779518127441,2.62500023841858,2.82600021362305,2.96700024604797,-1.26335000991821,-1.83012497425079,-1.50699996948242,8.07000064849854,4.75305032730103,1.77105009555817,-1.25537502765656,-3.08934998512268,-15.3191499710083,0.35557499527931,0.19538749754429,5.3917875289917,-3.59295010566711,-7.90605020523071,-8.4859504699707,2.50005006790161,0.32805001735687,-0.26205000281334,-22.5354251861572,-22.3341255187988,-19.2759876251221,-25.8019504547119,-16.3920001983643,-7.41795015335083,-4.34087514877319,-0.14327499270439,2.8862624168396,6.61856269836426,-0.0362999998033,-4.61601257324219,-5.30805015563965,12.8740501403809,21.3120002746582,0.10800000280142,5.71695041656494,5.82705020904541,SHAKE
17.6981754302979,17.3783493041992,15.5577125549316,19.4490013122559,17.1660003662109,12.5719509124756,2.64357495307922,0.94448751211166,-0.02172499895096,0.40713748335838,0.71967500448227,0.61751252412796,12.9750003814697,7.26795053482056,1.89105010032654,3.8580002784729,4.8070502281189,4.45695018768311,-1.10233747959137,-0.93073749542236,-21.0812244415283,-2.17305016517639,-7.95405054092407,-25.4830513000488,-17.4132747650146,-16.5493621826172,-12.0780000686646,10.1550626754761,11.4306497573853,12.2809495925903,-7.70700025558472,-8.83800029754639,-8.63400077819824,-0.43995001912117,-0.15705001354218,-0.07800000160933,-2.15283751487732,-0.48922500014305,0.0244750007987,-0.68805003166199,13.2430505752563,22.1500511169434,14.3712253570557,16.5826377868652,16.9988498687744,-11.2494249343872,-12.6321249008179,-12.4367370605469,27.7570514678955,29.1679515838623,24.9169521331787,3.43395018577576,-0.02805000171065,-2.82495021820068,13.8682498931885,-2.59929990768433,-2.07033753395081,12.5629501342773,8.19405078887939,4.35300016403198,1.8156875371933,0.68378752470016,-1.23076248168945,-0.54670000076294,-0.64281249046326,-0.59523749351501,0.26895001530647,-5.18100023269653,-8.79495048522949,4.72095012664795,3.93300008773804,1.32000005245209,-9.6468620300293,-23.9189491271973,-24.9991493225098,-22.6090507507324,-27.1980018615723,-20.5540504455566,-12.6006374359131,-7.28667497634888,-3.31113743782043,6.0410623550415,7.88644981384277,2.72250008583069,-9.93195056915283,-7.85400056838989,-2.77800011634827,-0.63795000314713,-0.09000000357628,-0.10695000737906,SHAKE
14.6994371414185,13.8682498931885,-2.59929990768433,16.8090000152588,12.5629501342773,8.19405078887939,2.67712497711182,1.8156875371933,0.68378752470016,-0.68942499160767,-0.54670000076294,-0.64281249046326,5.89995050430298,0.26895001530647,-5.18100023269653,2.66595005989075,4.72095012664795,3.93300008773804,-1.36248743534088,-9.6468620300293,-23.9189491271973,-13.2160511016846,-22.6090507507324,-27.1980018615723,-13.1256122589111,-12.6006374359131,-7.28667497634888,5.34751224517822,6.0410623550415,7.88644981384277,-9.89400005340576,-9.93195056915283,-7.85400056838989,-1.53405010700226,-0.63795000314713,-0.09000000357628,-2.68070006370544,-1.84648752212524,-2.10430002212524,3.39495015144348,8.53200054168701,13.8439502716064,8.18276214599609,9.21277523040772,9.6588249206543,-13.0013122558594,-13.7256622314453,-13.1524248123169,29.0190010070801,29.568000793457,25.431001663208,6.07905006408691,2.81400012969971,1.41795003414154,-5.36304998397827,-3.21956253051758,-1.98054993152618,12.3660001754761,8.31704998016357,5.83005046844482,0.78677499294281,-0.14616249501705,-1.73140001296997,-0.14767499268055,-0.31473749876022,-0.21628749370575,3.51900005340576,-1.34400010108948,-5.97105026245117,4.84995031356812,4.42799997329712,1.72005009651184,-17.7814998626709,-23.5674991607666,-23.7403373718262,-20.4300003051758,-24.8340015411377,-19.8499507904053,-13.9783878326416,-6.95392513275146,-2.26187491416931,10.9991750717163,11.3679494857788,2.84336256980896,-9.61905002593994,-7.94700050354004,-3.77700018882751,0.2490000128746,-0.84900003671646,-1.88100004196167,SHAKE
-5.36304998397827,-3.21956253051758,-1.98054993152618,12.3660001754761,8.31704998016357,5.83005046844482,0.78677499294281,-0.14616249501705,-1.73140001296997,-0.14767499268055,-0.31473749876022,-0.21628749370575,3.51900005340576,-1.34400010108948,-5.97105026245117,4.84995031356812,4.42799997329712,1.72005009651184,-17.7814998626709,-23.5674991607666,-23.7403373718262,-20.4300003051758,-24.8340015411377,-19.8499507904053,-13.9783878326416,-6.95392513275146,-2.26187491416931,10.9991750717163,11.3679494857788,2.84336256980896,-9.61905002593994,-7.94700050354004,-3.77700018882751,0.2490000128746,-0.84900003671646,-1.88100004196167,-1.42518746852875,-2.13606238365173,-13.2457876205444,8.10300064086914,14.9080505371094,23.086950302124,0.0874499976635,0.69478750228882,-4.96127510070801,-8.90848731994629,-8.753662109375,-5.19832515716553,30.9229507446289,25.7359504699707,19.4059505462646,1.13505005836487,-0.6769500374794,-0.00405000010505,-3.46431255340576,-2.21278738975525,-1.79024994373322,6.97995042800903,4.13700008392334,0.94695001840591,-0.693274974823,-2.62514996528625,-7.25614976882935,-0.60637497901917,-0.6516125202179,-1.34584999084473,-1.55895006656647,-5.55000019073486,-9.29805088043213,4.55100011825562,2.11199998855591,-1.54605007171631,-21.7683124542236,-26.425163269043,-25.9463882446289,-17.3260517120361,-22.0969505310059,-20.0400009155273,-12.2098627090454,-6.8495626449585,-2.42137503623962,11.0148496627808,9.23559951782227,2.56850004196167,-9.18495082855225,-7.33905029296875,-2.80995011329651,0.61800003051758,2.16795015335083,-0.18300001323223,SHAKE
-2.21278738975525,-1.79024994373322,-1.55595004558563,4.13700008392334,0.94695001840591,-2.89800024032593,-2.62514996528625,-7.25614976882935,-12.7474870681763,-0.6516125202179,-1.34584999084473,0.81427496671677,-5.55000019073486,-9.29805088043213,-11.695050239563,2.11199998855591,-1.54605007171631,-5.25795030593872,-26.425163269043,-25.9463882446289,-21.6730251312256,-22.0969505310059,-20.0400009155273,-11.4889507293701,-6.8495626449585,-2.42137503623962,-1.05187499523163,9.23559951782227,2.56850004196167,0.63593751192093,-7.33905029296875,-2.80995011329651,3.9190502166748,2.16795015335083,-0.18300001323223,-1.69905006885529,-0.52854996919632,1.51153743267059,11.22536277771,10.0030508041382,18.3250503540039,18.670051574707,6.12919998168945,5.97877502441406,3.90541243553162,-4.10437488555908,-4.06161260604858,-2.53398752212524,31.0570507049561,29.086051940918,23.920051574707,6.12195014953613,6.64395046234131,3.85095024108887,-1.78873753547668,-1.36523747444153,-1.13918745517731,9.0329999923706,6.52500009536743,4.32195043563843,-0.71417498588562,-1.20848751068115,-2.51679992675781,-0.03849999979138,-0.42872500419617,-0.67842501401901,1.34700012207031,-3.19500017166138,-6.43095016479492,2.63895010948181,2.79495024681091,3.27600026130676,-5.7088623046875,-22.138599395752,-24.4868240356445,-11.6809501647949,-15.9319505691528,-22.1260509490967,-19.3183364868164,-14.2520122528076,-6.53730010986328,9.95101261138916,12.0605373382568,8.66689968109131,-9.76200008392334,-10.2870006561279,-9.78194999694824,-5.85495042800903,-3.07395005226135,-0.77295005321503,SHAKE
-1.36523747444153,-1.13918745517731,-1.00045001506805,6.52500009536743,4.32195043563843,1.63200008869171,-1.20848751068115,-2.51679992675781,-7.58120012283325,-0.42872500419617,-0.67842501401901,-1.71984994411469,-3.19500017166138,-6.43095016479492,-9.65205001831055,2.79495024681091,3.27600026130676,1.56900012493134,-22.138599395752,-24.4868240356445,-23.2498741149902,-15.9319505691528,-22.1260509490967,-21.9679508209229,-14.2520122528076,-6.53730010986328,-1.24354994297028,12.0605373382568,8.66689968109131,1.25633752346039,-10.2870006561279,-9.78194999694824,-0.78300005197525,-3.07395005226135,-0.77295005321503,6.99105024337769,-1.51786243915558,-3.58833742141724,-9.16327476501465,13.3939504623413,21.5230503082275,27.562952041626,12.8165121078491,13.866325378418,10.8784503936768,-18.8479499816895,-18.9177989959717,-13.8748502731323,30.3220520019531,27.0270004272461,20.566951751709,-0.77295005321503,-6.28305006027222,-6.75795030593872,-4.83669996261597,-1.97229993343353,-1.28713750839233,10.8480005264282,6.88200044631958,4.25699996948242,3.30948758125305,2.25609993934631,0.92454999685287,-2.10801243782043,-1.99539995193481,-1.38971245288849,-1.25805008411407,-6.12405014038086,-9.7069501876831,1.07295000553131,1.72005009651184,1.19505000114441,5.35026264190674,14.3790626525879,14.1990747451782,-16.8370513916016,-26.0970020294189,-15.1470003128052,-0.63937497138977,-0.99384999275208,-1.13987493515015,2.69568753242493,1.84043753147125,-0.06751249730587,-10.0039501190186,-5.13300037384033,14.1370506286621,0.31905001401901,0.06900000572205,5.23095035552979,SHAKE
-12.2167377471924,-10.502387046814,-4.83669996261597,23.7450008392334,17.121000289917,10.8480005264282,5.25607490539551,4.19911241531372,3.30948758125305,-3.05511260032654,-2.20357489585876,-2.10801243782043,8.51805019378662,3.64395022392273,-1.25805008411407,-1.2109500169754,0.69000005722046,1.07295000553131,-0.31556248664856,0.59647500514984,5.35026264190674,-2.63505005836487,-8.81895065307617,-16.8370513916016,-0.63593751192093,-0.51507496833801,-0.63937497138977,5.06893730163574,5.50852489471436,2.69568753242493,-10.8640508651733,-11.953950881958,-10.0039501190186,-6.58005046844482,-2.68905019760132,0.31905001401901,1.9962249994278,-0.91643750667572,-4.49583768844604,-0.4200000166893,17.0299510955811,23.3910007476807,-0.40342500805855,0.14932499825954,0.77398747205734,-4.31612491607666,-5.52777481079102,-5.54193735122681,31.3690509796143,32.3910026550293,26.976001739502,6.24900007247925,6.42105007171631,4.75695037841797,-4.19553756713867,-2.64412498474121,-2.10017490386963,6.75705051422119,3.99600028991699,0.52095001935959,-1.28452503681183,-8.51358699798584,-14.9898376464844,-0.41635000705719,-1.91537499427795,3.64292502403259,-3.62595009803772,-11.1160507202148,-11.5920009613037,3.75495028495789,-1.84800004959106,-5.44500017166138,-25.3611869812012,-23.9258251190186,-18.3040008544922,-24.8700008392334,-17.215950012207,-7.19295024871826,-5.32798767089844,-1.82723748683929,-1.2167375087738,6.78631258010864,2.00612497329712,0.59785002470016,-6.69405031204224,-1.57395005226135,7.23405027389526,0.45300000905991,-1.47705006599426,1.60695004463196,SHAKE
-5.19805002212524,-2.83318758010864,-1.74982500076294,10.1059503555298,7.50705051422119,4.87695026397705,0.94352501630783,0.05197500064969,-1.92912495136261,-0.61008751392365,-0.95287501811981,-1.13973748683929,3.00705003738403,-2.17305016517639,-6.42900037765503,6.10695028305054,6.70395040512085,5.28300046920776,-20.474437713623,-23.7855739593506,-23.1884117126465,-19.2229499816895,-22.5540008544922,-16.9950008392334,-14.9562873840332,-8.01556205749512,-3.69833755493164,10.9668626785278,9.30641269683838,3.4065625667572,-9.68100070953369,-6.52005052566528,-0.86700004339218,1.07100009918213,0.27795001864433,-0.40905001759529,-1.01062500476837,-0.67113751173019,17.6710872650146,5.2630500793457,9.78000068664551,13.7580003738403,19.8099002838135,19.7135124206543,11.7767372131348,-11.7742624282837,-10.9393625259399,1.1281875371933,31.6030521392822,28.6909523010254,23.5660514831543,9.74505043029785,7.15395021438599,3.60000014305115,-0.69451248645782,-0.4673624932766,-0.36423748731613,7.98105049133301,3.57900023460388,1.25400006771088,0.09088750183582,-2.331862449646,-8.59168720245361,-0.74236249923706,-0.89017498493195,-2.09976243972778,-3.39195013046265,-7.74795055389404,-11.1130504608154,4.77795028686523,2.80200004577637,-1.67100012302399,-20.7424240112305,-22.8540115356445,-21.9302883148193,-15.7140007019043,-20.9830513000488,-21.0430507659912,-17.1264495849609,-2.00667500495911,0.09707500040531,12.1250247955322,1.20532500743866,-0.63964998722076,-12.9690008163452,-1.02495002746582,9.28695011138916,2.92695021629334,3.54900026321411,2.93595004081726,SHAKE
12.2453374862671,-0.69451248645782,-0.4673624932766,11.6140508651733,7.98105049133301,3.57900023460388,1.15706253051758,0.09088750183582,-2.331862449646,-0.41057500243187,-0.74236249923706,-0.89017498493195,1.22505009174347,-3.39195013046265,-7.74795055389404,4.71600008010864,4.77795028686523,2.80200004577637,-5.29168748855591,-20.7424240112305,-22.8540115356445,-11.9250001907349,-15.7140007019043,-20.9830513000488,-22.7787990570068,-17.1264495849609,-2.00667500495911,10.2224378585815,12.1250247955322,1.20532500743866,-14.5860004425049,-12.9690008163452,-1.02495002746582,-2.74605011940002,2.92695021629334,3.54900026321411,-0.2894375026226,0.21944999694824,4.64681243896484,3.85695028305054,13.1640005111694,20.2819519042969,21.2977867126465,23.2726993560791,14.7930746078491,-12.609299659729,-11.0494995117188,-0.25382500886917,33.3900032043457,28.2979507446289,21.6310501098633,7.84905052185059,10.2769508361816,6.85695028305054,-0.58822500705719,-1.30075001716614,-1.32893753051758,5.39700031280518,3.14805006980896,0.37695002555847,-0.63634997606277,-2.43567490577698,-6.20716238021851,-0.25231251120567,-0.86047500371933,-1.91345000267029,-0.87900006771088,-5.1739501953125,-9.69105052947998,5.86305046081543,6.43095016479492,3.83400011062622,-16.5506000518799,-22.0757617950439,-21.4554996490479,-11.0370006561279,-17.7790508270264,-21.553050994873,-17.1036243438721,-11.2708749771118,-4.74100017547607,10.368049621582,10.1150503158569,3.95257496833801,-12.2340002059937,-8.58405017852783,-3.10905003547669,0.56505000591278,5.19705009460449,1.72005009651184,SHAKE
14.1157503128052,-0.58822500705719,-1.30075001716614,8.0910005569458,5.39700031280518,3.14805006980896,0.40906250476837,-0.63634997606277,-2.43567490577698,0.22371250391006,-0.25231251120567,-0.86047500371933,3.46005010604858,-0.87900006771088,-5.1739501953125,3.66900014877319,5.86305046081543,6.43095016479492,-5.93133735656738,-16.5506000518799,-22.0757617950439,-8.6419506072998,-11.0370006561279,-17.7790508270264,-19.8291492462158,-17.1036243438721,-11.2708749771118,8.14439964294434,10.368049621582,10.1150503158569,-13.206000328064,-12.2340002059937,-8.58405017852783,-4.58100032806396,0.56505000591278,5.19705009460449,-0.93334996700287,0.99549996852875,4.59689998626709,-2.01705002784729,8.05995082855225,20.7130508422852,13.6838626861572,17.5702991485596,17.5243740081787,-9.01106262207031,-9.24769973754883,-9.79605007171631,32.0800514221191,34.4700012207031,30.3100509643555,7.63500022888184,7.86495018005371,8.68200016021729,19.731388092041,1.42560005187988,-0.91533750295639,9.07800006866455,5.57400035858154,3.41895008087158,-0.32010000944138,-0.87119996547699,-1.92912495136261,0.33989998698235,-0.02337500080466,-0.54092502593994,3.47595024108887,-1.300950050354,-5.86995029449463,1.60695004463196,2.56305003166199,3.6979501247406,-4.39766263961792,-16.0198497772217,-23.016674041748,-7.31700038909912,-10.6750507354736,-14.9959506988525,-23.172737121582,-20.6537380218506,-12.7056875228882,8.09118747711182,9.82588768005371,11.5836877822876,-14.614951133728,-13.0720510482788,-11.203950881958,-7.06695032119751,-1.66800010204315,4.20105028152466,SHAKE
1.42560005187988,-0.91533750295639,-1.15747499465942,5.57400035858154,3.41895008087158,1.29000008106232,-0.87119996547699,-1.92912495136261,-4.78871250152588,-0.02337500080466,-0.54092502593994,-1.29923748970032,-1.300950050354,-5.86995029449463,-9.23505020141602,2.56305003166199,3.6979501247406,2.40705013275146,-16.0198497772217,-23.016674041748,-22.2952117919922,-10.6750507354736,-14.9959506988525,-21.951000213623,-20.6537380218506,-12.7056875228882,-3.25022506713867,9.82588768005371,11.5836877822876,3.48768758773804,-13.0720510482788,-11.203950881958,-6.06405019760132,-1.66800010204315,4.20105028152466,7.27395057678223,1.73346245288849,1.51057493686676,2.61057496070862,2.07000017166138,11.6599502563477,25.19700050354,14.0127620697021,21.4274501800537,22.1951122283936,-15.0845746994019,-12.7451496124268,-12.430549621582,33.808952331543,36.1900520324707,30.9349517822266,10.2199506759644,9.92505073547363,9.97800064086914,5.99224996566772,-1.21426248550415,-1.87714993953705,5.25105047225952,1.80195009708405,-0.70500004291534,0.31803750991821,-0.92675000429153,-3.73766255378723,-0.35475000739098,-0.72930002212524,-1.62566244602203,-2.99205017089844,-7.44405031204224,-12.3780002593994,3.10605025291443,2.79495024681091,0.24405001103878,-21.8083248138428,-24.0656623840332,-23.2879619598389,-17.4940509796143,-22.2000007629395,-18.3970508575439,-5.2439751625061,-1.16943752765656,-0.35213750600815,3.18339991569519,1.02520000934601,0.46351251006126,-8.13105010986328,-2.94105005264282,4.24305009841919,1.43205010890961,-0.0679500028491,3.25005006790161,SHAKE
5.99224996566772,-1.21426248550415,-1.87714993953705,5.25105047225952,1.80195009708405,-0.70500004291534,0.31803750991821,-0.92675000429153,-3.73766255378723,-0.35475000739098,-0.72930002212524,-1.62566244602203,-2.99205017089844,-7.44405031204224,-12.3780002593994,3.10605025291443,2.79495024681091,0.24405001103878,-21.8083248138428,-24.0656623840332,-23.2879619598389,-17.4940509796143,-22.2000007629395,-18.3970508575439,-5.2439751625061,-1.16943752765656,-0.35213750600815,3.18339991569519,1.02520000934601,0.46351251006126,-8.13105010986328,-2.94105005264282,4.24305009841919,1.43205010890961,-0.0679500028491,3.25005006790161,0.18741250038147,-0.40301248431206,15.2219371795654,16.4380512237549,20.9670009613037,18.8380508422852,23.7403373718262,23.3476371765137,16.6868629455566,-13.482837677002,-12.4390745162964,-3.50473737716675,33.4860000610352,29.7139511108398,23.2710018157959,8.65605068206787,8.81400012969971,6.4830002784729,-2.07487487792969,-2.14912509918213,-2.46496248245239,3.76395010948181,0.93705004453659,-2.34795022010803,-1.72081243991852,-4.02297496795654,-8.24752521514893,-0.82005000114441,-1.47578752040863,-2.72896242141724,-2.49105000495911,-5.82705020904541,-9.27405071258545,3.89400029182434,2.69400024414063,-0.52605003118515,-21.7068500518799,-23.2901630401611,-20.917875289917,-11.3020505905151,-18.6460514068604,-21.7519512176514,-13.8177871704102,-7.45923757553101,-2.26201248168945,11.9031000137329,6.72773742675781,2.30051255226135,-11.9269504547119,-11.1919507980347,-7.53705024719238,-1.5700501203537,2.08605003356934,5.35995006561279,SHAKE
-2.14912509918213,-2.46496248245239,-3.15383744239807,0.93705004453659,-2.34795022010803,-4.34505033493042,-4.02297496795654,-8.24752521514893,-14.2223119735718,-1.47578752040863,-2.72896242141724,2.81778740882874,-5.82705020904541,-9.27405071258545,-12.9070510864258,2.69400024414063,-0.52605003118515,-5.35395002365112,-23.2901630401611,-20.917875289917,-13.5807371139526,-18.6460514068604,-21.7519512176514,-15.9250507354736,-7.45923757553101,-2.26201248168945,-0.16087499260902,6.72773742675781,2.30051255226135,0.09212499856949,-11.1919507980347,-7.53705024719238,-0.2490000128746,2.08605003356934,5.35995006561279,7.65195035934448,-0.12306249886751,-0.8124874830246,2.84432506561279,9.85905075073242,20.9719505310059,25.0620002746582,25.5925998687744,26.8259754180908,24.7293739318848,-16.6439628601074,-16.1653251647949,-12.0019626617432,33.3810005187988,31.6230010986328,26.4090003967285,5.58495044708252,7.55595016479492,7.81500053405762,10.1114749908447,-1.92142498493195,-1.902174949646,8.68994998931885,6.52305030822754,5.30595016479492,1.38214993476868,0.33673748373985,-0.64735001325607,-0.38060000538826,-0.59812498092651,-0.81317502260208,3.46695017814636,-1.13595008850098,-5.55195045471191,0.83805006742477,1.10205006599426,1.99005007743835,-2.06112504005432,-15.2252378463745,-21.4710369110107,-9.21900081634522,-14.7750005722046,-20.4420013427734,-17.8719749450684,-8.8204870223999,-1.08116245269775,7.9717001914978,9.27478790283203,1.61452496051788,-11.9370002746582,-10.4110507965088,-7.23600053787232,-2.85600018501282,0.61800003051758,2.43795013427734,SHAKE
10.1114749908447,-1.92142498493195,-1.902174949646,8.68994998931885,6.52305030822754,5.30595016479492,1.38214993476868,0.33673748373985,-0.64735001325607,-0.38060000538826,-0.59812498092651,-0.81317502260208,3.46695017814636,-1.13595008850098,-5.55195045471191,0.83805006742477,1.10205006599426,1.99005007743835,-2.06112504005432,-15.2252378463745,-21.4710369110107,-9.21900081634522,-14.7750005722046,-20.4420013427734,-17.8719749450684,-8.8204870223999,-1.08116245269775,7.9717001914978,9.27478790283203,1.61452496051788,-11.9370002746582,-10.4110507965088,-7.23600053787232,-2.85600018501282,0.61800003051758,2.43795013427734,0.12099999934435,-0.73576247692108,6.30341243743896,3.85005021095276,8.71905040740967,22.4610004425049,24.9424991607666,26.9175491333008,25.0296745300293,-15.3744249343872,-15.0705499649048,-11.6403369903564,34.0080032348633,32.1660003662109,26.0040016174316,6.62700033187866,3.34800004959106,0.46905001997948,9.16643714904785,-0.95617496967316,-0.69464999437332,11.0920505523682,5.19600009918213,1.34205007553101,1.32398748397827,-1.31669998168945,-10.3505878448486,-0.9316999912262,-0.59125000238419,-0.93761247396469,-4.70595026016235,-9.21195030212402,-13.9030504226685,5.72205018997192,4.26600027084351,-0.84195005893707,-19.0166625976563,-18.8868618011475,-17.9987506866455,-21.2610015869141,-23.7660007476807,-17.1340503692627,-14.6702871322632,-2.46963739395142,-1.20340001583099,12.3997497558594,2.33268737792969,0.46750000119209,-10.771050453186,-0.807000041008,8.85795021057129,-0.58799999952316,3.88695025444031,8.20800018310547,SHAKE
16.9338130950928,9.16643714904785,-0.95617496967316,16.5289516448975,11.0920505523682,5.19600009918213,2.83208751678467,1.32398748397827,-1.31669998168945,-0.89072501659393,-0.9316999912262,-0.59125000238419,0.05400000140071,-4.70595026016235,-9.21195030212402,4.93905019760132,5.72205018997192,4.26600027084351,-4.94518756866455,-19.0166625976563,-18.8868618011475,-13.8559503555298,-21.2610015869141,-23.7660007476807,-22.4336757659912,-14.6702871322632,-2.46963739395142,11.0830497741699,12.3997497558594,2.33268737792969,-12.2050504684448,-10.771050453186,-0.807000041008,-2.59500002861023,-0.58799999952316,3.88695025444031,-0.84603750705719,-2.05851244926453,3.04411244392395,11.2549505233765,16.0570507049561,17.6089515686035,18.555212020874,19.2198867797852,17.4547996520996,-12.9339370727539,-12.867112159729,-10.1897125244141,31.2010517120361,30.715051651001,25.9849510192871,10.1929502487183,10.3230009078979,7.06500053405762,-0.5908374786377,-2.57468748092651,-1.41019999980927,9.60300064086914,7.05195045471191,2.7240002155304,-0.23828749358654,-1.63088750839233,-4.63017511367798,-0.595787525177,-0.87518751621246,-1.25771248340607,-0.66105002164841,-5.02500009536743,-10.1340007781982,3.81105017662048,3.15900015830994,0.74505001306534,-15.4530744552612,-22.0532131195068,-21.182149887085,-14.4900007247925,-21.3540000915527,-21.2590503692627,-18.3244876861572,-10.3648872375488,-3.13266253471375,11.3498001098633,12.8657369613647,3.76145005226135,-9.4150505065918,-8.41394996643066,-5.06805038452148,-1.21305000782013,-0.18105000257492,1.16400003433228,SHAKE
-2.57468748092651,-1.41019999980927,-1.17947494983673,7.05195045471191,2.7240002155304,-1.13100004196167,-1.63088750839233,-4.63017511367798,-12.7549123764038,-0.87518751621246,-1.25771248340607,-2.22626256942749,-5.02500009536743,-10.1340007781982,-12.6580505371094,3.15900015830994,0.74505001306534,-2.20995020866394,-22.0532131195068,-21.182149887085,-19.0401744842529,-21.3540000915527,-21.2590503692627,-14.4810009002686,-10.3648872375488,-3.13266253471375,-1.14963746070862,12.8657369613647,3.76145005226135,1.34846246242523,-8.41394996643066,-5.06805038452148,1.6030501127243,-0.18105000257492,1.16400003433228,3.09195017814636,0.28998750448227,0.95273751020432,15.2572746276855,7.50495052337646,17.0509510040283,20.0449504852295,18.8938751220703,19.4724750518799,17.29736328125,-13.8766374588013,-13.531512260437,-10.1968622207642,30.1740016937256,28.7629508972168,24.105001449585,7.95195055007935,9.58005046844482,9.79305076599121,2.61937499046326,-1.34351253509521,-1.37293744087219,8.09895038604736,5.43300008773804,4.04400014877319,0.18424999713898,-0.59427499771118,-0.84906250238419,0.10587500035763,-0.28778749704361,-0.45856249332428,4.27605009078979,0.49200001358986,-3.22605013847351,2.33505010604858,0.72600001096725,-0.15000000596046,-7.13611268997192,-23.1225490570068,-23.9698257446289,-11.0370006561279,-16.5400505065918,-18.7890014648438,-9.65236282348633,-4.01458740234375,-0.94572502374649,10.1132621765137,3.72157502174377,0.92895001173019,-8.64405059814453,-7.75305032730103,-4.55295038223267,-2.29095005989075,-1.37805008888245,2.44500017166138,SHAKE
2.61937499046326,-1.34351253509521,-1.37293744087219,8.09895038604736,5.43300008773804,4.04400014877319,0.18424999713898,-0.59427499771118,-0.84906250238419,0.10587500035763,-0.28778749704361,-0.45856249332428,4.27605009078979,0.49200001358986,-3.22605013847351,2.33505010604858,0.72600001096725,-0.15000000596046,-7.13611268997192,-23.1225490570068,-23.9698257446289,-11.0370006561279,-16.5400505065918,-18.7890014648438,-9.65236282348633,-4.01458740234375,-0.94572502374649,10.1132621765137,3.72157502174377,0.92895001173019,-8.64405059814453,-7.75305032730103,-4.55295038223267,-2.29095005989075,-1.37805008888245,2.44500017166138,-0.28104999661446,-0.8204625248909,-1.18621253967285,7.19595050811768,16.6319999694824,20.2339515686035,20.3296489715576,23.862024307251,23.9717502593994,-16.3968753814697,-16.3706130981445,-14.4339246749878,29.6590518951416,29.9389514923096,25.7839508056641,10.7779502868652,7.73805046081543,5.7940502166748,17.8036365509033,-0.04949999973178,-1.1782374382019,11.7510004043579,7.40595054626465,1.8550500869751,2.16438746452332,1.6990875005722,0.39971250295639,-0.10119999945164,-0.15468749403954,-0.51301246881485,-0.33600002527237,-4.12695026397705,-7.27200031280518,0.07695000618696,-0.80595004558563,-1.31595003604889,-7.5535626411438,-25.5173873901367,-27.0792503356934,-13.7860507965088,-20.2290000915527,-22.6860008239746,-6.72265005111694,-5.10303735733032,-0.46186250448227,4.75873756408691,5.63859987258911,-0.52621251344681,-8.07900047302246,-8.06400012969971,-0.60405004024506,-1.04100000858307,-1.15605008602142,5.57805013656616,SHAKE
17.6162242889404,17.8036365509033,-0.04949999973178,16.9770011901855,11.7510004043579,7.40595054626465,3.01743745803833,2.16438746452332,1.6990875005722,-0.01608750037849,-0.10119999945164,-0.15468749403954,3.89100027084351,-0.33600002527237,-4.12695026397705,1.47105002403259,0.07695000618696,-0.80595004558563,-1.70582497119904,-7.5535626411438,-25.5173873901367,-8.61000061035156,-13.7860507965088,-20.2290000915527,-7.08454990386963,-6.72265005111694,-5.10303735733032,4.33908748626709,4.75873756408691,5.63859987258911,-7.5400505065918,-8.07900047302246,-8.06400012969971,-1.3090500831604,-1.04100000858307,-1.15605008602142,-0.56430000066757,-0.82293748855591,-1.23420000076294,5.14995002746582,12.1819505691528,16.9960498809814,12.8369998931885,22.2249507904053,20.0561618804932,-17.0944118499756,-15.3660373687744,-10.3496246337891,26.3179512023926,27.9199504852295,22.5169506072998,12.5740509033203,8.77995014190674,4.59405040740967,5.24342489242554,-1.06040000915527,-0.66027498245239,11.1739501953125,7.45695018768311,2.2020001411438,2.11227488517761,1.03592503070831,-2.03486251831055,-0.73191249370575,-0.9229000210762,-0.48949998617172,-2.86500024795532,-6.91005039215088,-11.0100002288818,1.75995004177094,1.99995005130768,0.2080500125885,-20.9319000244141,-21.3034248352051,-20.4549121856689,-20.1640510559082,-24.9349517822266,-19.3570518493652,-12.6233253479004,-3.17088747024536,-1.18318748474121,8.36660003662109,3.37150001525879,0.81991249322891,-9.67605018615723,-7.77195024490356,-2.53200006484985,-0.37995001673698,-0.15705001354218,2.3970000743866,SHAKE
5.24342489242554,-1.06040000915527,-0.66027498245239,11.1739501953125,7.45695018768311,2.2020001411438,2.11227488517761,1.03592503070831,-2.03486251831055,-0.73191249370575,-0.9229000210762,-0.48949998617172,-2.86500024795532,-6.91005039215088,-11.0100002288818,1.75995004177094,1.99995005130768,0.2080500125885,-20.9319000244141,-21.3034248352051,-20.4549121856689,-20.1640510559082,-24.9349517822266,-19.3570518493652,-12.6233253479004,-3.17088747024536,-1.18318748474121,8.36660003662109,3.37150001525879,0.81991249322891,-9.67605018615723,-7.77195024490356,-2.53200006484985,-0.37995001673698,-0.15705001354218,2.3970000743866,-0.18012499809265,-0.60981249809265,0.58396250009537,7.78005027770996,18.2250003814697,23.8549518585205,18.0874366760254,19.7755241394043,12.2795753479004,-16.0542240142822,-16.5863494873047,-1.00361251831055,30.3679523468018,29.6539516448975,18.0450000762939,6.88305044174194,4.38795042037964,-0.24795001745224,-1.60971248149872,-1.25193750858307,-1.0729124546051,7.62000036239624,4.81500005722046,1.54800009727478,0.03808749839664,-4.0818247795105,-12.7532625198364,-0.52332502603531,-0.07658749818802,3.97333741188049,-7.63800048828125,-10.5120000839233,-9.81495094299316,2.00205016136169,0.31905001401901,-0.46605002880096,-24.1139240264893,-23.4013996124268,-21.0600490570068,-22.3390502929688,-17.1340503692627,-9.85395050048828,-1.45103752613068,5.83632516860962,16.0348377227783,1.04995000362396,-13.252387046814,-12.2296628952026,6.24000024795532,23.6710510253906,29.5369510650635,5.68800020217896,10.3270502090454,11.0959501266479,SHAKE
-1.55746245384216,-1.25014996528625,-1.03620004653931,8.61795043945313,5.90700006484985,3.58605027198792,-0.1530375033617,-4.87726259231567,-13.8056869506836,0.16898749768734,0.35983750224113,-0.83256250619888,-0.77100002765656,-9.97305011749268,-12.1650009155273,4.22504997253418,0.69900006055832,-2.54700016975403,-21.7954006195068,-20.6171627044678,-19.0902252197266,-23.4019508361816,-23.6580009460449,-15.1990509033203,-10.5209503173828,-3.46004986763,-1.26829993724823,15.6891622543335,4.83230018615723,1.63611245155334,-9.48705005645752,-6.15105009078979,0.25304999947548,-0.73695003986359,0.6400500535965,2.94600009918213,-0.7177500128746,-2.3897500038147,-8.40152454376221,11.2960500717163,19.1659507751465,22.17405128479,10.3833122253418,10.8642873764038,9.35330009460449,-15.1086378097534,-15.1735372543335,-11.8852252960205,29.4979515075684,28.8850517272949,24.8299503326416,6.07605028152466,5.48700046539307,5.82195043563843,-2.51789999008179,-1.58028745651245,-1.14839994907379,8.29500007629395,5.38995027542114,2.57595014572144,1.20587503910065,0.29906249046326,-1.68451249599457,-0.21477499604225,-0.51686251163483,-0.76037502288818,-1.47300004959106,-4.23900032043457,-8.24400043487549,1.2720000743866,2.44800019264221,2.35005021095276,-17.7802619934082,-26.4279117584229,-26.057487487793,-13.4170503616333,-19.7110500335693,-22.2259502410889,-11.5245628356934,-6.3446626663208,-2.10608744621277,6.14913749694824,7.5700626373291,2.01850008964539,-9.02700042724609,-8.43105030059814,-5.62905025482178,-2.30505013465881,-1.03605008125305,2.05995011329651,SHAKE
-2.51789999008179,-1.58028745651245,-1.14839994907379,8.29500007629395,5.38995027542114,2.57595014572144,1.20587503910065,0.29906249046326,-1.68451249599457,-0.21477499604225,-0.51686251163483,-0.76037502288818,-1.47300004959106,-4.23900032043457,-8.24400043487549,1.2720000743866,2.44800019264221,2.35005021095276,-17.7802619934082,-26.4279117584229,-26.057487487793,-13.4170503616333,-19.7110500335693,-22.2259502410889,-11.5245628356934,-6.3446626663208,-2.10608744621277,6.14913749694824,7.5700626373291,2.01850008964539,-9.02700042724609,-8.43105030059814,-5.62905025482178,-2.30505013465881,-1.03605008125305,2.05995011329651,0.06558749824762,-0.32903748750687,19.8796119689941,7.92900037765503,13.5930004119873,23.5729503631592,19.2384490966797,19.3421249389648,15.7092370986938,-13.5276622772217,-12.3433752059937,-6.50402498245239,30.6550521850586,26.8090515136719,20.6680507659912,8.08995056152344,5.57295036315918,2.16495013237,1.8688999414444,-0.98106247186661,-1.0118625164032,8.42205047607422,5.89005041122437,3.45705008506775,1.62236249446869,0.60816252231598,-9.26117515563965,-0.21862499415874,-0.25616249442101,-0.43161249160767,-0.14205001294613,-4.24200010299683,-11.3430004119873,2.24400019645691,1.94700014591217,-1.96800005435944,-18.767650604248,-17.6335506439209,-16.4923000335693,-23.3230514526367,-25.2820510864258,-16.9740009307861,-6.74836254119873,-1.79822504520416,-0.73356246948242,10.380012512207,2.94827508926392,0.84589999914169,-9.22305011749268,-6.46905040740967,-0.30000001192093,-0.47595003247261,0.60600000619888,2.71095013618469,SHAKE
1.8688999414444,-0.98106247186661,-1.0118625164032,8.42205047607422,5.89005041122437,3.45705008506775,1.62236249446869,0.60816252231598,-9.26117515563965,-0.21862499415874,-0.25616249442101,-0.43161249160767,-0.14205001294613,-4.24200010299683,-11.3430004119873,2.24400019645691,1.94700014591217,-1.96800005435944,-18.767650604248,-17.6335506439209,-16.4923000335693,-23.3230514526367,-25.2820510864258,-16.9740009307861,-6.74836254119873,-1.79822504520416,-0.73356246948242,10.380012512207,2.94827508926392,0.84589999914169,-9.22305011749268,-6.46905040740967,-0.30000001192093,-0.47595003247261,0.60600000619888,2.71095013618469,-0.64074999094009,-1.60022497177124,-1.46712493896484,9.73905086517334,16.8330001831055,21.4939517974854,11.0819501876831,11.6553249359131,10.7329750061035,-14.6390752792358,-14.7644748687744,-12.0697498321533,29.9700012207031,29.248950958252,24.2320518493652,5.79795026779175,3.88500022888184,1.70295011997223,-3.96495008468628,-1.55677497386932,-1.18414998054504,11.2219505310059,4.47300004959106,1.98405003547668,0.10889999568462,-1.84813749790192,-6.17072486877441,-0.13255000114441,0.03066249936819,0.35571250319481,-0.81900006532669,-4.75005006790161,-8.60595035552979,4.61295032501221,3.41100025177002,0.63000005483627,-25.1289501190186,-24.4854507446289,-22.0118255615234,-22.1110515594482,-20.0350513458252,-12.562050819397,-8.00195026397705,-3.21832489967346,-1.22526252269745,13.0172624588013,4.35764980316162,1.68382501602173,-6.41205024719238,-2.14095020294189,5.10300016403198,0.18705001473427,1.32000005245209,2.99895024299622,SHAKE
-3.78716254234314,-3.96495008468628,-1.55677497386932,16.9549503326416,11.2219505310059,4.47300004959106,1.25551247596741,0.10889999568462,-1.84813749790192,-0.10903749614954,-0.13255000114441,0.03066249936819,3.06000018119812,-0.81900006532669,-4.75005006790161,4.74195003509521,4.61295032501221,3.41100025177002,-3.45015001296997,-25.1289501190186,-24.4854507446289,-9.52305030822754,-22.1110515594482,-20.0350513458252,-14.8312997817993,-8.00195026397705,-3.21832489967346,11.9202871322632,13.0172624588013,4.35764980316162,-8.13899993896484,-6.41205024719238,-2.14095020294189,-1.33500003814697,0.18705001473427,1.32000005245209,0.08607500046492,0.85140001773834,6.30038738250732,4.53194999694824,10.8100509643555,17.0629501342773,10.1591873168945,11.8239002227783,7.78126239776611,-9.1881628036499,-8.43095016479492,-2.65031242370605,28.0540504455566,26.0470504760742,20.7660007476807,7.91100025177002,7.43400049209595,6.93105030059814,0.97679996490479,-0.59441250562668,-0.93898749351501,7.08795022964478,4.27095031738281,2.40300011634827,-0.53542500734329,-1.60586249828339,-3.35060000419617,0.37152498960495,0.030387500301,-0.4147000014782,0.34395000338554,-3.91395020484924,-7.9830002784729,2.30595016479492,0.46695002913475,-1.2679500579834,-11.8010749816895,-25.1266117095947,-25.6922874450684,-15.0790510177612,-22.525951385498,-22.5949516296387,-11.2117500305176,-6.79579973220825,-2.18295001983643,9.68178749084473,10.9359245300293,2.06552505493164,-10.0500001907349,-9.03404998779297,-5.66400003433228,0.99195003509521,-0.45405003428459,-1.81695008277893,SHAKE
-0.59441250562668,-0.93898749351501,-1.1779625415802,4.27095031738281,2.40300011634827,0.37200000882149,-1.60586249828339,-3.35060000419617,-7.66480016708374,0.030387500301,-0.4147000014782,-1.72864997386932,-3.91395020484924,-7.9830002784729,-10.885950088501,0.46695002913475,-1.2679500579834,-3.40695023536682,-25.1266117095947,-25.6922874450684,-24.1597118377686,-22.525951385498,-22.5949516296387,-15.1249504089355,-6.79579973220825,-2.18295001983643,-0.61599999666214,10.9359245300293,2.06552505493164,0.14506250619888,-9.03404998779297,-5.66400003433228,0.33405002951622,-0.45405003428459,-1.81695008277893,0.99405002593994,-1.00196254253387,-2.74834990501404,-11.7871875762939,14.9029502868652,21.235050201416,24.3919506072998,8.59402465820313,8.7198371887207,7.01786231994629,-15.4138870239258,-14.9875001907349,-11.3183126449585,32.7630004882813,29.5009517669678,22.6800003051758,6.25605010986328,5.35095024108887,3.7390501499176,-3.89922499656677,-2.3205873966217,-1.39314997196198,9.50895023345947,6.18495035171509,0.78405004739761,-0.6767749786377,-2.75852489471436,-12.0514621734619,-0.20212499797344,0.03739999979734,-1.19707500934601,-6.838050365448,-11.1919507980347,-11.8390502929688,1.7410501241684,1.05105006694794,1.14195001125336,-19.5978755950928,-19.013500213623,-7.19482517242432,-24.72705078125,-12.1260004043579,-5.08995008468628,-2.37490010261536,-1.72851252555847,-2.20838737487793,2.97261238098145,1.82847499847412,1.50232493877411,-4.47405004501343,2.88495016098022,13.7989501953125,-4.12800025939941,-1.78095006942749,4.31805038452148,SHAKE
-12.7945127487183,-3.89922499656677,-2.3205873966217,14.5909509658813,9.50895023345947,6.18495035171509,0.32229998707771,-0.6767749786377,-2.75852489471436,-0.00178749999031,-0.20212499797344,0.03739999979734,-1.15200006961823,-6.838050365448,-11.1919507980347,2.64705014228821,1.7410501241684,1.05105006694794,-12.3549251556396,-19.5978755950928,-19.013500213623,-20.0400009155273,-24.72705078125,-12.1260004043579,-8.38722515106201,-2.37490010261536,-1.72851252555847,13.0633249282837,2.97261238098145,1.82847499847412,-8.39505004882813,-4.47405004501343,2.88495016098022,-2.38005018234253,-4.12800025939941,-1.78095006942749,-1.48816251754761,-9.93698787689209,-22.5413379669189,15.9090003967285,20.6170501708984,20.8660507202148,-8.39148712158203,-7.67635011672974,-0.83943748474121,2.35661244392395,2.40198755264282,0.8761500120163,32.0230522155762,28.2499504089355,15.4510507583618,9.50595092773438,7.58505058288574,-2.08995008468628,-2.15201258659363,-1.20834994316101,-0.37468749284744,8.44095039367676,5.63895034790039,2.08200001716614,1.78612494468689,1.89364993572235,3.62931251525879,-1.13960003852844,-1.57602500915527,-0.78278750181198,-6.47895050048828,-11.1900005340576,-12.2700004577637,1.73595011234283,0.96300005912781,1.75605010986328,17.2940616607666,18.0725879669189,11.183837890625,-27.7159519195557,-21.7830009460449,-3.79905009269714,-0.61462497711182,-1.50438749790192,-2.34684991836548,1.2694000005722,1.36276245117188,1.63460004329681,-4.05299997329712,2.61900019645691,11.742000579834,-3.86505007743835,-2.81805014610291,3.65505027770996,SHAKE
-4.06628751754761,-2.15201258659363,-1.20834994316101,11.2030506134033,8.44095039367676,5.63895034790039,1.65110003948212,1.78612494468689,1.89364993572235,-0.51617497205734,-1.13960003852844,-1.57602500915527,-1.61700010299683,-6.47895050048828,-11.1900005340576,1.11600005626678,1.73595011234283,0.96300005912781,8.17272472381592,17.2940616607666,18.0725879669189,-20.5399513244629,-27.7159519195557,-21.7830009460449,1.49751245975494,-0.61462497711182,-1.50438749790192,0.93513751029968,1.2694000005722,1.36276245117188,-8.26995086669922,-4.05299997329712,2.61900019645691,-2.68395018577576,-3.86505007743835,-2.81805014610291,-0.87835001945496,-5.17329978942871,-16.8823871612549,11.0920505523682,18.2560501098633,19.3980007171631,-8.85060024261475,-8.28024959564209,-5.30158758163452,3.25819993019104,2.97178745269775,3.55822491645813,32.0659523010254,28.9429512023926,22.651050567627,15.1440010070801,12.5190010070801,8.44995021820068,-4.19815015792847,-2.1261625289917,-1.47056245803833,8.49105072021484,5.70105028152466,2.7529501914978,-0.88687497377396,-1.84305000305176,-4.61051225662231,0.14011250436306,-0.31872498989105,-0.57695001363754,-0.94605004787445,-5.94000005722046,-10.4640007019043,4.86705017089844,2.77800011634827,-1.06500005722046,-15.106575012207,-22.2745876312256,-21.4504127502441,-16.0710010528564,-22.9540519714355,-22.1620502471924,-17.4664878845215,-2.93617486953735,-1.58441245555878,12.955662727356,3.96563744544983,1.9050624370575,-11.0800504684448,-4.89105033874512,2.53995013237,-0.25800001621246,-4.46295022964478,-2.29605007171631,SHAKE
-4.19815015792847,-2.1261625289917,-1.47056245803833,8.49105072021484,5.70105028152466,2.7529501914978,-0.88687497377396,-1.84305000305176,-4.61051225662231,0.14011250436306,-0.31872498989105,-0.57695001363754,-0.94605004787445,-5.94000005722046,-10.4640007019043,4.86705017089844,2.77800011634827,-1.06500005722046,-15.106575012207,-22.2745876312256,-21.4504127502441,-16.0710010528564,-22.9540519714355,-22.1620502471924,-17.4664878845215,-2.93617486953735,-1.58441245555878,12.955662727356,3.96563744544983,1.9050624370575,-11.0800504684448,-4.89105033874512,2.53995013237,-0.25800001621246,-4.46295022964478,-2.29605007171631,-1.96886253356934,-12.7272748947144,-27.6306247711182,19.1989517211914,21.1080017089844,22.6480503082275,-8.82461261749268,-8.44937515258789,-6.23878765106201,1.67859995365143,2.0934374332428,4.72807502746582,32.2189521789551,28.1910018920898,21.4150505065918,10.0729503631592,5.14500045776367,0.72300004959106,-4.82776260375977,-2.71755003929138,-1.60434997081757,10.7980508804321,7.69605016708374,5.0779504776001,1.04032504558563,0.68241250514984,-0.51094996929169,-0.33701249957085,-0.79048746824265,-0.39242500066757,-1.87095010280609,-7.37505054473877,-11.9830503463745,3.25695013999939,2.51205015182495,0.99600005149841,12.1904745101929,12.9270620346069,12.1412496566772,-26.6910018920898,-20.9160003662109,-11.1400508880615,-10.6559753417969,-1.86669993400574,-1.49173748493195,11.0257120132446,2.18020009994507,1.03949999809265,-8.41200065612793,-3.03705024719238,4.71900033950806,-0.71295005083084,-1.6470000743866,-0.06105000153184,SHAKE
-19.5006618499756,-4.82776260375977,-2.71755003929138,14.2710008621216,10.7980508804321,7.69605016708374,0.93486249446869,1.04032504558563,0.68241250514984,0.29315000772476,-0.33701249957085,-0.79048746824265,3.5269501209259,-1.87095010280609,-7.37505054473877,2.03805017471313,3.25695013999939,2.51205015182495,1.6883624792099,12.1904745101929,12.9270620346069,-11.3500509262085,-26.6910018920898,-20.9160003662109,-10.2132253646851,-10.6559753417969,-1.86669993400574,13.2415246963501,11.0257120132446,2.18020009994507,-10.8880500793457,-8.41200065612793,-3.03705024719238,-0.29595002532005,-0.71295005083084,-1.6470000743866,-0.16183750331402,-1.66746246814728,-15.232250213623,9.52395057678223,15.6330003738403,18.8520011901855,-4.72051239013672,-4.71941232681274,-7.30496263504028,-3.95615005493164,-3.62491250038147,-0.16664999723434,30.0990009307861,28.7650508880615,22.2150001525879,9.37395000457764,8.11695003509521,3.11595010757446,-4.12252521514893,-2.12437510490417,-1.15706253051758,10.3519506454468,6.94395017623901,3.57405018806458,-1.73428750038147,-5.21523761749268,-14.6723499298096,-0.23856249451637,0.09487500041723,-0.66371250152588,-5.57100009918213,-9.80100059509277,-11.6110506057739,5.48700046539307,2.86695003509521,-0.70095002651215,-21.8765239715576,-21.6550121307373,-20.2647495269775,-20.8180503845215,-19.8070507049561,-15.03600025177,-10.3724498748779,-4.84013748168945,-2.88584995269775,14.9252128601074,6.05962514877319,2.97742509841919,-9.31695079803467,-7.09905052185059,-0.57705003023148,-2.01600003242493,-0.22395001351833,2.47605013847351,SHAKE
-17.6171875,-4.12252521514893,-2.12437510490417,15.1110010147095,10.3519506454468,6.94395017623901,0.2088624984026,-1.73428750038147,-5.21523761749268,0.49059998989105,-0.23856249451637,0.09487500041723,3.24600005149841,-5.57100009918213,-9.80100059509277,5.66700029373169,5.48700046539307,2.86695003509521,-15.4442749023438,-21.8765239715576,-21.6550121307373,-16.78005027771,-20.8180503845215,-19.8070507049561,-19.3219127655029,-10.3724498748779,-4.84013748168945,13.2416620254517,14.9252128601074,6.05962514877319,-10.2319507598877,-9.31695079803467,-7.09905052185059,-2.71305012702942,-2.01600003242493,-0.22395001351833,-0.59207499027252,-4.53144979476929,-19.6854629516602,5.01405000686646,19.7430000305176,23.3380508422852,5.90961265563965,6.72567510604858,5.80071258544922,-11.0981750488281,-11.0202121734619,-8.56569957733154,32.3200531005859,29.848051071167,23.7550506591797,6.50700044631958,2.79705023765564,-1.13895010948181,-5.16931247711182,-2.20192503929138,-1.31958746910095,11.8300504684448,8.70000076293945,5.94105005264282,2.24661254882813,0.34457498788834,-3.03228759765625,-0.41373750567436,-0.79763752222061,0.88838750123978,0.91800004243851,-8.32800006866455,-11.7930002212524,2.09100008010864,2.33805012702942,0.29895001649857,-9.08957481384277,-8.07716274261475,-7.60663747787476,-20.7820510864258,-23.3689517974854,-17.8579502105713,-14.2991752624512,-3.34028744697571,-1.49434995651245,11.0291500091553,3.92562508583069,1.37829995155334,-9.51300048828125,-6.69705009460449,-0.63000005483627,-0.9709500670433,0.0409500002861,2.13900017738342,SHAKE
-5.16931247711182,-2.20192503929138,-1.31958746910095,11.8300504684448,8.70000076293945,5.94105005264282,2.24661254882813,0.34457498788834,-3.03228759765625,-0.41373750567436,-0.79763752222061,0.88838750123978,0.91800004243851,-8.32800006866455,-11.7930002212524,2.09100008010864,2.33805012702942,0.29895001649857,-9.08957481384277,-8.07716274261475,-7.60663747787476,-20.7820510864258,-23.3689517974854,-17.8579502105713,-14.2991752624512,-3.34028744697571,-1.49434995651245,11.0291500091553,3.92562508583069,1.37829995155334,-9.51300048828125,-6.69705009460449,-0.63000005483627,-0.9709500670433,0.0409500002861,2.13900017738342,-0.10147500038147,-0.85387498140335,6.64372491836548,10.1770505905151,16.9170017242432,21.094051361084,15.7920122146606,16.7730751037598,16.2050628662109,-12.0766248703003,-12.249737739563,-10.409574508667,31.5270023345947,31.3279514312744,26.2819519042969,8.97900009155273,6.57195043563843,4.48095035552979,-1.78323745727539,-1.26266252994537,-0.83462500572205,8.49405002593994,6.13500022888184,3.6820502281189,0.75281250476837,-0.55494999885559,-3.91269993782043,-0.16857500374317,-0.15619999170303,0.69478750228882,-2.44995021820068,-7.60695028305054,-11.6640005111694,3.07500004768372,2.71095013618469,0.90495002269745,-15.6476373672485,-16.4711246490479,-16.0016994476318,-20.0490016937256,-22.9660511016846,-18.6259517669678,-7.08839988708496,-2.16658759117126,-1.55567502975464,9.26241207122803,2.7335000038147,1.33801245689392,-7.80795049667358,-4.06905031204224,3.25800013542175,-1.24695003032684,-0.46605002880096,2.29005002975464,SHAKE
-1.78323745727539,-1.26266252994537,-0.83462500572205,8.49405002593994,6.13500022888184,3.6820502281189,0.75281250476837,-0.55494999885559,-3.91269993782043,-0.16857500374317,-0.15619999170303,0.69478750228882,-2.44995021820068,-7.60695028305054,-11.6640005111694,3.07500004768372,2.71095013618469,0.90495002269745,-15.6476373672485,-16.4711246490479,-16.0016994476318,-20.0490016937256,-22.9660511016846,-18.6259517669678,-7.08839988708496,-2.16658759117126,-1.55567502975464,9.26241207122803,2.7335000038147,1.33801245689392,-7.80795049667358,-4.06905031204224,3.25800013542175,-1.24695003032684,-0.46605002880096,2.29005002975464,-1.73731243610382,-6.86468744277954,-13.7070999145508,12.2659502029419,17.590051651001,21.3690013885498,5.39893770217896,6.03446245193481,1.45901250839233,-8.7759370803833,-8.22277450561523,-2.41298747062683,31.2870006561279,29.1049518585205,23.7810020446777,10.3200006484985,7.15395021438599,2.71095013618469,-1.87288749217987,-1.16682493686676,-0.73699998855591,8.26395034790039,6.03900051116943,2.98305010795593,1.47564995288849,-3.23592495918274,-13.006537437439,-0.776462495327,-0.09019999951124,0.93389999866486,-1.89705014228821,-10.7280006408691,-12.3030004501343,3.71700024604797,2.55105018615723,0.5100000500679,-18.4274749755859,-17.9363250732422,-16.9276256561279,-18.8970012664795,-17.1940517425537,-11.836950302124,-8.11772537231445,-2.62336254119873,-1.62854993343353,10.1039123535156,3.42333745956421,2.42783737182617,-5.75805044174194,-2.40495014190674,4.46100044250488,-1.31100010871887,-2.61195015907288,0.36900001764297,SHAKE
-9.95046234130859,-1.87288749217987,-1.16682493686676,14.7499504089355,8.26395034790039,6.03900051116943,1.96432495117188,1.47564995288849,-3.23592495918274,-0.31845000386238,-0.776462495327,-0.09019999951124,2.96895003318787,-1.89705014228821,-10.7280006408691,2.27100014686584,3.71700024604797,2.55105018615723,-15.8465995788574,-18.4274749755859,-17.9363250732422,-15.9559507369995,-18.8970012664795,-17.1940517425537,-17.1853008270264,-8.11772537231445,-2.62336254119873,10.3274869918823,10.1039123535156,3.42333745956421,-7.63305044174194,-5.75805044174194,-2.40495014190674,-0.16200000047684,-1.31100010871887,-2.61195015907288,0.88453751802444,1.50933754444122,25.5608367919922,2.72895002365112,8.08395004272461,17.9640007019043,9.04433727264404,8.72437477111816,3.83294987678528,-4.20639991760254,-4.25438737869263,-1.78158748149872,32.1469497680664,30.04905128479,24.1860008239746,7.59900045394897,10.4160003662109,11.8069505691528,1.94218754768372,-0.25437501072884,-0.71183747053146,7.10700035095215,4.85595035552979,3.5220000743866,-1.8327374458313,-2.84514999389648,-4.29330015182495,0.54917502403259,0.14135000109673,-0.32504999637604,2.79105019569397,-0.50100004673004,-4.12905025482178,4.19895029067993,2.73000001907349,0.28995001316071,-4.31997489929199,-16.5576114654541,-22.6252117156982,-6.04995012283325,-10.570050239563,-20.1400508880615,-21.4344615936279,-18.582986831665,-11.6092624664307,10.528374671936,12.0082874298096,13.1223125457764,-11.7169504165649,-11.7360010147095,-10.9549503326416,-1.71900010108948,-1.49805009365082,0.15600000321865,SHAKE
-0.25437501072884,-0.71183747053146,-0.95521247386932,4.85595035552979,3.5220000743866,1.97205007076263,-2.84514999389648,-4.29330015182495,-6.48147487640381,0.14135000109673,-0.32504999637604,-1.10082495212555,-0.50100004673004,-4.12905025482178,-8.83800029754639,2.73000001907349,0.28995001316071,-2.49900007247925,-16.5576114654541,-22.6252117156982,-20.3310241699219,-10.570050239563,-20.1400508880615,-25.3660507202148,-18.582986831665,-11.6092624664307,-1.68932497501373,12.0082874298096,13.1223125457764,2.77254986763,-11.7360010147095,-10.9549503326416,-6.89595031738281,-1.49805009365082,0.15600000321865,0.93900007009506,0.64143747091293,0.00233749998733,9.16478729248047,4.30500030517578,10.1320505142212,23.086950302124,15.868462562561,15.9378995895386,14.3072872161865,-12.7648124694824,-12.8009748458862,-10.5330495834351,33.6340522766113,29.9820022583008,22.5550518035889,11.3740501403809,7.44600057601929,1.73205006122589,-1.74198746681213,-1.06961250305176,-0.80863749980927,8.72100067138672,3.00195002555847,0.21900001168251,3.59479999542236,4.18797492980957,6.37669992446899,-1.61906254291534,-2.86921238899231,-5.39233732223511,-3.27195024490356,-7.16595029830933,-10.2319507598877,1.42500007152557,2.95800018310547,2.32095003128052,-25.0406742095947,-26.3999996185303,-25.6301364898682,-19.8430500030518,-20.9400005340576,-15.6280508041382,-4.62109994888306,-0.85057497024536,-0.91465002298355,-5.88046264648438,-0.02846249938011,-0.03739999979734,-8.0910005569458,0.59700000286102,9.65505027770996,0.07200000435114,1.21395003795624,4.84995031356812,SHAKE
6.90497493743896,-1.74198746681213,-1.06961250305176,14.2680006027222,8.72100067138672,3.00195002555847,3.13651251792908,3.59479999542236,4.18797492980957,-0.65312498807907,-1.61906254291534,-2.86921238899231,0.46305000782013,-3.27195024490356,-7.16595029830933,-1.37595009803772,1.42500007152557,2.95800018310547,-6.70064973831177,-25.0406742095947,-26.3999996185303,-13.6350002288818,-19.8430500030518,-20.9400005340576,-1.44429993629456,-4.62109994888306,-0.85057497024536,-8.66717529296875,-5.88046264648438,-0.02846249938011,-8.99805068969727,-8.0910005569458,0.59700000286102,0.30705001950264,0.07200000435114,1.21395003795624,-0.68103748559952,-1.08583748340607,9.3934497833252,12.3589506149292,17.3620510101318,21.1680011749268,15.327262878418,15.9821748733521,14.5785751342773,-12.5809745788574,-12.3888874053955,-9.63902473449707,31.6320018768311,29.5630512237549,23.5750503540039,9.85800075531006,7.12305021286011,4.11705017089844,-1.06260001659393,-1.47138750553131,-1.24753749370575,10.2400503158569,7.05900049209595,4.81995010375977,0.34952500462532,-0.55261248350143,-2.42151260375977,-0.1560624986887,-0.51136249303818,-0.45251250267029,0.55695003271103,-4.75395011901855,-9.56805038452148,3.27900004386902,2.9239501953125,2.38995003700256,-5.61989974975586,-19.8999614715576,-19.6915130615234,-15.6540002822876,-21.6829509735107,-18.9160499572754,-19.4331493377686,-11.8170251846313,-4.13228750228882,11.4119501113892,11.9238624572754,5.0320873260498,-9.43695068359375,-6.38295030593872,-2.16795015335083,1.04895007610321,0.11505000293255,-1.34505009651184,SHAKE
-1.06260001659393,-1.47138750553131,-1.24753749370575,10.2400503158569,7.05900049209595,4.81995010375977,0.34952500462532,-0.55261248350143,-2.42151260375977,-0.1560624986887,-0.51136249303818,-0.45251250267029,0.55695003271103,-4.75395011901855,-9.56805038452148,3.27900004386902,2.9239501953125,2.38995003700256,-5.61989974975586,-19.8999614715576,-19.6915130615234,-15.6540002822876,-21.6829509735107,-18.9160499572754,-19.4331493377686,-11.8170251846313,-4.13228750228882,11.4119501113892,11.9238624572754,5.0320873260498,-9.43695068359375,-6.38295030593872,-2.16795015335083,1.04895007610321,0.11505000293255,-1.34505009651184,1.60682499408722,4.29811239242554,23.6348743438721,8.81205081939697,15.4350004196167,16.2630004882813,10.9526996612549,10.6171998977661,8.21287536621094,-3.65420007705688,-3.32419991493225,-2.27191257476807,31.4569511413574,29.8890018463135,24.0730514526367,8.10494995117188,9.38100051879883,8.0710506439209,3.82208752632141,0.64899998903275,-0.18535000085831,8.34000015258789,5.2150502204895,3.05700016021729,-1.38118743896484,-2.59104990959167,-7.36642503738403,0.26028749346733,-0.17641249299049,-1.24781250953674,-3.75300025939941,-8.20305061340332,-11.8750505447388,1.60500001907349,0.77805006504059,-1.32300007343292,-20.9841499328613,-21.2352256774902,-20.2357368469238,-20.5350017547607,-22.2070503234863,-15.7189502716064,-12.1562376022339,-2.81008744239807,0.02144999988377,11.5178251266479,3.8229124546051,1.04995000362396,-8.46705055236816,-5.11605024337769,0.20700001716614,1.24095010757446,-0.16905000805855,-1.52700006961823,SHAKE
23.3173866271973,3.82208752632141,0.64899998903275,12.4459505081177,8.34000015258789,5.2150502204895,-0.35103750228882,-1.38118743896484,-2.59104990959167,1.38132500648499,0.26028749346733,-0.17641249299049,5.88600015640259,-3.75300025939941,-8.20305061340332,2.78805017471313,1.60500001907349,0.77805006504059,-4.97639989852905,-20.9841499328613,-21.2352256774902,-12.3300008773804,-20.5350017547607,-22.2070503234863,-17.2864990234375,-12.1562376022339,-2.81008744239807,10.4303379058838,11.5178251266479,3.8229124546051,-9.72600078582764,-8.46705055236816,-5.11605024337769,1.10895001888275,1.24095010757446,-0.16905000805855,0.66068750619888,1.38063752651215,14.7043876647949,-1.18395006656647,15.6690006256104,20.9719505310059,11.5208501815796,11.8465871810913,11.1528997421265,-6.11600017547607,-6.25336265563965,-5.35906267166138,32.764949798584,31.4530506134033,24.9720020294189,7.65000057220459,6.17205047607422,4.014000415802,5.75093746185303,-0.64528751373291,-0.85525000095367,8.88705062866211,5.35095024108887,3.30900025367737,0.17765000462532,-0.41580000519753,-1.90272498130798,0.18369999527931,-0.22907499969006,-0.4100250005722,0.95400005578995,-3.7150502204895,-7.36500024795532,3.03495025634766,3.20700025558472,1.94205009937286,-5.38642501831055,-22.0622882843018,-23.3358116149902,-13.7380504608154,-20.1829509735107,-21.0619506835938,-11.5165872573853,-3.99657487869263,-1.14289999008179,10.8146495819092,5.47731256484985,2.20893740653992,-8.18400001525879,-5.14500045776367,0.15195000171661,-0.0730499997735,-0.73200005292892,-0.5020500421524,SHAKE
5.75093746185303,-0.64528751373291,-0.85525000095367,8.88705062866211,5.35095024108887,3.30900025367737,0.17765000462532,-0.41580000519753,-1.90272498130798,0.18369999527931,-0.22907499969006,-0.4100250005722,0.95400005578995,-3.7150502204895,-7.36500024795532,3.03495025634766,3.20700025558472,1.94205009937286,-5.38642501831055,-22.0622882843018,-23.3358116149902,-13.7380504608154,-20.1829509735107,-21.0619506835938,-11.5165872573853,-3.99657487869263,-1.14289999008179,10.8146495819092,5.47731256484985,2.20893740653992,-8.18400001525879,-5.14500045776367,0.15195000171661,-0.0730499997735,-0.73200005292892,-0.5020500421524,0.18521249294281,1.26335000991821,12.1324501037598,6.01200008392334,15.0229511260986,20.8639507293701,10.6177501678467,11.8963623046875,11.4394502639771,-5.81996250152588,-5.86231231689453,-5.57163763046265,31.3060512542725,29.5480518341064,23.5110015869141,5.63100004196167,3.57300019264221,2.64900016784668,14.2878999710083,0.32986250519753,-0.87422502040863,7.73700046539307,4.16805028915405,1.92900013923645,0.09129999577999,-0.80643749237061,-2.71603751182556,0.08868750184774,-0.22714999318123,-0.62699997425079,1.09800004959106,-3.36495018005371,-6.91500043869019,3.08505010604858,1.97100007534027,1.48695003986359,-11.1417627334595,-24.2786502838135,-25.6299991607666,-14.1600008010864,-19.5630016326904,-20.7720012664795,-13.1964244842529,-3.72129988670349,-1.33471250534058,8.46106243133545,4.63072490692139,1.88677501678467,-8.21505069732666,-4.98900032043457,0.61395001411438,-1.41705012321472,-0.05205000191927,1.66200006008148,SHAKE
14.2878999710083,0.32986250519753,-0.87422502040863,7.73700046539307,4.16805028915405,1.92900013923645,0.09129999577999,-0.80643749237061,-2.71603751182556,0.08868750184774,-0.22714999318123,-0.62699997425079,1.09800004959106,-3.36495018005371,-6.91500043869019,3.08505010604858,1.97100007534027,1.48695003986359,-11.1417627334595,-24.2786502838135,-25.6299991607666,-14.1600008010864,-19.5630016326904,-20.7720012664795,-13.1964244842529,-3.72129988670349,-1.33471250534058,8.46106243133545,4.63072490692139,1.88677501678467,-8.21505069732666,-4.98900032043457,0.61395001411438,-1.41705012321472,-0.05205000191927,1.66200006008148,-0.09267500042915,0.63057500123978,15.3851499557495,9.59505081176758,20.0190010070801,21.0199508666992,15.60817527771,16.4300117492676,15.1753253936768,-12.0719499588013,-12.1521120071411,-9.63984966278076,32.2189521789551,29.1580505371094,23.1060009002686,4.73699998855591,3.52305006980896,1.10895001888275,2.21182489395142,-1.06589996814728,-1.30432498455048,8.2470006942749,5.36595010757446,3.18900012969971,1.23048746585846,0.24076250195503,-1.55044996738434,-0.29315000772476,-0.45319998264313,-0.48908749222755,1.28205001354218,-2.69700002670288,-6.94800043106079,3.09195017814636,3.19500017166138,1.62405002117157,-23.581937789917,-25.311824798584,-24.4825630187988,-19.8499507904053,-20.2620010375977,-14.4400510787964,-9.96696281433106,-1.89983749389648,-1.26664996147156,9.39276218414307,2.27163743972778,1.35781252384186,-8.08305072784424,1.25895011425018,11.4780006408691,-1.46505010128021,-0.06405000388622,3.76995015144348,SHAKE
17.7853507995605,17.0018749237061,2.21182489395142,20.1460514068604,13.9180507659912,8.2470006942749,2.75742506980896,1.96459996700287,1.23048746585846,-0.25959998369217,-0.17984999716282,-0.29315000772476,11.0160007476807,5.89305019378662,1.28205001354218,1.16400003433228,2.42895007133484,3.09195017814636,-1.44196248054504,-2.03747487068176,-23.581937789917,-2.89095020294189,-7.21695041656494,-19.8499507904053,-14.8754377365112,-14.2753877639771,-9.96696281433106,6.75482511520386,7.91449975967407,9.39276218414307,-8.65799999237061,-8.51895046234131,-8.08305072784424,-1.60095012187958,-1.78800010681152,-1.46505010128021,-0.91904997825623,-0.68543750047684,0.84672498703003,3.58200025558472,9.65505027770996,15.5209503173828,7.66507482528687,9.45133781433106,8.37924957275391,-4.59703731536865,-4.74429988861084,-4.20158767700195,29.9290523529053,29.6659507751465,23.0239505767822,7.95600032806396,4.58205032348633,2.75205016136169,-0.06984999775887,-1.31477499008179,-1.26857495307922,7.38705015182495,4.65705013275146,2.70495009422302,-0.22426250576973,-1.18854999542236,-3.16332507133484,-0.14946250617504,-0.42171248793602,-0.58423751592636,1.37805008888245,-3.14505004882813,-7.12095022201538,3.82995009422302,2.32800006866455,0.7590000629425,-7.0228123664856,-22.1872749328613,-23.3098239898682,-12.4309501647949,-19.2130508422852,-21.3229503631592,-17.1522998809814,-11.6694869995117,-4.8387622833252,10.8245496749878,12.8845748901367,7.23593759536743,-8.79195022583008,-8.41200065612793,-6.74700021743774,-2.50200009346008,-2.17605018615723,-1.91700005531311,SHAKE
-1.31477499008179,-1.26857495307922,-1.13038754463196,4.65705013275146,2.70495009422302,0.63105005025864,-1.18854999542236,-3.16332507133484,-8.85623741149902,-0.42171248793602,-0.58423751592636,-1.82105004787445,-3.14505004882813,-7.12095022201538,-9.43695068359375,2.32800006866455,0.7590000629425,-0.51105004549026,-22.1872749328613,-23.3098239898682,-22.4274883270264,-19.2130508422852,-21.3229503631592,-16.6579513549805,-11.6694869995117,-4.8387622833252,-1.68588745594025,12.8845748901367,7.23593759536743,2.93328738212585,-8.41200065612793,-6.74700021743774,-2.68305015563965,-2.17605018615723,-1.91700005531311,-1.28700006008148,-0.69781249761581,-1.08253753185272,6.60398769378662,6.79800033569336,12.7159509658813,19.0009517669678,10.4854745864868,11.5235996246338,9.08641242980957,-6.13813734054565,-6.48546266555786,1.58936250209808,30.7360515594482,30.7320022583008,18.8620510101318,9.15105056762695,8.00205039978027,2.79300022125244,-1.77017498016357,-1.55691254138947,-1.24272501468658,5.9719500541687,3.99300026893616,2.35500001907349,1.45254993438721,1.36702501773834,1.26197504997253,-0.7374125123024,-0.91368746757507,-1.57313752174377,0.08505000174046,-4.11705017089844,-7.34295034408569,-0.11205000430346,0.15300001204014,0.33300000429153,-7.08551263809204,-25.7313365936279,-26.9209880828857,-14.7990007400513,-21.5920505523682,-14.0230503082275,-4.49473762512207,-1.04293751716614,-0.59372502565384,0.08002500236034,-1.16792500019073,-0.2403499931097,-7.73895025253296,-4.921950340271,0.70800000429153,-0.30600002408028,-1.04595005512238,-1.08195006847382,SHAKE
-1.77017498016357,-1.55691254138947,-1.24272501468658,5.9719500541687,3.99300026893616,2.35500001907349,1.45254993438721,1.36702501773834,1.26197504997253,-0.7374125123024,-0.91368746757507,-1.57313752174377,0.08505000174046,-4.11705017089844,-7.34295034408569,-0.11205000430346,0.15300001204014,0.33300000429153,-7.08551263809204,-25.7313365936279,-26.9209880828857,-14.7990007400513,-21.5920505523682,-14.0230503082275,-4.49473762512207,-1.04293751716614,-0.59372502565384,0.08002500236034,-1.16792500019073,-0.2403499931097,-7.73895025253296,-4.921950340271,0.70800000429153,-0.30600002408028,-1.04595005512238,-1.08195006847382,-0.79186248779297,-1.43687498569489,2.41037487983704,12.6250505447388,22.267951965332,24.400951385498,7.46845006942749,7.75719976425171,0.75487500429153,-8.31407451629639,-8.38873767852783,-0.86624997854233,32.9809532165527,29.1889514923096,15.5020503997803,7.54905033111572,8.08995056152344,5.48895025253296,-2.39992499351501,-2.01272487640381,-1.84469997882843,5.59800004959106,3.68505024909973,0.88695001602173,-2.3234748840332,-4.71941232681274,-11.3697376251221,-0.23333749175072,-0.39544999599457,-1.90863752365112,-3.6499502658844,-7.29105043411255,-10.5070505142212,3.18795013427734,1.42995011806488,-1.06695008277893,-22.8254127502441,-23.037712097168,-13.6669502258301,-20.1760501861572,-22.7749519348145,-8.33505058288574,-4.72821235656738,-1.9406750202179,-1.57258749008179,6.67603731155396,2.40019989013672,1.05599999427795,-6.14805030822754,0.98805004358292,9.60495090484619,-0.30300000309944,-0.78495001792908,0.34500002861023,SHAKE
-3.15287494659424,-2.39992499351501,-2.01272487640381,8.02395057678223,5.59800004959106,3.68505024909973,-1.16888749599457,-2.3234748840332,-4.71941232681274,0.04606249928474,-0.23333749175072,-0.39544999599457,0.62895005941391,-3.6499502658844,-7.29105043411255,4.27005004882813,3.18795013427734,1.42995011806488,-10.0104122161865,-22.8254127502441,-23.037712097168,-13.5370502471924,-20.1760501861572,-22.7749519348145,-11.3352251052856,-4.72821235656738,-1.9406750202179,14.6130876541138,6.67603731155396,2.40019989013672,-9.70500087738037,-6.14805030822754,0.98805004358292,-1.35495007038116,-0.30300000309944,-0.78495001792908,-1.38586246967316,-2.64398741722107,-17.9631366729736,10.5769500732422,17.1660003662109,21.1200008392334,-4.08113765716553,-3.96632504463196,-3.45344996452332,-0.70757502317429,-0.98326247930527,-0.71527498960495,30.2140522003174,28.7839508056641,23.6329517364502,9.58500003814697,10.8090009689331,10.5880508422852,-5.77197504043579,-3.69311237335205,-2.81668758392334,8.06295013427734,4.77195024490356,2.55900001525879,-1.80441248416901,-2.46455001831055,-5.49628734588623,0.19318750500679,-0.36231249570847,-1.66773748397827,3.92205023765564,0.69300001859665,-6.46905040740967,4.42605018615723,3.01800012588501,0.12495000660419,-16.516637802124,-23.9126243591309,-24.07102394104,-11.788950920105,-16.488000869751,-19.8430500030518,-10.1297626495361,-7.11644983291626,-3.10378742218018,11.899112701416,11.1864500045776,3.78028750419617,-8.08800029754639,-7.63800048828125,-4.3759503364563,-0.10200000554323,0.807000041008,2.02095007896423,SHAKE
-5.77197504043579,-3.69311237335205,-2.81668758392334,8.06295013427734,4.77195024490356,2.55900001525879,-1.80441248416901,-2.46455001831055,-5.49628734588623,0.19318750500679,-0.36231249570847,-1.66773748397827,3.92205023765564,0.69300001859665,-6.46905040740967,4.42605018615723,3.01800012588501,0.12495000660419,-16.516637802124,-23.9126243591309,-24.07102394104,-11.788950920105,-16.488000869751,-19.8430500030518,-10.1297626495361,-7.11644983291626,-3.10378742218018,11.899112701416,11.1864500045776,3.78028750419617,-8.08800029754639,-7.63800048828125,-4.3759503364563,-0.10200000554323,0.807000041008,2.02095007896423,-1.2476749420166,-0.69423747062683,22.3077239990234,6.26595020294189,9.03495025634766,20.3200511932373,14.8076496124268,14.7353248596191,11.3100624084473,-8.58563709259033,-8.24601268768311,-5.29127502441406,30.4129505157471,28.4040012359619,23.0770511627197,7.87500047683716,6.42600011825562,4.95300006866455,0.27500000596046,-1.76178753376007,-1.50150001049042,8.12700080871582,6.04605007171631,4.36695003509521,0.33357501029968,-0.27788749337196,-5.03882503509521,-0.10298749804497,-0.47244998812675,-1.28686249256134,2.91795015335083,-1.45905005931854,-10.0330505371094,2.89605021476746,3.28395009040833,-0.09195000678301,-20.0582256317139,-23.9852256774902,-23.4448490142822,-18.4039516448975,-23.2780513763428,-18.9520511627197,-5.837975025177,-1.60146248340607,-0.83723747730255,7.18561267852783,1.6608624458313,0.52676248550415,-6.32805013656616,-0.72600001096725,6.67605018615723,0.95100003480911,-0.70305001735687,-0.41295000910759,SHAKE
19.7590255737305,0.27500000596046,-1.76178753376007,11.8420505523682,8.12700080871582,6.04605007171631,0.71719998121262,0.33357501029968,-0.27788749337196,0.15042500197887,-0.10298749804497,-0.47244998812675,7.42800045013428,2.91795015335083,-1.45905005931854,2.51205015182495,2.89605021476746,3.28395009040833,-4.19264984130859,-20.0582256317139,-23.9852256774902,-11.5060501098633,-18.4039516448975,-23.2780513763428,-15.401237487793,-5.837975025177,-1.60146248340607,8.80357456207275,7.18561267852783,1.6608624458313,-9.57600021362305,-6.32805013656616,-0.72600001096725,0.80505001544952,0.95100003480911,-0.70305001735687,-0.7958499789238,-0.58616250753403,7.16925001144409,6.42705011367798,13.3320007324219,18.7969512939453,14.7213001251221,14.4478120803833,11.0856628417969,-9.2824878692627,-8.79573726654053,0.88989996910095,29.7330017089844,26.6790008544922,21.5560512542725,7.56405019760132,5.68800020217896,4.95105028152466,-2.69389986991882,-1.98164999485016,-1.60311245918274,7.79400014877319,5.68695020675659,3.79005026817322,-0.90997499227524,-2.03857493400574,-4.32533740997314,-0.00302499998361,-0.39599999785423,-0.70757502317429,2.58300018310547,-1.45395004749298,-5.6569504737854,5.62605047225952,4.91205024719238,2.73795008659363,-20.5820999145508,-23.6016006469727,-22.6631622314453,-16.4759998321533,-19.8430500030518,-18.1909503936768,-11.7517127990723,-6.63245010375977,-2.67093753814697,13.1976623535156,10.3721752166748,4.0595498085022,-8.21805000305176,-6.83295011520386,-3.33195018768311,-0.52799999713898,-0.32505002617836,-0.08295000344515,SHAKE
-2.69389986991882,-1.98164999485016,-1.60311245918274,7.79400014877319,5.68695020675659,3.79005026817322,-0.90997499227524,-2.03857493400574,-4.32533740997314,-0.00302499998361,-0.39599999785423,-0.70757502317429,2.58300018310547,-1.45395004749298,-5.6569504737854,5.62605047225952,4.91205024719238,2.73795008659363,-20.5820999145508,-23.6016006469727,-22.6631622314453,-16.4759998321533,-19.8430500030518,-18.1909503936768,-11.7517127990723,-6.63245010375977,-2.67093753814697,13.1976623535156,10.3721752166748,4.0595498085022,-8.21805000305176,-6.83295011520386,-3.33195018768311,-0.52799999713898,-0.32505002617836,-0.08295000344515,-0.55343747138977,-0.72159999608994,-0.57213747501373,4.546950340271,13.1209506988525,19.0390510559082,13.4744501113892,13.9474496841431,10.1890249252319,-10.7795877456665,-10.3650245666504,-4.44771242141724,30.4849510192871,28.1950511932373,22.5910511016846,5.49900007247925,2.51700019836426,1.37205004692078,-1.75876247882843,-1.74226248264313,-1.54027497768402,8.92995071411133,6.19200038909912,4.48905038833618,0.87436246871948,-0.19401249289513,-2.23217487335205,-0.40974998474121,-0.60953748226166,-0.57461249828339,2.9610002040863,-1.13100004196167,-5.04195022583008,3.82200026512146,3.96900010108948,3.06300020217896,-19.9738006591797,-24.6952743530273,-24.5066242218018,-16.8690013885498,-19.5730514526367,-16.4209499359131,-11.7629871368408,-6.02291250228882,-2.29597496986389,10.3342247009277,9.34422492980957,3.27745008468628,-6.64200019836426,-4.19204998016357,0.16395001113415,0.84495002031326,-0.62895005941391,-2.36505007743835,SHAKE
-1.75876247882843,-1.74226248264313,-1.54027497768402,8.92995071411133,6.19200038909912,4.48905038833618,0.87436246871948,-0.19401249289513,-2.23217487335205,-0.40974998474121,-0.60953748226166,-0.57461249828339,2.9610002040863,-1.13100004196167,-5.04195022583008,3.82200026512146,3.96900010108948,3.06300020217896,-19.9738006591797,-24.6952743530273,-24.5066242218018,-16.8690013885498,-19.5730514526367,-16.4209499359131,-11.7629871368408,-6.02291250228882,-2.29597496986389,10.3342247009277,9.34422492980957,3.27745008468628,-6.64200019836426,-4.19204998016357,0.16395001113415,0.84495002031326,-0.62895005941391,-2.36505007743835,-0.1395625025034,1.54261243343353,14.4757251739502,4.08195018768311,10.1460008621216,17.0490016937256,6.93151235580444,7.83378744125366,7.20335006713867,-4.05184984207153,-4.14521265029907,-4.30924987792969,27.8380508422852,28.8229522705078,25.3860015869141,10.8540000915527,9.06300067901611,6.80700016021729,13.3262252807617,0.5684249997139,-0.60939997434616,11.3800506591797,7.65495014190674,2.5639500617981,0.33563750982285,-0.41332501173019,-2.43237495422363,-0.38637501001358,-0.90337496995926,-1.1782374382019,0.52799999713898,-4.54800033569336,-9.0130500793457,3.25695013999939,2.47395014762878,-0.29100000858307,-12.8809995651245,-23.9524993896484,-24.3556499481201,-16.9999504089355,-22.6600513458252,-19.8910503387451,-12.2614250183105,-7.03078746795654,-0.61448746919632,8.26539993286133,9.58787536621094,0.78677499294281,-7.98795032501221,-5.96595048904419,6.09195041656494,1.67205011844635,0.46200001239777,-1.15095007419586,SHAKE
13.3262252807617,0.5684249997139,-0.60939997434616,11.3800506591797,7.65495014190674,2.5639500617981,0.33563750982285,-0.41332501173019,-2.43237495422363,-0.38637501001358,-0.90337496995926,-1.1782374382019,0.52799999713898,-4.54800033569336,-9.0130500793457,3.25695013999939,2.47395014762878,-0.29100000858307,-12.8809995651245,-23.9524993896484,-24.3556499481201,-16.9999504089355,-22.6600513458252,-19.8910503387451,-12.2614250183105,-7.03078746795654,-0.61448746919632,8.26539993286133,9.58787536621094,0.78677499294281,-7.98795032501221,-5.96595048904419,6.09195041656494,1.67205011844635,0.46200001239777,-1.15095007419586,0.55701249837875,10.0418996810913,21.5755367279053,14.6850004196167,20.6410503387451,18.7920017242432,12.1804370880127,11.761887550354,7.12882518768311,-7.00246238708496,-6.60605001449585,1.95896244049072,27.8980522155762,25.19700050354,20.7679500579834,5.12295007705688,3.45105028152466,2.04105019569397,-2.22708749771118,-1.94246244430542,-1.78571248054504,7.96200037002563,5.99595022201538,4.36695003509521,0.18576249480247,-0.14547500014305,-0.84328746795654,0.15551249682903,-0.43669998645782,-0.85717499256134,5.13795042037964,1.28205001354218,-2.63505005836487,1.83705008029938,1.78695011138916,1.71705007553101,-2.4785749912262,-8.00332450866699,-23.9547004699707,-5.79195022583008,-10.1290502548218,-16.7179508209229,-14.9803495407104,-13.6823501586914,-8.7883129119873,5.63131237030029,6.53523731231689,8.26375007629395,-6.65805053710938,-6.22695016860962,-5.69100046157837,3.24000024795532,1.557000041008,-0.14295001327991,SHAKE
-1.94246244430542,-1.78571248054504,-1.76082503795624,5.99595022201538,4.36695003509521,2.14500021934509,-0.14547500014305,-0.84328746795654,-2.40322494506836,-0.43669998645782,-0.85717499256134,-1.07937502861023,1.28205001354218,-2.63505005836487,-6.38295030593872,1.78695011138916,1.71705007553101,1.51605010032654,-8.00332450866699,-23.9547004699707,-24.5972366333008,-10.1290502548218,-16.7179508209229,-21.0739517211914,-13.6823501586914,-8.7883129119873,-2.75811243057251,6.53523731231689,8.26375007629395,3.62120008468628,-6.22695016860962,-5.69100046157837,-3.67695021629334,1.557000041008,-0.14295001327991,-1.76400005817413,0.89746248722076,1.43041253089905,5.97506237030029,5.59305047988892,13.4509506225586,21.6660003662109,8.55414962768555,10.3884000778198,10.0065622329712,-4.85058736801147,-4.81181240081787,-4.54231262207031,29.6680507659912,30.6910514831543,26.6460018157959,5.93505048751831,6.85005044937134,7.63095045089722,20.5953006744385,1.08803749084473,-1.70238745212555,11.6170501708984,7.19295024871826,2.7480001449585,-1.34062504768372,-2.42467498779297,-4.72051239013672,0.19882500171661,-0.1560624986887,-0.50929999351501,0.17400000989437,-3.44205021858215,-6.79995012283325,2.91705012321472,2.46000003814697,1.41300010681152,-12.2794370651245,-24.0245494842529,-22.067512512207,-12.9790506362915,-20.3509502410889,-16.6459503173828,-0.67828750610352,-0.0576125010848,3.99244999885559,1.00471246242523,-0.46337500214577,-10.5611000061035,4.96605014801025,14.6730003356934,23.2690505981445,2.73795008659363,6.53400039672852,8.37495040893555,SHAKE
-1.59527504444122,-1.47688746452332,-1.25894999504089,8.91795063018799,5.5770001411438,3.35595011711121,-0.63703751564026,-2.74230003356934,-9.09136199951172,-0.42405000329018,-0.3950375020504,-1.17961251735687,-2.98395013809204,-6.78300046920776,-9.7170000076294,2.86395025253296,1.80105006694794,-0.47100001573563,-23.46946144104,-24.4162864685059,-23.3391132354736,-17.4529514312744,-20.3250007629395,-17.2680015563965,-10.9480247497559,-4.46957492828369,-1.54824995994568,11.7668371200562,5.92350006103516,2.09384989738464,-7.79805040359497,-5.7199501991272,-0.06705000251532,-0.52095001935959,0.10995000600815,1.70805013179779,-0.02021249942482,0.36368748545647,12.3571252822876,9.24300003051758,16.2900009155273,20.5980014801025,12.5966501235962,13.1436252593994,7.51203727722168,-9.72455024719238,-9.63049983978272,-0.2426874935627,28.9399509429932,28.7320518493652,20.1190509796143,5.87700033187866,7.63095045089722,7.4170503616333,-1.79355001449585,-1.69853746891022,-1.52184998989105,8.25900077819824,6.19005012512207,3.507000207901,-1.1310750246048,-2.08958745002747,-3.70411252975464,0.23045000433922,-0.2095499932766,-0.5378999710083,2.01300001144409,-1.85400009155273,-4.93395042419434,2.75895023345947,2.72100019454956,2.54595017433167,-6.14693737030029,-21.6122493743896,-23.4519996643066,-9.97800064086914,-14.3389511108398,-19.5889511108398,-11.0416622161865,-5.20616245269775,-1.15431249141693,12.3158750534058,8.95303726196289,3.06872487068176,-6.46395015716553,-5.71695041656494,-2.62005019187927,0.2710500061512,-1.03800010681152,-0.80595004558563,SHAKE
-1.69853746891022,-1.52184998989105,-1.46107494831085,6.19005012512207,3.507000207901,1.03095006942749,-2.08958745002747,-3.70411252975464,-7.7268123626709,-0.2095499932766,-0.5378999710083,-1.35588753223419,-1.85400009155273,-4.93395042419434,-7.79595041275024,2.72100019454956,2.54595017433167,0.60105001926422,-21.6122493743896,-23.4519996643066,-18.7996883392334,-14.3389511108398,-19.5889511108398,-13.8510007858276,-5.20616245269775,-1.15431249141693,-0.22976249456406,8.95303726196289,3.06872487068176,1.5778124332428,-5.71695041656494,-2.62005019187927,3.61305022239685,-1.03800010681152,-0.80595004558563,2.34705018997192,0.67966252565384,5.86520004272461,20.2761631011963,16.3470001220703,20.2720508575439,19.7980518341064,12.4418249130249,7.96963739395142,2.5558500289917,-9.77253723144531,-0.90433746576309,0.05719999969006,28.7940006256104,21.1129512786865,15.8749504089355,4.47600030899048,3.1519501209259,2.66295003890991,-1.58523750305176,-1.56488752365112,-1.3252249956131,6.71700048446655,4.47000026702881,1.97205007076263,-0.3284874856472,-1.39026248455048,-5.1486873626709,-0.59455001354218,-0.69341248273849,-0.4959625005722,-3.88305020332336,-8.32800006866455,-10.8109502792358,0.99900007247925,0.4120500087738,0.46905001997948,-20.2717628479004,-20.8261623382568,-20.542911529541,-22.1500511169434,-22.219051361084,-14.8500003814697,-10.7481002807617,-2.52711248397827,-1.15692496299744,8.56281280517578,2.79358744621277,1.25661253929138,-8.14800071716309,-5.1060004234314,0.06599999964237,-1.55100011825562,-2.90205025672913,-2.79600024223328,SHAKE
-1.04266250133514,-1.58523750305176,-1.56488752365112,9.74895000457764,6.71700048446655,4.47000026702881,0.40782499313354,-0.3284874856472,-1.39026248455048,-0.30744999647141,-0.59455001354218,-0.69341248273849,1.03305006027222,-3.88305020332336,-8.32800006866455,1.58295011520386,0.99900007247925,0.4120500087738,-2.44708752632141,-20.2717628479004,-20.8261623382568,-14.4930009841919,-22.1500511169434,-22.219051361084,-14.1934375762939,-10.7481002807617,-2.52711248397827,8.33071231842041,8.56281280517578,2.79358744621277,-8.89095020294189,-8.14800071716309,-5.1060004234314,0.02400000020862,-1.55100011825562,-2.90205025672913,0.10436250269413,-0.21559999883175,-2.54237508773804,1.86900007724762,18.2220001220703,23.9010009765625,-4.97158765792847,-5.13782501220703,-4.68036270141602,4.23885011672974,4.1721625328064,4.0110125541687,28.6530017852783,28.5670509338379,24.5449504852295,7.46295022964478,10.4850006103516,11.2159509658813,-3.57156252861023,-2.27988743782043,-1.72301244735718,11.5380001068115,7.68195056915283,5.50695037841797,-0.94421249628067,-1.15073752403259,-1.59389996528625,0.86790001392365,-0.2563000023365,-0.86721247434616,3.30105018615723,-4.39995002746582,-8.47095012664795,0.46695002913475,-0.63105005025864,-1.59900009632111,-4.11276245117188,-21.2372875213623,-21.3512744903564,-14.3680505752563,-21.9630012512207,-22.9450511932373,-4.72106266021729,0.03987500071526,0.598537504673,6.12094974517822,-0.32780000567436,-0.71224999427795,-7.41000032424927,-3.84195017814636,2.49000000953674,-0.33195000886917,0.22800001502037,3.07005023956299,SHAKE
-5.69579982757568,-3.57156252861023,-2.27988743782043,16.2250499725342,11.5380001068115,7.68195056915283,-0.97955000400543,-0.94421249628067,-1.15073752403259,1.57011246681213,0.86790001392365,-0.2563000023365,7.9549503326416,3.30105018615723,-4.39995002746582,2.2870500087738,0.46695002913475,-0.63105005025864,-1.56585001945496,-4.11276245117188,-21.2372875213623,-7.50405025482178,-14.3680505752563,-21.9630012512207,-7.78964996337891,-4.72106266021729,0.03987500071526,5.29938745498657,6.12094974517822,-0.32780000567436,-7.66200017929077,-7.41000032424927,-3.84195017814636,2.30205011367798,-0.33195000886917,0.22800001502037,0.66233748197556,0.66742497682571,1.70073747634888,4.26405000686646,14.706000328064,21.7429504394531,14.4416246414185,17.1877746582031,16.9560871124268,-12.9562120437622,-13.6684627532959,-12.6787376403809,27.0889511108398,29.0190010070801,25.9510517120361,5.91105031967163,7.78095054626465,8.94300079345703,-0.96442496776581,-1.99388754367828,-1.93655002117157,8.27295017242432,5.77995014190674,3.43800020217896,-0.83654999732971,-3.41646242141724,-6.70711231231689,0.04771250113845,-0.65986251831055,-1.37541246414185,2.09895014762878,-5.20005035400391,-8.19795036315918,3.04905009269714,0.66105002164841,-0.70995002985001,-21.2704257965088,-24.0205631256104,-22.8553867340088,-15.2490005493164,-20.3479518890381,-19.7899513244629,-5.20190000534058,-0.97226250171661,-0.22838750481606,7.9997501373291,2.18308758735657,0.59661251306534,-6.40200042724609,-3.90705013275146,1.46205008029938,-0.62205004692078,0.91995006799698,5.0460000038147,SHAKE
-0.96442496776581,-1.99388754367828,-1.93655002117157,8.27295017242432,5.77995014190674,3.43800020217896,-0.83654999732971,-3.41646242141724,-6.70711231231689,0.04771250113845,-0.65986251831055,-1.37541246414185,2.09895014762878,-5.20005035400391,-8.19795036315918,3.04905009269714,0.66105002164841,-0.70995002985001,-21.2704257965088,-24.0205631256104,-22.8553867340088,-15.2490005493164,-20.3479518890381,-19.7899513244629,-5.20190000534058,-0.97226250171661,-0.22838750481606,7.9997501373291,2.18308758735657,0.59661251306534,-6.40200042724609,-3.90705013275146,1.46205008029938,-0.62205004692078,0.91995006799698,5.0460000038147,0.28338751196861,1.03894996643066,17.3171615600586,12.6280508041382,21.9469509124756,20.9689502716064,19.6875247955322,20.3752994537354,17.6096248626709,-16.1385116577148,-14.9795246124268,-8.03082466125488,29.086051940918,26.9670009613037,21.9400501251221,5.88000011444092,6.16695022583008,4.52895021438599,-1.13960003852844,-1.294562458992,-1.27668750286102,6.95595026016235,4.51995038986206,2.09205007553101,0.94709998369217,-0.12333749979734,-1.74363744258881,-0.68048751354218,-0.89086252450943,-0.70812499523163,-0.94605004787445,-5.67600011825562,-9.45600032806396,1.63305008411407,1.12604999542236,0.54105001688004,-11.0468873977661,-14.7471494674683,-13.7896003723145,-15.6280508041382,-21.9910507202148,-22.6840515136719,-14.7701120376587,-6.91157484054565,-0.31927499175072,10.2514495849609,11.4287252426147,2.44997501373291,-7.31700038909912,-7.16895055770874,-5.58105039596558,-0.11595000326633,-0.64305001497269,0.46005001664162,SHAKE
-1.13960003852844,-1.294562458992,-1.27668750286102,6.95595026016235,4.51995038986206,2.09205007553101,0.94709998369217,-0.12333749979734,-1.74363744258881,-0.68048751354218,-0.89086252450943,-0.70812499523163,-0.94605004787445,-5.67600011825562,-9.45600032806396,1.63305008411407,1.12604999542236,0.54105001688004,-11.0468873977661,-14.7471494674683,-13.7896003723145,-15.6280508041382,-21.9910507202148,-22.6840515136719,-14.7701120376587,-6.91157484054565,-0.31927499175072,10.2514495849609,11.4287252426147,2.44997501373291,-7.31700038909912,-7.16895055770874,-5.58105039596558,-0.11595000326633,-0.64305001497269,0.46005001664162,1.23461246490479,0.12608750164509,-8.74403762817383,6.17295026779175,19.1059513092041,17.6909999847412,8.95482540130615,9.53452491760254,8.16653728485107,-17.8216495513916,-17.0966129302979,-12.4134998321533,28.4920520782471,27.1410007476807,22.7989501953125,-0.37695002555847,2.25104999542236,3.76500010490417,-4.49459981918335,-3.08962488174438,-2.72332501411438,10.0000505447388,7.14795017242432,4.7790002822876,-0.86927497386932,-2.45877504348755,-4.23169994354248,0.39462500810623,0.43903750181198,0.3617624938488,4.57800006866455,0.39195001125336,-3.8950502872467,4.58400011062622,3.07995009422302,1.40100002288818,-2.46152496337891,-11.7090873718262,-23.0990371704102,-7.21395015716553,-14.0860509872437,-19.6560001373291,-17.0385875701904,-8.14770030975342,-3.07601237297058,11.2678499221802,15.2769374847412,6.77311229705811,-5.64495038986206,-5.99505043029785,-4.06500005722046,-1.02195000648499,-2.98995018005371,-2.20995020866394,SHAKE
-2.72332501411438,-2.22983741760254,-1.88265001773834,4.7790002822876,2.65005016326904,0.43005001544952,-4.23169994354248,-6.61320018768311,-12.7037620544434,0.3617624938488,0.06421250104904,-1.64505004882813,-3.8950502872467,-7.03905010223389,-7.36995029449463,1.40100002288818,0.46905001997948,0.38100001215935,-23.0990371704102,-23.1702632904053,-12.3826999664307,-19.6560001373291,-20.2840518951416,-9.34305000305176,-3.07601237297058,-0.87642496824265,-0.45416250824928,6.77311229705811,3.27250003814697,2.45176243782043,-4.06500005722046,0.37500002980232,5.88795042037964,-2.20995020866394,0.26595002412796,3.45405006408691,1.0587500333786,14.3670997619629,24.5154247283936,17.3509502410889,17.5180511474609,17.9490013122559,6.37821245193481,6.21651268005371,0.9013124704361,-3.34963750839233,-2.95432496070862,1.03001248836517,26.9400005340576,24.1480503082275,14.3230504989624,5.58495044708252,6.72795009613037,4.39499998092651,-1.52501249313354,-1.57368743419647,-1.48774993419647,5.62500047683716,3.51705026626587,1.25595009326935,0.00109999999404,-1.05256247520447,-1.61122500896454,-0.00027499999851,-0.77453750371933,-1.24891245365143,-2.07705020904541,-5.82300043106079,-8.23905086517334,-0.38895002007484,-0.76800000667572,-1.1869500875473,-16.2518119812012,-24.691011428833,-23.6039371490479,-17.4529514312744,-22.6909503936768,-12.5050506591797,-4.26208734512329,0.23306250572205,0.18039999902248,3.58765006065369,0.20858749747276,-0.09913749992847,-6.11505031585693,-4.0770001411438,-0.10995000600815,-0.82800006866455,-0.05205000191927,2.68200016021729,SHAKE
-1.52501249313354,-1.57368743419647,-1.48774993419647,5.62500047683716,3.51705026626587,1.25595009326935,0.00109999999404,-1.05256247520447,-1.61122500896454,-0.00027499999851,-0.77453750371933,-1.24891245365143,-2.07705020904541,-5.82300043106079,-8.23905086517334,-0.38895002007484,-0.76800000667572,-1.1869500875473,-16.2518119812012,-24.691011428833,-23.6039371490479,-17.4529514312744,-22.6909503936768,-12.5050506591797,-4.26208734512329,0.23306250572205,0.18039999902248,3.58765006065369,0.20858749747276,-0.09913749992847,-6.11505031585693,-4.0770001411438,-0.10995000600815,-0.82800006866455,-0.05205000191927,2.68200016021729,-0.28036248683929,-1.55155003070831,8.76603698730469,12.0739507675171,19.0800018310547,22.2889518737793,15.1633625030518,15.9013252258301,14.1385746002197,-16.8183116912842,-16.3149242401123,-11.5073747634888,28.9710006713867,27.7500019073486,23.5060520172119,3.77505016326904,5.93505048751831,6.08595037460327,-2.87746238708496,-2.4311375617981,-2.06772494316101,10.1700000762939,7.49505043029785,5.53800010681152,0.48551249504089,-0.93898749351501,-1.80482494831085,0.02502499893308,-0.60582500696182,-0.87133747339249,4.85595035552979,-2.51295018196106,-5.93295049667358,1.1779500246048,0.99900007247925,1.14705002307892,-3.63371253013611,-23.4888496398926,-22.4547119140625,-10.5600004196167,-21.42405128479,-19.1050510406494,-9.86260032653809,-2.02839994430542,0.0591249987483,8.99277496337891,3.71566247940064,1.21343743801117,-6.82800054550171,-6.06900024414063,-2.16495013237,-0.70995002985001,0.67500001192093,2.51505017280579,SHAKE
8.10095024108887,-2.87746238708496,-2.4311375617981,14.8410005569458,10.1700000762939,7.49505043029785,1.08336246013641,0.48551249504089,-0.93898749351501,0.18645000457764,0.02502499893308,-0.60582500696182,8.66895008087158,4.85595035552979,-2.51295018196106,1.60695004463196,1.1779500246048,0.99900007247925,-1.32770001888275,-3.63371253013611,-23.4888496398926,-5.61705017089844,-10.5600004196167,-21.42405128479,-13.4223375320435,-9.86260032653809,-2.02839994430542,8.22813701629639,8.99277496337891,3.71566247940064,-6.43305015563965,-6.82800054550171,-6.06900024414063,-1.08900010585785,-0.70995002985001,0.67500001192093,0.98642498254776,0.41648748517036,11.1295251846313,1.53900003433228,7.93800020217896,20.4589500427246,13.0781745910645,13.8015623092651,13.0114870071411,-9.65690040588379,-9.44006252288818,-8.09806251525879,28.2480010986328,28.498950958252,24.6460514068604,2.43300008773804,6.34200048446655,8.63895034790039,10.8564500808716,-1.75601243972778,-2.09879994392395,9.77700042724609,7.16205024719238,4.98000001907349,-1.6246999502182,-3.31347489356995,-3.94652509689331,0.61957502365112,-0.18053749203682,-0.77563750743866,6.53505039215088,-0.35505002737045,-3.66900014877319,3.51405024528503,0.85305005311966,0.60795003175735,-3.72033739089966,-14.7731370925903,-22.3471870422363,-5.42295026779175,-10.8229503631592,-24.2910003662109,-12.5270748138428,-7.127037525177,0.47409999370575,11.4948625564575,12.0352373123169,0.77275002002716,-9.68295001983643,-10.0740003585815,-7.7029504776001,-0.0679500028491,1.72395002841949,3.40305018424988,SHAKE
-1.75601243972778,-2.09879994392395,-2.13551259040833,7.16205024719238,4.98000001907349,3.18195009231567,-3.31347489356995,-3.94652509689331,-4.99056243896484,-0.18053749203682,-0.77563750743866,-1.4913250207901,-0.35505002737045,-3.66900014877319,-6.64905023574829,0.85305005311966,0.60795003175735,-1.14105010032654,-14.7731370925903,-22.3471870422363,-20.0279750823975,-10.8229503631592,-24.2910003662109,-18.5880012512207,-7.127037525177,0.47409999370575,1.31312501430511,12.0352373123169,0.77275002002716,-0.97762501239777,-10.0740003585815,-7.7029504776001,-3.27900004386902,1.72395002841949,3.40305018424988,3.59505009651184,-0.24076250195503,-0.17063750326633,-1.01901245117188,0.04905000329018,9.42495059967041,25.7980518341064,14.5776128768921,16.8018131256104,13.9217376708984,-17.8688125610352,-19.7584743499756,-12.0925750732422,25.8550510406494,29.2200012207031,21.5899505615234,2.5530002117157,1.5330001115799,5.34795045852661,-3.30550003051758,-2.03403759002686,-1.94768750667572,8.56800079345703,5.40405035018921,3.10305023193359,-0.45870000123978,-1.8709625005722,-3.27703738212585,0.32394999265671,-0.06916250288486,-0.54766249656677,3.87600016593933,0.80100005865097,-1.91895008087158,2.57505011558533,1.74600005149841,0.92205005884171,-4.73742485046387,-12.1888246536255,-24.6023254394531,-5.38005018234253,-9.10605049133301,-15.9660005569458,-13.0319747924805,-11.2153253555298,-7.0806999206543,7.1875376701355,8.81526279449463,10.5073375701904,-4.56795024871826,-5.16600036621094,-5.94705009460449,1.13295006752014,0.28500002622604,-0.18300001323223,SHAKE
-1.94768750667572,-2.36211252212524,-2.87141251564026,3.10305023193359,1.29000008106232,-1.05405008792877,-3.27703738212585,-4.92428731918335,-8.39506244659424,-0.54766249656677,-1.18745005130768,-2.36183738708496,-1.91895008087158,-5.32905006408691,-7.44900035858154,0.92205005884171,0.22305001318455,0.44805002212524,-24.6023254394531,-24.8083000183105,-22.069299697876,-15.9660005569458,-21.1480503082275,-19.3570518493652,-7.0806999206543,-2.07336258888245,0.33316248655319,10.5073375701904,4.20695018768311,0.33522498607635,-5.94705009460449,-5.34405040740967,0.15705001354218,-0.18300001323223,-0.18795001506805,5.72895050048828,0.08291249722242,-1.14207494258881,16.8441619873047,17.2830009460449,24.0760517120361,20.5290012359619,18.2074756622314,19.3986377716064,17.1307125091553,-19.3810367584229,-18.4806880950928,-10.19411277771,26.4180011749268,24.8230514526367,20.9790000915527,-2.70105004310608,-0.76500004529953,0.1219500079751,-2.50332498550415,-2.17497491836548,-2.20440006256104,11.5090503692627,8.10300064086914,6.72600030899048,1.46121251583099,0.14052499830723,-1.11952495574951,-0.59056252241135,-0.49032500386238,-0.40507498383522,3.99600028991699,-0.1489500105381,-4.61505031585693,1.32195007801056,0.92895007133484,1.11900007724762,0.89705002307892,4.3619122505188,5.85667514801025,-7.16400051116943,-22.1950511932373,-23.8279514312744,-8.33951282501221,-4.17958736419678,-1.21934998035431,10.4051752090454,6.68923759460449,3.05071258544922,-8.34195041656494,-7.4850001335144,-5.41305017471313,0.56295001506805,-2.91600012779236,-4.20705032348633,SHAKE
-2.17497491836548,-2.20440006256104,-1.82833743095398,8.10300064086914,6.72600030899048,5.04300022125244,0.14052499830723,-1.11952495574951,-2.40061259269714,-0.49032500386238,-0.40507498383522,-0.02186249941587,-0.1489500105381,-4.61505031585693,-8.53605079650879,0.92895007133484,1.11900007724762,1.1380500793457,4.3619122505188,5.85667514801025,5.96763753890991,-22.1950511932373,-23.8279514312744,-16.9260005950928,-4.17958736419678,-1.21934998035431,-0.78278750181198,6.68923759460449,3.05071258544922,1.97560000419617,-7.4850001335144,-5.41305017471313,-1.03500008583069,-2.91600012779236,-4.20705032348633,-3.04095005989075,0.33219999074936,-0.14423750340939,1.20642495155334,8.34794998168945,13.2120008468628,22.2289505004883,-9.90453720092773,-9.16740036010742,-8.25013732910156,14.6829376220703,13.9792127609253,11.7649126052856,26.8800010681152,23.9350509643555,18.7969512939453,5.63595008850098,7.05105018615723,9.86295032501221,-1.89461243152618,-1.82159996032715,-1.78598749637604,9.0130500793457,5.75895023345947,2.932950258255,-2.9719250202179,-4.24751234054565,-10.0665121078491,1.12901246547699,0.598537504673,-0.90420001745224,1.42095005512238,-2.19195008277893,-8.40900039672852,2.7810001373291,0.76395004987717,-2.14995002746582,-22.7591381072998,-22.2641372680664,-20.3893241882324,-17.5489501953125,-24.5059509277344,-21.6010513305664,-12.2276000976563,0.18892499804497,0.79681247472763,15.9820375442505,1.29497504234314,-1.1032999753952,-8.26095008850098,-4.19204998016357,3.58200025558472,-0.25304999947548,4.74705028533936,7.48695039749146,SHAKE
0.48468750715256,-1.89461243152618,-1.82159996032715,12.8359508514404,9.0130500793457,5.75895023345947,-2.08848738670349,-2.9719250202179,-4.24751234054565,1.63803744316101,1.12901246547699,0.598537504673,5.01405000686646,1.42095005512238,-2.19195008277893,5.71695041656494,2.7810001373291,0.76395004987717,-7.48453760147095,-22.7591381072998,-22.2641372680664,-8.97495079040527,-17.5489501953125,-24.5059509277344,-17.3188133239746,-12.2276000976563,0.18892499804497,14.9104995727539,15.9820375442505,1.29497504234314,-7.36005020141602,-8.26095008850098,-4.19204998016357,-0.57600003480911,-0.25304999947548,4.74705028533936,0.10821250081062,-0.27156248688698,0.94352501630783,7.19595050811768,11.6260509490967,16.3420505523682,20.4800758361816,20.8851490020752,17.6930866241455,-15.1584119796753,-13.2336874008179,-5.52076244354248,27.6730518341064,25.0770015716553,20.0230503082275,-0.58095002174377,-1.66605007648468,-2.19000005722046,-0.40713748335838,-1.60902500152588,-1.48335003852844,7.63395023345947,6.27795028686523,3.82605028152466,0.4298250079155,-1.29126250743866,-11.4630994796753,-0.36904999613762,-0.4448125064373,-1.88086247444153,0.50400000810623,-4.31805038452148,-8.66805076599121,2.79300022125244,1.84395003318787,3.65205025672913,-22.52414894104,-22.5788745880127,-21.8343124389648,-23.9839515686035,-22.0609512329102,-14.4499502182007,-8.12790012359619,-1.47207498550415,-1.06136250495911,9.89573764801025,1.69578754901886,0.28022500872612,-7.30500030517578,-2.66595005989075,7.87395048141479,-0.89505004882813,1.65000009536743,6.5310001373291,SHAKE
18.6289119720459,-0.40713748335838,-1.60902500152588,11.4760503768921,7.63395023345947,6.27795028686523,2.01616239547729,0.4298250079155,-1.29126250743866,-0.4433000087738,-0.36904999613762,-0.4448125064373,5.29395008087158,0.50400000810623,-4.31805038452148,2.95800018310547,2.79300022125244,1.84395003318787,-8.78047466278076,-22.52414894104,-22.5788745880127,-16.9429512023926,-23.9839515686035,-22.0609512329102,-15.7859621047974,-8.12790012359619,-1.47207498550415,8.0693244934082,9.89573764801025,1.69578754901886,-7.65195035934448,-7.30500030517578,-2.66595005989075,2.14605021476746,-0.89505004882813,1.65000009536743,-1.19515001773834,-3.05868744850159,-9.4873628616333,11.7919502258301,16.873950958252,19.4680500030518,7.93526268005371,6.92037487030029,3.76076245307922,-13.6054878234863,-10.1762371063232,-3.01166248321533,27.9990005493164,23.4940509796143,17.5540504455566,4.27005004882813,2.58900022506714,1.46805012226105,-2.35771250724792,-1.71379995346069,-1.16751253604889,8.39100074768066,5.91195011138916,3.16995024681091,-1.47702503204346,-3.17295002937317,-6.58955001831055,0.09844999760389,0.13378749787807,1.03509998321533,-2.50995016098022,-6.69405031204224,-7.90605020523071,3.00795006752014,2.0550000667572,2.82900023460388,-20.4545001983643,-20.0095500946045,-19.075511932373,-22.0969505310059,-20.4630012512207,-14.8020009994507,-6.36473751068115,-1.76701247692108,-0.59537500143051,12.6923503875732,4.72436237335205,2.51460003852844,-5.64300012588501,-3.79200029373169,1.23000001907349,-1.63695013523102,-0.46605002880096,2.29005002975464,SHAKE
-2.35771250724792,-1.71379995346069,-1.16751253604889,8.39100074768066,5.91195011138916,3.16995024681091,-1.47702503204346,-3.17295002937317,-6.58955001831055,0.09844999760389,0.13378749787807,1.03509998321533,-2.50995016098022,-6.69405031204224,-7.90605020523071,3.00795006752014,2.0550000667572,2.82900023460388,-20.4545001983643,-20.0095500946045,-19.075511932373,-22.0969505310059,-20.4630012512207,-14.8020009994507,-6.36473751068115,-1.76701247692108,-0.59537500143051,12.6923503875732,4.72436237335205,2.51460003852844,-5.64300012588501,-3.79200029373169,1.23000001907349,-1.63695013523102,-0.46605002880096,2.29005002975464,0.31611248850822,0.74456250667572,21.6273746490479,10.4190006256104,18.3010501861572,21.586950302124,10.9729127883911,11.2985124588013,10.6457996368408,-5.68919992446899,-5.23269987106323,-4.12967491149902,26.1739521026611,25.8120002746582,22.0740013122559,-0.43005001544952,0.98700004816055,1.557000041008,-0.64528751373291,-1.63308751583099,-1.59073746204376,12.0169506072998,8.33805084228516,5.22900009155273,-0.9706124663353,-2.43869996070862,-4.19801235198975,0.71101248264313,0.64707499742508,0.71871250867844,2.19495010375977,-2.69700002670288,-8.44305038452148,4.38795042037964,2.28194999694824,-0.54300004243851,-2.31948757171631,-21.6401615142822,-22.2010250091553,-12.9790506362915,-20.8180503845215,-23.5080013275146,-18.2866744995117,-14.1092872619629,-4.87849998474121,12.2458877563477,11.8842620849609,7.97431230545044,-7.47000026702881,-7.10595035552979,-4.9960503578186,2.99400019645691,0.93900007009506,-0.38505002856255,SHAKE
-0.64528751373291,-1.63308751583099,-1.59073746204376,12.0169506072998,8.33805084228516,5.22900009155273,-0.9706124663353,-2.43869996070862,-4.19801235198975,0.71101248264313,0.64707499742508,0.71871250867844,2.19495010375977,-2.69700002670288,-8.44305038452148,4.38795042037964,2.28194999694824,-0.54300004243851,-2.31948757171631,-21.6401615142822,-22.2010250091553,-12.9790506362915,-20.8180503845215,-23.5080013275146,-18.2866744995117,-14.1092872619629,-4.87849998474121,12.2458877563477,11.8842620849609,7.97431230545044,-7.47000026702881,-7.10595035552979,-4.9960503578186,2.99400019645691,0.93900007009506,-0.38505002856255,0.65065002441406,1.55292499065399,17.6743869781494,10.4910001754761,12.4380006790161,17.0509510040283,4.56321239471436,3.74398756027222,2.80307507514954,6.5535249710083,7.76132488250732,7.72736263275146,27.1270503997803,27.7570514678955,24.4849510192871,1.47105002403259,5.48205041885376,7.36695051193237,3.83185005187988,-1.49283754825592,-1.78859996795654,9.71505069732666,6.36900043487549,4.73594999313354,-2.92586255073547,-4.70442485809326,-6.79827499389648,1.72961246967316,0.49981248378754,-0.254787504673,3.82605028152466,-3.86100029945374,-6.56505012512207,4.07205009460449,2.55105018615723,1.77705013751984,-13.4758253097534,-24.668737411499,-21.6631240844727,-11.0460004806519,-17.9970016479492,-16.4490013122559,-9.85572528839111,-3.88148736953735,-0.98229998350143,15.9323997497559,8.70072460174561,4.24297475814819,-5.60700035095215,-4.80495023727417,-0.3120000064373,-4.77195024490356,-2.07300019264221,4.77105045318604,SHAKE
3.83185005187988,-1.49283754825592,-1.78859996795654,9.71505069732666,6.36900043487549,4.73594999313354,-2.92586255073547,-4.70442485809326,-6.79827499389648,1.72961246967316,0.49981248378754,-0.254787504673,3.82605028152466,-3.86100029945374,-6.56505012512207,4.07205009460449,2.55105018615723,1.77705013751984,-13.4758253097534,-24.668737411499,-21.6631240844727,-11.0460004806519,-17.9970016479492,-16.4490013122559,-9.85572528839111,-3.88148736953735,-0.98229998350143,15.9323997497559,8.70072460174561,4.24297475814819,-5.60700035095215,-4.80495023727417,-0.3120000064373,-4.77195024490356,-2.07300019264221,4.77105045318604,0.88261246681213,2.71479988098145,22.7899379730225,13.8060007095337,20.0350513458252,26.121000289917,10.6510248184204,9.73623752593994,5.21083736419678,-9.97713756561279,-6.94787502288818,-0.72586250305176,28.7490005493164,19.5439510345459,14.110050201416,1.05599999427795,1.67700004577637,2.46900010108948,-1.36441254615784,-1.79973745346069,-1.88113749027252,5.08605003356934,3.4740002155304,1.17900002002716,-1.9239000082016,-4.97873735427856,-12.883337020874,-0.60101246833801,-0.31982499361038,5.05683755874634,-6.58200025558472,-6.94305038452148,-6.07395029067993,-0.95700001716614,-0.26700001955032,-0.55500000715256,-22.2161502838135,-18.4383373260498,1.78598749637604,-20.8729515075684,-12.8280010223389,-8.16495037078857,0.35227498412132,0.00082499999553,-0.56924998760223,2.6701123714447,2.09687495231628,1.55209994316101,-4.33500003814697,-0.54405003786087,6.32895040512085,-2.50200009346008,1.54200005531311,7.33800029754639,SHAKE
1.59334993362427,-1.36441254615784,-1.79973745346069,7.9549503326416,5.08605003356934,3.4740002155304,0.75473749637604,-1.9239000082016,-4.97873735427856,-0.73287498950958,-0.60101246833801,-0.31982499361038,0.43905001878738,-6.58200025558472,-6.94305038452148,0.65100002288818,-0.95700001716614,-0.26700001955032,-22.3704242706299,-22.2161502838135,-18.4383373260498,-15.7999505996704,-20.8729515075684,-12.8280010223389,-1.46299993991852,0.35227498412132,0.00082499999553,4.68586254119873,2.6701123714447,2.09687495231628,-5.52795028686523,-4.33500003814697,-0.54405003786087,-5.08605003356934,-2.50200009346008,1.54200005531311,0.25451248884201,-0.81166249513626,7.19977474212646,9.80595016479492,22.5210018157959,23.8410015106201,7.13721227645874,7.95781230926514,2.15847492218018,-12.553750038147,-12.8188495635986,-1.41075003147125,29.8380012512207,27.3910522460938,16.6350002288818,3.40800023078919,5.41800022125244,2.48400020599365,-1.95387494564056,-1.9679000377655,-2.05878758430481,5.68905019760132,3.60795021057129,1.9410001039505,-0.50146251916885,-1.11402499675751,0.81427496671677,-0.69767498970032,-1.36702501773834,-2.15366244316101,-5.74095010757446,-7.23105049133301,-6.69900035858154,-2.51595020294189,-3.35205006599426,-3.63195013999939,-28.657886505127,-27.5992755889893,-14.0175752639771,-19.3110008239746,-11.6880006790161,-8.31105041503906,-0.42638748884201,0.11673749983311,1.04981243610382,0.20487499237061,0.22591249644756,-2.39937496185303,-3.28905010223389,0.63795000314713,15.5929508209229,-2.25705003738403,1.46295011043549,10.1170501708984,SHAKE
5.72508764266968,-2.52876257896423,-1.95387494564056,23.685001373291,9.15705013275146,5.68905019760132,1.33127498626709,0.68048751354218,-0.50146251916885,-0.25134998559952,-0.41387498378754,-0.69767498970032,6.81705045700073,2.14695000648499,-5.74095010757446,2.89995002746582,1.1620500087738,-2.51595020294189,-3.18615007400513,-15.9747495651245,-28.657886505127,-10.2130508422852,-16.114049911499,-19.3110008239746,-1.96253752708435,-3.6816999912262,-0.42638748884201,1.53078746795654,2.50566244125366,0.20487499237061,-6.59595012664795,-5.65500020980835,-3.28905010223389,-3.23505020141602,-3.48600006103516,-2.25705003738403,0.41703748703003,0.37180000543594,13.7332248687744,0.09705000370741,23.3860511779785,24.3580513000488,10.9907875061035,11.9092874526978,4.13049983978271,-13.5276622772217,-13.5178995132446,-2.11365008354187,28.2820510864258,26.2309513092041,16.7520008087158,0.69000005722046,-0.27195000648499,2.85705018043518,-1.1779625415802,-1.54838752746582,-1.61370003223419,8.1109504699707,6.01200008392334,2.76495003700256,-2.14610004425049,-4.04098749160767,-5.69841241836548,-0.12691250443459,0.8982874751091,2.95583748817444,-6.95100021362305,-9.80805015563965,-7.89900016784668,-1.75200009346008,-2.48700022697449,-1.88100004196167,8.08706283569336,9.91608715057373,6.89919996261597,-25.5030002593994,-21.3570003509521,-5.65995025634766,0.22068749368191,-0.04881250113249,-0.63566249608994,1.60201251506805,0.70235002040863,0.32078748941422,-5.050950050354,-0.23505000770092,6.09405040740967,-2.29605007171631,0.25905001163483,4.53105020523071,SHAKE
13.0238628387451,-1.00539994239807,-1.1779625415802,23.4199504852295,10.0510501861572,8.1109504699707,1.4777125120163,0.51947498321533,-2.14610004425049,-0.49623748660088,-0.50641250610352,-0.12691250443459,6.69795036315918,2.10405015945435,-6.95100021362305,4.27305030822754,1.99500012397766,-1.75200009346008,0.23512500524521,3.04438757896423,8.08706283569336,-8.89305019378662,-18.5380516052246,-25.5030002593994,-9.96902465820312,-6.11421251296997,0.22068749368191,11.5570125579834,9.20576286315918,1.60201251506805,-6.79995012283325,-7.51095056533813,-5.050950050354,-2.65500020980835,-2.72700023651123,-2.29605007171631,0.52910000085831,-0.67347496747971,-28.2211875915527,3.20295023918152,10.3039503097534,25.1340007781982,-2.70476245880127,-2.05507493019104,-0.3753750026226,-2.53151249885559,-2.60672497749329,-1.41047501564026,28.1910018920898,27.8460006713867,22.7710514068604,7.57500028610229,3.25005006790161,-1.53900003433228,-6.66558742523193,-2.75371241569519,-1.89268743991852,12.070050239563,7.77795028686523,5.42295026779175,1.05503749847412,0.17531250417233,-3.7453625202179,-0.83957499265671,-1.04871249198914,0.5458750128746,2.42700004577637,-1.48800003528595,-8.99595069885254,3.88995027542114,2.54805016517639,-1.68705010414124,8.08444976806641,18.0646133422852,20.8368873596191,-12.7680006027222,-21.2779502868652,-23.9670009613037,-11.4602127075195,-12.1488122940063,-1.18194997310638,15.6667499542236,11.8304996490479,4.22235012054443,-7.26000022888184,-7.45800018310547,-5.02005004882813,-2.61195015907288,-1.47000002861023,-0.11895000934601,SHAKE
