gyro_x_0,gyro_y_0,gyro_z_0,acc_x_0,acc_y_0,acc_z_0,gyro_x_1,gyro_y_1,gyro_z_1,acc_x_1,acc_y_1,acc_z_1,gyro_x_2,gyro_y_2,gyro_z_2,acc_x_2,acc_y_2,acc_z_2,gyro_x_3,gyro_y_3,gyro_z_3,acc_x_3,acc_y_3,acc_z_3,gyro_x_4,gyro_y_4,gyro_z_4,acc_x_4,acc_y_4,acc_z_4,gyro_x_5,gyro_y_5,gyro_z_5,acc_x_5,acc_y_5,acc_z_5,gyro_x_6,gyro_y_6,gyro_z_6,acc_x_6,acc_y_6,acc_z_6,gyro_x_7,gyro_y_7,gyro_z_7,acc_x_7,acc_y_7,acc_z_7,gyro_x_8,gyro_y_8,gyro_z_8,acc_x_8,acc_y_8,acc_z_8,gyro_x_9,gyro_y_9,gyro_z_9,acc_x_9,acc_y_9,acc_z_9,gyro_x_10,gyro_y_10,gyro_z_10,acc_x_10,acc_y_10,acc_z_10,gyro_x_11,gyro_y_11,gyro_z_11,acc_x_11,acc_y_11,acc_z_11,gyro_x_12,gyro_y_12,gyro_z_12,acc_x_12,acc_y_12,acc_z_12,gyro_x_13,gyro_y_13,gyro_z_13,acc_x_13,acc_y_13,acc_z_13,gyro_x_14,gyro_y_14,gyro_z_14,acc_x_14,acc_y_14,acc_z_14,motion_type
-0.17898350954056,-0.13927727937698,-0.08491026610136,0.08933904021978,0.118049710989,0.03191770985723,-0.12210428714752,0.08379705995321,0.12928688526154,9.89074611663818,9.78540134429932,9.7087869644165,-0.14989106357098,-0.06681338697672,-0.04848742857575,-2.70544791221619,-2.46842193603516,-2.41574954986572,-0.00794124789536,-0.00305432616733,-0.01160643994808,0.04169155284762,0.03130684420466,0.07162395119667,0.40222588181496,0.428562104702,0.217872351408,9.3544454574585,9.12220764160156,8.82053852081299,-0.28489229083061,-0.45898887515068,-0.33559408783913,-3.68707060813904,-3.68707060813904,-9.50767421722412,0.32803463935852,0.48319441080093,0.1069014146924,-0.53191089630127,-0.34804046154022,0.52671855688095,-9.34726238250732,-17.3250427246094,-27.9532032012939,11.2099514007568,12.4190235137939,14.2841062545776,14.5408067703247,17.0838394165039,17.2542705535889,-9.5914716720581,3.59369683265686,11.9904613494873,-1.40071403980255,-1.3756685256958,-2.48255634307861,-2.67849135398865,-2.1934642791748,0.45769077539444,-20.7272033691406,-11.5595054626465,-6.37605857849121,8.2028341293335,10.0703115463257,11.9880676269531,6.44806432723999,4.14449167251587,1.60329222679138,23.0423965454102,19.4822177886963,14.2481937408447,-0.18264870345592,0.03787364438176,0.13683381676674,-0.04871650412679,0.19868391752243,0.22556199133396,0.30406361818314,0.35194763541222,0.01915361359715,10.4773254394531,9.79018974304199,9.27304267883301,-1.99836933612823,-1.65445220470428,-1.27938091754913,-1.48919343948364,-2.17872357368469,-2.34152936935425,SWING_LEFT
0.01343903504312,-0.05192354694009,-0.12217304855585,-0.24480424821377,-0.25885415077209,0.08689557760954,-2.11647439002991,-1.77170920372009,-0.62488663196564,9.68005657196045,10.3240966796875,10.0822830200195,-2.05395793914795,-2.10221648216248,-2.09916210174561,-1.66397023200989,-2.20027136802673,-3.15555787086487,0.19669860601425,0.23396138846874,0.29932397603989,0.48884490132332,0.35323283076286,0.30986139178276,-2.08774399757385,-2.31519293785095,-2.84431171417236,9.37599277496338,9.41429996490478,9.60823059082031,-0.60926175117493,0.24961480498314,1.88917708396912,-8.16931533813477,-11.6744270324707,-19.8413486480713,0.52900928258896,0.67317348718643,0.26572638750076,-0.72799867391586,-0.52396965026855,1.08077335357666,-21.0456314086914,-28.9204597473145,-36.3284187316895,12.2945251464844,12.4573307037354,10.8125143051147,17.0361919403076,17.2310581207275,15.3129405975342,9.48373222351074,16.6115703582764,21.553201675415,-2.13741755485535,-1.85641944408417,-1.20096111297607,-0.46043968200684,-0.93508195877075,-1.74325668811798,-10.8173027038574,-7.10150146484375,-3.57933163642883,11.3129024505615,11.7462530136108,12.8882865905762,3.56600213050842,1.65155053138733,0.35468363761902,16.2308921813965,12.186785697937,8.98573780059814,-0.08613199740648,-0.00061086524511,0.04825835302472,-0.45433104038239,-0.15378531813622,0.2133446931839,-0.30885201692581,-0.23463176190853,-0.43574470281601,10.4940853118896,10.228328704834,9.89553451538086,-1.34535431861877,-1.24700498580933,-1.01854145526886,0.43813890218735,-0.5434837937355,-1.04387199878693,SWING_LEFT
0.51740288734436,0.28221973776817,0.26083946228027,1.01968681812286,1.46134233474731,0.64644813537598,-2.18590617179871,-2.05422496795654,-1.95845699310303,9.57950019836426,7.9059534072876,6.46224975585938,-3.94336414337158,-3.36059880256653,-2.61656498908997,-3.11485648155212,-4.3143515586853,-5.39443588256836,-0.26816985011101,-0.14110986888409,-0.11423180252314,-0.18982636928558,-0.21120665967464,-0.28878653049469,-2.67911171913147,-2.33913516998291,-2.46842193603516,10.0918598175049,9.67287445068359,9.92905330657959,0.17020232975483,0.66072714328766,1.55564475059509,-4.99460411071777,-6.67533349990845,-11.0136270523071,-0.14233160018921,0.22968533635139,0.3500257730484,-0.21670444309711,-0.1745547503233,1.52426147460938,-12.0215864181519,-19.1997013092041,-27.7616672515869,13.6209125518799,15.1008291244507,15.4695358276367,14.5518026351929,16.0496444702148,16.0759124755859,-1.60411512851715,8.11185455322266,13.338397026062,-0.71959924697876,-0.97982788085938,-1.41293132305145,-0.33460143208504,-1.34680509567261,-0.78786343336105,-15.5868520736694,-7.82933902740479,-4.45560932159424,6.23240613937378,10.000880241394,10.2714242935181,5.86652088165283,3.15305733680725,1.22699916362762,20.3896198272705,16.5995998382568,12.8068838119507,-1.11421823501587,-0.97860610485077,-0.66584312915802,-0.67240989208221,-0.45799621939659,-0.12263119965792,-0.5147533416748,-0.25139117240906,-0.46208092570305,10.6305551528931,11.3416328430176,11.5044384002686,-1.91712427139282,-1.8645898103714,-1.59764170646667,1.86268889904022,0.07182604819536,-0.82360535860062,SWING_LEFT
-0.38484510779381,-0.28710666298866,-0.30237829685211,-0.11468994617462,0.30375275015831,0.25977045297623,-2.41096115112305,-1.81241071224213,-1.39581954479218,10.9872913360596,9.91947650909424,9.94820690155029,-0.58665972948074,-0.55122953653336,-0.48220175504684,-2.25294375419617,-2.74614930152893,-3.23935484886169,-0.01527163106948,0.17592918872833,0.33169981837273,-0.0169515106827,-0.16294831037521,-0.39324450492859,-1.15879356861115,-1.29047477245331,-1.76452660560608,10.1062250137329,9.72794055938721,9.33768558502197,0.14698944985867,0.51106512546539,1.27586841583252,-5.09037208557129,-7.1302318572998,-11.3009309768677,1.12826812267303,1.68720984458923,1.8735237121582,-1.04748117923737,-1.58870780467987,-0.62048637866974,-13.2498111724854,-21.9051494598389,-29.3131084442139,12.3615627288818,13.7118921279907,14.5905647277832,14.61838722229,16.317813873291,16.7839050292969,-2.32955837249756,8.97376728057861,18.5029888153076,-0.22785273194313,-0.88819807767868,-0.9523389339447,0.29214629530907,-0.21731531620026,-0.78847432136536,-16.0369606018066,-10.1708679199219,-5.56921243667603,6.17973375320435,8.84448051452637,10.3073377609253,5.2324423789978,2.68757796287537,0.74624824523926,20.8014221191406,17.2436389923096,13.5371160507202,0.22540926933289,0.39950588345528,0.4324925839901,-0.08964447677135,0.24083362519741,0.47846019268036,0.56742578744888,0.71586632728577,0.66319388151169,10.8795518875122,10.0679178237915,9.10784244537354,-2.25554347038269,-2.09794044494629,-1.77418172359467,0.73980832099915,-0.67516487836838,-1.12527477741241,SWING_LEFT
0.129503428936,0.08002334833145,0.12034045159817,0.04780020564795,-0.15928311645985,-0.65041875839233,-3.56736063957214,-3.26808524131775,-2.95444488525391,9.16530323028564,9.1964282989502,9.62977886199951,-1.7289776802063,-1.46325135231018,-1.23478770256042,-3.86663579940796,-3.27526783943176,-3.56017804145813,-0.28221973776817,-0.13866640627384,-0.02932153269649,0.08139779418707,-0.05054909735918,0.06429356336594,-1.4676456451416,-1.44370365142822,-1.8171991109848,9.73272895812988,10.0272159576416,9.73991203308106,0.06513350456953,0.27160596847534,0.68882691860199,-3.9767689704895,-4.96587371826172,-8.43986034393311,0.15393804013729,0.28283059597015,0.43188172578812,-0.7383833527565,-1.04137253761292,-0.79641556739807,-9.3927526473999,-14.5474691390991,-23.1549224853516,10.5323925018311,11.9066638946533,12.78773021698,11.59521484375,14.6116676330566,15.6360883712769,-11.7127342224121,0.63446342945099,7.79342603683472,0.81245076656342,-0.32925635576248,-0.96577793359756,1.28602409362793,0.57986384630203,-0.72005742788315,-24.098237991333,-15.1415300369263,-7.47020864486694,5.92834281921387,5.59554862976074,8.34888076782227,7.81456995010376,4.46641778945923,1.9001727104187,23.0184535980225,19.1542129516602,15.08167552948,-0.731205701828,-0.50762903690338,-0.26206117868423,-0.87704980373383,-0.32543846964836,-0.06765332818031,-1.15400516986847,-1.13245737552643,-1.24019646644592,11.1548852920532,10.6401319503784,10.1900215148926,-1.75402319431305,-1.62940669059753,-1.40644085407257,1.75255560874939,0.28251579403877,-0.56742578744888,SWING_LEFT
-0.02321287989616,-0.11545353382826,-0.21624629199505,-0.07376197725534,0.21212296187878,0.46318855881691,-0.83318221569061,-1.18273568153381,-1.54904854297638,9.48133754730225,9.3544454574585,9.00489139556885,-1.66666948795319,-1.33069360256195,-1.0600802898407,-3.26808524131775,-3.38779544830322,-3.28245043754578,-0.41050145030022,-0.23090706765652,-0.06414084881544,0.50472742319107,0.27626380324364,-0.03833179548383,-1.78368031978607,-1.98000478744507,-2.1978771686554,9.81652641296387,9.59386539459228,9.61062526702881,-0.31604641675949,0.08345946669579,0.92339915037155,-5.24120664596558,-6.94827270507813,-11.5762643814087,0.8533787727356,1.14109623432159,1.52044355869293,-2.1067214012146,-2.41948461532593,-1.16965425014496,-13.3790979385376,-17.6482601165771,-23.7223491668701,11.4134588241577,14.0542631149292,13.4581069946289,12.5909252166748,14.8328008651733,15.0856990814209,-5.0784010887146,5.38485908508301,11.818078994751,-2.25042748451233,-2.47033905982971,-2.09282422065735,2.85655856132507,0.49373182654381,-1.297935962677,-16.7576160430908,-13.0319395065308,-8.62660789489746,8.10946083068848,9.48373222351074,11.4541597366333,7.58121967315674,5.14692163467407,2.88305497169495,17.4639053344727,16.0034427642822,13.8723039627075,-0.8533787727356,-0.43737950921059,0.03420845419168,-1.4567608833313,-0.86666506528854,-0.41340306401253,-0.30885201692581,-0.02394201606512,-0.30406361818314,13.2067155838013,12.7566061019897,12.0886240005493,-1.83404648303986,-1.85970282554626,-1.68927145004272,2.26252055168152,0.30645781755447,-0.98162269592285,SWING_LEFT
-0.96638882160187,-0.80267691612244,-0.66889744997025,-0.17333301901817,0.21762074530125,0.44852781295776,-2.45645093917847,-1.60650932788849,-1.98958158493042,10.3600101470947,10.3480386734009,10.0224275588989,-2.10771417617798,-1.43942761421204,-1.20668792724609,-3.33272886276245,-3.46440982818604,-3.96000957489014,-0.13988813757896,0.00733038317412,0.08002334833145,0.37766742706299,0.33857205510139,0.16386459767818,-2.65516972541809,-3.44046783447266,-3.88339519500732,10.2546653747559,9.77582454681396,9.44542503356934,0.62651866674423,1.28442049026489,2.29784607887268,-6.83335113525391,-8.44704246520996,-12.0359516143799,1.04824471473694,2.04639863967896,2.65359854698181,-2.18430137634277,-2.69498467445374,-2.01570248603821,-13.0295448303223,-19.1781539916992,-27.9101066589355,11.7414646148682,11.5954179763794,8.57633018493652,14.7686595916748,16.3343067169189,16.1272239685059,-1.09654438495636,10.1660795211792,17.5764331817627,-1.49356555938721,-1.45447015762329,-1.07634460926056,0.90789848566055,0.11255192011595,-0.49831333756447,-12.378321647644,-6.5268931388855,-3.50511121749878,10.0535526275635,12.5722522735596,13.4533185958862,3.88304138183594,1.48111915588379,-0.16149750351906,18.512565612793,14.1811561584473,9.96975517272949,-0.07086037099361,0.07880161702633,0.34758231043816,-0.40240746736526,-0.12385293096304,0.19929479062557,-2.44687414169312,-1.52510643005371,-1.11569797992706,11.5642938613892,11.3176908493042,9.82131481170654,-1.56770932674408,-1.31664371490479,-1.01609802246094,-0.6703764796257,-1.49398183822632,-1.61129772663116,SWING_LEFT
0.03665191307664,0.00305432616733,-0.2767219543457,0.07834346592426,0.0233655963093,0.33307427167892,-2.03028297424316,-1.85311210155487,-1.93212080001831,9.00967979431152,8.82293224334717,8.70322227478027,-1.36856722831726,-1.27632653713226,-1.12910807132721,-3.2968156337738,-3.7349545955658,-3.7349545955658,0.12156218290329,0.08735372871161,0.04459316283464,-0.37247508764267,-0.22953261435032,-0.29917123913765,-2.59052634239197,-3.23935484886169,-4.31195735931396,9.30895519256592,8.77504825592041,8.54520511627197,0.49457177519798,1.41820001602173,3.23002624511719,-8.51647472381592,-11.925817489624,-15.6443128585815,0.35308012366295,-0.51068335771561,-2.47217154502869,-1.08718740940094,0.80038619041443,3.29638147354126,-17.9379577636719,-26.3897895812988,-26.3897895812988,9.53640460968018,9.01446914672852,9.01446914672852,14.8841133117676,14.9177112579346,14.4247426986694,5.24360084533691,10.1541090011597,13.5227508544922,-0.48319441080093,-1.12948977947235,-0.73792523145676,-0.67057734727859,-0.62109726667404,-2.00837230682373,-12.7494230270386,-6.71124649047852,-1.25456166267395,10.1229839324951,11.1500968933105,12.433388710022,4.50368022918701,1.84091877937317,0.35162931680679,17.3561668395996,12.4740905761719,8.73434734344482,-0.44898596405983,-0.29016098380089,-0.12705996632576,-0.97112303972244,-0.46043968200684,-0.09880745410919,0.59615623950958,0.52672439813614,0.60812723636627,10.3193082809448,9.96496677398682,9.30656147003174,-0.99471771717072,-0.92080301046371,-0.82550799846649,0.6703764796257,0.08619125932455,-0.31124621629715,SWING_LEFT
0.96516710519791,0.59986966848373,0.17287486791611,1.26769804954529,1.08810377120972,0.65805459022522,-2.56897830963135,-2.04225397109985,-1.96563959121704,7.55400562286377,6.6849102973938,6.98179149627686,-2.71796846389771,-2.4546856880188,-1.91529166698456,-3.97437477111816,-5.94031381607056,-5.94031381607056,-0.12705996632576,-0.26511552929878,-0.3897320330143,0.74785178899765,0.7722864151001,0.52183163166046,-2.06140756607056,-2.18111777305603,-2.33434677124023,8.40394687652588,7.81257963180542,8.07833576202393,-0.19998200237751,0.39011383056641,1.83969700336456,-8.3800048828125,-12.7589998245239,-17.7607860565186,0.25656339526176,-0.17348572611809,-1.25532805919647,-1.47997379302979,-0.5050328373909,0.53465980291367,-16.2045555114746,-22.316951751709,-28.1279792785645,9.70399856567383,7.57315921783447,5.4351372718811,13.8651905059814,15.4143447875977,15.0954732894897,-3.95282697677612,9.44542503356934,16.9635181427002,-2.77943682670593,-2.11298298835754,-1.64383840560913,0.97998058795929,-0.36575555801392,-0.89415401220322,-15.0840692520142,-9.46457862854004,-6.26831912994385,14.6192951202393,14.4732484817505,13.2857246398926,4.95938587188721,3.10235548019409,1.60512483119965,14.6240835189819,11.8348379135132,8.3800048828125,-0.84543752670288,-0.46853363513947,-0.09224065393209,-1.66934204101563,-1.09879386425018,-0.27107146382332,-1.71664261817932,-0.87388360500336,-0.00718260509893,12.4740905761719,12.6752033233643,11.6241483688354,-0.27450758218765,-0.59215748310089,-0.84566658735275,2.09013819694519,1.40539634227753,0.7972691655159,SWING_LEFT
0.03298672288656,0.0842994004488,0.03909537568688,-0.13240504264832,0.01970040425658,-0.03772092983127,-0.9720458984375,-0.89064306020737,-0.66558808088303,9.87638092041016,9.15572643280029,8.91151809692383,-0.62392246723175,-0.56833374500275,-0.47731482982635,-4.76685571670532,-5.20050525665283,-6.00256299972534,0.07513642311096,-0.08918632566929,-0.29871311783791,-0.16783522069454,0.06185010448098,-0.04382958263159,-1.81241071224213,-2.71981310844421,-3.93367338180542,8.68167495727539,7.98496198654175,7.98735618591309,1.29908132553101,2.6845235824585,5.2080078125,-12.3041019439697,-16.051326751709,-19.7743110656738,-1.58947134017944,-2.19544959068298,-3.0659327507019,-0.93935805559158,-0.60704731941223,0.56581395864487,-20.7631149291992,-25.2645149230957,-28.2788143157959,6.74955368041992,7.37444067001343,10.4485950469971,14.673975944519,14.8700637817383,13.3819961547852,5.61709642410278,13.7214689254761,19.4750347137451,-0.83871799707413,-0.70371675491333,-0.27183502912521,0.04291328415275,-0.53252178430557,-1.5801557302475,-9.13657283782959,-4.95390272140503,-2.01831197738647,14.3990278244019,13.5706348419189,13.2809362411499,1.88245761394501,0.14271339774132,-0.87071204185486,13.1085538864136,8.74392414093018,4.85544109344482,0.13194689154625,0.21746802330017,0.28405234217644,-0.44211372733116,0.0404698215425,0.30680707097054,-0.59136784076691,0.07661445438862,0.82839381694794,10.1445322036743,9.4119062423706,8.43746566772461,-1.44920146465302,-1.47607946395874,-1.44736886024475,-0.55545479059219,-1.29047477245331,-1.8866308927536,SWING_LEFT
0.21074850857258,0.02382374368608,-0.15027284622192,0.80038619041443,0.61162883043289,0.47846019268036,-1.23061966896057,-1.28329205513,-1.48201084136963,8.12861442565918,7.94186639785767,8.32015037536621,-2.2891411781311,-2.06861877441406,-1.8768070936203,-3.94803857803345,-4.05098915100098,-4.21618938446045,-0.44043383002281,-0.38667771220207,-0.28405234217644,0.65500026941299,0.22006420791149,-0.17211128771305,-2.58334374427795,-3.8690299987793,-5.26993703842163,8.27705478668213,8.27226638793945,8.18846893310547,-0.4669301211834,0.80794566869736,2.51653575897217,-10.3647985458374,-13.1708030700684,-14.3415670394897,0.16065755486488,-0.01343903504312,-0.92301738262177,-2.32907652854919,-0.96562522649765,1.49310731887817,-22.3121643066406,-30.0241870880127,-36.2829284667969,10.4031057357788,9.66569137573242,11.8228673934937,17.2243385314941,17.1681385040283,15.0392732620239,10.0822830200195,16.5014362335205,20.4470806121826,-1.203404545784,-0.87231558561325,-0.88819807767868,-0.52152621746063,-1.82816696166992,-2.07984352111816,-9.08629512786865,-4.71657752990723,-2.42532634735107,12.0838356018066,11.54274559021,11.4900732040405,2.36626291275024,0.60636013746262,-0.40828704833984,13.9896202087402,10.0942535400391,6.54844093322754,-0.72631877660751,-0.35308012366295,-0.10629054903984,-1.15865862369537,-0.63087105751038,-0.14278975129128,-1.15161097049713,-0.71107792854309,-0.3687070608139,12.0958061218262,11.2650184631348,10.051157951355,-1.05580425262451,-1.04358696937561,-1.01731967926025,0.71107792854309,0.19393034279346,-0.42616790533066,SWING_LEFT
-0.16432274878025,-0.51923543214798,-0.84604835510254,-0.91981035470963,-0.85933470726013,-0.36025777459145,-0.60094463825226,-0.88824880123138,-0.90261405706406,8.92588329315186,9.43345355987549,10.5228157043457,-3.63426637649536,-3.50781726837158,-3.19383263587952,-1.62805712223053,-2.26970314979553,-2.70784211158752,-0.75686204433441,-0.56749379634857,-0.5839871764183,2.06548810005188,1.87734162807465,1.607950091362,-3.18668246269226,-4.02465295791626,-5.5740008354187,9.54358768463135,8.93785381317139,8.42549514770508,-1.40399742126465,0.07673994451761,2.75110793113709,-10.2474822998047,-16.4008808135986,-19.2787113189697,0.41722095012665,0.47403141856194,0.09162978827953,-1.91674244403839,-0.77381354570389,0.53404891490936,-15.9435873031616,-22.3552589416504,-28.8677883148193,11.585841178894,10.5850648880005,9.06953525543213,14.8211946487427,16.1339435577393,15.9164752960205,-1.18034148216248,9.53879928588867,16.0441436767578,-1.80205249786377,-1.29320168495178,-0.7617489695549,-0.71700310707092,-1.02854430675507,-1.32725751399994,-14.6695728302002,-8.382399559021,-5.37767648696899,13.1301012039185,14.6192951202393,12.5914058685303,4.45175695419312,2.01501536369324,0.00893390458077,17.6722011566162,14.8135242462158,10.8867340087891,-0.48014008998871,-0.29626965522766,-0.20280726253986,-0.70661836862564,-0.55634552240372,-0.3058907687664,-0.7493851184845,-1.10133278369904,-1.08696758747101,10.9082822799683,10.2211465835571,9.89074611663818,-2.15780520439148,-1.88841354846954,-1.53105735778809,-0.82121115922928,-1.75494980812073,-2.09971499443054,SWING_LEFT
0.09101892262697,-0.30848693847656,-0.70310592651367,-0.88315844535828,-0.42928555607796,0.43936482071877,-2.96162748336792,-3.21301865577698,-3.84748220443726,7.97059679031372,8.32733249664307,8.72716426849365,-3.78392839431763,-3.16634368896484,-2.38810133934021,-5.07121849060059,-6.62026691436768,-7.81976222991943,-0.42516219615936,-0.07513642311096,0.18448130786419,0.27015516161919,-0.28084528446198,-0.65591657161713,-4.95390272140503,-5.83257484436035,-6.34014558792114,9.43824195861816,9.97933197021484,9.79497814178467,1.19156897068024,2.14818406105042,3.36075139045715,-9.8691987991333,-9.8691987991333,-12.8188552856445,0.22357667982578,0.31703907251358,0.0177150927484,-2.15192556381226,-1.19164538383484,0.84986627101898,-15.3067302703857,-22.1182346343994,-31.8389911651611,10.8053312301636,10.9825029373169,8.62660789489746,16.2188549041748,16.6977729797363,15.8871545791626,4.3454761505127,11.8683567047119,11.8683567047119,-2.10076546669006,-1.14720487594604,-1.04885566234589,-0.49953505396843,-0.88804537057877,-0.99800109863281,-9.32571506500244,-8.62181949615479,-5.75595998764038,14.0734167098999,11.6002063751221,11.310507774353,5.40043067932129,3.13106608390808,1.45668458938599,15.6395244598389,12.6273193359375,9.41908836364746,-0.75808376073837,-0.76907932758331,-0.58643060922623,-0.96318179368973,-1.02426826953888,-0.58383446931839,-1.8674772977829,-0.98401689529419,-0.37828385829926,10.1900215148926,11.4517660140991,11.9330005645752,-1.22195959091187,-1.26472008228302,-1.17309033870697,1.64721071720123,0.25857377052307,-0.68474167585373,SWING_LEFT
-0.06230825558305,-0.06597344577312,-0.11789698898792,0.72097373008728,0.79122322797775,0.79061233997345,-2.04464817047119,-1.56580793857574,-1.58496153354645,9.38796424865723,8.89954662322998,8.65054988861084,-1.78762078285217,-1.54327464103699,-1.32519578933716,-3.52665901184082,-3.84269380569458,-4.1659107208252,-0.4850270152092,-0.50946164131165,-0.58459806442261,0.97142845392227,0.93783086538315,0.80038619041443,-2.69108271598816,-3.36624765396118,-4.66869354248047,8.45422554016113,8.09748935699463,8.15973854064941,0.35834881663322,2.02051305770874,4.96793794631958,-11.8659629821777,-17.5884037017822,-21.0097179412842,-0.39522981643677,-0.46181413531303,-1.46363317966461,-1.53556251525879,-0.40607267618179,0.27137687802315,-21.5819320678711,-27.4288730621338,-32.3705062866211,10.3336734771729,6.83574533462524,3.65355181694031,15.9164752960205,15.6739625930786,14.5279788970947,4.27843856811523,11.5738706588745,14.9212636947632,-1.75990271568298,-1.08489668369293,-1.13132238388062,-1.64918339252472,-1.42988276481628,-1.65651381015778,-12.7350578308105,-8.99292087554932,-6.40000057220459,15.7305040359497,13.4054346084595,10.8795518875122,2.01745891571045,0.51656293869019,-0.39973494410515,12.4214172363281,9.11263084411621,6.2587423324585,-0.42577308416367,0.00244346098043,0.22418753802776,-1.08352220058441,-0.29061913490295,0.1846340149641,-1.17794728279114,-0.90979665517807,-0.78529816865921,12.8643445968628,11.2195281982422,9.90032291412354,-1.1523209810257,-1.06741070747375,-0.86093819141388,0.29448682069778,-0.59855043888092,-0.89782565832138,SWING_LEFT
0.21563543379307,0.22113321721554,0.36468654870987,0.89079421758652,0.9011789560318,0.23716843128204,-1.80043971538544,-2.1284453868866,-2.68150591850281,9.00010299682617,7.78384876251221,7.90116500854492,-2.53715252876282,-2.25310015678406,-1.87741792201996,-4.61362648010254,-5.25078344345093,-5.85412263870239,-0.04948008432984,-0.25473082065582,-0.4147774875164,-0.33582317829132,-0.42562034726143,-0.4225660264492,-5.21008205413818,-5.90440082550049,-6.68730449676514,7.89637660980225,8.19804573059082,8.71519374847412,1.3479505777359,2.67597150802612,4.30759286880493,-10.1158018112183,-11.3152961730957,-14.037504196167,0.16554448008537,-0.08307767659426,-0.74953162670135,-2.31991338729858,-1.90635776519775,-1.06153106689453,-18.5939693450928,-25.7672958374023,-37.7170562744141,7.00812768936157,5.32021522521973,1.86987149715424,17.1846313476563,17.8529186248779,12.240288734436,7.99214458465576,16.8629608154297,19.5468616485596,-0.40927970409393,-0.4202753007412,-0.67989301681519,-1.29243814945221,-1.67239630222321,-1.66078984737396,-7.63540840148926,-5.54287624359131,-3.95282697677612,12.3471975326538,11.0710878372192,10.1205902099609,2.33510875701904,1.15858232975006,0.4072180390358,9.74470043182373,7.04882907867432,5.14065027236938,-0.45937067270279,-0.21807889640331,-0.0226020142436,-1.3413074016571,-0.76159626245499,-0.31749722361565,-0.58418524265289,-0.25139117240906,-0.38067805767059,11.1979808807373,10.6736507415771,9.71357536315918,-0.6734025478363,-0.67401343584061,-0.60193133354187,0.61530983448029,-0.07422025501728,-0.41898530721664,SWING_LEFT
0.26633724570274,0.09590584039688,-0.03848451003432,0.8272642493248,1.28968930244446,0.98853266239166,-2.0135235786438,-1.47961664199829,-2.05661916732788,9.47654914855957,8.99292087554932,8.70322227478027,-2.76072907447815,-2.50416564941406,-1.86825501918793,-3.60087943077087,-4.64475107192993,-5.30106163024902,0.08185594528913,-0.00488692196086,0.05619960278273,0.25488352775574,0.11071932315826,-0.0169515106827,-3.58412003517151,-3.41413164138794,-3.39737224578857,9.06953525543213,9.44303035736084,9.50288581848144,0.05474879592657,0.39561161398888,2.17750549316406,-6.1390323638916,-7.24754762649536,-15.0529441833496,-0.55405479669571,-0.22235494852066,0.04825835302472,-1.53250813484192,-2.28142905235291,-1.3956743478775,-17.9858417510986,-24.8886241912842,-33.8189964294434,8.50689792633057,9.95060157775879,12.4070520401001,16.2884922027588,17.3458995819092,16.9292907714844,-1.38145434856415,9.16769790649414,14.7895822525024,-1.53205001354218,-0.55466562509537,-0.32986724376678,-1.17759549617767,-2.71819758415222,-2.51661205291748,-23.7223491668701,-17.0951995849609,-13.3216371536255,10.1852331161499,11.7606182098389,10.3384618759155,7.56594800949097,4.72114849090576,2.14146447181702,21.1557655334473,19.2715282440186,16.2356796264648,-0.51618111133575,-0.21685716509819,0.11911872029305,-1.01144015789032,-0.38957929611206,0.35384368896484,0.11013327538967,-0.18435353040695,-0.08379705995321,11.9497594833374,11.0232038497925,9.45500183105469,-1.91834592819214,-1.83954429626465,-1.68988239765167,1.73340201377869,0.58657944202423,-0.14365209639072,SWING_LEFT
0.81489425897598,0.27366763353348,-0.48930305242538,1.67209088802338,1.80220520496368,2.32082986831665,-3.13401007652283,-3.54820680618286,-2.56897830963135,7.11586666107178,6.7040638923645,7.18290424346924,-2.7625617980957,-2.56464147567749,-2.37954926490784,-4.46518611907959,-5.37049388885498,-5.80623817443848,0.09957103431225,0.29382619261742,0.32314771413803,1.2634220123291,1.06611251831055,0.79122322797775,-3.33512306213379,-3.98634576797485,-4.9012303352356,8.8372974395752,7.98735618591309,6.84053373336792,-1.23600947856903,0.62529695034027,2.98262596130371,-9.31853199005127,-17.5141830444336,-22.1038684844971,-0.75686204433441,-1.11971604824066,-2.45445656776428,-1.46775650978088,-2.22706198692322,-1.59848165512085,-18.8142356872559,-26.942850112915,-35.464111328125,4.09408473968506,1.49398183822632,2.17154097557068,15.4754314422607,15.8309545516968,14.7258996963501,4.67108774185181,13.1995334625244,17.5165786743164,-2.02196407318115,-1.47157442569733,-1.52105450630188,-1.60520112514496,-1.95644867420197,-2.3412938117981,-13.4413480758667,-10.1086187362671,-7.7072343826294,13.5706348419189,11.2458648681641,11.1261548995972,4.5714864730835,2.61366319656372,1.09199798107147,15.0385789871216,12.2083339691162,9.11981391906738,-0.71532320976257,-0.37812557816505,-0.14966198801994,-1.33397698402405,-0.97967511415482,-0.51297408342361,-1.32638776302338,-1.18512988090515,-1.35511815547943,11.6337251663208,11.1572790145874,10.2666358947754,-0.87254464626312,-0.83161669969559,-0.8517752289772,1.30723416805267,1.01992988586426,1.00077629089355,SWING_LEFT
-0.12400564551353,-0.36346483230591,-0.51862460374832,0.82420992851257,1.88283944129944,2.6390905380249,-3.79002118110657,-4.26646757125854,-4.42448472976685,9.97693729400635,9.6896333694458,8.72477054595947,-1.76562964916229,-1.22745740413666,-0.46448665857315,-7.61864900588989,-8.9953145980835,-10.134955406189,-0.04764748737216,0.2138028293848,0.23762658238411,0.28359419107437,-0.7994698882103,-1.21424734592438,-6.00256299972534,-6.12706136703491,-6.58914232254028,7.02728128433228,7.24036502838135,7.75751256942749,3.21536564826965,4.35218572616577,6.17500782012939,-11.6863975524902,-13.7525939941406,-15.8238773345947,-0.49907690286636,-0.21441370248795,-0.50701814889908,-2.464688539505,-1.62658143043518,0.0258090570569,-21.8357181549072,-29.0258045196533,-38.6148834228516,9.15812110900879,9.33050346374512,5.6434326171875,16.4656429290771,16.3709602355957,14.857234954834,8.23874759674072,13.7789297103882,18.4479217529297,-1.57725405693054,-1.18385684490204,-0.99082344770432,-1.24906671047211,-1.99310052394867,-2.23866844177246,-16.130334854126,-13.9824371337891,-9.24910068511963,12.0191917419434,11.1405200958252,11.4541597366333,5.4737343788147,3.2581262588501,1.22211229801178,17.2484283447266,14.8470430374146,11.8683567047119,-0.15638150274754,0.10323622822762,0.18997909128666,-1.12261760234833,-0.38408151268959,0.14981469511986,0.66558808088303,0.91219085454941,0.90500825643539,11.8899049758911,10.8651866912842,9.45979022979736,-2.07717084884644,-2.11932063102722,-1.83710086345673,1.55144274234772,-0.21547815203667,-0.89064306020737,SWING_LEFT
0.05131268128753,0.04031710699201,0.00916297826916,0.69714993238449,0.67454797029495,0.66966104507446,-3.12922167778015,-2.46123933792114,-1.85071790218353,9.39993476867676,9.11741924285889,8.86602783203125,-0.03749185428023,-0.1511127948761,-0.2677880525589,-3.37821865081787,-3.34948825836182,-3.32794046401978,0.00549778714776,-0.16982053220272,-0.1490511149168,0.57803124189377,0.80282962322235,0.71791934967041,-1.21386027336121,-1.72621941566467,-2.80361008644104,7.64259099960327,7.70962858200073,7.99214458465576,-0.61598122119904,-0.05032002553344,2.04250431060791,-8.12621974945068,-15.436017036438,-23.7702331542969,0.32436943054199,0.1472185254097,-1.03847086429596,-2.88007688522339,-1.98821365833282,0.75945824384689,-21.2635040283203,-28.8031444549561,-34.4130592346191,8.93067169189453,8.46619606018066,7.47020864486694,16.1999168395996,15.9366340637207,15.0973052978516,4.76924991607666,11.9856729507446,15.8669729232788,-1.86863672733307,-1.50028502941132,-1.51922190189362,-2.2069034576416,-2.11038661003113,-2.44269728660584,-14.2912893295288,-11.0998182296753,-8.76307773590088,11.458948135376,10.000880241394,8.86363410949707,5.56353139877319,3.78469204902649,2.40719079971313,16.0728740692139,14.5211324691772,12.7542114257813,-1.0867292881012,-0.76969021558762,-0.54489177465439,-1.37246143817902,-0.98578381538391,-0.63575798273087,0.08140286058187,-0.35673606395721,-0.48841714859009,11.4828910827637,10.9968681335449,10.6928043365479,-1.44309282302856,-1.44248187541962,-1.43087542057037,2.76530289649963,1.90339040756226,1.11569797992706,SWING_LEFT
-0.11301007121801,-0.13316862285137,-0.1148426681757,0.00259617739357,-0.05360342562199,-0.11774427443743,-1.76452660560608,-1.52989482879639,-1.49877023696899,9.3735990524292,9.534010887146,9.58428859710693,0.04008803144097,0.06269004940987,0.02542726509273,-3.00951147079468,-2.88980150222778,-2.95444488525391,-0.02687807008624,-0.02076941914856,-0.06780604273081,0.13393220305443,0.15164729952812,0.13454307615757,-1.28089785575867,-1.52989482879639,-1.84832370281219,9.23952388763428,8.65294456481934,7.89398241043091,-0.31299206614494,-0.19081902503967,0.32841643691063,-5.72483539581299,-8.21241092681885,-12.2035455703735,0.11667526513338,0.2852740585804,0.60720002651215,-1.52151262760162,-2.1635320186615,-2.54165768623352,-11.4038820266724,-16.5421371459961,-23.2339324951172,8.75350093841553,9.27783107757568,8.9953145980835,11.7008943557739,14.3825931549072,15.7387142181396,-13.2306575775146,-3.42610263824463,7.50612163543701,-2.07205486297607,-1.61207342147827,-1.17286121845245,1.21088767051697,-0.91797775030136,-2.12626910209656,-24.1173915863037,-16.922815322876,-10.9657430648804,8.37282276153564,9.25867748260498,9.95060157775879,7.94773864746094,5.20067739486694,2.73583626747131,19.7216377258301,17.7703628540039,14.9236574172974,-1.17896997928619,-0.88331115245819,-0.56871557235718,-1.63391184806824,-1.33825302124023,-0.71761393547058,-1.00795888900757,-0.25617957115173,-0.07422025501728,10.7861776351929,11.4996500015259,11.231499671936,-1.49074029922485,-1.65628480911255,-1.68010854721069,2.83473491668701,1.1755530834198,-0.22744916379452,SWING_LEFT
0.28710666298866,0.34025195240974,0.22907446324825,0.1375973969698,0.11866057664156,0.64095038175583,-2.9855694770813,-2.66714072227478,-2.64559292793274,10.2235403060913,10.5826711654663,10.3193082809448,-0.98372209072113,-0.73021304607391,-0.60193133354187,-3.70622420310974,-3.45004463195801,-3.41652584075928,0.24312436580658,0.27000242471695,0.29077184200287,0.65255677700043,0.73074752092361,0.85047715902328,-1.65439331531525,-1.51313543319702,-1.37666594982147,10.0559463500977,9.80216121673584,9.76145935058594,-0.45898887515068,-0.49869510531425,-0.21281017363071,-4.50109910964966,-6.91235971450806,-10.695198059082,0.26633724570274,-0.66706484556198,-1.50822627544403,-0.38896843791008,-1.23990368843079,-1.77807605266571,-9.534010887146,-16.7815589904785,-23.4589862823486,4.5226469039917,4.69981813430786,7.89637660980225,11.3862991333008,14.418023109436,15.7100028991699,-18.6179103851318,-7.50851583480835,4.21379518508911,-1.73363554477692,-1.48623514175415,-1.52044355869293,0.13637566566467,-0.86666506528854,-1.23929286003113,-26.0641784667969,-17.8182468414307,-12.2107276916504,9.20839881896973,10.4964799880981,10.6233720779419,7.31488227844238,4.23856496810913,1.76761496067047,22.0559844970703,18.7591686248779,14.1404542922974,-0.4025602042675,-0.06841690838337,0.24556782841682,-1.22402119636536,-0.7872526049614,-0.31749722361565,-2.11886858940125,-1.63523972034454,-1.17315888404846,11.8803281784058,11.5188035964966,10.7095632553101,-1.45469927787781,-1.45469927787781,-1.422323346138,1.2449848651886,0.03112462162971,-0.89782565832138,SWING_LEFT
-0.04153883829713,-0.08735372871161,-0.27244588732719,1.92437827587128,2.43383979797363,2.67940759658813,-1.85550630092621,-2.0326771736145,-2.18111777305603,9.96017837524414,9.01207447052002,8.84448051452637,-1.26533102989197,-1.11505818367004,-0.81512331962585,-1.65678763389587,-2.96162748336792,-4.26886177062988,-0.60536748170853,-0.84299403429031,-1.07756626605988,2.5780041217804,2.69223594665527,2.37336421012878,-2.88501310348511,-3.49792861938477,-4.3143515586853,7.93468379974365,8.03524017333984,7.54203462600708,0.5800929069519,0.96982491016388,2.05716514587402,-8.28663158416748,-11.5595054626465,-17.8445835113525,-0.64385199546814,-0.17165313661098,0.05131268128753,-2.57892036437988,-3.60334134101868,-2.4591908454895,-18.7663516998291,-26.3850002288818,-33.572395324707,8.47098445892334,9.78061294555664,10.666467666626,15.5340738296509,17.3330726623535,16.7215957641602,-0.63925182819366,12.8643445968628,22.5659503936768,-1.14537239074707,-1.31030595302582,-1.32985365390778,-1.48302805423737,-2.54471182823181,-2.19896221160889,-9.36641597747803,-5.63864421844482,-2.08774399757385,7.96820259094238,9.91229438781738,11.1285486221313,1.19767761230469,-0.6361398100853,-1.62879586219788,15.2564516067505,9.82370853424072,5.45189666748047,-0.45265114307404,-0.28405234217644,-0.26939156651497,-0.08597928285599,0.0062613687478,0.12843441963196,-1.36230075359344,-1.61608612537384,-1.38384854793549,10.2786073684692,9.69921016693115,9.38317584991455,-1.23906373977661,-0.88109678030014,-0.60315304994583,-1.7980455160141,-1.76692080497742,-1.46285724639893,SWING_LEFT
0.08918632566929,0.23212879896164,0.26206117868423,0.07284568250179,-0.07559457421303,-0.17699819803238,-1.26174426078796,-1.0223240852356,-0.8930372595787,9.60104846954346,9.18924522399902,8.7582893371582,-0.00328340078704,-0.03382666409016,0.1042288839817,-2.34871196746826,-2.77966809272766,-3.17949986457825,-0.42271876335144,-0.49907690286636,-0.39706242084503,0.05085453018546,0.36728271842003,0.99525219202042,-1.53228902816772,-1.31920516490936,-1.29526317119598,8.85884571075439,9.89553451538086,10.1756563186646,0.567875623703,0.36262488365173,0.48846313357353,-4.87459468841553,-6.89320611953735,-11.8013191223145,-0.39767327904701,-0.53145277500153,-0.49357911944389,0.30986139178276,-1.67728328704834,-3.10548615455627,-11.2698068618774,-18.4694709777832,-28.6331558227539,4.99939250946045,4.68545293807983,5.31782102584839,14.7307863235474,17.2683200836182,17.1992931365967,-12.4405708312988,5.74398899078369,15.5389671325684,-1.49723076820374,-1.84359133243561,-1.9156733751297,-1.30648803710938,-1.95889210700989,-2.79272317886353,-16.9252109527588,-12.5746469497681,-8.28902530670166,8.26508331298828,9.52682781219482,10.6999864578247,5.5671968460083,3.18421149253845,1.47256708145142,17.6722011566162,14.3104429244995,10.9585599899292,-1.00304079055786,-0.77824234962463,-0.601702272892,-1.58870780467987,-1.02549004554749,-0.49586987495422,-0.87867200374603,-0.40940847992897,-0.75896191596985,11.3176908493042,11.2482585906982,10.8963108062744,-1.39055836200714,-1.24822676181793,-1.12299942970276,1.54186594486237,0.85473001003265,-0.01436521019787,SWING_LEFT
0.43004912137985,0.48930305242538,0.49174651503563,2.4124596118927,2.57189536094666,2.24569344520569,-2.61207413673401,-2.5091233253479,-2.40617275238037,10.5706996917725,9.20361042022705,8.34888076782227,-2.4290292263031,-2.37466239929199,-2.04112982749939,-2.95444488525391,-4.40054273605347,-5.37288808822632,0.37384954094887,0.31520646810532,0.18753562867641,1.30862605571747,1.53647875785828,1.33489322662354,-3.99352836608887,-4.71657752990723,-6.2970495223999,9.12699604034424,8.19086360931396,7.30022048950195,0.43531784415245,1.96981132030487,4.5336127281189,-13.5778169631958,-18.9985885620117,-22.1014747619629,-0.18631389737129,-0.95783668756485,-2.18445420265198,-2.20201659202576,-0.19288070499897,1.28174805641174,-25.1663513183594,-33.5149345397949,-39.6611480712891,8.31775569915771,7.89877080917358,8.16213321685791,16.9457836151123,17.8419227600098,16.5597171783447,6.06481218338013,15.9771060943604,26.6794872283936,-0.99143427610397,-0.78190749883652,-0.94500851631165,-2.33151984214783,-2.27043342590332,-2.43903231620789,-15.2492694854736,-11.0303869247437,-5.90918922424316,11.4733142852783,9.34486865997314,10.228328704834,2.95391535758972,0.42432227730751,-1.35207390785217,18.7160739898682,14.2027034759521,9.6920280456543,-0.7434229850769,-0.64996063709259,-0.47708576917648,-0.77992218732834,-0.31016683578491,0.26771169900894,-1.08696758747101,-1.08936178684235,-0.73980832099915,10.419864654541,10.6544971466064,10.3169145584106,-2.41192507743835,-2.12848353385925,-1.74241673946381,-0.98401689529419,-2.09253239631653,-2.54264211654663,SWING_LEFT
0.18631389737129,0.29382619261742,0.35308012366295,0.84620106220245,0.93538743257523,1.0300714969635,-2.47560453414917,-2.27688574790955,-2.05901336669922,10.1732625961304,10.1110134124756,9.48133754730225,-1.43026459217072,-1.24578332901001,-1.12605369091034,-2.83234071731567,-2.91853189468384,-3.10527968406677,0.17898350954056,0.46670106053352,0.72143185138702,0.72158455848694,0.74846261739731,0.87430089712143,-1.36948335170746,-1.18273568153381,-2.89458990097046,9.07911205291748,9.61301898956299,8.47098445892334,-1.79372942447662,-1.17125773429871,1.03091144561768,-9.56034660339356,-16.9060573577881,-25.7888450622559,-0.29077184200287,-0.25778514146805,-1.22417390346527,-1.37673759460449,-1.93323576450348,-0.33582317829132,-20.7176265716553,-30.8334274291992,-39.076961517334,6.95784950256348,6.18452215194702,5.43034887313843,17.1632518768311,17.6207904815674,16.1015682220459,2.48757553100586,13.5921821594238,21.2706871032715,-2.13497400283813,-2.0457878112793,-1.51983273029327,-2.74385404586792,-3.36021709442139,-3.28630232810974,-20.3824367523193,-13.7382287979126,-7.99214458465576,10.5323925018311,12.5650701522827,12.545916557312,3.64236044883728,1.41392397880554,0.00771217374131,17.4112339019775,12.6967506408691,8.52605152130127,-0.49846604466438,-0.28160887956619,-0.09896016865969,-1.29610335826874,-0.50075680017471,-0.0242818929255,-0.93613284826279,-0.6033388376236,-0.03112462162971,11.6624555587769,10.9944734573364,10.2953662872314,-1.366734623909,-1.3178653717041,-1.19874668121338,0.33518823981285,-0.61770403385162,-1.25456166267395,SWING_LEFT
1.07695543766022,0.7739662528038,0.40011674165726,1.86756777763367,2.57250618934631,2.47904396057129,-5.2364182472229,-4.41490793228149,-2.97599267959595,9.30895519256592,7.58273601531982,7.1302318572998,-2.38993382453919,-2.35022759437561,-2.27631306648254,-3.66073441505432,-4.42209053039551,-5.63864421844482,0.44226643443108,0.28283059597015,0.07513642311096,0.74724090099335,1.42835569381714,1.89872193336487,-3.22498965263367,-3.88339519500732,-6.17494535446167,8.33212089538574,7.82933902740479,6.48140335083008,-0.15538884699345,1.59657263755798,4.74741554260254,-15.352219581604,-22.9681758880615,-22.9681758880615,-0.36468654870987,-0.9957103729248,-2.26081228256226,-1.90513598918915,-1.15499341487885,0.18524488806725,-24.7545490264893,-35.6245231628418,-47.1744537353516,6.5460467338562,2.7629086971283,1.20907187461853,18.5431957244873,18.699577331543,16.8419361114502,9.5507698059082,20.1645660400391,25.9755916595459,-2.91504883766174,-2.43918490409851,-1.12277030944824,-3.09265804290771,-2.68948698043823,-3.55080699920654,-20.0496444702148,-17.6554412841797,-10.941801071167,14.3200197219849,13.5873937606812,16.9683055877686,4.60630559921265,1.76333892345428,-0.56039249897003,20.6553764343262,16.43918800354,10.7694187164307,0.61086523532867,0.42271876335144,0.34147366881371,-0.35170567035675,0.30192014575005,0.82359904050827,-1.62087452411652,-1.01035308837891,0.00478840339929,9.7087869644165,9.40951156616211,8.17889213562012,-2.38810133934021,-1.95255434513092,-1.47730123996735,-1.38384854793549,-2.3702597618103,-2.49475812911987,SWING_LEFT
0.53511798381805,0.4978551864624,0.38789942860603,1.75883376598358,1.97508001327515,2.06793165206909,-1.89141929149628,-1.62326872348785,-1.60411512851715,9.11981391906738,8.2818431854248,7.80300283432007,-4.20786905288696,-3.90304708480835,-3.597003698349,-3.42849683761597,-4.5226469039917,-6.67772769927979,-0.59376102685928,-0.26939156651497,-0.09957103431225,2.27990174293518,1.94698023796082,1.01541078090668,-3.69904160499573,-4.70939493179321,-5.86848783493042,9.04080486297607,7.7072343826294,7.6569561958313,-0.84444487094879,-0.08147415518761,1.40476095676422,-10.9896850585938,-14.0734167098999,-20.1573829650879,0.63713246583939,0.88453286886215,0.88758718967438,-4.05110549926758,-3.94725847244263,-0.66752296686172,-20.7559337615967,-29.0042572021484,-40.7337493896484,8.84926891326904,12.8523740768433,10.2618474960327,18.3043479919434,19.7801990509033,18.1803417205811,2.65995812416077,17.4806652069092,22.9753589630127,-3.83501195907593,-3.06226754188538,-2.58090567588806,-1.60275769233704,-2.15803408622742,-2.80310797691345,-23.4374389648438,-17.5453090667725,-14.8518314361572,13.2091102600098,13.3360023498535,12.9888439178467,6.80053377151489,4.49146318435669,2.43956661224365,20.7750873565674,17.6434707641602,13.7094984054565,0.22907446324825,0.26145032048225,0.17043140530586,-1.6290248632431,-1.15193915367126,-0.4622722864151,-1.1755530834198,-0.13168109953403,0.62728083133698,10.6904096603394,10.1421375274658,9.56513500213623,-1.14315795898438,-1.3789519071579,-1.24272894859314,3.74213719367981,0.66798228025436,0.13407529890537,SWING_LEFT
-0.0177150927484,-0.03298672288656,0.17409659922123,1.19805943965912,0.83642721176147,0.87735521793365,-3.60806202888489,-3.14837527275085,-2.95444488525391,8.25071811676025,9.84046840667725,10.489296913147,-5.61591339111328,-5.62629795074463,-5.5169529914856,0.1723825186491,-0.3687070608139,-1.34793555736542,1.48928952217102,1.30175387859344,0.82833325862885,3.22491025924683,2.58716702461243,0.96898502111435,-5.39922428131104,-7.06798267364502,-9.49330902099609,5.06403589248657,3.71580100059509,3.33272886276245,-0.20181460678577,3.05837321281433,6.29473733901978,-22.2283668518066,-24.3568115234375,-24.3568115234375,-0.46792277693748,-1.08184230327606,-2.21744084358215,-2.30097675323486,-2.04930019378662,-0.63636887073517,-25.8151798248291,-33.9913787841797,-45.8289108276367,4.95390272140503,3.87142419815064,4.55137729644775,18.1785106658936,18.8058681488037,17.7515144348145,8.90433502197266,16.6307239532471,26.7991981506348,-0.9523389339447,-0.64385199546814,-0.47891834378242,-3.45306849479675,-3.41397309303284,-3.43290996551514,-18.6586132049561,-14.1739730834961,-8.87321090698242,12.694356918335,10.8316679000854,11.4469776153564,4.26422119140625,1.76517152786255,0.03520110994577,18.9291572570801,14.3128366470337,9.56992340087891,0.21746802330017,0.24007004499435,0.11850785464048,-1.34252905845642,-0.61315596103668,-0.12202033400536,-0.95049810409546,-0.13886369764805,0.60812723636627,9.43105983734131,8.76786613464355,8.63618469238281,-1.37956285476685,-1.32763922214508,-1.1578186750412,1.28329205513,0.17956513166428,-0.30645781755447,SWING_LEFT
0.62491512298584,1.13804197311401,1.52288711071014,1.02518463134766,0.89629203081131,1.22432661056519,-3.2082302570343,-2.85867691040039,-3.02627086639404,10.2857894897461,10.6904096603394,10.1804447174072,-5.88286161422729,-5.93417406082153,-6.02274942398071,-2.17154097557068,-2.84431171417236,-6.80462074279785,1.9712620973587,1.41965079307556,0.75441855192184,-0.90698218345642,-0.88743448257446,-0.52091532945633,-7.63062000274658,-7.58034181594849,-7.12544345855713,7.1302318572998,7.3792290687561,7.91553020477295,0.42065706849098,2.52997469902039,4.92029047012329,-17.8445835113525,-19.2236442565918,-22.0823211669922,0.31337386369705,-0.02871066704392,-1.36589467525482,-2.80310797691345,-1.11345458030701,1.42774474620819,-23.2291431427002,-33.6154899597168,-49.4848556518555,10.2977609634399,8.11185455322266,7.70962858200073,19.4515533447266,19.1907138824463,16.8162803649902,12.4501485824585,18.9770412445068,24.294563293457,-1.63467538356781,-1.10872042179108,-0.83871799707413,-2.73591279983521,-3.26492190361023,-3.10182094573975,-22.3408946990967,-17.3418006896973,-11.7175226211548,13.8794860839844,12.2083339691162,11.9713077545166,4.35340738296509,2.44139933586121,0.38095083832741,19.7575511932373,15.8190889358521,10.8388500213623,0.71349060535431,0.85215699672699,0.81000733375549,-0.83428919315338,0.15470162034035,0.43753224611282,-1.07978498935699,-0.22505496442318,0.09097966551781,10.7885723114014,8.76547145843506,7.4678144454956,-1.65628480911255,-1.56037890911102,-1.36062598228455,0.50757074356079,-0.65601128339767,-1.04626619815826,SWING_LEFT
0.94623029232025,0.98166042566299,1.02442097663879,0.71364331245422,1.17240309715271,1.59206759929657,-4.03422975540161,-3.02866506576538,-2.23139595985413,9.51006889343262,9.095871925354,8.66491508483887,-3.7857608795166,-3.06677269935608,-2.69475555419922,-6.01213979721069,-5.93313121795654,-6.72800588607788,0.56810468435287,0.74097955226898,0.4972442984581,0.71364331245422,0.07528914511204,-0.44700065255165,-2.81318688392639,-4.42687892913818,-6.32338619232178,7.29303741455078,6.59153652191162,5.57639503479004,-0.01977676153183,1.67598521709442,3.16527462005615,-14.6911211013794,-16.7671928405762,-17.9475345611572,-0.93584555387497,-1.53693699836731,-3.26079869270325,-0.82085019350052,-0.28084528446198,1.71240794658661,-17.0999870300293,-24.7042713165283,-35.6077651977539,5.80384397506714,4.85304689407349,5.11191987991333,15.5114717483521,16.9066886901855,16.0258197784424,-1.06541979312897,10.3671922683716,17.8757076263428,-4.02010440826416,-3.01400923728943,-2.60778379440308,-1.3413074016571,-1.47997379302979,-2.33090901374817,-15.7328977584839,-13.5466928482056,-10.1301670074463,18.7041015625,14.9308404922485,13.7813243865967,4.13105249404907,2.14818406105042,0.95699673891068,15.5676975250244,11.4469776153564,7.91792440414429,-0.88514375686646,-0.59070670604706,-0.4324925839901,-1.99982011318207,-1.38284623622894,-0.8556694984436,-2.12605118751526,-1.93690919876099,-1.68312382698059,12.44775390625,11.2674121856689,10.2211465835571,-0.43944117426872,-0.51824277639389,-0.7045567035675,1.21146607398987,0.95528650283813,0.63685762882233,SWING_LEFT
0.13439035415649,0.83810710906982,1.24188899993896,0.53527069091797,1.23654401302338,2.35137295722961,-5.90440082550049,-4.46758031845093,-4.20421838760376,13.309666633606,13.132495880127,9.96496677398682,-3.00446438789368,-2.77783346176147,-2.53593063354492,-2.95444488525391,-4.06296014785767,-5.87567043304443,0.12400564551353,-0.07208210229874,-0.17715092003345,0.72952580451965,0.95493507385254,0.87979865074158,-4.78361511230469,-5.59794282913208,-7.11347246170044,8.3608512878418,8.16931533813477,7.66174459457397,0.69065952301025,2.39191913604736,5.19151449203491,-13.6568260192871,-18.028938293457,-22.3624420166016,-0.73975783586502,0.6750060915947,0.20158553123474,-2.74446487426758,-2.15864515304565,-0.12324206531048,-24.2299194335938,-32.6602020263672,-43.2787857055664,12.5219745635986,7.89158821105957,1.24259066581726,17.6592750549316,18.7398948669434,17.4741821289063,9.10784244537354,18.0552730560303,25.0298824310303,-3.89609861373901,-2.11298298835754,-1.68354463577271,-3.2924108505249,-5.04925918579102,-4.02606010437012,-23.3560352325439,-17.3705310821533,-12.1053829193115,13.8268136978149,12.9888439178467,12.7063274383545,4.84698677062988,2.22393131256104,0.13171781599522,20.2244205474854,16.3051128387451,11.0926361083984,0.01527163106948,0.32131510972977,0.50152039527893,-1.11345458030701,-0.2930625975132,0.33490687608719,-2.75572609901428,-2.47560453414917,-2.34152936935425,12.2370643615723,11.0160217285156,9.39514636993408,-1.26105499267578,-1.0179306268692,-0.78763437271118,0.49320554733276,-0.15322890877724,-0.15322890877724,SWING_LEFT
2.19056272506714,1.56503677368164,1.09528136253357,-0.80313509702682,-0.99311417341232,-1.4078916311264,-3.3231520652771,-3.10288548469543,-1.63284552097321,6.40239477157593,5.93791961669922,6.72800588607788,-4.0582070350647,-3.25186467170715,-2.4791202545166,-6.40000057220459,-5.09276628494263,-4.67108774185181,-0.79045963287354,-0.94378679990768,-0.66645395755768,-2.61679410934448,-2.92833518981934,-2.78111672401428,-2.92810869216919,-2.93768548965454,-4.88417148590088,7.91792440414429,9.63456726074219,12.023980140686,-0.57749670743942,1.12131953239441,2.89160704612732,-8.86123943328857,-12.0000381469727,-16.405668258667,-0.70799279212952,0.28893926739693,1.13987457752228,0.27687466144562,0.83703809976578,0.82115560770035,-21.9219093322754,-30.3090972900391,-38.1887130737305,16.9826717376709,14.3750858306885,10.1062250137329,16.9775485992432,18.4081954956055,18.4008655548096,3.58412003517151,3.58412003517151,21.1797065734863,0.32803463935852,0.17715092003345,-0.28649580478668,-1.02732264995575,-1.74997615814209,-2.68704342842102,-22.0847148895264,-16.8749313354492,-13.1708030700684,7.81976222991943,6.48140335083008,7.69765758514404,6.6838583946228,3.97772550582886,1.09932839870453,21.5460205078125,20.0161247253418,16.0369606018066,-0.64018678665161,-0.12034045159817,0.3720169365406,-1.07497012615204,-0.34926220774651,0.73502361774445,-1.81241071224213,-2.27688574790955,-2.19548296928406,13.0079975128174,13.0606698989868,11.0974245071411,-2.00203442573547,-1.68255198001862,-1.26105499267578,0.75417351722717,-0.54587799310684,-0.96486330032349,SWING_LEFT
0.15699236094952,-0.0226020142436,-0.40439277887344,-1.41155683994293,-1.5422819852829,-1.33642041683197,-1.5442601442337,-2.34631776809692,-2.58094954490662,7.10628986358643,7.05361747741699,7.59949541091919,-5.16387319564819,-4.77597379684448,-4.28605985641479,-3.36624765396118,-4.96587371826172,-5.83496904373169,-0.37751471996307,-0.5283984541893,-0.48563787341118,-0.17699819803238,-0.27046057581902,-0.45372015237808,-4.78600931167603,-5.01136350631714,-4.99939250946045,8.06157684326172,8.5811185836792,9.56034660339356,-0.64469188451767,0.68882691860199,2.7590491771698,-11.1812210083008,-13.7382287979126,-18.1701946258545,0.20830504596233,-0.34819319844246,-2.1068742275238,-2.94238519668579,1.80587041378021,5.80642700195313,-31.6977348327637,-42.4432106018066,-53.7058334350586,15.4695358276367,16.1686420440674,11.3631801605225,20.0166034698486,17.1620292663574,13.3600044250488,12.6057710647583,24.5725898742676,26.0881195068359,-1.84725654125214,-0.98410391807556,-0.53206360340118,-4.05049467086792,-4.14090299606323,-2.21606636047363,-15.3857383728027,-9.84046840667725,-6.28507852554321,13.0008144378662,14.1643962860107,12.6488666534424,1.65216135978699,0.17508925497532,-0.7100545167923,13.161226272583,9.48612594604492,6.78546667098999,0.3072652220726,0.33964106440544,0.27794370055199,-0.41401392221451,-0.2393064647913,0.03802636265755,-1.28329205513,-0.56024318933487,0.08619125932455,8.51647472381592,8.34888076782227,7.95383739471436,-1.65506303310394,-1.42293417453766,-1.05519330501556,-0.01197100803256,-1.09415018558502,-0.80924016237259,SWING_LEFT
0.17531833052635,0.13377949595451,-0.24312436580658,-0.85017168521881,-0.31932979822159,0.36300668120384,-1.90817880630493,-1.70706582069397,-1.65439331531525,9.31613826751709,8.28663158416748,7.28824901580811,-4.09058284759521,-3.52492165565491,-2.83158946037292,-4.18985319137573,-5.48062705993652,-6.34253978729248,-0.6872233748436,-0.63102382421494,-0.97249746322632,0.10216721147299,0.05146539583802,-0.03344487398863,-1.88184249401093,-3.18428826332092,-4.60404968261719,9.05038166046143,7.8365216255188,7.18769264221191,0.48968484997749,1.8134298324585,2.99789762496948,-10.7119579315186,-10.9346179962158,-13.6089420318604,-1.36833810806274,-1.29503428936005,-2.62855315208435,0.14920383691788,-0.3669773042202,-1.65834641456604,-12.8404026031494,-20.1430168151855,-47.5000648498535,10.2666358947754,6.49816274642944,1.9943699836731,18.6592597961426,20.0166034698486,18.2090530395508,4.03183555603027,19.1590003967285,26.0953025817871,-0.88331115245819,-1.15087008476257,-0.97127574682236,-3.2746958732605,-2.30769610404968,-3.91732621192932,-22.8987426757813,-17.669807434082,-13.4796552658081,13.35276222229,10.000880241394,10.8508214950562,4.90196466445923,2.87083768844604,1.31985068321228,17.6626243591309,14.835072517395,10.7454767227173,0.33841934800148,0.5412266254425,0.56077426671982,-1.35657894611359,-0.62292981147766,-0.11102475970984,-1.87465989589691,-0.46926352381706,0.04070143029094,10.3983173370361,9.42148303985596,8.36563968658447,-1.274493932724,-1.34230005741119,-1.1889728307724,2.17632937431335,0.71586632728577,0.25857377052307,SWING_LEFT
-0.89186328649521,-0.88270026445389,-0.731205701828,1.07038867473602,1.03740191459656,0.3727805018425,-3.09809708595276,-1.71185421943665,-1.14682257175446,10.2498769760132,10.0631294250488,10.1373491287231,0.47930014133453,0.28809931874275,0.21601721644402,-2.27209734916687,-2.33674097061157,-3.13401007652283,-0.05192354694009,0.09773843735456,0.15882496535778,0.34834590554237,0.62262439727783,0.82420992851257,-1.14682257175446,-1.54904854297638,-2.57376670837402,11.1668558120728,10.3312797546387,9.80694961547852,0.18119789659977,0.8751408457756,6.86772871017456,-9.45260715484619,-15.9220399856567,-26.2772617340088,0.24373523890972,-0.88758718967438,-1.91261911392212,-0.66324692964554,0.60735279321671,0.68859785795212,-28.5733013153076,-35.3922882080078,-40.6188278198242,5.15740966796875,2.91134929656982,0.15562310814857,17.4589099884033,17.4967842102051,16.6788349151611,8.32493877410889,15.4024982452393,25.9612274169922,-1.78006136417389,-1.44042026996613,-0.0745255574584,-3.7468945980072,-2.04013729095459,-2.34373712539673,-18.6322765350342,-13.4006462097168,-9.14854431152344,14.229040145874,16.7456455230713,20.3058223724365,0.08040513843298,-1.48218810558319,-2.74912261962891,15.5485439300537,9.50288581848144,5.17177486419678,-0.14660765230656,-0.02199114859104,0.06780604273081,-0.57344973087311,0.17669276893139,0.66843926906586,-2.18351197242737,-1.10372698307037,-0.42377370595932,10.6712560653687,10.4749317169189,9.79018974304199,-2.0625102519989,-1.40705168247223,-0.68439817428589,-3.29920983314514,-3.44525623321533,-2.32716393470764,SWING_LEFT
-0.09162978827953,0.31948253512383,0.69149947166443,-0.98517292737961,-1.10429167747498,-1.56305146217346,-0.44771572947502,-0.2537853717804,0.1268926858902,11.0160217285156,10.5515460968018,11.1213665008545,1.06267642974854,1.01197469234467,0.96127283573151,-2.35589456558228,-2.14041638374329,-2.77727389335632,-0.90713489055634,-1.13498759269714,-0.87598073482513,1.30496084690094,0.06307183951139,-0.7994698882103,-0.77093297243118,-0.84275901317596,-3.4117374420166,6.40478897094727,8.09988403320313,9.88116931915283,2.79753375053406,4.02170753479004,6.15545988082886,-9.62259578704834,-13.6472492218018,-19.2571620941162,-1.07267940044403,-0.24740041792393,0.42149701714516,0.65744370222092,-0.45372015237808,-0.66752296686172,-26.9955215454102,-35.715503692627,-36.723461151123,10.4174709320068,14.5331039428711,15.4958715438843,18.0636672973633,16.6391296386719,13.080228805542,20.1621704101563,29.2700138092041,30.0241870880127,0.27366763353348,-0.38362336158752,-0.46425759792328,-0.90881478786469,-1.32053792476654,-1.70293962955475,-7.79103183746338,-1.18991827964783,0.64643448591232,5.52851104736328,8.78701972961426,9.82610321044922,-0.41561743617058,-2.26959347724915,-3.20299553871155,16.4942531585693,10.3600101470947,5.20050525665283,-0.22663100063801,-0.2229658216238,-0.25839599967003,0.7539604306221,0.94210690259933,0.6806566119194,-2.12126278877258,-1.85790050029755,-1.0989385843277,8.68885707855225,7.78145456314087,7.61386060714722,-0.86826860904694,-0.28550314903259,-0.00755945732817,-1.92972660064697,-0.35434186458588,1.01274728775024,SWING_LEFT
-0.37384954094887,-0.01832595653832,-0.07696902006865,1.08627116680145,0.70509123802185,-0.41279217600822,0.01675941236317,1.69270062446594,1.23061966896057,10.7119579315186,7.82455062866211,7.9753851890564,-1.59336566925049,-1.84870731830597,-1.26288747787476,-2.03985977172852,-4.25210237503052,-5.48302125930786,0.45020768046379,0.55771994590759,0.89186328649521,-0.16233743727207,-0.40912699699402,-0.83917611837387,-0.50517654418945,-1.11330378055573,-1.74297881126404,9.39993476867676,9.38078117370606,9.79497814178467,0.76274162530899,1.39437627792358,4.56904315948486,-7.84609842300415,-9.49809741973877,-18.821418762207,0.38423424959183,-1.66644036769867,-2.96452903747559,1.951256275177,4.26215934753418,3.42955017089844,-26.5118923187256,-35.9740791320801,-38.9333114624023,12.9098348617554,12.2442464828491,15.287576675415,18.3006820678711,16.7808494567871,14.2811899185181,17.6195297241211,24.5678005218506,27.6443500518799,0.14660765230656,-0.12400564551353,-0.19303341209888,-0.24969117343426,-2.03891539573669,-1.67606151103973,-13.4820489883423,-10.9346179962158,-6.88602352142334,5.71525859832764,7.61864900588989,8.92109489440918,4.15121126174927,1.98996984958649,0.23251058161259,18.3425769805908,14.7345161437988,10.7263231277466,0.45753806829453,0.31215214729309,0.24129177629948,-0.20570887625217,0.26832255721092,0.5328271985054,0.3687070608139,0.58418524265289,0.84036481380463,9.62977886199951,9.39035797119141,8.9163064956665,-1.53166818618774,-1.33374786376953,-1.17553377151489,0.56981998682022,0.75177931785583,0.76614451408386,SWING_LEFT
-0.69944071769714,-0.34147366881371,-0.37934732437134,-0.89109969139099,-0.12812899053097,0.1809688359499,0.46447512507439,0.69671267271042,0.82599955797195,12.7159042358398,10.4749317169189,9.16290950775146,-0.41317397356033,-0.49930599331856,-0.50969070196152,-2.42532634735107,-3.27047944068909,-3.68707060813904,-0.12278391420841,0.00549778714776,0.04825835302472,0.56092703342438,0.17974710464478,0.05635231733322,0.06224924325943,-0.61291563510895,-1.52031803131104,9.4909143447876,9.41908836364746,9.72794055938721,-0.23113614320755,0.50312387943268,1.97469830513,-8.00890350341797,-11.7247047424316,-16.3338432312012,0.00977384392172,-0.89186328649521,-3.04149794578552,0.57803124189377,1.2634220123291,2.54746079444885,-13.1372842788696,-21.6800956726074,-30.1343212127686,9.14614963531494,8.70322227478027,4.1347861289978,15.3697509765625,17.3361263275146,14.9726886749268,-3.09570288658142,17.0233726501465,24.4142742156982,-0.68905597925186,0.675616979599,0.24740041792393,-1.16659986972809,-3.52515053749084,-3.99979281425476,-7.03446388244629,-8.62421417236328,-7.230788230896,12.5147914886475,8.18846893310547,9.56513500213623,5.58491182327271,3.76575517654419,2.44445371627808,14.4205760955811,11.5523223876953,9.64653778076172,0.28099802136421,0.13744467496872,-0.20097467303276,-1.04870295524597,-0.82512623071671,-0.15378531813622,0.38307225704193,0.53630119562149,0.58179098367691,9.92426490783691,9.81173801422119,9.85962200164795,-0.10529789328575,-0.3233767747879,-0.43944117426872,4.14436292648315,3.08852028846741,2.11647439002991,SWING_LEFT
-0.58704149723053,-0.9523389339447,-1.24738681316376,-0.15745051205158,-0.47815477848053,-0.60826909542084,1.54665434360504,1.74297881126404,1.53468334674835,5.21247625350952,5.93791961669922,7.5875244140625,-4.33309602737427,-3.73078322410584,-2.99407958984375,-5.27711963653564,-6.44070196151733,-6.10551357269287,0.4758640229702,0.04948008432984,-0.22540926933289,-0.18066339194775,-0.89720833301544,-0.82940226793289,-0.41898530721664,-0.70628952980042,-1.30005156993866,5.76793098449707,7.61625480651855,9.46697235107422,-1.17186856269836,-0.17615826427937,1.93865716457367,-9.16530323028564,-14.4253644943237,-21.7136135101318,-1.94560575485229,-3.08975648880005,-3.9370265007019,0.98242402076721,2.03616666793823,1.38315165042877,-17.0856227874756,-28.2859973907471,-42.6515045166016,11.8252611160278,11.0519342422485,10.8891286849976,18.2316551208496,18.4876079559326,16.6372966766357,8.90672969818115,21.2275905609131,24.5342826843262,-0.8778133392334,-0.34086281061172,-0.64385199546814,0.62018096446991,-2.1067214012146,-2.59419202804565,-11.6121778488159,-7.47260284423828,-3.79720377922058,14.3032598495483,10.9202527999878,12.3304376602173,3.22941541671753,1.59168577194214,0.46769371628761,15.5772752761841,11.2051630020142,7.47739124298096,0.38728857040405,0.42943826317787,0.35796701908112,-0.43050727248192,-0.43967026472092,-0.1782199293375,-0.7781155705452,-0.63206923007965,-0.37110126018524,9.77103614807129,9.30416679382324,9.05277633666992,-0.56772291660309,-0.44310638308525,-0.42661300301552,0.51235914230347,0.44532153010368,0.40222588181496,SWING_LEFT
-1.1722503900528,-1.54732167720795,-1.95110356807709,-3.03829097747803,-3.5636351108551,-3.21727442741394,-0.58657944202423,-0.72544312477112,-0.53630119562149,4.47476291656494,5.55005884170532,6.82377433776855,-5.69593667984009,-5.15898609161377,-4.78269290924072,-0.56981998682022,-1.57299053668976,-2.49475812911987,-1.96148824691772,-0.81245076656342,0.08796459436417,0.8523097038269,-0.72494435310364,-2.14887118339539,1.30483996868134,0.84275901317596,-0.17956513166428,8.83250904083252,9.31374359130859,9.2323408126831,-3.13152432441711,-2.59579539299011,-1.68255198001862,-6.20606994628906,-7.87004041671753,-14.0422925949097,-2.44468259811401,-3.89548778533936,-4.53200912475586,0.12782354652882,2.74477028846741,2.63176012039185,-11.8108959197998,-28.9946804046631,-43.0058479309082,11.5834474563599,16.2452564239502,14.1763677597046,18.6488761901855,20.0166034698486,19.4973678588867,-3.05978965759277,12.6823854446411,28.2333240509033,-0.30176743865013,0.25595253705978,0.19058994948864,-0.14767667651176,-1.69133317470551,-2.93566560745239,-21.6250286102295,-15.1056175231934,-10.5060567855835,18.8908500671387,12.3471975326538,12.3663511276245,5.05712413787842,2.72545170783997,0.90873843431473,20.6314353942871,16.1063938140869,10.7071695327759,0.64324110746384,0.53023105859756,0.4673119187355,-1.04931378364563,-0.61254513263702,-0.13362677395344,-0.6033388376236,-0.29927521944046,-0.07422025501728,9.01446914672852,8.79180812835693,8.26987171173096,-0.81145811080933,-0.64591366052628,-0.55428385734558,0.05746084079146,-0.26096799969673,-0.84994161128998,SWING_LEFT
1.18324601650238,1.57419979572296,1.54854345321655,-0.98028600215912,-0.4751004576683,-0.35842517018318,-3.47159242630005,-3.66073441505432,-3.11725068092346,12.6488666534424,10.4605665206909,8.31057357788086,-5.0471978187561,-4.73871088027954,-4.4247260093689,-2.86825370788574,-3.95522117614746,-5.09516048431396,0.98532563447952,0.63041293621063,0.05803219974041,-0.3150537610054,-0.38652497529984,-0.50747632980347,-1.3215993642807,-1.79086291790009,-4.39096593856812,7.61386060714722,6.82377433776855,8.96419048309326,-1.46813821792603,0.69371384382248,4.11394834518433,-15.4599590301514,-22.1469650268555,-27.2780380249023,-1.88635182380676,-2.9547553062439,-3.63831329345703,2.27623653411865,2.07831621170044,0.42775839567184,-21.6968536376953,-31.8772983551025,-40.4320793151855,10.7335052490234,7.70005178451538,9.40472316741943,16.8407154083252,17.0068702697754,16.573766708374,7.62343740463257,16.3673610687256,21.692066192627,-2.37565493583679,-1.05190992355347,0.6023131608963,0.92378097772598,-1.50501930713654,-4.52208280563354,-22.484546661377,-14.9739360809326,-10.2881841659546,13.5802116394043,10.8196964263916,10.5371809005737,6.39308643341064,4.32775115966797,0.70593112707138,19.7934646606445,17.365743637085,10.5443639755249,0.26022860407829,0.28099802136421,0.22479841113091,-0.69317930936813,-0.48731774091721,0.13454307615757,-2.23857855796814,-1.8674772977829,-1.61848032474518,8.2028341293335,8.68167495727539,8.05200004577637,-0.60437482595444,-0.6178138256073,-0.69111764431,2.91374349594116,2.72220730781555,2.30801033973694,SWING_LEFT
1.81304800510406,1.59496915340424,1.33718407154083,-0.82023930549622,-0.21731531620026,-0.23503039777279,-4.30477476119995,-4.28562116622925,-3.88818359375,10.7718124389648,9.06474685668945,8.74631786346436,-3.67336177825928,-2.89756298065186,-2.29769325256348,-7.59470701217651,-7.92750120162964,-8.15973854064941,0.67744958400726,0.36285394430161,0.20158553123474,-0.2069306075573,-0.14217889308929,-0.06398813426495,-2.97120428085327,-3.17949986457825,-3.7732617855072,8.52365779876709,8.5787239074707,8.52126312255859,0.85925835371017,1.75478672981262,4.6893835067749,-10.5012683868408,-12.517186164856,-17.827823638916,-2.14230442047119,-3.46116256713867,-5.63095569610596,2.35992527008057,2.72949862480164,3.02821183204651,-17.8493728637695,-28.8151149749756,-41.981128692627,7.76948356628418,5.99298620223999,4.87698888778687,20.0025539398193,20.0166034698486,17.4063758850098,7.83412742614746,24.0479602813721,32.0999603271484,-1.89062798023224,-1.55892813205719,-1.24983024597168,-2.44819521903992,-3.81836581230164,-3.22155070304871,-15.8071184158325,-12.773365020752,-8.69125175476074,12.5387334823608,10.8819456100464,12.4238119125366,2.76393604278564,0.63201647996902,-0.93240946531296,18.512565612793,13.5969705581665,8.56435871124268,0.601702272892,1.06534898281097,1.20706975460052,0.0209221355617,0.80832743644714,1.13819468021393,-1.3718775510788,-0.96246910095215,-0.50757074356079,12.6656265258789,10.3647985458374,8.33930397033691,-1.65506303310394,-1.422323346138,-1.16087305545807,-0.96246910095215,-1.6136919260025,-1.58496153354645,SWING_LEFT
1.2345587015152,1.26754534244537,1.15820050239563,0.60735279321671,0.72036284208298,0.78144937753677,-0.74220252037048,-0.76135611534119,-0.9528923034668,9.80216121673584,8.97616100311279,8.41352367401123,-3.93175768852234,-3.92687082290649,-3.736891746521,-1.83874690532684,-3.08612608909607,-4.58968448638916,0.91080009937286,0.99754291772842,0.91996306180954,0.28603765368462,0.00870482996106,-0.64186668395996,-1.65678763389587,-2.51391172409058,-4.74291372299194,8.94743061065674,7.07995367050171,6.7543420791626,-1.8035032749176,-0.13461942970753,6.09987115859985,-8.62900257110596,-18.3066654205322,-25.1232566833496,-1.2400563955307,-2.52226257324219,-3.90465068817139,1.73256659507751,1.22310495376587,1.78143572807312,-24.4525814056396,-32.8900451660156,-39.2852592468262,6.6657567024231,7.68329238891602,12.545916557312,17.3477325439453,18.1656818389893,15.7497091293335,8.87321090698242,22.0081005096436,29.0952377319336,-0.89186328649521,-0.09162978827953,0.10812314599752,-1.61925101280212,-2.49523186683655,-2.09206080436707,-8.46859073638916,-5.59554862976074,-3.40934324264526,15.4431991577148,12.7422409057617,11.4014873504639,1.679039478302,0.00404698215425,-1.14865577220917,15.4886894226074,11.3344497680664,7.07995367050171,0.28832840919495,0.09162978827953,-0.06780604273081,-0.06826419383287,0.26710084080696,0.49067750573158,-0.28490999341011,0.50757074356079,0.9911994934082,8.09270095825195,8.18368053436279,8.62421417236328,-1.91345906257629,-1.67216730117798,-1.31603276729584,-1.78607451915741,-2.95444488525391,-3.04542446136475,SWING_LEFT
0.16493362188339,0.44287729263306,0.76846849918365,0.79611015319824,0.50106221437454,0.29520061612129,-2.61686253547669,-2.72699570655823,-3.35188245773315,8.32972717285156,9.10305404663086,8.36803436279297,-4.05270910263062,-3.31539487838745,-2.58907604217529,-7.59231281280518,-7.59231281280518,-8.48774433135986,-0.07757988572121,-0.23579397797585,-0.25411993265152,0.00076358154183,-0.0145080499351,-0.32482758164406,-2.97599267959595,-3.44046783447266,-4.75249052047729,7.84849262237549,7.63301420211792,7.80300283432007,-0.54878604412079,0.22334760427475,4.40655279159546,-12.2514295578003,-15.244481086731,-23.4853229522705,-0.4844161272049,-1.00365161895752,-2.38481783866882,-0.02916881628335,0.07345654815435,0.34956762194633,-20.4279270172119,-29.2269172668457,-38.1791381835938,8.22677612304688,5.77511358261108,5.42556047439575,18.862678527832,19.8754940032959,17.7032566070557,11.0782709121704,24.6204738616943,32.3321990966797,-1.9278906583786,-0.57604593038559,-0.23029619455338,-1.72493076324463,-2.48240375518799,-3.05844950675964,-11.8085021972656,-10.326491355896,-7.02728128433228,16.5349559783936,10.6066131591797,11.3512096405029,2.63260006904602,0.71142894029617,-0.68439817428589,17.7057209014893,13.2929067611694,8.70561695098877,0.15271630883217,0.23273965716362,0.2101376503706,0.0258090570569,0.31841349601746,0.52794027328491,-2.17154097557068,-1.55144274234772,-0.46686932444572,9.56992340087891,8.97376728057861,8.84208583831787,-1.45897531509399,-1.3856714963913,-1.2689962387085,0.53630119562149,-0.13168109953403,-0.80684596300125,SWING_LEFT
0.8533787727356,0.63285636901855,0.54244834184647,0.03924809023738,0.28237244486809,0.25182920694351,-3.67988801002502,-3.09330868721008,-2.79882168769836,8.43267726898193,8.48295593261719,7.40795946121216,-3.54874539375305,-3.19871950149536,-2.94337773323059,-6.30183792114258,-6.51731634140015,-6.7734956741333,0.92607170343399,0.5406157374382,0.17654006183147,-0.69989883899689,-0.34071010351181,0.36178493499756,-3.46680402755737,-4.97784471511841,-5.6242790222168,7.51091003417969,8.2626895904541,8.22917079925537,0.0541379339993,1.43774771690369,5.97097873687744,-12.8380088806152,-16.7815589904785,-20.0328845977783,0.48624873161316,-1.15331363677979,-3.63953518867493,-1.00472056865692,0.22556199133396,1.90971744060516,-24.8622875213623,-36.507984161377,-47.5335845947266,5.62906742095947,3.17710566520691,6.42873096466064,19.7887496948242,20.0166034698486,18.050838470459,9.13417911529541,22.9777526855469,32.219669342041,-0.70554935932159,-1.04946649074554,-1.02197754383087,-0.39568796753883,-1.74692189693451,-3.19955945014954,-12.3759279251099,-8.87081623077393,-5.26754283905029,10.9753198623657,8.66491508483887,11.4709196090698,2.51836824417114,0.3033709526062,-1.19202721118927,18.6466407775879,13.3671274185181,8.20044040679932,-0.11239920556545,0.21868975460529,0.29688051342964,-0.02855795063078,0.54932057857513,0.86697047948837,-0.64404028654099,-0.641646027565,0.56503158807755,11.5618991851807,10.3169145584106,7.63062000274658,-1.09612131118774,-0.83222752809525,-0.5438991189003,-1.35751235485077,-1.40539634227753,-0.78290396928787,SWING_LEFT
0.6872233748436,0.56810468435287,0.38912117481232,0.59941154718399,0.32635477185249,0.05696318298578,-0.35434186458588,-0.78050976991653,-0.93852704763412,7.21402883529663,7.10150146484375,7.32655668258667,-6.04840564727783,-6.16385936737061,-6.27442598342896,-1.75494980812073,-2.16196417808533,-2.34871196746826,1.06412720680237,1.49112200737,1.58336269855499,0.31902438402176,1.15590977668762,1.18156611919403,-1.31202256679535,-2.90895509719849,-5.27233123779297,10.3959226608276,8.16692161560059,4.89374828338623,-6.66049289703369,-5.68738460540771,-2.96292543411255,-8.1046724319458,-14.5283155441284,-22.0727443695068,-0.89919364452362,-0.16310101747513,0.03970624133945,-1.06702888011932,-1.24662327766418,-1.53372991085052,-12.8116722106934,-20.6218585968018,-30.0984077453613,13.7573823928833,10.8029375076294,7.98017358779907,15.5273542404175,19.1461200714111,16.9024124145508,-3.96719217300415,22.5396137237549,29.7249126434326,-0.37629300355911,-0.66339963674545,-0.38789942860603,-1.21546912193298,-0.83123487234116,-0.7383833527565,-6.88602352142334,-4.89883613586426,-2.05901336669922,13.3599443435669,11.1812210083008,11.7103395462036,-0.05154175683856,-0.94401586055756,-1.25372457504272,10.3743753433228,5.56442403793335,2.56418991088867,0.20952677726746,0.30970868468285,0.28344148397446,0.1003346145153,0.49617528915405,0.67332619428635,-0.08140286058187,0.66079968214035,1.2258312702179,9.84286212921143,9.32810878753662,8.59069538116455,-0.98188954591751,-0.97150480747223,-0.90797483921051,-0.0454898327589,-0.50757074356079,-0.75896191596985,SWING_LEFT
0.83138757944107,0.74586647748947,0.75380772352219,0.06123924255371,0.08872817456722,0.4253149330616,-0.48123455047607,-2.1284453868866,-3.41413164138794,8.03045177459717,8.68167495727539,6.97460889816284,-4.43144559860229,-3.46200251579285,-2.42108798027039,-7.71920537948608,-9.35683917999268,-9.66808605194092,-0.2767219543457,-0.43432518839836,-0.44409903883934,0.17424930632114,0.28970283269882,0.06062837690115,-2.71981310844421,-4.1347861289978,-5.84694004058838,7.17572164535522,7.10389566421509,6.67054510116577,0.42187881469727,2.13535571098328,5.00947666168213,-15.1870203018188,-19.6354465484619,-23.0902805328369,-0.79901176691055,-1.08978354930878,-2.23149085044861,-2.38405442237854,-1.39872872829437,0.65255677700043,-22.8891658782959,-32.1478424072266,-43.3530082702637,7.91074180603027,7.02488708496094,8.15734481811523,18.2072200775146,17.9573764801025,15.2897281646729,12.7182989120483,22.3265285491943,27.0266456604004,-1.6456710100174,-1.16369831562042,-0.51679199934006,-0.47204610705376,-1.36329853534698,-2.13543224334717,-7.96820259094238,-5.1861400604248,-3.08373188972473,16.084846496582,15.0529441833496,14.3822689056396,2.10969948768616,0.77862411737442,-0.01366810966283,13.1899566650391,8.27466011047363,4.35984134674072,0.31520646810532,0.33658674359322,0.20341812074184,-0.4922046661377,-0.27534750103951,-0.11713340878487,-0.48841714859009,0.22505496442318,1.18752408027649,9.7303352355957,8.82293224334717,8.64576148986816,-0.02099849283695,-0.14439326524734,-0.30077478289604,1.01274728775024,1.12766897678375,1.25456166267395,SWING_LEFT
0.24984388053417,-0.23640485107899,-0.59253931045532,1.08627116680145,0.73624533414841,0.92255926132202,-2.03028297424316,-4.0270471572876,-3.58651423454285,8.30099678039551,7.67850399017334,8.73434734344482,-3.78270673751831,-3.34838151931763,-2.62939310073853,-6.12945556640625,-7.81257963180542,-8.00890350341797,-0.16126842796803,-0.13500121235847,-0.09407325088978,1.36971259117126,0.83276206254959,0.06673702597618,-3.41892004013062,-4.11323833465576,-5.27233123779297,7.31937408447266,6.68730449676514,6.41197156906128,-0.90492051839828,-0.02222022414207,1.96553528308868,-11.571475982666,-16.046537399292,-23.0830974578857,-0.22602014243603,-0.07086037099361,-0.9639453291893,-1.35780072212219,-1.07619190216064,0.24877487123013,-19.0153484344482,-25.4057712554932,-35.6580429077148,9.72075843811035,7.10628986358643,5.43274307250977,17.7747287750244,18.0490055084229,16.1376094818115,5.81820917129517,16.1758251190186,23.8061466217041,-1.44836151599884,-1.51616752147675,-1.31152772903442,-2.06518268585205,-1.21302568912506,-1.68583536148071,-6.57238292694092,-3.67270541191101,-3.18428826332092,13.2857246398926,12.2274875640869,12.3424091339111,3.08097529411316,1.89039885997772,1.05778956413269,14.102147102356,10.2977609634399,7.66413879394531,-0.03970624133945,-0.1777617931366,-0.29688051342964,-0.28756481409073,-0.34009921550751,-0.28267788887024,-0.39983168244362,-0.3687070608139,-0.27293899655342,10.5276041030884,8.8564510345459,8.82772064208984,-0.37774381041527,-0.19265162944794,-0.09002626687288,0.90261405706406,0.93134444952011,1.46285724639893,SWING_LEFT
1.5845844745636,1.56198239326477,1.28098440170288,2.09725308418274,2.57433891296387,2.866943359375,-4.48433971405029,-5.96665000915527,-8.52365779876709,8.32254409790039,6.000168800354,4.39575433731079,-8.77775192260742,-8.13451099395752,-6.35078430175781,-4.4029369354248,-9.27783107757568,-16.1016044616699,-0.44898596405983,-0.45509460568428,-0.65179324150085,-1.002277135849,-0.13057245314121,0.32513302564621,-7.98735618591309,-7.07037687301636,-8.05200004577637,8.92588329315186,8.97137260437012,6.6849102973938,1.73768258094788,2.37664771080017,3.0925817489624,-14.7560634613037,-10.228328704834,-13.968071937561,-0.9395107626915,-0.55649822950363,-0.032375857234,-1.68400275707245,-2.64611554145813,-3.10548615455627,-15.2779998779297,-22.1996364593506,-33.4071960449219,8.33212089538574,8.37042808532715,4.99220991134644,16.683723449707,18.6549854278564,15.891429901123,1.36469495296478,22.5539779663086,26.3658466339111,-1.00242984294891,-0.75747293233871,-0.52962017059326,-1.42988276481628,-1.23990368843079,-1.25639712810516,-9.40232944488525,-5.43274307250977,-2.99035787582397,11.9425773620605,11.6097831726074,11.7534351348877,2.64359569549561,1.07550466060638,0.12011137604713,16.21413230896,11.1907978057861,7.47739124298096,-0.30237829685211,-0.48685958981514,-0.50090950727463,-0.18005253374577,-0.30527991056442,-0.40057489275932,-2.12605118751526,-1.99676418304443,-1.28808057308197,8.29381370544434,8.78701972961426,9.62259578704834,-0.51091241836548,-0.42966735363007,-0.30016392469406,1.27610945701599,0.7493851184845,0.77093297243118,SWING_LEFT
0.75441855192184,0.82161372900009,0.88208943605423,1.803426861763,1.87673079967499,1.76494240760803,2.09971499443054,1.84592950344086,0.75177931785583,9.10305404663086,8.37761116027832,7.59710121154785,-6.62261915206909,-7.32328176498413,-8.04043769836426,3.8187518119812,2.95683908462524,1.40060794353485,1.91689515113831,2.56380152702332,1.14903748035431,1.3556627035141,1.40575361251831,1.96591711044312,-2.73657250404358,-6.14621496200562,-16.8821144104004,8.86123943328857,6.68969869613647,-2.36786556243896,-5.01176738739014,-0.05948300287127,4.15426540374756,-27.8813762664795,-33.0049667358398,-28.6547031402588,-2.07388758659363,-2.54669713973999,-3.21009683609009,-2.34068298339844,-2.69131946563721,-3.13908386230469,-20.8373355865479,-28.6786460876465,-40.0466156005859,2.83473491668701,1.721431016922,6.55801773071289,16.2371807098389,17.7032566070557,15.975118637085,9.62977886199951,21.1725234985352,27.7401180267334,1.49600899219513,1.29992127418518,1.16430914402008,-1.34375083446503,-1.04198336601257,-1.19408881664276,-10.2474822998047,-5.91397762298584,-2.3247697353363,12.9361715316772,10.5706996917725,10.9394063949585,3.01622343063354,1.11215651035309,-0.13584116101265,17.0257663726807,12.2203044891357,7.8556752204895,0.58093285560608,0.40072759985924,0.24556782841682,-0.20448714494705,-0.04871650412679,0.08200865983963,0.29448682069778,0.70628952980042,1.27850365638733,7.30500888824463,7.13741445541382,6.95066690444946,-0.66301786899567,-0.65080058574677,-0.78213655948639,1.79086291790009,2.04464817047119,1.47243404388428,SWING_LEFT
0.66523224115372,1.04824471473694,1.40437924861908,0.43569964170456,1.42713391780853,2.49920248985291,-3.85227060317993,-3.33991146087646,-3.55538964271545,11.3512096405029,10.6736507415771,8.49013805389404,-5.82543992996216,-5.76190996170044,-5.39172554016113,-4.53701210021973,-6.44309616088867,-9.76385402679443,0.4544837474823,-0.03298672288656,-0.49541172385216,-1.33275520801544,-2.02486562728882,-1.05664420127869,-8.56914710998535,-8.14297962188721,-8.37042808532715,5.2364182472229,8.68167495727539,9.91708278656006,2.16834259033203,4.22634744644165,6.18478155136108,-16.8055000305176,-14.5019788742065,-14.3487501144409,0.02809980139136,-0.3371976017952,-1.82465445995331,-2.14398431777954,-0.86422163248062,1.40086674690247,-18.9411277770996,-27.790397644043,-39.3594779968262,8.17649841308594,7.1805100440979,7.56118822097778,18.6525421142578,19.0404415130615,16.0050506591797,11.9330005645752,21.4191265106201,28.1758632659912,-0.79840087890625,-1.33596229553223,-1.2156218290329,-0.32971450686455,-0.32543846964836,-1.66750943660736,-4.1659107208252,-4.32632255554199,-3.01669406890869,14.3176250457764,11.6361198425293,12.284948348999,2.40963435173035,1.24043822288513,0.62529695034027,11.7079458236694,8.04002857208252,5.87567043304443,-0.13805554807186,0.1148426681757,0.22602014243603,-0.74449199438095,-0.33337971568108,-0.04505131021142,-1.23301386833191,-0.40222588181496,-0.00239420169964,11.4445829391479,10.6066131591797,9.75188255310059,-0.44371724128723,-0.44799330830574,-0.45593455433846,1.43173265457153,0.92655605077744,0.60812723636627,SWING_LEFT
0.17104226350784,0.15699236094952,0.26755899190903,-0.53985214233398,-0.29733866453171,0.44486260414124,-2.40856695175171,-3.28723883628845,-4.43166732788086,9.50767421722412,10.8627920150757,10.8220911026001,-6.84986114501953,-5.42959928512573,-4.56400346755981,-4.15154552459717,-5.92355442047119,-7.29543209075928,-0.00855211354792,0.06902777403593,-0.13988813757896,0.81810128688812,0.64644813537598,0.35445454716682,-3.66312861442566,-4.74530792236328,-6.01932239532471,8.41352367401123,7.4103536605835,7.1302318572998,-0.96722877025604,0.5489387512207,2.77981877326965,-12.4860610961914,-15.6203708648682,-18.7160739898682,-0.59559363126755,-0.92546087503433,-1.81854581832886,-0.71333789825439,-0.11102475970984,1.27808284759521,-11.4876794815063,-22.7814273834229,-31.6881580352783,9.93623638153076,8.29620838165283,7.78863763809204,16.3520221710205,17.4442501068115,16.5688800811768,2.54264211654663,12.610559463501,17.0257663726807,-0.35735616087914,0.20525072515011,-0.82466810941696,-3.27164149284363,-3.11403822898865,-1.78113031387329,-11.6792154312134,-7.51330423355103,-3.88100099563599,14.7297277450562,11.025598526001,11.1788272857666,4.05041837692261,1.8879554271698,0.49945870041847,18.9123973846436,14.0542631149292,10.1181955337524,0.14599679410458,0.29626965522766,0.30054569244385,0.0954476967454,0.21762074530125,0.2958115041256,-0.50038814544678,-0.53869539499283,0.07182604819536,10.1541090011597,9.16051483154297,8.98334407806396,-1.3368022441864,-1.39666700363159,-1.35696077346802,1.49158763885498,0.38786068558693,-0.5746083855629,SWING_LEFT
1.69148588180542,1.81243717670441,1.69087505340576,2.82173919677734,-0.55084770917892,-1.27044701576233,-3.97916316986084,-5.0592474937439,-4.46039772033691,6.12706136703491,7.10628986358643,8.2028341293335,-4.71366548538208,-3.71856570243835,-2.97575378417969,-8.13100814819336,-8.05678844451904,-7.7646951675415,0.88514375686646,0.53328537940979,0.22968533635139,-0.0810923576355,0.0074830991216,-0.27962356805801,-3.50511121749878,-4.47715711593628,-5.95228481292725,7.21642303466797,6.71364068984985,6.69927549362183,-0.1639409661293,1.58069014549255,4.37662029266357,-13.8483619689941,-18.1318874359131,-21.8524780273438,-0.76663589477539,-1.10994219779968,-2.7146852016449,-0.52702397108078,0.34834590554237,1.27075242996216,-20.0640087127686,-27.7113876342773,-38.1958961486816,10.3217029571533,5.56202983856201,6.22522354125977,17.1992931365967,18.00807762146,17.3104705810547,5.49978065490723,14.0111675262451,21.012113571167,-2.10381984710693,-1.15087008476257,-0.99143427610397,-2.19590783119202,-2.74751925468445,-2.65344595909119,-14.0398979187012,-9.90750598907471,-8.35845756530762,15.6874084472656,13.762170791626,11.8827219009399,3.14878129959106,1.37360692024231,-0.1529453843832,16.1614608764648,13.2737531661987,9.63935565948486,0.1050688251853,-0.06963863968849,-0.25045475363731,-0.45066583156586,-0.14523321390152,0.16386459767818,-0.02633621916175,-0.13168109953403,0.01675941236317,8.57154178619385,8.22677612304688,8.23874759674072,-1.40338659286499,-1.22501385211945,-1.05152821540833,1.06541979312897,0.61291563510895,0.52911859750748,SWING_LEFT
1.60962986946106,1.94621670246124,1.5234979391098,1.48089003562927,1.95003461837769,2.07404017448425,-0.32800564169884,-0.20590133965015,-0.82121115922928,11.6720323562622,9.12460231781006,5.1861400604248,-5.4271559715271,-5.48335552215576,-5.20113563537598,-3.35667085647583,-5.09037208557129,-7.25473022460938,0.31887164711952,0.36285394430161,0.34086281061172,-0.3755294084549,-0.41462478041649,-0.71211618185043,-4.20182418823242,-4.32153415679932,-5.60991382598877,7.35049867630005,7.2499418258667,5.83257484436035,-1.74180591106415,0.18975001573563,3.21597647666931,-14.1524257659912,-17.91162109375,-21.1078815460205,-0.60414570569992,-0.45265114307404,-0.46547931432724,-0.61498856544495,-0.58200186491013,-0.61132341623306,-19.2332210540771,-27.9532032012939,-42.3881454467773,11.5092267990112,9.52922248840332,5.97143840789795,19.3947429656982,20.0166034698486,16.5835399627686,7.96820259094238,20.298641204834,27.8071556091309,-0.66401052474976,-1.0134254693985,-0.76419240236282,-2.62229180335999,-2.68398928642273,-2.3034200668335,-13.3790979385376,-9.19163990020752,-5.64822101593018,11.4230356216431,12.9864492416382,12.9553251266479,3.44199657440186,1.67415261268616,0.26183211803436,16.7217025756836,13.5323276519775,10.0942535400391,0.76969021558762,0.83810710906982,0.80634212493896,-0.12385293096304,0.50717085599899,0.81565779447556,0.01915361359715,0.36152446269989,0.56263738870621,10.2881841659546,9.12460231781006,8.28902530670166,-1.62146544456482,-1.71004092693329,-1.62513065338135,2.11168599128723,0.77093297243118,0.18435353040695,SWING_LEFT
1.04702305793762,0.92484998703003,0.99021255970001,-0.0419969856739,-0.17333301901817,-0.32604932785034,-1.87944829463959,-2.98317527770996,-4.15154552459717,6.86686992645264,7.55161142349243,8.12621974945068,-6.75028991699219,-6.08505773544312,-5.08323860168457,-5.9618616104126,-7.35049867630005,-8.18128681182861,0.87964594364166,0.88697636127472,0.90469145774841,0.85597491264343,0.35750889778137,-0.85689121484756,-4.44842672348022,-4.44842672348022,-4.8099513053894,6.38324117660522,6.38324117660522,5.26514863967896,-2.39359903335571,-0.79068869352341,1.63200283050537,-14.1213006973267,-17.8469772338867,-20.6625595092773,-0.26633724570274,-0.24801129102707,-1.89612567424774,-1.98149418830872,-2.22339677810669,0.215177282691,-16.1925849914551,-23.1740760803223,-44.5216751098633,9.30416679382324,8.49253273010254,8.66730976104736,19.5230236053467,19.8620548248291,17.3013076782227,12.2155160903931,23.030424118042,30.5149993896484,-0.23396138846874,-0.36285394430161,-0.02382374368608,-1.37673759460449,-1.81167364120483,-1.74264585971832,-7.10389566421509,-3.53384160995483,-2.20027136802673,12.9481420516968,13.0510931015015,12.6129541397095,0.38767036795616,-0.48403435945511,-0.98188954591751,10.1253786087036,6.25634813308716,3.64876341819763,0.8961393237114,0.76052725315094,0.50701814889908,0.256716132164,0.70753467082977,0.83948159217834,0.36152446269989,0.79248076677322,1.12527477741241,8.44225406646729,7.45584344863892,6.74955368041992,-1.0967321395874,-1.07718455791473,-0.96356356143951,-0.93373864889145,-1.26892685890198,-1.36948335170746,SWING_LEFT
1.54243469238281,1.49784159660339,1.31091678142548,-0.74265944957733,0.1082758679986,0.60796362161636,-4.77882671356201,-5.37528228759766,-4.35984134674072,9.97693729400635,8.80617332458496,6.71364068984985,-3.51087164878845,-1.84870731830597,-1.46141874790192,-9.54598140716553,-8.80377864837646,-8.09270095825195,0.59437185525894,0.59559363126755,0.35369098186493,-1.00044453144073,-1.15560436248779,-1.35413551330566,-2.05901336669922,-3.24174904823303,-4.51307010650635,7.74793577194214,6.77588987350464,5.53569364547729,0.34307718276978,2.37481498718262,4.69915723800659,-15.0984344482422,-19.7958583831787,-24.349630355835,-1.83259570598602,-2.42024803161621,-3.50758814811707,-0.87277370691299,1.06489086151123,3.24445796012878,-23.8851547241211,-31.8749046325684,-38.7321968078613,11.2410764694214,12.0670757293701,14.3870573043823,17.0398578643799,16.8022308349609,14.4730014801025,9.64174938201904,18.6921310424805,24.7641258239746,-1.62490153312683,-1.43308985233307,-1.14659404754639,-2.20384907722473,-3.78965520858765,-3.0590603351593,-7.38641166687012,-3.25611424446106,-1.721431016922,11.6169662475586,10.9872913360596,11.9928560256958,1.31068778038025,0.3766747713089,-0.29466611146927,10.9920797348022,8.29141998291016,6.14382076263428,-0.20891591906548,-0.4416555762291,-0.66767573356628,-0.06093380972743,0.09605856239796,0.11194105446339,0.75417351722717,0.73741412162781,0.62967503070831,8.49492645263672,8.47816753387451,8.80138492584229,-1.11811244487762,-0.8511643409729,-0.57260978221893,0.45489832758904,0.07182604819536,-0.40701428055763,SWING_LEFT
0.29565876722336,0.42516219615936,0.71410149335861,-1.53861689567566,-0.86971938610077,0.02764165215194,-4.17309379577637,-6.36169338226318,-7.40556526184082,11.6528787612915,12.2107276916504,11.6217546463013,-5.9250111579895,-4.7839150428772,-3.88716459274292,-4.10605573654175,-4.63278007507324,-5.4351372718811,0.463035851717,0.60781091451645,0.57543504238129,0.93477654457092,0.81199264526367,0.62690043449402,-2.71981310844421,-1.81959331035614,-1.4867992401123,9.33050346374512,8.37282276153564,7.46063184738159,-1.95194351673126,-1.73691892623901,-1.4101060628891,-6.31380939483643,-6.87644672393799,-9.42387676239014,-0.43127086758614,-0.40011674165726,-0.26572638750076,-0.24969117343426,-1.23746025562286,-0.87582802772522,-13.3479738235474,-18.9650707244873,-25.9301013946533,7.56597661972046,9.20361042022705,7.7263879776001,14.1376361846924,17.8083248138428,16.9299011230469,-11.1285486221313,14.7776117324829,22.3839893341064,-2.026850938797,-1.0622946023941,-0.88575458526611,-3.33211708068848,-2.19529700279236,-1.76769125461578,-12.079047203064,-7.8365216255188,-5.56442403793335,17.0257663726807,14.6911211013794,11.9665193557739,3.95267987251282,1.84152960777283,0.22151501476765,18.2037143707275,14.7560634613037,11.0902414321899,0.24007004499435,0.39828413724899,0.38606682419777,-0.34620788693428,0.05207626149058,0.45524731278419,-0.35194763541222,-0.33039984107018,-0.13646949827671,10.8795518875122,9.91229438781738,9.17248630523682,-1.59703087806702,-1.36062598228455,-1.14193618297577,0.428562104702,-0.24899697303772,-0.48841714859009,SWING_LEFT
1.09467053413391,0.59559363126755,0.23457226157188,-2.90878748893738,-2.97659373283386,-2.76340174674988,-1.10372698307037,-0.90500825643539,-0.37828385829926,8.3608512878418,8.80856704711914,9.59865379333496,-1.12605369091034,-0.95256799459457,-1.06557810306549,-1.01035308837891,-0.14125789701939,0.77093297243118,0.24984388053417,0.46547931432724,0.43493604660034,1.74539470672607,0.47968193888664,-0.32910364866257,2.20027136802673,1.03429508209229,0.45010992884636,8.34169769287109,7.00094509124756,6.89081192016602,-2.00508880615234,-1.43942761421204,-0.66485047340393,-4.96347951889038,-6.64420890808105,-9.27064800262451,-1.39888143539429,-1.13498759269714,-1.26571273803711,1.5456417798996,0.0282525178045,-0.75976365804672,-7.0727710723877,-14.3607206344604,-24.5124359130859,10.178050994873,10.2307233810425,12.0838356018066,11.5933828353882,14.8865566253662,16.9714393615723,-17.1215343475342,-0.85712420940399,11.9521541595459,-1.24983024597168,-2.01219010353088,-1.92117118835449,1.6134477853775,2.35259485244751,-0.17088955640793,-21.5172901153564,-11.8683567047119,-7.70005178451538,11.4852848052979,9.96017837524414,9.23952388763428,5.75534343719482,3.34792327880859,1.53609704971313,21.3975791931152,17.286735534668,13.0894002914429,-0.37873646616936,0.01343903504312,0.36896261572838,-0.99677938222885,-0.46777006983757,-0.23625212907791,0.55545479059219,0.94810384511948,0.16759411990643,13.1061592102051,12.6129541397095,10.9657430648804,-1.34291088581085,-1.10894954204559,-0.81878852844238,0.18435353040695,-0.6703764796257,-0.91697925329208,SWING_LEFT
0.88575458526611,0.28099802136421,-0.35430184006691,-4.57767152786255,-4.42128992080688,-0.00106901419349,-2.23379015922546,-1.56341373920441,-0.50278234481812,7.99214458465576,10.6975927352905,12.9481420516968,-2.68009495735169,-1.64223480224609,-1.14376878738403,-5.83736324310303,-4.93235492706299,-4.37420654296875,-0.32681289315224,-0.3249803185463,-0.54428094625473,0.68187832832336,-0.24908030033112,0.02214386500418,0.0981622710824,0.11731588095427,0.29448682069778,6.15579175949097,7.59231281280518,8.53562831878662,0.83665633201599,1.49761247634888,1.74440205097198,-7.17572164535522,-6.68730449676514,-8.04242324829102,-2.56746673583984,-3.45505380630493,-3.53690981864929,2.91459083557129,1.52303981781006,-1.36635279655457,-8.97855567932129,-16.8629608154297,-31.0297527313232,4.97784471511841,5.29627323150635,9.46457862854004,11.8780460357666,15.7576503753662,17.3788871765137,-18.0935802459717,-0.7493851184845,14.3200197219849,0.96883225440979,0.99387776851654,0.52045720815659,0.21884247660637,-0.83734351396561,-1.23929286003113,-27.5246410369873,-17.7105083465576,-11.8492031097412,9.22515869140625,7.39359426498413,6.47182655334473,7.20309400558472,4.65945100784302,2.28746128082275,23.4278621673584,20.7439613342285,16.6762142181396,0.4111123085022,0.54672437906265,0.30787608027458,-0.55512380599976,-0.37247508764267,-0.0419969856739,2.97838687896729,2.08774399757385,1.15400516986847,10.3193082809448,9.28980159759522,8.25790119171143,-1.34657609462738,-1.06863236427307,-0.78580176830292,1.30244576931,0.7182605266571,0.7781155705452,SWING_LEFT
1.78433740139008,2.26875352859497,2.27425122261047,0.03924809023738,-0.04871650412679,0.31719177961349,-6.21564674377441,-7.31219148635864,-8.5619649887085,8.92827701568604,6.64660310745239,5.80623817443848,-8.54989910125732,-7.44301128387451,-5.24145269393921,-5.03291130065918,-8.16452693939209,-12.5722522735596,-1.74035513401031,-0.1148426681757,0.16737708449364,-0.0218384321779,0.01664607785642,0.73319101333618,-6.30183792114258,0.31124621629715,1.01514148712158,15.6658601760864,12.6704149246216,9.0551700592041,-0.11934779584408,-0.58055102825165,0.27527114748955,-3.88100099563599,-9.44303035736084,-20.406379699707,-1.62856674194336,-2.52653861045837,-3.60899186134338,-0.09330966323614,0.28848111629486,2.65741658210754,-19.8652896881104,-28.2381134033203,-40.9540176391602,7.95383739471436,11.2243165969849,14.9452056884766,17.2591571807861,14.2683610916138,9.83164691925049,9.5316162109375,28.1974105834961,28.8199043273926,-0.36224308609962,-0.10201449692249,0.00427605677396,0.92072665691376,-0.03649919852614,-0.43478333950043,-1.82677590847015,-1.68791222572327,-1.03668928146362,13.4413480758667,11.2506532669067,11.4517660140991,-0.11507174372673,-0.72776955366135,-1.14254713058472,6.45267295837402,3.68228220939636,1.62805712223053,0.25717425346375,-0.00916297826916,-0.18875735998154,0.45769077539444,0.33185255527496,0.19379699230194,1.12766897678375,1.43891525268555,1.31202256679535,8.27705478668213,8.12861442565918,7.82455062866211,-1.96110653877258,-1.90246343612671,-1.69538009166718,-2.57137250900269,-3.02148246765137,-2.99514627456665,SWING_LEFT
2.74950456619263,2.35122036933899,1.33779489994049,-3.76827502250671,-2.95460247993469,-1.19653224945068,-2.27927994728088,-2.13802218437195,-3.11725068092346,11.1764326095581,9.54119300842285,8.81096172332764,-6.65010833740234,-7.12597227096558,-6.84008741378784,-0.29688102006912,-2.61925673484802,-10.5539407730103,0.28649580478668,0.67256265878677,-0.06902777403593,0.28359419107437,0.79122322797775,1.64093673229218,-12.2394580841064,-7.50612163543701,-10.5419692993164,12.6273193359375,9.8476505279541,8.77504825592041,-1.26777446269989,1.83481013774872,6.8292441368103,-21.9458522796631,-28.5349941253662,-35.3180656433105,-1.99142074584961,-1.31030595302582,-1.61818206310272,1.34405624866486,-0.03955352306366,0.07345654815435,-38.5239028930664,-52.4369087219238,-63.7836265563965,12.9649019241333,11.0591173171997,11.9737024307251,20.0166034698486,19.057544708252,13.6849851608276,39.6228408813477,38.7321968078613,30.7496299743652,0.5283984541893,0.99754291772842,0.28099802136421,-3.00163912773132,-4.36203622817993,-2.31930255889893,-13.9752550125122,-7.52048683166504,-4.47476291656494,12.8356142044067,12.1197481155396,12.6153478622437,2.27707648277283,0.43104177713394,-0.71860659122467,16.7336750030518,11.8899049758911,7.24275922775268,0.57543504238129,0.3720169365406,0.25289821624756,0.47112983465195,1.04045617580414,1.14308154582977,1.7405846118927,1.4293384552002,1.39821374416351,9.42387676239014,8.79899024963379,7.87482881546021,-1.33313703536987,-1.41743648052216,-1.56343328952789,0.8451532125473,0.83318221569061,0.52911859750748,SWING_LEFT
1.51800012588501,1.15270268917084,0.90285885334015,-1.7212655544281,-0.8116871714592,0.256716132164,-8.16213321685791,-6.04087018966675,-5.01136350631714,9.27304267883301,10.5754880905151,10.764630317688,-5.16753816604614,-4.90608787536621,-4.45221519470215,-5.78469038009644,-6.80940914154053,-8.40873527526855,1.86802589893341,1.04519045352936,0.24984388053417,-0.25641068816185,0.23594669997692,0.4033237695694,-5.83257484436035,-5.80863237380981,-5.86130523681641,7.49654483795166,6.67772769927979,7.09910726547241,-0.59887701272964,0.65400761365891,3.1359531879425,-14.2721357345581,-19.2212505340576,-27.9436264038086,-2.12520027160645,-2.91382718086243,-3.6670241355896,-0.18432858586311,-1.01388359069824,-0.05787948146462,-29.8853225708008,-41.0186614990234,-56.1194877624512,6.82138013839722,11.6193599700928,17.7799396514893,19.4307842254639,17.8846836090088,14.0826578140259,19.4822177886963,33.9578590393066,32.844554901123,0.77824234962463,1.52533054351807,1.39338362216949,-1.83977341651917,-2.69803905487061,-1.49646711349487,-10.2307233810425,-4.75488471984863,-0.50996494293213,11.0327806472778,10.405499458313,8.92109489440918,2.6313784122467,1.13659119606018,0.13355042040348,13.7789297103882,9.40232944488525,5.75356578826904,0.1795943826437,0.21930062770844,0.13988813757896,0.07284568250179,0.22006420791149,0.35995236039162,3.75650238990784,3.57933163642883,3.13401007652283,9.32092666625977,8.81096172332764,7.9059534072876,-0.86582511663437,-1.00449156761169,-1.12971889972687,0.96246910095215,0.69192427396774,0.11492168158293,SWING_LEFT
1.13743114471436,1.15697872638702,1.29320168495178,1.11437094211578,0.78694713115692,0.52549684047699,-2.34392356872559,-2.05422496795654,-1.69748902320862,8.7199821472168,8.71519374847412,8.41591835021973,-3.14985036849976,-3.00079917907715,-2.68314933776855,-5.49978065490723,-6.94109010696411,-8.77265453338623,1.15758967399597,1.31152772903442,1.14170718193054,0.07101308554411,-0.08292495459318,-0.35842517018318,-2.4899697303772,-3.78762698173523,-5.65540361404419,8.14058494567871,7.00573348999023,6.57717132568359,-0.31177034974098,1.30580079555511,3.85433053970337,-12.2394580841064,-17.6171340942383,-21.1270351409912,-1.26815629005432,-1.44469630718231,-1.66399693489075,0.37705656886101,0.30497446656227,0.41554108262062,-20.8493061065674,-28.3171215057373,-41.3418769836426,10.843638420105,11.7151279449463,10.5994300842285,17.0667343139648,19.0044002532959,14.7430038452148,6.16776275634766,36.2948989868164,32.2771301269531,0.54733526706696,1.28770399093628,0.8655960559845,0.11377365142107,-1.98882448673248,-1.057865858078,-10.6904096603394,-6.28507852554321,2.99275207519531,10.0703115463257,8.37521648406982,9.25149440765381,1.17690825462341,-0.02405281923711,-0.76014542579651,12.4645137786865,7.68329238891602,4.88895988464355,0.24007004499435,-0.13988813757896,-0.48624873161316,0.43264532089233,0.49128836393356,0.53160548210144,3.18668246269226,2.71741890907288,2.43729734420776,7.39359426498413,7.13980865478516,7.29303741455078,-1.23295509815216,-1.11200380325317,-1.01365447044373,0.43574470281601,0.39025488495827,0.48123455047607,SWING_LEFT
0.66584312915802,0.50396382808685,0.22602014243603,2.58777785301209,3.37762665748596,2.56761932373047,-2.70065951347351,-1.85550630092621,-1.67594122886658,10.065523147583,6.21564674377441,4.85783529281616,-3.33982944488525,-3.1113657951355,-2.6868143081665,-4.23534297943115,-5.9115834236145,-7.0033392906189,-0.10812314599752,-0.34147366881371,-0.27366763353348,1.09909927845001,0.61162883043289,0.21456642448902,-3.56736063957214,-5.06403589248657,-6.1581859588623,6.90278291702271,7.70484018325806,8.65773296356201,-0.0460439696908,1.16652357578278,3.78530287742615,-13.0822172164917,-18.7184677124023,-23.8683948516846,-0.81733769178391,-3.01217651367188,-4.93090438842773,-0.42745295166969,0.17363844811916,0.40210205316544,-26.4041538238525,-38.5286903381348,-57.3596839904785,5.11431407928467,5.75356578826904,13.6041536331177,19.6244277954102,17.8248195648193,13.9806442260742,22.2570972442627,29.3011379241943,27.8502521514893,1.56809103488922,1.03236222267151,0.75319683551788,-2.88129854202271,-3.63449549674988,-2.84709024429321,-10.3193082809448,-6.0696005821228,-0.87627780437469,5.52611684799194,6.99376249313354,9.04319953918457,3.36258411407471,2.10297989845276,1.00036823749542,12.1915740966797,9.75188255310059,7.43668985366821,0.27611109614372,-0.13439035415649,-0.6139195561409,-0.48915034532547,-0.23441953957081,-0.25396722555161,3.43807363510132,2.93289709091187,2.54743051528931,6.57477712631226,6.36648178100586,7.34810447692871,-0.87987500429153,-0.84811002016068,-0.76625406742096,1.65918183326721,1.35032975673676,1.23780226707459,SWING_LEFT
0.38362336158752,0.87109386920929,0.8662069439888,2.04532957077026,2.06854248046875,1.63788247108459,-1.62326872348785,-1.3215993642807,-0.87627780437469,10.9489831924438,8.06636524200439,5.32021522521973,-2.66421246528625,-2.83220028877258,-2.83891987800598,-0.92655605077744,-2.42532634735107,-4.44124412536621,-0.3500257730484,-0.45570546388626,-0.75502943992615,2.18705034255981,1.82786154747009,0.63606345653534,-1.56341373920441,-3.2585084438324,-4.89644193649292,7.05840587615967,5.01854610443115,7.33613348007202,-0.97883522510529,0.89407765865326,3.72177290916443,-12.8595561981201,-17.7057209014893,-22.1014747619629,-2.573575258255,-3.43856048583984,-3.81179904937744,1.52242887020111,1.49310731887817,2.07159686088562,-23.6864356994629,-36.4122161865234,-45.9534111022949,12.6177425384521,17.0592861175537,23.2099895477295,17.4650192260742,17.6293411254883,12.9195709228516,9.24431228637695,20.0328845977783,27.3331050872803,1.18507862091064,0.62247169017792,0.21930062770844,-1.18492591381073,-1.94789659976959,-1.69438743591309,-7.36725807189941,-1.3718775510788,2.12126278877258,4.23055458068848,5.75117158889771,6.50534534454346,1.96064841747284,0.55932348966599,-0.26534458994865,13.7430171966553,8.56675338745117,4.73812532424927,-0.31642818450928,-0.44654250144958,-0.58704149723053,-0.54962599277496,-0.58444529771805,-0.56245416402817,2.6431987285614,2.86107110977173,2.87304210662842,8.21480560302734,8.27466011047363,8.41352367401123,-0.48708868026733,-0.4925864636898,-0.41806089878082,1.32638776302338,1.08936178684235,1.03908348083496,SWING_LEFT
0.29932397603989,0.25350907444954,0.26145032048225,0.70692378282547,0.54748797416687,0.84864455461502,-0.16759411990643,0.28012159466743,0.3208230137825,8.95221900939941,9.90750598907471,10.3815574645996,-2.09183168411255,-2.06067752838135,-2.16696810722351,-2.22660756111145,-2.7629086971283,-2.77727389335632,-0.33414328098297,-0.61086523532867,-0.54550266265869,2.73377466201782,2.1980459690094,1.08749282360077,-2.38462495803833,-4.35026454925537,-8.07115364074707,6.57477712631226,6.58435392379761,8.68885707855225,-0.94462674856186,2.01318287849426,5.66676759719849,-17.0161895751953,-21.5627784729004,-22.0727443695068,-1.22356307506561,-2.28280353546143,-3.79286241531372,0.77839505672455,1.4534010887146,2.67268824577332,-25.3387336730957,-35.8112716674805,-43.6594657897949,10.9489831924438,12.122142791748,15.0864639282227,17.0227527618408,16.735034942627,15.1052465438843,15.4455938339233,15.4455938339233,27.4935150146484,0.0598647929728,0.08185594528913,0.10629054903984,-0.73960506916046,-1.27777743339539,-3.10792970657349,-8.59069538116455,-5.38964748382568,-0.75656771659851,11.3488149642944,7.04643487930298,7.5683708190918,2.87389183044434,1.23066437244415,0.05841398984194,13.7980833053589,9.94341850280762,6.97460889816284,-0.22235494852066,-0.10567969083786,-0.28099802136421,-0.98456203937531,-0.67424249649048,-0.03833179548383,4.2449197769165,3.64636921882629,3.41892004013062,9.57950019836426,9.05038166046143,8.52844619750977,-1.34840869903564,-1.2934308052063,-1.17370116710663,-0.00239420169964,-0.44053310155869,-0.84036481380463,SWING_LEFT
-0.44959682226181,-0.35552358627319,-0.06536258012056,-0.3022255897522,-0.64186668395996,-1.71026992797852,-2.91134929656982,-3.4117374420166,-4.76924991607666,9.0384111404419,8.64576148986816,10.2474822998047,-6.53526544570923,-4.53956890106201,-3.04966831207275,-2.12126278877258,-5.58836603164673,-4.65911674499512,1.1178834438324,0.16310101747513,-0.58215457201004,3.80828666687012,3.70016360282898,2.80158066749573,-0.80205756425858,-1.25456166267395,-3.5314474105835,6.39281797409058,3.05739545822144,4.55616569519043,-2.82059383392334,-1.63001751899719,0.45669811964035,-8.21719932556152,-12.7135105133057,-18.079216003418,-1.59985601902008,-1.4190399646759,-1.24066734313965,0.78511452674866,0.67821311950684,1.10032105445862,-17.7919120788574,-26.0354461669922,-38.452075958252,16.1758251190186,17.4902420043945,17.8781032562256,15.9262495040894,17.8278732299805,17.1956272125244,0.72783732414246,15.2947587966919,26.4735851287842,0.83077675104141,0.51923543214798,-0.21441370248795,-0.82695883512497,-0.99800109863281,-1.50501930713654,-11.4828910827637,-5.0592474937439,-0.3447650372982,9.34008026123047,6.42394256591797,8.35366916656494,3.61670398712158,1.45485198497772,-0.11018481850624,19.4702472686768,13.9561014175415,8.83490371704102,0.18753562867641,0.03176499158144,-0.31703907251358,0.09117163717747,-0.07742717117071,0.15592335164547,2.99514627456665,2.31758713722229,1.98000478744507,7.54682302474976,7.41514205932617,7.0727710723877,-1.514564037323,-1.25067019462585,-1.0722975730896,-1.97042798995972,-2.08056116104126,-2.1284453868866,SWING_LEFT
0.48624873161316,0.44654250144958,0.41172316670418,-0.548404276371,-0.84650653600693,-0.58444529771805,-2.75812029838562,-2.74136090278625,-2.77966809272766,9.02165126800537,9.77582454681396,11.458948135376,-2.97025585174561,-2.19445705413818,-1.85909199714661,-2.98317527770996,-2.04943656921387,-0.95528650283813,-0.63407814502716,-0.62919121980667,-0.23884831368923,3.71115899085999,3.50102138519287,2.32205152511597,-2.1284453868866,-3.40216064453125,-5.3968300819397,8.89954662322998,8.53802299499512,8.91870021820068,-2.27814555168152,-1.14071452617645,1.3412309885025,-8.1238260269165,-13.4533185958862,-21.2299842834473,0.08307767659426,-0.12828169763088,-0.50335294008255,-0.34437528252602,-0.3578143119812,-0.1586722433567,-20.298641204834,-31.3505744934082,-43.5134201049805,13.3264255523682,11.5235919952393,12.8380088806152,17.9610424041748,18.3947563171387,16.3251438140869,13.5969705581665,23.6744651794434,28.0585479736328,1.06351637840271,0.38484510779381,0.07941248267889,-0.49953505396843,0.32635477185249,-1.16782164573669,-8.03763484954834,-4.49870491027832,-1.51552963256836,10.0343990325928,6.26831912994385,8.47577285766602,3.16649627685547,1.70713925361633,0.80000442266464,14.9499940872192,10.4701433181763,7.84131002426147,0.51923543214798,0.40744712948799,0.17409659922123,0.4772384762764,0.37644571065903,0.37644571065903,2.57376670837402,2.46363353729248,2.43250894546509,7.9059534072876,7.22121143341064,7.27148962020874,-1.20302271842957,-1.26533102989197,-1.19141626358032,0.83318221569061,-0.13407529890537,-0.6224924325943,SWING_LEFT
0.47769662737846,0.80206608772278,0.64385199546814,-1.00838577747345,-1.04870295524597,-0.6217080950737,-4.36702394485474,-3.96958637237549,-3.24893164634705,11.7175226211548,10.601824760437,10.1565027236938,-2.37527322769165,-1.78212296962738,-1.36062598228455,-2.57376670837402,-2.69826531410217,-2.72460150718689,-1.32924282550812,-0.97494095563889,-0.72876220941544,4.61523962020874,4.12043857574463,3.64090967178345,-1.17315888404846,-1.67833542823792,-3.04542446136475,9.89314079284668,8.91870021820068,6.7543420791626,-1.59641993045807,-1.40033221244812,-0.40950879454613,-5.68173980712891,-9.89314079284668,-16.0130195617676,-0.43493604660034,-0.50335294008255,-0.15271630883217,-0.84956085681915,-0.94180148839951,-1.38773310184479,-15.3258838653564,-21.4215202331543,-29.459156036377,11.8396263122559,13.8866691589355,17.1263236999512,13.7228584289551,15.0899753570557,15.9219732284546,-0.69671267271042,6.05284118652344,13.0247564315796,1.16919612884521,-1.25471723079681,-1.54548907279968,1.5144876241684,1.92376732826233,-0.11224649101496,-22.0679550170898,-22.0679550170898,-1.94169759750366,3.00232887268066,3.00232887268066,8.81814384460449,6.39675188064575,3.95939946174622,2.21965527534485,21.1246395111084,16.9946422576904,14.9116868972778,-0.8784242272377,-0.60414570569992,-0.43554693460464,-0.29367345571518,0.12782354652882,0.26587909460068,2.18351197242737,1.51313543319702,0.95528650283813,11.0327806472778,11.1165781021118,9.72075843811035,-2.09305334091187,-2.23721766471863,-2.22255682945251,3.07415509223938,1.43173265457153,0.42377370595932,SWING_LEFT
1.46913087368011,1.12399208545685,0.41416662931442,-0.56917369365692,-0.76770490407944,-1.05969846248627,-4.55377149581909,-2.40617275238037,-1.23301386833191,8.29860210418701,6.23001194000244,8.09988403320313,-3.93969893455505,-3.26469302177429,-2.97147750854492,-5.74159479141235,-5.75595998764038,-5.67695140838623,0.00488692196086,1.02747535705566,0.6145304441452,1.09299063682556,0.44791695475578,0.29336804151535,-2.36307716369629,-5.67934560775757,-6.48858594894409,13.8339967727661,9.41429996490478,9.45739555358887,-0.38873937726021,1.35772430896759,4.28926658630371,-14.490008354187,-20.0975284576416,-24.5151290893555,-1.01098203659058,-0.87353730201721,-0.26694810390472,-0.55817812681198,-1.46836733818054,-1.63024663925171,-29.1550922393799,-39.9221153259277,-46.3412704467773,13.7430171966553,14.130877494812,14.4421243667603,18.8602352142334,16.7270946502686,13.0826721191406,23.5236301422119,29.2676200866699,27.6204090118408,0.13927727937698,0.11301007121801,-0.12095131725073,1.25792419910431,-1.21241474151611,-1.83549737930298,-7.72399377822876,-5.48062705993652,-2.80839848518372,3.3231520652771,4.12999773025513,6.12706136703491,2.89588308334351,1.42614126205444,0.38767036795616,14.4325475692749,11.0830593109131,8.05678844451904,-0.47464230656624,-0.39400807023048,-0.32009339332581,-0.63942319154739,-0.33032539486885,0.02886338345706,0.19871874153614,0.51235914230347,0.59136784076691,9.55555820465088,10.0296106338501,10.2211465835571,-1.25616800785065,-1.31969797611237,-1.27143967151642,2.24097275733948,1.4484920501709,0.98641109466553,SWING_LEFT
0.69882982969284,0.57787853479385,0.49541172385216,-1.13361322879791,-1.1611020565033,-1.07863533496857,2.24097275733948,1.69988322257996,0.96965169906616,8.91391181945801,9.13896751403809,10.0607347488403,-2.56036520004272,-2.27631306648254,-2.06312108039856,-4.29759216308594,-4.87459468841553,-4.58489608764648,0.6884451508522,0.44959682226181,0.4758640229702,-0.0242818929255,0.22922718524933,0.2780964076519,0.24899697303772,-0.16041150689125,-1.15879356861115,8.97376728057861,9.49330902099609,10.8268795013428,-1.76929485797882,-1.42598855495453,-0.55611646175385,-7.9945387840271,-10.4414129257202,-17.0760459899902,-0.72815138101578,-0.53817230463028,-0.04703662544489,1.61833477020264,0.54748797416687,-0.91431254148483,-22.3839893341064,-32.7535781860352,-48.639705657959,14.6839380264282,13.7047100067139,17.5189723968506,18.2957954406738,13.1785774230957,9.79133033752441,35.9764709472656,32.7511825561523,26.1360034942627,1.12704634666443,0.2461786866188,-0.00671951752156,1.14430332183838,0.27992901206017,0.05329799279571,-7.56597661972046,-4.65193367004395,-1.51552963256836,3.50989961624146,5.86130523681641,8.00172138214111,3.54645442962646,2.36626291275024,1.32107245922089,13.5562696456909,10.242693901062,7.67132139205933,-0.12889257073402,0.01160643994808,-0.14538592100143,0.34468072652817,-0.08964447677135,-0.02611448988318,3.20104765892029,2.36547136306763,2.03985977172852,8.67688655853271,8.79180812835693,8.59069538116455,-0.46570840477943,-0.50419288873672,-0.4455498456955,1.56580793857574,0.84275901317596,0.70868372917175,SWING_LEFT
-0.60781091451645,-0.43982297182083,-0.37873646616936,0.64766985177994,0.04474587738514,-0.3578143119812,-0.08379705995321,-0.61052143573761,-1.22343707084656,7.49415063858032,8.26508331298828,9.62020206451416,-4.92502450942993,-4.44977140426636,-3.77781963348389,-4.29998636245728,-5.90440082550049,-6.87884092330933,1.20035016536713,1.48684597015381,1.74157679080963,0.05085453018546,-0.72433346509933,-1.33336615562439,-1.99915838241577,-2.09492659568787,-2.18111777305603,10.1660795211792,10.0727062225342,9.62499046325684,-1.46202957630157,-0.50480377674103,1.45668458938599,-9.29698467254639,-12.3591680526733,-16.8581733703613,-0.97127574682236,-2.32983994483948,-2.19361710548401,0.71669763326645,1.49005305767059,1.05389523506165,-11.3966989517212,-25.2956390380859,-35.1361083984375,10.1900215148926,15.4551706314087,18.2037143707275,15.6446409225464,15.9323577880859,13.3722219467163,7.95623159408569,19.6953010559082,20.7894515991211,2.89305782318115,1.34756875038147,0.32925635576248,1.50471377372742,1.51754200458527,0.58291816711426,-12.8332204818726,-8.16213321685791,-3.24174904823303,6.08875417709351,2.41814374923706,5.61470222473145,6.32650232315063,3.82745265960693,1.87940323352814,21.8812084197998,17.7559986114502,12.9912376403809,0.12644910812378,-0.00244346098043,0.00855211354792,-0.33093625307083,0.16630806028843,0.45891252160072,2.95444488525391,2.61686253547669,2.31758713722229,9.01925754547119,9.52443408966064,9.22037029266357,-0.986776471138,-1.01915228366852,-0.92080301046371,1.63763391971588,0.54827219247818,-0.11252748221159,SWING_LEFT
-1.35795342922211,-1.62245810031891,-1.60474300384521,-1.18798017501831,-0.49953505396843,0.08078692853451,0.75177931785583,0.7182605266571,0.40222588181496,8.62900257110596,9.68245124816894,10.6975927352905,-4.00994873046875,-3.77110028266907,-3.43634605407715,-3.15555787086487,-4.6303858757019,-5.37049388885498,0.17043140530586,-0.23823744058609,-0.93340212106705,1.04289972782135,1.34405624866486,1.25364816188812,-1.62566292285919,-2.48518133163452,-4.02225875854492,8.32972717285156,6.80940914154053,7.60428380966187,-2.26959347724915,-0.99166339635849,1.30030298233032,-9.60583686828613,-15.8933095932007,-22.9657821655273,-0.8533787727356,-1.10933125019073,-1.88451933860779,0.45280385017395,-0.45433104038239,-0.79030692577362,-24.8144035339355,-36.8958435058594,-54.8218307495117,11.6911859512329,9.888352394104,10.8101196289063,19.5828895568848,17.341625213623,13.3722219467163,24.7545490264893,33.3042449951172,28.0417881011963,3.02500462532043,0.78618359565735,0.57238072156906,0.67149364948273,-0.29000827670097,-1.35413551330566,-13.7023153305054,-7.85806941986084,-1.31920516490936,1.08457338809967,5.39204168319702,8.06636524200439,3.93007802963257,2.12924718856812,0.05841398984194,19.2332210540771,12.871527671814,4.79319190979004,0.22724187374115,-0.09101892262697,-0.38912117481232,-0.31138855218887,-0.56428676843643,-0.55756723880768,2.33674097061157,2.26012635231018,2.47560453414917,6.78067827224731,6.82856273651123,7.29303741455078,-0.48525607585907,-0.43455424904823,-0.38629591464996,1.55144274234772,1.7597382068634,1.94648599624634,SWING_LEFT
-0.68233644962311,-0.32681289315224,0.07513642311096,-2.10061287879944,-3.22216153144836,-3.17268133163452,-2.11408019065857,-2.35828876495361,-1.94169759750366,9.04319953918457,12.1748151779175,13.841178894043,-2.44185757637024,-1.8523725271225,-1.4656947851181,-2.44447994232178,-1.74537301063538,-1.23780226707459,-0.10873401165009,-0.10445795953274,-0.08613199740648,0.28848111629486,0.28725937008858,0.40271291136742,0.46926352381706,1.09175598621368,1.25216746330261,10.6329488754272,11.188404083252,12.4214172363281,-1.22562479972839,-1.48279905319214,-1.27754831314087,-1.57299053668976,-3.26569104194641,-9.41429996490478,-1.06290555000305,-1.73180294036865,-1.10627698898315,4.02331113815308,2.76553964614868,0.50289481878281,-17.0161895751953,-28.0154514312744,-35.2893371582031,12.4860610961914,14.3511438369751,16.3769378662109,15.7845287322998,16.6531791687012,15.2384157180786,1.40300214290619,17.3441963195801,24.9077777862549,1.70492494106293,0.88025683164597,0.5839871764183,2.30433630943298,1.09909927845001,-0.44333544373512,-12.7613945007324,-6.57956552505493,-1.42455005645752,6.22282934188843,5.33697509765625,7.03446388244629,5.16707992553711,2.48782515525818,0.58436894416809,23.2123832702637,16.8964805603027,10.9609546661377,-0.26816985011101,-0.27550023794174,-0.51129418611526,-0.08903361111879,-0.23136521875858,-0.08048149943352,3.45722723007202,2.5282769203186,2.02310037612915,8.47577285766602,8.52365779876709,9.17966842651367,-1.40399742126465,-1.18714022636414,-0.91897040605545,-1.64960491657257,-2.01112937927246,-2.18830037117004,SWING_LEFT
-0.07086037099361,0.40011674165726,0.94928461313248,-0.93141680955887,-1.55511021614075,-1.72737419605255,-3.92170238494873,-3.47398662567139,-3.04542446136475,10.1062250137329,11.4445829391479,11.2530469894409,-2.92260837554932,-2.37405133247375,-1.98920631408691,-4.69502973556519,-4.78361511230469,-5.47344446182251,-1.15514612197876,-1.72691607475281,-1.84542393684387,2.4191792011261,3.67023110389709,3.5914294719696,-2.60010313987732,-4.29998636245728,-6.21085834503174,10.587459564209,9.77343082427978,9.62738418579102,-0.69844806194305,0.37117698788643,2.96002388000488,-11.8013191223145,-17.9786586761475,-22.6281986236572,0.58643060922623,0.15271630883217,-0.47952923178673,-1.43660235404968,-1.04687035083771,-0.34254267811775,-24.7449722290039,-33.613094329834,-41.621997833252,12.2753715515137,11.3895168304443,15.244481086731,16.9451732635498,16.1889209747314,13.1009979248047,18.2899055480957,28.8414516448975,28.2117767333984,1.1545352935791,0.96028017997742,0.2553416788578,0.75701475143433,-1.03159868717194,-1.35474634170532,-7.19726943969727,-4.76685571670532,2.16914677619934,4.6112322807312,3.99352836608887,7.3409218788147,1.98508298397064,0.62651866674423,-0.35819610953331,12.8404026031494,9.04559326171875,5.60751962661743,-0.48624873161316,-0.55955255031586,-0.60903263092041,-0.20815233886242,-0.1745547503233,-0.09086620807648,2.16914677619934,1.73100781440735,1.52989482879639,9.0360164642334,9.04080486297607,9.27304267883301,-0.90186619758606,-0.75342589616776,-0.55428385734558,0.47884035110474,0.1723825186491,0.16519992053509,SWING_LEFT
