gyro_x_0,gyro_y_0,gyro_z_0,acc_x_0,acc_y_0,acc_z_0,gyro_x_1,gyro_y_1,gyro_z_1,acc_x_1,acc_y_1,acc_z_1,gyro_x_2,gyro_y_2,gyro_z_2,acc_x_2,acc_y_2,acc_z_2,gyro_x_3,gyro_y_3,gyro_z_3,acc_x_3,acc_y_3,acc_z_3,gyro_x_4,gyro_y_4,gyro_z_4,acc_x_4,acc_y_4,acc_z_4,gyro_x_5,gyro_y_5,gyro_z_5,acc_x_5,acc_y_5,acc_z_5,gyro_x_6,gyro_y_6,gyro_z_6,acc_x_6,acc_y_6,acc_z_6,gyro_x_7,gyro_y_7,gyro_z_7,acc_x_7,acc_y_7,acc_z_7,gyro_x_8,gyro_y_8,gyro_z_8,acc_x_8,acc_y_8,acc_z_8,gyro_x_9,gyro_y_9,gyro_z_9,acc_x_9,acc_y_9,acc_z_9,gyro_x_10,gyro_y_10,gyro_z_10,acc_x_10,acc_y_10,acc_z_10,gyro_x_11,gyro_y_11,gyro_z_11,acc_x_11,acc_y_11,acc_z_11,gyro_x_12,gyro_y_12,gyro_z_12,acc_x_12,acc_y_12,acc_z_12,gyro_x_13,gyro_y_13,gyro_z_13,acc_x_13,acc_y_13,acc_z_13,gyro_x_14,gyro_y_14,gyro_z_14,acc_x_14,acc_y_14,acc_z_14,motion_type
0.16967499256134,-0.18369999527931,-0.39008748531342,0.0472999997437,0.47519999742508,0.61668747663498,4.73895025253296,4.61205005645752,4.19505023956299,7.5400505065918,7.58100032806396,8.19900035858154,0.21889999508858,0.35089999437332,0.41690000891685,-0.87600004673004,-1.16400003433228,-1.03200006484985,-0.68062502145767,-0.47093749046326,-0.62314999103546,0.03671250119805,0.01649999991059,0.12608750164509,3.54900026321411,3.07005023956299,3.27105021476746,9.69495010375977,9.5779504776001,8.84295082092285,1.01598751544952,1.32467496395111,1.79932498931885,-0.24705001711845,1.23705005645752,5.49105024337769,-1.02231252193451,-0.81262499094009,-1.1339625120163,-2.37269997596741,-2.37159991264343,-1.74473750591278,3.52995014190674,6.01995038986206,5.87700033187866,12.1669502258301,11.2500009536743,11.7259502410889,-2.74917507171631,-4.03369998931885,-5.42781257629395,22.8090019226074,23.4580516815186,21.5610008239746,0.862399995327,0.58038747310638,0.40479999780655,0.69437497854233,1.32219994068146,1.69042503833771,-9.52995014190674,-11.5699501037598,-13.2150001525879,8.824049949646,7.58100032806396,6.16305017471313,-9.94537448883057,-10.0879621505737,-9.0131254196167,12.0649509429932,-2.59605002403259,-4.27500009536743,-0.50613749027252,-0.61998748779297,-0.5625125169754,-0.35488748550415,-0.79970002174377,-0.69437497854233,-18.1249504089355,-16.6189498901367,-16.1370010375977,4.19895029067993,6.7350001335144,8.05005073547363,-5.5980372428894,-3.44932508468628,-2.29157495498657,-9.24000072479248,-12.1740007400513,-12.76305103302,SWING_RIGHT
0.08456250280142,0.02598750032485,-0.30717501044273,-0.09418749809265,0.0622874982655,0.12828749418259,1.56300008296967,1.90095007419586,2.10405015945435,9.69105052947998,9.3390007019043,9.36705017089844,1.7939624786377,2.17703747749329,2.3069748878479,-1.00800001621246,1.40700006484985,4.84200000762939,-0.60403752326965,-0.27197501063347,-0.06875000149012,-1.15527498722076,-1.6053124666214,-1.86821246147156,2.99295020103455,2.65500020980835,4.70100021362305,12.1099510192871,12.9210004806519,13.9540510177612,1.26719999313354,-0.19181250035763,-1.68918752670288,19.8870010375977,21.6979503631592,24.070951461792,1.42862498760223,0.98903751373291,0.54532498121262,-1.0008624792099,-0.61036247014999,-0.42088750004768,3.08895015716553,-3.26700019836426,-7.00500011444092,12.0229501724243,8.3929500579834,9.92805004119873,-8.82901287078857,-10.4710378646851,-10.5742998123169,26.0670013427734,19.2670516967773,15.5209503173828,-0.44123750925064,-0.32518750429153,0.44206249713898,1.45529997348785,1.56708753108978,0.83586251735687,-24.4000511169434,-23.5950012207031,-24.855001449585,4.48605012893677,4.58205032348633,4.27500009536743,-9.99748706817627,-8.96513748168945,-4.75626230239868,-0.58905005455017,-8.7180004119873,-15.7950010299683,-0.78278750181198,-0.92014998197556,0.1387374997139,-0.41978749632835,-0.49651250243187,-0.81784999370575,-15.586950302124,-13.7449502944946,-10.2240009307861,6.47895050048828,9.07695007324219,10.407000541687,0.1891999989748,0.58822500705719,1.03097498416901,-7.89405059814453,-7.52295017242432,-5.91795015335083,SWING_RIGHT
-0.15702499449253,-0.47519999742508,-0.45608749985695,-0.50819998979568,-1.40002501010895,-1.40855002403259,0.13605000078678,0.58799999952316,1.07205009460449,7.63995027542114,9.91605091094971,10.9069509506226,2.11323738098145,1.98440003395081,0.99893748760223,1.98495006561279,12.1350002288818,15.7080011367798,0.67622500658035,0.72407501935959,0.77206248044968,-1.32013750076294,-1.10948753356934,-0.85717499256134,6.56400012969971,2.05695009231567,-0.38505002856255,13.6450510025024,13.3360509872437,13.4170503616333,-5.49903726577759,-5.84388732910156,-6.45039987564087,17.0520000457764,18.5170516967773,24.9649505615234,-0.14533749222755,-0.57846248149872,-0.20597499608994,0.09624999761581,1.23708748817444,2.04696249961853,-9.0100507736206,-14.9419507980347,-19.6200008392334,9.54495048522949,11.3839502334595,10.8469505310059,-12.512225151062,-11.9257869720459,-10.5806245803833,12.2380504608154,5.05695009231567,0.78195005655289,1.71490001678467,0.49637499451637,-0.47740000486374,-0.91038751602173,0.14423750340939,0.78595000505447,-20.9779510498047,-18.75,-17.5549507141113,4.26405000686646,3.11400008201599,4.61100006103516,-6.07048749923706,-5.00417518615723,-3.87928748130798,-7.17105054855347,-9.15795040130615,-10.8490505218506,1.19982504844666,1.77869999408722,2.08518743515015,-1.4968249797821,-1.09243750572205,-0.50709998607635,-14.4199504852295,-13.0120506286621,-10.8949508666992,13.6350002288818,12.6079502105713,10.9699506759644,1.05751252174377,1.51827502250671,1.86628746986389,-7.91805028915405,-6.95505046844482,-5.32905006408691,SWING_RIGHT
-0.3103374838829,-0.47519999742508,-0.95411247014999,-0.80396246910095,-0.77522498369217,-0.5295125246048,3.72105026245117,3.23505020141602,2.04900002479553,9.48900032043457,9.59700012207031,8.84295082092285,1.50562500953674,1.68217504024506,1.67791247367859,0.67005002498627,3.1800000667572,5.30895042419434,-0.68062502145767,0.06751249730587,0.80176252126694,-1.81389999389648,-1.17754995822906,-0.90406250953674,3.26595020294189,4.18095016479492,5.57205009460449,15.6780004501343,16.2700500488281,14.6389503479004,-3.06308746337891,-4.5667872428894,-5.85873746871948,23.8920001983643,25.0939502716064,28.9980010986328,0.92949998378754,1.2667875289917,2.20329999923706,2.75041246414185,2.9973623752594,2.55351257324219,-12.0109510421753,-20.1390018463135,-25.7940006256104,11.1610507965088,10.7970008850098,10.0570507049561,-12.9868745803833,-13.5178995132446,-12.6015996932983,24.3610515594482,20.9509506225586,5.26095008850098,1.23282504081726,0.81564998626709,0.35488748550415,-0.35062500834465,0.01429999992251,-0.34746250510216,-25.8370513916016,-24.5820007324219,-23.3389511108398,5.45400047302246,6.0930004119873,6.86700010299683,-4.7647876739502,-2.87045001983643,-0.76656252145767,-12.4350004196167,-15.271050453186,-15.3229503631592,1.63074994087219,1.95002496242523,1.58290004730225,-0.81578749418259,-0.34003749489784,0.06118749827147,-12.8080501556396,-8.64600086212158,-4.75395011901855,12.1620006561279,8.04300022125244,5.58600044250488,2.88158750534058,1.89818751811981,1.38104999065399,-0.60795003175735,-0.39705002307892,-0.45495003461838,SWING_RIGHT
-0.30497500300407,-0.1560624986887,-0.09528750181198,-0.23993749916553,-0.59647500514984,-0.92001247406006,2.70795011520386,2.94300007820129,3.95295023918152,9.32700061798096,8.73300075531006,9.55200004577637,0.62755000591278,0.64143747091293,1.24698746204376,1.56795012950897,-3.23595023155212,-2.5770001411438,-0.60720002651215,-0.6572499871254,-0.74126249551773,-1.21591246128082,-1.02863752841949,-0.51878750324249,5.296950340271,5.68995046615601,5.02395009994507,10.2409505844116,11.1469507217407,10.8280506134033,1.9152375459671,2.40267491340637,2.22708749771118,0.59805005788803,5.52000045776367,7.94100046157837,-0.8817874789238,-0.67526251077652,-0.69547498226166,-0.94448751211166,-1.32659995555878,-1.10728752613068,4.90905046463013,6.92100048065186,9.29400062561035,10.9380006790161,11.8290004730225,12.0660009384155,-3.86333751678467,-6.6452374458313,-8.28520011901855,35.3779525756836,25.4869518280029,30.3490505218506,2.32154989242554,2.15022492408752,1.42436254024506,1.50851249694824,0.92001247406006,0.91891247034073,-15.5149507522583,-20.1540012359619,-26.7229518890381,7.8870005607605,6.7350001335144,3.6889500617981,-12.3844871520996,-12.4920120239258,-11.8672122955322,20.0790004730225,13.7299509048462,5.92200040817261,0.82733750343323,2.18735003471375,2.30133748054504,1.51387500762939,0.87106251716614,0.26977500319481,-23.8159503936768,-23.7780017852783,-22.9939517974854,9.99705028533936,7.29300022125244,5.08005046844482,-3.15136241912842,-1.32632493972778,0.08277499675751,-12.8010005950928,-11.2420501708984,-8.96895027160645,SWING_RIGHT
-0.22412499785423,-0.67003750801086,-1.11058747768402,-0.42941248416901,-0.16871249675751,-0.01869999989867,3.57000017166138,3.4699501991272,2.99100017547607,9.43395042419434,8.65605068206787,8.47395038604736,1.43962502479553,1.80785000324249,0.80739998817444,3.67995023727417,6.87495040893555,17.2890014648438,0.01003750041127,0.18026250600815,-0.13997499644756,-0.45182499289513,0.30167499184608,1.06053745746613,6.1279501914978,3.15105009078979,-2.23200011253357,13.3930501937866,8.84505081176758,10.7560501098633,-8.839599609375,-12.0577878952026,-12.6739253997803,19.5330009460449,16.0339508056641,11.8380002975464,-0.79447501897812,-2.46427488327026,-1.89378750324249,-1.06686246395111,-0.72847497463226,-1.45956254005432,-24.9630012512207,-23.2579517364502,-18.6570014953613,4.02195024490356,5.45100021362305,16.8570003509521,-4.39766263961792,-0.52071249485016,0.78196251392365,-13.8570003509521,-6.39000034332275,-2.33295011520386,0.22288750112057,0.16114999353886,-0.43161249160767,0.34856250882149,0.42625001072884,0.29961249232292,-3.3600001335144,-1.03005003929138,-1.03005003929138,9.9660005569458,8.80695056915283,9.00300025939941,0.00398749997839,0.05403750017285,0.02309999987483,-1.37205004692078,-1.03500008583069,-1.29795002937317,0.04619999974966,0.04193750023842,0.01539999991655,-0.02928750030696,0.17393749952316,0.0930875018239,-2.04495000839233,-1.95600008964539,-1.3860000371933,9.74595069885254,8.98200035095215,8.62695026397705,0.43285000324249,0.27101248502731,0.21889999508858,-0.22995001077652,-0.8479500412941,-1.14000010490417,SWING_RIGHT
-0.10284999758005,-0.06984999775887,-0.12512500584126,0.03781250119209,-0.1047749966383,-0.01017499994487,3.93195009231567,3.87705016136169,3.80505013465881,8.88105010986328,9.08700084686279,9.03404998779297,0.35089999437332,0.33274999260902,0.05719999969006,0.79395002126694,2.38695001602173,2.47095012664795,0.15262499451637,-0.15070000290871,-0.02296249940991,0.28682500123978,0.5048999786377,0.05898749828339,4.39695024490356,3.58695006370544,3.66600012779236,8.74695014953613,8.70105075836182,9.32895088195801,0.21779999136925,0.4838624894619,0.26152500510216,1.09095001220703,4.88700008392334,6.87495040893555,-0.00164999999106,0.39957499504089,-0.39338749647141,-0.77426248788834,-1.61177504062653,-0.29425001144409,9.74205017089844,5.64405012130737,3.27795004844666,12.5340003967285,11.5870504379272,9.29805088043213,-13.319899559021,-14.2894124984741,-13.6252870559692,30.8110523223877,13.81605052948,9.25305080413818,3.04837489128113,3.94652509689331,3.37081241607666,1.24671244621277,0.06324999779463,0.52085000276566,-28.267951965332,-24.0150012969971,-21.0949516296387,9.5110502243042,6.0930004119873,5.08005046844482,-1.26995003223419,0.34869998693466,1.89076244831085,-13.0170001983643,-10.150050163269,-4.8139500617981,0.8401250243187,-0.04001250118017,-1.38187503814697,-0.19318750500679,-0.12182500213385,-0.15482500195503,-0.76905006170273,0.88305002450943,0.24795001745224,3.07800006866455,3.62595009803772,7.69800043106079,0.32532501220703,0.28380000591278,0.23058749735355,-4.14300012588501,-3.58305025100708,-3.78600025177002,SWING_RIGHT
-0.01663750037551,-0.20927499234676,-0.64762496948242,0.23787499964237,0.63800001144409,1.58936250209808,3.5029501914978,3.59205007553101,3.4980001449585,9.77400016784668,10.150050163269,10.3879508972168,0.10615000128746,0.21779999136925,0.44137498736382,-0.19095000624657,-0.01200000010431,6.22395038604736,0.85181248188019,1.28287494182587,1.16792500019073,-2.23217487335205,-2.57702493667603,-2.20137500762939,6.26505041122437,6.40605020523071,5.01705026626587,14.2699508666992,13.5109510421753,13.2520503997803,-3.15672492980957,-5.67572498321533,-7.30179977416992,16.627950668335,18.6640510559082,20.2009506225586,0.40163749456406,-0.73383748531342,-1.74267494678497,-1.63308751583099,-0.39861249923706,0.73369997739792,-12.7290010452271,-17.6610012054443,-23.1880512237549,6.08895015716553,3.68595027923584,3.17400026321411,-13.4732122421265,-11.8013496398926,-9.6962251663208,11.9650506973267,-5.33100032806396,-11.3190002441406,0.95081251859665,1.34241247177124,1.42436254024506,-0.22935000061989,-0.05486249923706,0.43477499485016,-20.6569519042969,-18.2209510803223,-16.2810001373291,12.8040008544922,11.7190504074097,10.3420505523682,-1.74129998683929,-0.65587496757507,0.25299999117851,-9.84105014801025,-9.56295013427734,-8.59095001220703,1.4030499458313,0.23883749544621,-0.48908749222755,-0.26124998927116,-0.15702499449253,-0.08030000329018,-5.139000415802,-1.36995005607605,-0.78795003890991,5.87100028991699,4.61295032501221,5.10405015945435,1.2277375459671,1.15114998817444,0.9872499704361,-3.17100024223328,-2.3970000743866,-2.20995020866394,SWING_RIGHT
-0.02089999988675,0.01113750040531,-0.0622874982655,-0.02502499893308,0.00687499996275,0.05059999972582,2.83305025100708,2.87100005149841,2.7679500579834,9.7170000076294,9.27600002288818,9.40605068206787,0.14767499268055,0.20184999704361,0.19662499427795,0.82095003128052,1.02195000648499,1.27605009078979,-0.03781250119209,0.04839999973774,0.03877500072122,-0.15056249499321,-0.29851248860359,-0.27939999103546,2.77995014190674,2.83500003814697,3.25200009346008,9.60705089569092,9.64500045776367,9.35295009613037,0.02846249938011,0.08483749628067,0.11673749983311,2.82795023918152,3.550950050354,5.94795036315918,0.20693749189377,0.04509999975562,-0.17091250419617,-0.62411248683929,-0.37413749098778,0.26551249623299,5.76900005340576,6.93795013427734,8.59695053100586,10.3210506439209,10.8109502792358,11.0340003967285,-5.73952484130859,-7.85523748397827,-8.1298246383667,24.3280506134033,16.6660499572754,12.9060001373291,-0.68488746881485,-0.083599999547,0.12594999372959,0.34952500462532,0.26234999299049,0.42198750376701,-2.60595011711121,-5.87205028533936,-16.7940006256104,14.7820510864258,12.4590005874634,10.1149501800537,-10.3039751052856,-8.43411254882813,-7.2263126373291,-1.72200012207031,-0.08595000207424,1.24905002117157,0.28462499380112,0.48138749599457,1.11251246929169,0.48152500391006,0.26757499575615,-0.12828749418259,-14.1640510559082,-11.9200506210327,-10.5640506744385,6.81900024414063,9.58005046844482,9.84405040740967,-2.11805009841919,-1.57643747329712,-0.97721248865128,-4.64400005340576,-5.53005027770996,-6.2989501953125,SWING_RIGHT
-0.35076248645782,-0.11976250261068,0.1142624989152,0.8731250166893,0.82747501134872,0.65821248292923,3.23505020141602,3.15300011634827,3.09405016899109,11.5950002670288,11.2519502639771,10.3590002059937,0.99054998159409,1.25014996528625,1.39590001106262,0.80400002002716,0.93795001506805,1.68495011329651,0.93802499771118,1.64037501811981,1.9852249622345,-2.38754987716675,-3.93813753128052,-4.38721227645874,4.30305004119873,5.62305021286011,7.11705017089844,11.6590509414673,12.9739503860474,12.3490505218506,-2.19683742523193,-4.25397491455078,-6.18970012664795,25.1350517272949,25.5160503387451,25.2810020446777,-0.39228749275208,-0.38266250491142,-0.70826250314713,0.78058749437332,0.02076249942183,-2.70050001144409,-2.01900005340576,-7.06500053405762,-19.1290512084961,6.41895008087158,4.71405029296875,6.73995018005371,-14.8927621841431,-15.2142372131348,-13.9871873855591,23.9179515838623,11.4810009002686,1.80300009250641,-1.94383752346039,-0.99137496948242,0.03877500072122,0.18150000274181,-0.59647500514984,-0.6678375005722,-24.445951461792,-21.4900512695313,-19.9980010986328,11.8890008926392,13.9369506835938,13.51305103302,-2.87787508964539,-0.19827499985695,0.97446250915527,-9.58500003814697,-10.7419500350952,-8.49000072479248,1.92665004730225,1.59788751602173,0.39214998483658,0.16761249303818,-0.01017499994487,-0.21972499787807,-5.6380500793457,-2.97705006599426,1.09095001220703,5.28900003433228,4.03605031967163,4.37100028991699,0.84892499446869,0.23168750107288,0.05926249921322,-1.61400008201599,-3.3270001411438,-3.07005023956299,SWING_RIGHT
-0.11879999935627,-0.08470000326633,-0.09528750181198,0.04523750022054,0.07397499680519,0.12718750536442,3.41700005531311,3.58200025558472,3.55605006217957,9.78405094146728,9.72705078125,9.65895080566406,0.10615000128746,0.17641249299049,0.22110000252724,-0.64905005693436,-0.57900005578995,-0.47205001115799,-0.11769999563694,-0.259187489748,-0.31996250152588,0.23251250386238,0.07081250101328,-0.02502499893308,3.29700016975403,3.03600025177002,2.87595009803772,8.30400085449219,8.21505069732666,8.2369499206543,0.61476248502731,1.44484996795654,1.65880000591278,-2.51205015182495,-0.06000000238419,4.08300018310547,-0.82967501878738,-1.11801254749298,-1.03716254234314,-0.2239875048399,-1.35959994792938,-2.75151252746582,6.85395050048828,7.28505039215088,9.61995029449463,8.86005020141602,10.9669504165649,17.0310001373291,-6.53235006332397,-11.1244373321533,-13.0102500915527,38.7720031738281,35.7259521484375,31.2040519714355,0.88371247053146,2.14692497253418,1.34667503833771,1.45309996604919,-0.62741249799728,-0.65284997224808,-32.332950592041,-36.8110504150391,-31.7290515899658,10.0669507980347,4.89795017242432,1.78005003929138,-10.1580877304077,-8.53201198577881,-8.04141235351563,3.43095016479492,0.48105001449585,-9.67305088043213,-0.97652500867844,1.42546248435974,3.4154999256134,0.80079996585846,0.12402500212193,0.36877501010895,-26.4910507202148,-21.9790515899658,-10.9620008468628,19.066951751709,18.9310512542725,5.09205007553101,3.65199995040894,2.45588755607605,1.01818752288818,0.81600004434586,0.99105006456375,1.38300001621246,SWING_RIGHT
-0.29218751192093,-0.37729999423027,-0.34759998321533,0.1229249984026,0.08030000329018,0.06324999779463,3.85305023193359,3.56295013427734,3.27105021476746,8.75400066375732,9.44595050811768,9.99195003509522,0.37963750958443,0.40617498755455,0.37221249938011,0.52395004034042,1.23000001907349,0.48105001449585,-0.43807500600815,-0.62961250543594,-0.52098751068115,0.17503750324249,-0.02502499893308,-0.35392498970032,2.77995014190674,2.53605008125305,2.34195017814636,9.1399507522583,9.75300025939941,11.2110004425049,2.21003746986389,2.04091238975525,1.58743751049042,6.34095048904419,9.82095050811768,14.7049503326416,1.44773745536804,0.85607498884201,0.03767500072718,-1.84483754634857,-1.9629499912262,-1.02849996089935,9.10500049591064,5.3929500579834,2.30805015563965,9.52305030822754,9.95400047302246,12.8640003204346,-6.91556262969971,-9.15145015716553,-11.2106494903564,31.0309505462646,30.8899517059326,26.3110504150391,0.05582499876618,0.65491247177124,1.10398745536804,1.26582503318787,0.67306250333786,0.1409374922514,-23.1049518585205,-27.72705078125,-29.2290019989014,7.45605039596558,7.63800048828125,4.87695026397705,-12.5919752120972,-11.376612663269,-9.89106273651123,6.62895011901855,2.47995018959045,-0.60300004482269,-1.22333753108978,-1.61287498474121,-1.47564995288849,0.24736249446869,0.81138747930527,0.99233746528625,-23.6029510498047,-23.2650012969971,-23.3490009307861,4.80000019073486,6.52395009994507,9.57600021362305,-4.7412748336792,-2.58637499809265,-0.20143750309944,-16.5229511260986,-19.7470512390137,-17.2800006866455,SWING_RIGHT
0.022824998945,0.00467499997467,-0.06875000149012,-0.14739999175072,-0.28998750448227,-0.97006249427795,3.22995018959045,2.84505009651184,2.74905014038086,8.81895065307617,8.60100078582764,8.6220006942749,1.60668754577637,1.72370004653931,1.8130749464035,1.1010000705719,1.65405011177063,1.64205002784729,0.14630000293255,-0.46667498350143,-0.52208751440048,-0.34430000185966,0.70289999246597,0.74222499132156,2.53095006942749,1.37895011901855,0.81600004434586,8.23905086517334,8.84505081176758,8.24595069885254,3.35940003395081,3.16992497444153,1.95249998569489,6.99300050735474,15.4639511108398,24.3760509490967,0.60706251859665,-0.22948749363422,-1.27654993534088,-2.27149987220764,-1.92884993553162,-1.14674997329712,9.37604999542236,6.32205009460449,3.132000207901,7.75995016098022,6.85695028305054,11.4439506530762,-6.38549995422363,-10.2656126022339,-12.0928497314453,31.6450519561768,30.1960506439209,28.5550518035889,-0.75515002012253,-0.27087500691414,0.07067500054836,1.78626251220703,2.00763750076294,1.7714124917984,-28.8210010528564,-28.4530506134033,-27.79905128479,6.33000040054321,4.764000415802,1.67700004577637,-11.3469123840332,-9.54731273651123,-7.84135007858276,-1.24305009841919,-4.171950340271,-6.33195018768311,-0.75295001268387,-1.09147500991821,-0.65614998340607,0.23993749916553,0.75501251220703,0.65078747272491,-18.223051071167,-17.3010005950928,-16.231050491333,4.82895040512085,7.5400505065918,10.0450506210327,-2.21595001220703,-0.56003749370575,0.80533748865128,-14.7940511703491,-13.5169506072998,-9.61800003051758,SWING_RIGHT
0.06531249731779,0.13131250441074,0.09831249713898,0.05156249925494,-0.01333750039339,-0.00687499996275,4.92795038223267,5.01900005340576,5.09805011749268,8.65395069122314,8.2900505065918,8.22705078125,0.46901249885559,0.41799998283386,0.14547500014305,3.10800004005432,4.07100009918213,4.15005016326904,0.31858751177788,0.90282499790192,0.54422497749329,-1.08074998855591,-1.91716253757477,-1.9852249622345,4.92600011825562,6.85905027389526,9.33000087738037,9.89400005340576,9.04200077056885,6.17205047607422,-2.53838753700256,-4.09639978408813,-5.94921255111694,23.6790008544922,26.4570007324219,25.7650508880615,-0.5986750125885,-0.79667496681213,-0.80519998073578,-0.859375,-0.41662499308586,-0.05376249924302,-0.61305004358292,-4.03305006027222,-10.6000509262085,10.1119508743286,10.7680501937866,11.1180009841919,-14.3798875808716,-12.7729253768921,-10.8455877304077,11.8210506439209,2.18805003166199,1.35900008678436,0.99756246805191,0.16857500374317,-0.07301250100136,0.60706251859665,0.030387500301,-0.28256249427795,-21.9289512634277,-21.5239505767822,-20.9250011444092,2.48595023155212,5.10900020599365,8.35200023651123,-6.13648748397827,-4.81483745574951,-3.79307508468628,-12.2670001983643,-12.7150506973267,-13.3189506530762,1.32426249980927,1.2476749420166,0.8816499710083,-1.24891245365143,-1.14248752593994,-1.06796252727509,-13.642050743103,-12.2809505462646,-10.8589506149292,9.6709508895874,8.08095073699951,7.44195032119751,-1.08790004253387,-0.47176250815392,0.94572502374649,-9.04605007171631,-9.52005004882812,-6.09795045852661,SWING_RIGHT
0.00467499997467,-0.01663750037551,-0.07301250100136,0.05898749828339,0.10051249712706,0.20693749189377,5.59605026245117,5.50305032730103,5.17995023727417,8.02605056762695,7.91100025177002,7.7790002822876,0.96813750267029,1.05118751525879,0.98202496767044,1.79505014419556,2.89500021934509,4.07295036315918,-0.29644998908043,-0.56883752346039,-0.53171247243881,0.07081250101328,-0.4794625043869,-1.27338755130768,7.20600032806396,7.35000038146973,8.65694999694824,4.84800004959106,4.9699501991272,6.73995018005371,-0.28022500872612,-1.71682500839233,-3.52274990081787,20.6610012054443,25.276050567627,26.0380516052246,-1.30432498455048,-1.369225025177,-0.52841252088547,-0.58052498102188,0.28572499752045,0.09102500230074,2.82495021820068,-1.08195006847382,-7.8120002746582,11.3359508514404,13.7089509963989,11.0410509109497,-12.0364751815796,-13.0219373703003,-12.1141624450684,23.5159511566162,11.4040508270264,4.02495002746582,1.3199999332428,1.46794998645782,0.95397502183914,-1.71393752098084,-1.65330004692078,-1.33608746528625,-17.650951385498,-16.2330017089844,-16.6210498809814,13.314001083374,9.38205051422119,6.35700035095215,-9.0194501876831,-8.08087539672852,-5.15322494506836,0.57195001840591,-6.0949501991272,-9.5779504776001,1.02740001678467,0.69217497110367,0.08978749811649,-0.43903750181198,-0.40810000896454,-0.26771250367165,-12.6840009689331,-11.7739505767822,-11.6280002593994,8.5890007019043,7.31700038909912,7.83000040054321,-2.57564997673035,-1.91166245937347,-1.11237502098084,-8.14995002746582,-9.22995090484619,-9.21795082092285,SWING_RIGHT
-0.13048750162125,-0.05706249922514,0.00783750042319,0.37619999051094,0.23251250386238,0.14630000293255,3.82395029067993,3.91995024681091,4.01999998092651,9.28305053710938,9.62100028991699,9.71895027160644,0.93830001354218,0.95851248502731,1.20656251907349,1.18005001544952,0.80595004558563,0.67905002832413,0.82733750343323,0.29315000772476,-0.06984999775887,-0.13777500391006,0.73479998111725,1.17961251735687,3.89400029182434,5.51295042037964,5.8690505027771,9.20400047302246,8.45205020904541,8.51895046234131,1.00746250152588,0.35296249389648,-1.03688752651215,5.95605039596558,16.2569999694824,18.9220504760742,0.65807497501373,0.58038747310638,0.54422497749329,-0.87642496824265,-0.75927501916885,-0.56141251325607,8.94705009460449,7.59600019454956,6.93795013427734,10.7970008850098,11.5639505386353,11.6590509414673,-6.34933757781982,-9.32483768463135,-9.84953784942627,25.1560516357422,17.5380001068115,13.7539510726929,-0.2411749958992,-0.31569999456406,-0.61572498083115,0.15056249499321,0.07713750004768,-0.14313749969006,-15.7609510421753,-17.3419513702393,-17.3089504241943,8.02095031738281,4.8070502281189,5.53500032424927,-8.73950004577637,-8.72258758544922,-8.25109958648682,3.66795015335083,2.5860002040863,-3.82500028610229,-0.00068749999627,1.54027497768402,1.9351749420166,0.52415001392365,0.0686125010252,-0.11976250261068,-19.6459503173828,-18.6070499420166,-17.5120506286621,10.7659502029419,11.5249509811401,8.7450008392334,-1.12626254558563,-0.38554999232292,0.34553748369217,-8.45400047302246,-8.39400005340576,-9.44595050811768,SWING_RIGHT
-0.01237499993294,0.2419999986887,0.33673748373985,-0.03891250118613,-0.13887499272823,-0.51768749952316,4.15904998779297,4.43505001068115,4.52100038528442,9.92505073547363,8.93400001525879,7.72005033493042,0.50737500190735,0.88728749752045,1.11814999580383,1.52505004405975,3.37395024299622,11.7370510101318,-0.14011250436306,-0.0591249987483,0.20693749189377,-1.3946624994278,-1.32013750076294,-1.65962493419647,7.4650502204895,8.20905017852783,6.96900033950806,12.1909503936768,12.5910005569458,13.0699510574341,-3.9028000831604,-4.78609991073608,-5.86189985275269,21.5160007476807,23.4100513458252,25.9990520477295,0.2909500002861,0.23567499220371,0.21546250581741,-0.66467499732971,-0.71568751335144,-0.14203749597073,-2.84295010566711,-13.3690509796143,-19.1220016479492,11.3340005874634,11.731050491333,9.65205001831055,-10.6625747680664,-10.697774887085,-10.1336126327515,15.9760503768921,11.2920007705688,8.15700054168701,-0.79557502269745,-0.99137496948242,-0.31776249408722,-0.79131251573563,-0.51878750324249,-0.52525001764297,-28.7400016784668,-24.6349506378174,-20.4480018615723,6.85695028305054,13.5940504074097,14.506950378418,-4.0644998550415,-1.64450001716614,-1.29016244411469,-12.1500005722046,-6.81795024871826,-6.81795024871826,1.40098750591278,1.46052503585815,1.10288751125336,0.35708749294281,-0.84026247262955,-0.99563747644424,-9.18195056915283,-6.72000026702881,-5.37405014038086,7.80105018615723,6.93405055999756,7.12605047225952,1.18525004386902,1.45131254196167,1.5193749666214,-4.80195045471191,-3.83205008506775,-3.26895022392273,SWING_RIGHT
-0.23375000059605,-0.28792500495911,-0.41139999032021,-0.52305001020432,-0.66563749313354,-0.6678375005722,4.20300006866455,4.62600040435791,5.23995018005371,9.68805027008057,10.4260501861572,12.7609510421753,-0.57282501459122,-0.93994998931885,-1.97862493991852,10.3530006408691,11.8420505523682,17.4040508270264,0.54958748817444,0.19415000081062,0.08882500231266,-1.23186254501343,-1.02217495441437,-0.79447501897812,4.95705032348633,2.55000019073486,0.51705002784729,9.66900062561035,10.0350008010864,10.4809503555298,-4.24228763580322,-4.31777477264404,-4.58809995651245,15.8659505844116,16.9339504241943,21.5299510955811,-0.28476250171661,-1.00526249408722,-1.52240002155304,-1.97353744506836,-1.53725004196167,-0.73383748531342,-7.90800046920776,-12.9760503768921,-17.239049911499,8.12895011901855,9.55200004577637,11.437050819397,-8.96829986572266,-9.67931270599365,-8.82681274414063,18.8410511016846,12.9439506530762,1.93005013465881,-0.58382499217987,-1.02011251449585,-1.31064999103546,-0.70826250314713,-0.50929999351501,0.59441250562668,-20.2879505157471,-20.2639503479004,-20.3569507598877,5.13795042037964,6.96495056152344,7.73400020599365,-5.93106269836426,-4.42956256866455,-3.15782499313354,-10.7509508132935,-11.3740501403809,-10.3579502105713,0.15056249499321,0.49953749775887,0.67938750982285,0.19208750128746,-0.04743750020862,-0.39531248807907,-10.7509508132935,-10.0609502792358,-8.84205055236816,9.43905067443848,8.51895046234131,7.8870005607605,0.18067499995232,0.5626500248909,0.7148625254631,-7.59900045394897,-5.84400033950806,-4.89300012588501,SWING_RIGHT
0.02598750032485,0.14519999921322,0.26537498831749,-0.09528750181198,0.02186249941587,0.41346248984337,2.8090500831604,2.87805008888245,2.91900014877319,10.9380006790161,10.8040504455566,9.30705070495606,0.70523750782013,0.68612498044968,0.74360001087189,1.23300004005432,0.66000002622604,0.43500003218651,0.21642500162125,0.1175625026226,0.04839999973774,0.10161250084639,-0.01443750038743,-0.18892499804497,4.15500020980835,4.57605028152466,4.75605010986328,8.05995082855225,8.20095062255859,8.62005043029785,0.82018750905991,0.7541875243187,0.56691247224808,2.30295014381409,3.50505018234253,5.77605009078979,-0.41992500424385,-0.38802498579025,0.29727500677109,-0.00054999999702,-0.23141250014305,-0.96359997987747,7.3279504776001,8.42505073547363,9.12195014953613,10.0639505386353,11.8050003051758,13.0510501861572,-2.37022495269775,-4.01348733901978,-5.38724994659424,21.3769512176514,21.4849510192871,18.481050491333,0.19098749756813,0.06215000152588,0.02598750032485,-1.67351245880127,-1.37981247901917,-0.89443749189377,-0.33300000429153,-2.34195017814636,-5.01000022888184,10.9909505844116,11.2759504318237,10.4710502624512,-7.61791229248047,-8.1222620010376,-8.57353782653809,18.0550518035889,16.9369506835938,14.5129508972168,-0.86583751440048,-0.81578749418259,-0.53171247243881,0.76037502288818,0.79543751478195,0.65394997596741,-18.1950016021729,-18.7770004272461,-19.3230018615723,6.77295017242432,7.01295042037964,6.67305040359497,-8.41499996185303,-8.30747509002686,-7.07836246490479,6.42000007629395,2.18099999427795,-10.1740503311157,SWING_RIGHT
-0.28902500867844,-0.01979999989271,-0.11879999935627,0.21546250581741,0.03451250120997,0.15482500195503,4.08494997024536,4.56405019760132,4.20705032348633,9.34095001220703,8.73495006561279,8.3569507598877,0.29136249423027,0.08910000324249,0.08373750001192,1.1539500951767,0.67500001192093,-0.13605000078678,-0.19744999706745,-0.03575000166893,-0.00591249996796,0.04949999973178,-0.19855000078678,-0.10697499662638,3.92505025863647,4.546950340271,4.48995018005371,9.5179500579834,9.73605060577393,9.07005023956299,0.08167500048876,0.15936249494553,0.21037499606609,1.35495007038116,1.77900004386902,3.18195009231567,-0.11453749984503,-0.19855000078678,-0.47850000858307,-0.18466250598431,-1.65110003948212,-2.17689990997314,5.5489501953125,6.15000009536743,6.90900039672852,8.94105052947998,8.625,10.7659502029419,-3.06515002250671,-7.54654979705811,-8.63527488708496,29.7450008392334,25.2259521484375,19.6500015258789,0.81138747930527,0.86776250600815,0.52291250228882,-0.07933750003576,-0.53899997472763,-0.93596249818802,-15.151050567627,-19.3159503936768,-23.8159503936768,8.64900016784668,6.55800008773804,6.34695053100586,-10.2772998809814,-8.08720016479492,-6.77710008621216,4.34400033950806,-3.88905024528503,-4.69695043563843,0.38774999976158,0.34842500090599,-0.07933750003576,-0.25176250934601,0.03781250119209,0.00481249997392,-14.53005027771,-15.1990509033203,-16.570951461792,10.7920503616333,9.64995002746582,10.1310005187988,-4.7519998550415,-3.93786239624023,-2.54484987258911,-9.87900066375732,-13.4620504379272,-14.6260509490967,SWING_RIGHT
0.05678749829531,-0.0314874984324,0.21972499787807,0.20597499608994,0.13034999370575,-0.12498749792576,4.19505023956299,4.0969500541687,4.82805013656616,8.60100078582764,9.25695037841797,9.96795082092285,0.80217498540878,0.60211247205734,0.62328749895096,2.80395007133484,2.11395001411438,2.02305006980896,0.00041249999776,0.1142624989152,0.08126249909401,0.20693749189377,-0.09955000132322,-0.20267499983311,4.62405014038086,4.63095045089722,4.82805013656616,9.25500011444092,8.53605079650879,8.74200057983398,0.00288749998435,-0.17696249485016,-0.49623748660088,4.32495021820068,5.2630500793457,9.05505084991455,0.08456250280142,0.1175625026226,0.23347499966621,-0.76353746652603,-0.6571124792099,-0.44426250457764,7.54800033569336,7.59600019454956,4.80600023269653,10.9500007629395,11.5060501098633,11.5800008773804,-6.81546258926392,-9.36100006103516,-11.2191753387451,29.238000869751,28.723051071167,25.0530014038086,0.57722496986389,-0.61792498826981,-1.46492505073547,-2.68125009536743,-1.81389999389648,-0.93059998750687,-21.5550003051758,-21.9000015258789,-21.5839519500732,8.53095054626465,8.22705078125,9.97095012664795,-9.80168724060059,-7.39543724060059,-6.30038738250732,0.02100000157952,-4.35900020599365,-5.78595018386841,0.0015124999918,0.04303750023246,0.05898749828339,-0.21340000629425,-0.19951249659061,-0.30071249604225,-16.4580001831055,-16.3960514068604,-16.0200004577637,10.6770000457764,10.372950553894,11.0080509185791,-2.84061241149902,-0.31748750805855,0.74992501735687,-11.3070001602173,-11.2729501724243,-8.24100017547607,SWING_RIGHT
0.14519999921322,0.05156249925494,-0.09006249904633,0.10051249712706,0.16761249303818,0.20171250402927,3.87000012397766,3.55605006217957,3.45300006866455,9.03000068664551,8.50005054473877,9.11805057525635,0.31363749504089,0.2923249900341,0.35199999809265,1.2280501127243,1.13700008392334,1.31400001049042,0.03451250120997,-0.01127499993891,-0.29438748955727,-0.16335000097752,-0.09955000132322,0.01003750041127,3.88905024528503,5.11005020141602,6.02805042266846,9.88905048370361,9.89400005340576,10.687050819397,-0.45265001058578,-0.92716246843338,-2.02014994621277,10.8649501800537,16.5820503234863,23.8420505523682,1.10508751869202,0.96566247940063,0.9922000169754,-2.14596247673035,-2.01079988479614,-2.57592487335205,2.22405004501343,-2.65095019340515,-7.39605045318604,13.7290506362915,12.9790506362915,14.6119508743286,-9.71121215820312,-10.8158874511719,-10.7263746261597,24.105001449585,16.0600509643555,9.51195049285889,-0.62424999475479,-1.07332503795624,-0.8232125043869,0.09624999761581,-0.50819998979568,-1.15101253986359,-20.439001083374,-20.3569507598877,-19.689001083374,2.79795002937317,5.87100028991699,11.9370002746582,-6.93247509002686,-4.38061237335205,-3.72611236572266,-9.85305023193359,-9.88200092315674,-8.97900009155273,-0.0346499979496,-0.91588747501373,-0.90846252441406,-0.99343746900558,-0.30387499928474,0.15908749401569,-11.7499504089355,-12.3150005340576,-10.4130001068115,8.83095073699951,10.85205078125,13.7190008163452,-0.47286251187325,0.54133749008179,1.22141253948212,-11.9650506973267,-9.43605041503906,-7.15605020523071,SWING_RIGHT
0.1898874938488,0.12594999372959,0.1387374997139,-0.08882500231266,-0.02186249941587,-0.00054999999702,4.4040002822876,4.51395034790039,5.296950340271,10.0980005264282,10.5220508575439,11.0920505523682,-0.04922499880195,-0.72393751144409,-1.45832502841949,10.5880508422852,12.2140502929688,14.0200510025024,0.3740000128746,0.74112498760223,1.39562499523163,-1.31903743743896,-2.11089992523193,-2.85587501525879,4.01100015640259,2.36100006103516,1.87905013561249,12.2629508972168,14.8350009918213,15.0750007629395,-4.96691226959229,-6.33022499084473,-7.9030876159668,24.7800006866455,25.9200019836426,25.3380012512207,-0.20817500352859,-1.35107493400574,-1.60971248149872,-1.96831250190735,-1.62662494182587,-1.75972497463226,-12.5779504776001,-18.9490509033203,-23.8090515136719,6.7900505065918,9.61905002593994,14.6530504226685,-12.0023746490479,-10.1921873092651,-8.63527488708496,7.40700054168701,-4.59600019454956,-7.74495029449463,-0.52002501487732,-0.59551250934601,-0.0527999997139,-1.47124993801117,-1.03606247901917,-0.38046249747276,-16.6789512634277,-15.6780004501343,-15.1000509262085,11.9160003662109,15.657000541687,15.1560010910034,-3.04287505149841,-2.10952496528625,-1.07937502861023,-12.7249507904053,-12.9670505523682,-11.9800510406494,-0.5157625079155,-0.65834999084473,-0.69341248273849,0.92537498474121,1.0147500038147,0.80616247653961,-3.76005029678345,-2.31300020217896,-0.80400002002716,7.96395015716553,7.46100044250488,7.17300033569336,2.02386260032654,2.0685498714447,1.8992874622345,-5.23095035552979,-3.77205014228821,-3.1800000667572,SWING_RIGHT
-0.1134374961257,-0.24433749914169,-0.34113749861717,0.10051249712706,0.11329999566078,0.26757499575615,3.84105014801025,3.61095023155212,3.39795017242432,8.40195083618164,8.83305072784424,8.75895023345947,0.47011250257492,0.53707498311996,0.51590001583099,0.58095002174377,1.14600002765656,1.60395002365112,-0.3134999871254,-0.18259999155998,-0.12402500212193,-0.05692499876022,-0.13887499272823,-0.2080374956131,3.93705010414124,3.86505007743835,4.05194997787476,9.90105056762695,9.89400005340576,10.0120506286621,0.62658751010895,0.50943750143051,0.09762500226498,4.83495044708252,7.9549503326416,10.5660009384155,0.18452499806881,0.20693749189377,-0.08896250277758,-0.34856250882149,-0.46983748674393,-0.36877501010895,7.45695018768311,8.08695030212402,7.63005018234253,11.8270502090454,10.3560009002686,9.08205032348633,-4.4050874710083,-5.89599990844727,-6.59202480316162,22.666051864624,18.5200500488281,13.381950378418,0.69849997758865,1.18703746795654,1.26788747310638,0.75721251964569,0.40067499876022,0.09844999760389,-4.25804996490479,-6.02100038528442,-10.9879503250122,13.627950668335,11.0250005722046,11.9299507141113,-9.58883762359619,-10.3879871368408,-10.8222122192383,12.0840005874634,10.9950008392334,4.32705020904541,0.71032500267029,0.55494999885559,1.455162525177,-1.09353744983673,-1.43824994564056,-0.04317500069737,-19.1890506744385,-16.6309509277344,-14.7480010986328,7.53495025634766,12.8760004043579,8.78505039215088,-4.89568758010864,-4.33482503890991,-2.7586624622345,-5.28105020523071,-7.40505027770996,-11.8789501190186,SWING_RIGHT
-0.26455000042915,-0.3134999871254,-0.18479999899864,0.65078747272491,0.35914999246597,-0.00687499996275,4.01595020294189,3.56295013427734,3.29505014419556,7.62405014038086,8.61300086975098,9.16095066070557,0.27637499570847,0.33921250700951,0.44673749804497,0.25800001621246,0.33195000886917,0.4570500254631,-0.38582500815392,-0.30813750624657,-0.05706249922514,0.35914999246597,0.02186249941587,-1.27008748054504,4.00395011901855,4.72500038146973,4.67204999923706,9.92805004119873,9.97095012664795,11.2330503463745,0.84782499074936,-0.18012499809265,-1.5827624797821,9.62895011901856,20.0740509033203,22.5030002593994,0.62191247940063,0.63359999656677,0.81028747558594,-1.37871253490448,-0.49431249499321,-0.28998750448227,3.10305023193359,-0.0259500015527,-3.90105009078979,15.0150003433228,14.2120504379272,14.7970504760742,-10.3666753768921,-13.2060499191284,-14.4863128662109,30.598051071167,26.1169509887695,13.4929504394531,2.36403751373291,1.62648749351501,0.91135001182556,-2.43223738670349,-1.00402498245239,-1.31587493419647,-30.42405128479,-21.4140014648438,-16.2600002288818,11.5519504547119,6.22995042800903,4.38105010986328,-7.07836246490479,-6.88682508468628,-6.5962872505188,-2.05695009231567,-2.9719500541687,-8.16195011138916,-0.88494998216629,-0.02406249940395,0.55384999513626,-0.84342497587204,-0.27939999103546,-0.31239998340607,-12.9880504608154,-10.7410507202148,-9.16095066070557,14.9479503631592,12.9570007324219,9.82005023956299,-2.16919994354248,-1.79671251773834,-1.50397503376007,-9.26400089263916,-8.4660005569458,-8.76600074768066,SWING_RIGHT
-0.10064999759197,-0.34650000929832,-0.02089999988675,0.52415001392365,0.81564998626709,0.48372501134872,2.93595004081726,2.53095006942749,2.87100005149841,8.9239501953125,10.6729507446289,10.8570003509521,1.57052505016327,1.24272501468658,0.88412499427795,1.51800012588501,2.23605012893677,1.39305007457733,-0.16554999351501,-0.06132499873638,0.12815000116825,0.39957499504089,0.41772499680519,0.02502499893308,3.97995018959045,4.11195039749146,4.4320502281189,10.0140008926392,9.79395008087158,8.61795043945313,0.45306250452995,0.53074997663498,0.88192498683929,1.40295004844666,1.45995008945465,5.11005020141602,-0.26881250739098,-0.39971250295639,-0.21023750305176,-1.38820004463196,-0.37619999051094,-0.02818750031292,7.7160005569458,5.80500030517578,3.64200019836426,13.606050491333,16.0879516601563,17.625,-5.3191876411438,-8.04787540435791,-10.0805377960205,28.7989521026611,26.8039512634277,20.7520503997803,2.44062495231628,1.78722500801086,1.82338750362396,-3.07284998893738,-1.05723750591278,-0.1229249984026,-17.7709503173828,-24.3240013122559,-23.3920516967773,15.3210010528564,12.6919507980347,9.41295051574707,-10.0464372634888,-8.81196212768555,-7.6764874458313,-0.18405000865459,-2.65800023078919,-2.94300007820129,0.9784500002861,0.68365001678467,0.35158750414848,-1.18291246891022,-0.05692499876022,0.62411248683929,-12.5400009155273,-11.367000579834,-10.7989501953125,11.6830501556396,10.8259506225586,8.94795036315918,-4.34224987030029,-4.35820007324219,-3.37163758277893,-5.25195026397705,-6.72300052642822,-12.01305103302,SWING_RIGHT
-0.09432499855757,0.17283749580383,0.15578749775887,0.12718750536442,-0.11550000309944,-0.18246249854565,3.34305024147034,3.28005003929138,3.27600026130676,10.7419500350952,9.83895015716553,9.86505031585693,0.47863748669624,0.41373750567436,0.2743124961853,1.16805005073547,1.53000009059906,1.26105010509491,0.23031249642372,0.31542500853539,0.19841249287128,-0.09212499856949,-0.05692499876022,0.11550000309944,3.50100016593933,3.60900020599365,3.7350001335144,10.2100505828857,9.75,9.3720006942749,0.14341250061989,0.14657500386238,0.10078749805689,1.60395002365112,2.28405022621155,3.12495017051697,0.29411250352859,0.65174996852875,1.12846255302429,-0.14630000293255,-0.50819998979568,-0.65078747272491,5.05005025863647,6.51795053482056,7.46700048446655,10.3999500274658,14.4540004730225,16.7659511566162,-2.31701254844666,-5.32455015182495,-6.68992519378662,21.8370018005371,22.0930519104004,21.1039505004883,0.79860001802444,1.3136750459671,1.82228744029999,-0.74126249551773,-1.42656254768372,-2.26311254501343,-8.35095024108887,-16.0099506378174,-18.1710014343262,11.203950881958,14.028000831604,14.1619510650635,-8.99071216583252,-8.28726291656494,-7.55823755264282,1.16295003890991,-0.84495002031326,-1.83705008029938,1.63721251487732,0.68571251630783,-0.58588749170303,-3.90623736381531,-3.28900003433228,-2.03417491912842,-11.2300500869751,-10.3800001144409,-10.9380006790161,10.8229503631592,9.43005084991455,9.70995044708252,-5.94921255111694,-5.32345008850098,-4.78499984741211,-3.64005017280579,-8.19795036315918,-9.13395023345947,SWING_RIGHT
0.03341250121593,0.05472499877214,0.04083750024438,0.00591249996796,0.06655000150204,0.04303750023246,4.8469500541687,4.84200000762939,4.5949501991272,9.29505062103272,8.91495037078857,8.65605068206787,0.00934999994934,0.09968750178814,0.15289999544621,1.08900010585785,1.06995010375977,0.74400001764297,0.0749375000596,0.17710000276566,0.22178749740124,-0.10807500034571,-0.27087500691414,-0.22824999690056,4.71000003814697,4.93095016479492,5.19900035858154,9.22395038604736,9.48495006561279,9.51300048828125,1.04362499713898,1.62896251678467,1.90781247615814,2.55900001525879,5.21100044250488,13.4659509658813,0.7070249915123,0.39091250300407,0.21958750486374,-1.00512504577637,-2.06717491149902,-2.79083752632141,9.2989501953125,6.03000020980835,4.20300006866455,6.95595026016235,8.51700019836426,11.953950881958,-7.37522506713867,-8.95565032958984,-9.8410120010376,25.8840007781982,23.7120018005371,20.2510509490967,-0.94146251678467,-1.01378750801086,-1.08721244335175,-2.81434988975525,-1.27654993534088,0.09844999760389,-15.748950958252,-17.0929508209229,-18.2310009002686,15.6330003738403,13.9420509338379,10.0570507049561,-10.0273246765137,-9.72716236114502,-9.23656272888184,7.59900045394897,3.38100004196167,0.89700001478195,0.26647499203682,0.65271252393723,0.91987496614456,-0.44852501153946,-0.75185000896454,-0.82637500762939,-19.3159503936768,-19.0660514831543,-18.65505027771,9.9330005645752,10.5499505996704,9.51300048828125,-4.37634992599487,-3.71016240119934,-2.8726499080658,-10.0519504547119,-11.2710008621216,-12.4639501571655,SWING_RIGHT
0.00261249998584,0.04936249926686,-0.01663750037551,-0.01649999991059,0.02186249941587,0.16651250422001,4.35795021057129,4.2940502166748,3.76905012130737,9.72195053100586,9.52305030822754,9.11805057525635,0.14121249318123,0.20295000076294,0.24447499215603,1.57305002212524,1.55595004558563,1.55595004558563,0.13131250441074,0.04826249927282,-0.06764999777079,0.0867625027895,-0.08249999582767,-0.53157502412796,4.3289999961853,5.31900024414063,8.52300071716309,8.45700073242188,7.90395021438599,8.85705089569092,-0.68997502326965,-3.22698760032654,-4.19649982452393,17.7030010223389,19.9620018005371,26.5860004425049,-0.2389750033617,0.37922498583794,1.0954624414444,0.19415000081062,-0.25808748602867,-1.57231247425079,4.16400003433228,-8.50200080871582,-13.2270002365112,14.1960010528564,15.058051109314,15.9970502853394,-9.97837448120117,-10.897837638855,-10.6402997970581,22.0309505462646,14.5699510574341,9.01395034790039,2.10649991035461,1.33498752117157,-0.17833749949932,-2.54182505607605,-2.79839992523193,-2.76966238021851,-19.7110500335693,-18.0919513702393,-15.1960506439209,6.94800043106079,7.07295036315918,9.84405040740967,-6.80267477035522,-6.2716498374939,-5.61508750915527,-1.59705007076263,-1.69605004787445,-2.99595022201538,-2.54732489585876,-1.67461252212524,-0.4475624859333,0.26344999670982,-0.21230000257492,-0.36134999990463,-18.844051361084,-18.0150012969971,-15.9240007400513,14.8260011672974,17.7330017089844,17.7469501495361,0.60843747854233,1.82159996032715,2.46015000343323,-10.9210500717163,-7.6230001449585,-4.65105009078979,SWING_RIGHT
0.61132502555847,0.66233748197556,0.61558747291565,-0.69863748550415,-0.23787499964237,-0.93279999494553,4.0090503692627,3.04800009727478,-5.43600034713745,13.7410507202148,12.1099510192871,13.8460502624512,-7.97761249542236,-8.41390037536621,-8.87796211242676,14.3479509353638,13.1479501724243,10.0510501861572,1.7106374502182,1.42862498760223,1.31051254272461,-1.74267494678497,-1.69894993305206,-1.23392498493195,-15.4570503234863,-14.0970010757446,-12.1399507522583,10.8469505310059,11.5279502868652,11.2690505981445,-7.07836246490479,-6.46854972839355,-6.65156269073486,-1.49700009822845,1.24005007743835,2.23095011711121,-0.48908749222755,-0.74236249923706,-0.4507249891758,-0.15702499449253,0.23883749544621,-0.06435000151396,-17.0449504852295,-19.5889511108398,-19.840051651001,6.67995023727417,8.31599998474121,10.4640007019043,-5.28082513809204,-3.54942488670349,-1.81156253814697,-13.0500001907349,-14.1450004577637,-13.4170503616333,0.0749375000596,-0.04111250117421,-0.030387500301,0.33041250705719,0.26331248879433,0.21436250209808,-9.40305042266846,-7.13895034790039,-5.09400033950806,8.78505039215088,9.08505058288574,9.40095043182373,2.25582504272461,2.46015000343323,2.51020002365112,-6.56895017623901,-4.74195003509521,-3.36195015907288,0.02172499895096,-0.47533750534058,-0.56993746757507,-0.02818750031292,-0.12718750536442,-0.07823749631643,0.49695003032684,1.4719500541687,1.94895005226135,6.52005052566528,7.94205045700073,8.7180004119873,1.52363753318787,0.64569997787476,0.36258751153946,-0.67005002498627,-1.95195007324219,-2.66100001335144,SWING_RIGHT
-0.21876250207424,-0.13681249320507,-0.07301250100136,0.23361249268055,0.12498749792576,0.01003750041127,3.78795027732849,3.97305011749268,4.08000040054321,9.14700031280518,9.1830005645752,8.824049949646,0.56801247596741,0.78828752040863,0.97350001335144,0.76305001974106,0.58095002174377,1.62300002574921,-0.19648750126362,-1.0095249414444,-0.66467499732971,0.16018749773502,0.20693749189377,-0.45278748869896,5.26395034790039,5.338050365448,4.96395015716553,8.57505035400391,10.81605052948,13.6810503005981,-0.90694999694824,-2.38631248474121,-3.98475003242493,17.4160499572754,21.1590003967285,19.6980018615723,0.95287501811981,1.77443754673004,1.5552624464035,-0.55494999885559,-1.68410003185272,-2.38754987716675,2.02305006980896,-1.71000003814697,-9.26400089263916,15.657000541687,12.6889505386353,15.9850511550903,-10.7966375350952,-11.3107500076294,-11.3702878952026,21.3120002746582,18.9750003814697,9.77595043182373,1.53188753128052,0.99549996852875,0.79433751106262,-2.17153739929199,-1.724524974823,-1.39782500267029,-22.7740516662598,-22.2109508514404,-20.0220012664795,10.1839504241943,10.4790000915527,9.85095024108887,-7.57748746871948,-6.87926244735718,-6.03652477264404,-4.04295015335083,-5.76705026626587,-8.27205085754395,-0.9978374838829,-0.75515002012253,-0.10064999759197,-0.60720002651215,-0.05266249924898,-0.11866249889135,-18.2980499267578,-17.5240516662598,-15.997950553894,13.5540008544922,14.6269502639771,14.4660005569458,-0.81331247091293,0.2253624945879,1.06287503242493,-11.2350006103516,-10.0009508132935,-9.07200050354004,SWING_RIGHT
-0.05059999972582,-0.03258749842644,0.01636249944568,0.18466250598431,0.16967499256134,0.16445000469685,3.63000011444092,3.82605028152466,4.02495002746582,9.11595058441162,9.37005043029785,9.34095001220703,0.42006251215935,0.39448750019073,0.39985001087189,1.6519501209259,1.58700013160706,1.74705004692078,0.03657500073314,0.01209999993443,0.03657500073314,0.08030000329018,0.08772499859333,-0.0867625027895,4.53795003890991,4.70504999160767,4.92300033569336,9.15195083618164,9.08505058288574,9.14700031280518,-0.02474999986589,-0.05142499879003,-0.64515000581741,3.6780002117157,5.38305044174194,10.5400505065918,0.30057498812675,0.31226250529289,0.28132501244545,-0.43477499485016,-0.54972499608994,-0.78911250829697,6.92295026779175,6.21705007553101,5.57205009460449,10.9770002365112,11.0730009078979,11.3070001602173,-4.2007622718811,-5.29471254348755,-6.53455018997192,19.9780502319336,20.9530506134033,20.7949504852295,0.3091000020504,-0.12086249887943,-0.36355000734329,-1.79478752613068,-2.03953742980957,-2.21512508392334,-8.1070499420166,-11.9820003509521,-15.1650009155273,9.19995021820068,9.89205074310303,11.0749502182007,-9.79948711395264,-9.78463745117188,-9.18967533111572,9.52905082702637,4.4850001335144,0.34395000338554,0.49527499079704,0.2727999985218,0.21216249465942,-1.74693751335144,-1.91606247425079,-2.07570004463196,-15.7009506225586,-13.993950843811,-12.5299501419067,10.4620504379272,11.28600025177,13.3999509811401,-6.41960000991821,-5.75877475738525,-5.16271257400513,-5.09895038604736,-5.33595037460327,-5.17800045013428,SWING_RIGHT
-0.01127499993891,0.11219999939203,0.1387374997139,0.08139999955893,0.00907499995083,0.07507500052452,4.14705038070679,4.17600011825562,4.16700029373169,9.44204998016357,9.37005043029785,8.93895053863525,-0.03327500075102,-0.0109999999404,0.0082499999553,0.47805002331734,0.36300000548363,0.00900000054389,-0.030387500301,-0.07507500052452,-0.18479999899864,0.00054999999702,0.16128750145435,0.28462499380112,4.01999998092651,4.28894996643066,4.44405031204224,8.93595027923584,8.51700019836426,8.08800029754639,0.32958748936653,0.37963750958443,0.64679998159409,0.7579500079155,0.34605002403259,1.53405010700226,-0.53913748264313,-0.63813751935959,-0.34113749861717,0.00261249998584,0.08882500231266,-0.15166249871254,7.30395030975342,13.0279502868652,15.6700506210327,10.8330001831055,16.6549510955811,21.7230014801025,-3.06844997406006,-6.68029975891113,-9.36429977416992,40.3789520263672,37.2250518798828,27.1249504089355,2.86426258087158,3.34097504615784,3.0685875415802,0.74552500247955,0.28146249055862,0.31020000576973,-17.1820507049561,-23.1450004577637,-30.5479507446289,15.7759504318237,13.0360507965088,10.8949508666992,-9.93258762359619,-8.5479621887207,-7.9552001953125,3.67305016517639,4.55895042419434,5.84505033493042,3.03022503852844,2.93232488632202,2.03417491912842,-0.42625001072884,-1.60105001926422,-2.63229990005493,-19.9020004272461,-20.0290508270264,-18.8389511108398,5.2219500541687,5.95005035400391,8.83305072784424,-6.35896253585815,-5.00307512283325,-2.44584989547729,-12.4639501571655,-14.3359508514404,-11.2759504318237,SWING_RIGHT
-0.40177500247955,-0.27417498826981,-0.08263749629259,0.07713750004768,-0.1537249982357,-0.42734998464584,3.9100501537323,4.17900037765503,5.05005025863647,9.15705013275146,10.0140008926392,10.4140501022339,-0.13653749227524,-0.76752501726151,-1.5966500043869,10.7959508895874,13.782000541687,15.9120006561279,0.7400249838829,1.06466245651245,0.75817501544952,-0.79227501153946,-0.54752498865128,-0.43999999761581,7.45305013656616,2.64300012588501,0.50894999504089,14.3490009307861,10.7110500335693,10.1959505081177,-5.18718767166138,-7.98820018768311,-9.66336250305176,18.2110500335693,23.6599502563477,21.9450016021729,0.29837501049042,-0.32518750429153,-0.38582500815392,-0.40067499876022,-0.11013749986887,-0.48468750715256,-19.2580509185791,-28.6470012664795,-31.4130020141602,7.5949501991272,5.5900502204895,6.78495025634766,-11.9066753387451,-10.754150390625,-7.05924987792969,4.44195032119751,-2.24205017089844,-15.0210008621216,1.02849996089935,1.53505003452301,1.58070003986359,2.10237503051758,1.15513753890991,0.03244999796152,-22.5730514526367,-20.9179515838623,-18.8680515289307,8.80905055999756,6.06195020675659,5.92095041275024,-1.66581249237061,1.04266250133514,2.36431241035461,-14.6550006866455,-13.8340511322021,-9.64200019836426,-0.62218749523163,-0.91162496805191,-1.07126247882843,0.49224999547005,0.18892499804497,0.09418749809265,-3.87195014953613,-1.83000004291534,-0.43095001578331,5.17095041275024,5.95695018768311,6.57705020904541,2.54209995269775,1.98660004138947,1.57574999332428,-0.62700003385544,-0.57495003938675,0.16695000231266,SWING_RIGHT
-0.07191249728203,-0.02199999988079,-0.030387500301,0.00907499995083,-0.04949999973178,-0.29644998908043,4.22399997711182,3.95805025100708,4.80105018615723,9.44400024414062,8.93100070953369,10.0020008087158,0.30195000767708,0.10504999756813,0.23704999685287,3.71400022506714,2.33895015716553,2.25495004653931,-0.09748750180006,0.23567499220371,0.56333750486374,0.08882500231266,-0.89017498493195,-1.97147500514984,4.91895008087158,5.05800008773804,5.89305019378662,10.3129501342773,10.7440509796143,10.9699506759644,-3.22162508964539,-4.39862489700317,-5.43303728103638,16.6330509185791,16.3039512634277,18.9199504852295,-0.83077502250671,-0.79667496681213,-0.60087502002716,-2.24276256561279,-2.9132125377655,-3.17405009269714,-1.36005008220673,-7.70895051956177,-12.69105052948,11.2429504394531,12.7350006103516,14.1310510635376,-10.5507869720459,-10.9957370758057,-10.7636375427246,18.3690013885498,14.1390008926392,10.6090507507324,-0.92441248893738,-1.34584999084473,-1.33732497692108,0.59331250190735,2.05232501029968,2.67492508888245,-18.316951751709,-17.9500503540039,-17.1600017547607,8.9170503616333,7.44195032119751,6.86700010299683,-8.61616230010986,-8.09572505950928,-7.99136257171631,-1.49700009822845,-0.78300005197525,0.79395002126694,1.00182497501373,0.4101625084877,0.1142624989152,-1.68726253509521,0.01759999990463,0.91465002298355,-18.6829509735107,-20.0719509124756,-19.0399513244629,10.2990007400513,9.34095001220703,8.92200088500977,-2.42989993095398,-1.24973750114441,-0.34292501211166,-10.7890501022339,-9.63495063781738,-9.21405029296875,SWING_RIGHT
0.03973750025034,0.01746249943972,0.01526249945164,-0.00687499996275,0.00687499996275,0.00907499995083,4.36500024795532,4.25505018234253,4.28894996643066,8.81205081939697,8.86005020141602,8.92905044555664,0.25409999489784,0.26262500882149,0.3466374874115,1.41195011138916,0.92805004119873,0.50894999504089,0.35268750786781,0.17393749952316,0.07809999585152,-0.00164999999106,0.33687499165535,0.38678750395775,4.56900024414063,5.59200048446655,6.43005037307739,8.83800029754639,8.75205039978027,8.69895076751709,-0.07053750008345,-1.83603751659393,-2.57248759269714,9.87105083465576,14.9419507980347,17.5399513244629,-0.10711249709129,0.10051249712706,0.37496250867844,-0.67210000753403,-1.01048743724823,-1.56282496452332,4.78500032424927,-3.21105003356934,-3.36195015907288,12.0739507675171,13.3000507354736,16.734001159668,-11.4298248291016,-11.6980876922607,-10.1155996322632,27.457950592041,3.12705016136169,2.0590500831604,0.1568875014782,1.14977502822876,1.3668874502182,0.59963750839233,0.21656249463558,0.0686125010252,-16.2930011749268,-16.4370002746582,-15.9100503921509,9.4079999923706,8.31795024871826,8.30595016479492,-4.71679973602295,-3.79637503623962,-2.8118748664856,-8.00895023345947,-9.03404998779297,-9.96105003356934,-0.04647500067949,0.38885000348091,0.6347000002861,0.53047502040863,0.61036247014999,0.18672500550747,-15.703950881958,-12.256950378418,-9.84795093536377,7.99500036239624,7.22100019454956,5.81805038452148,1.65343749523163,1.88759994506836,1.45447504520416,-6.33705043792725,-1.66005003452301,-0.58905005455017,SWING_RIGHT
0.52827501296997,0.60060000419617,0.55701249837875,-0.56141251325607,-0.43051248788834,-0.20377500355244,5.99400043487549,5.06505012512207,3.22500014305115,13.0290002822876,12.4350004196167,12.0709505081177,-2.90345001220703,-3.47063755989075,-4.41141223907471,12.7720508575439,15.2869510650635,17.5519504547119,1.32219994068146,1.26568746566772,0.51342499256134,-0.32931250333786,-0.49321249127388,-1.04554998874664,-2.57895016670227,-7.06305027008057,-13.4500503540039,11.0850009918213,9.03000068664551,9.40305042266846,-8.5905876159668,-8.60970020294189,-8.70759963989258,8.72895050048828,7.52400016784668,3.38595008850098,0.50696247816086,0.78581249713898,1.35616254806519,0.08992499858141,-0.7870500087738,-1.93847501277924,-16.5970516204834,-16.3170013427734,-16.9680004119873,8.34495067596436,10.3279504776001,14.7180004119873,-8.57670021057129,-6.30574989318848,-4.83601236343384,-4.39499998092651,-10.3920001983643,-10.452000617981,-0.75831252336502,-0.82431250810623,-0.37633749842644,-0.36451250314713,0.16018749773502,0.84122496843338,-11.7400503158569,-9.56505012512207,-8.23095035552979,10.9140005111694,13.6140003204346,11.2450504302979,1.23309993743896,2.26324987411499,2.50909996032715,-7.80000019073486,-3.99195027351379,-3.21195006370544,-1.05847501754761,-1.39576244354248,-1.24574995040894,0.5293750166893,0.64432501792908,0.21230000257492,-0.78495001792908,0.86595004796982,1.35000002384186,7.87995052337646,8.76600074768066,10.1700000762939,1.40126252174377,1.02987504005432,0.41373750567436,-0.49995002150536,-0.59895002841949,-2.75205016136169,SWING_RIGHT
0.01319999992847,0.11110000312328,0.23883749544621,0.21230000257492,-0.00164999999106,-0.10051249712706,2.90895009040833,3.01005005836487,3.36195015907288,9.46095085144043,9.96795082092285,9.60900020599365,1.02135002613068,0.96387499570847,0.79254996776581,0.72705000638962,1.52205002307892,2.98095011711121,-0.1379124969244,-0.18796250224113,-0.12938749790192,0.17393749952316,0.14849999547005,0.05156249925494,4.33395004272461,3.4939501285553,3.4740002155304,9.31695079803467,9.70305061340332,10.1340007781982,0.06242499873042,-0.00027499999851,-0.0173249989748,1.61100006103516,2.50395011901855,3.78300023078919,0.00247499998659,0.19731250405312,0.25905001163483,-0.59111249446869,-0.61558747291565,-0.6571124792099,5.44305038452148,6.23805046081543,9.49605083465576,12.4279508590698,13.1680507659912,17.3689498901367,-4.11565017700195,-6.17168760299683,-7.79033756256104,27.8530521392822,22.0399513244629,15.1519508361816,1.35189998149872,1.03908753395081,1.04967498779297,-0.71348750591278,-0.99659997224808,-1.31903743743896,-14.2260007858276,-17.5309505462646,-19.92405128479,8.04795074462891,9.40095043182373,10.2700500488281,-9.67504978179932,-9.10359954833984,-8.31283760070801,2.82000017166138,0.19095000624657,-1.42695009708405,1.27737498283386,1.46574997901917,1.42326247692108,-2.19064998626709,-1.80537497997284,-1.54893743991852,-14.1469507217407,-13.1820001602173,-12.2359504699707,14.1139507293701,12.8710508346558,10.0879507064819,-5.70226240158081,-5.63956260681152,-5.67682504653931,-2.90700006484985,-2.9890501499176,-4.7039999961853,SWING_RIGHT
-0.06558749824762,-0.11879999935627,-0.19112500548363,-0.19208750128746,-0.07397499680519,-0.04523750022054,3.81900024414063,3.83400011062622,3.40695023536682,9.51600074768066,9.43005084991455,9.74295043945312,0.30731248855591,0.25080001354218,-0.28228750824928,1.96995007991791,7.90500020980835,9.91500091552734,0.36231249570847,0.59743750095367,0.62411248683929,-0.82747501134872,-0.90406250953674,-0.88384997844696,6.65295028686523,6.76500034332275,6.07500028610229,12.2200508117676,11.4529504776001,10.8690004348755,-3.60373759269714,-4.59126234054565,-5.5650372505188,16.7809505462646,15.9240007400513,13.6560010910034,0.2058375030756,0.15578749775887,-0.17201249301434,-0.26234999299049,-0.66041249036789,-1.31807494163513,-6.52605009078979,-8.33895015716553,-18.8509502410889,9.41295051574707,9.61605072021484,9.62100028991699,-10.9807500839233,-11.0945997238159,-10.8722620010376,10.5370502471924,7.65105056762695,4.74105024337769,0.44742500782013,0.09198749810457,-0.43381249904633,-1.20628750324249,-0.82417500019073,-0.44536250829697,-17.6629505157471,-16.8390007019043,-16.909049987793,9.38595008850098,8.05005073547363,6.82905054092407,-6.79635000228882,-4.99564981460571,-3.54942488670349,-2.62995004653931,-8.84700012207031,-11.613000869751,0.01209999993443,0.53460001945496,0.91355001926422,0.3452624976635,0.08139999955893,-0.16224999725819,-14.4109506607056,-11.8189506530762,-9.33795070648193,11.7120008468628,10.5000009536743,10.5340509414673,2.26215004920959,2.60590004920959,2.78258752822876,-4.01595020294189,-3.01500010490417,-1.95900011062622,SWING_RIGHT
0.00893750041723,-0.05486249923706,-0.17201249301434,0.12608750164509,0.16224999725819,0.18039999902248,3.79995012283325,3.77895021438599,3.65595006942749,9.11595058441162,8.73300075531006,8.91900062561035,0.37963750958443,0.42638748884201,0.66591250896454,-0.34005001187325,-0.7140000462532,-0.12000000476837,-0.05389999970794,-0.10807500034571,-0.34650000929832,-0.1537249982357,-0.05156249925494,0.28462499380112,3.57000017166138,3.97005009651184,3.22995018959045,9.12495040893555,9.0100507736206,9.05595016479492,0.75748747587204,0.85538750886917,0.79035001993179,0.20700001716614,1.18005001544952,3.06705021858215,-0.3965499997139,-0.16458749771118,0.02708750031888,-0.17820000648499,-1.11154997348785,-1.68726253509521,5.05995035171509,6.15900039672852,9.1960506439209,10.0930500030518,11.8150501251221,13.9030504226685,-4.56472492218018,-6.5610876083374,-7.56786251068115,27.7570514678955,22.5340518951416,21.2140502929688,0.55274999141693,1.15513753890991,1.55636250972748,-1.0115875005722,-0.93816250562668,-1.10096251964569,-9.12705039978027,-13.171950340271,-15.8190011978149,17.2680015563965,15.1540508270264,12.5100002288818,-10.249662399292,-10.3816623687744,-10.4178247451782,15.1360511779785,14.9850006103516,12.9130506515503,0.62727499008179,0.23663750290871,-0.39971250295639,-0.16651250422001,-0.69863748550415,-1.28507494926453,-21.0520515441895,-23.2890014648438,-23.6479511260986,4.82205009460449,3.73200011253357,5.96595048904419,-9.13013744354248,-7.8051872253418,-5.72577476501465,-5.18295001983643,-12.163950920105,-16.1610012054443,SWING_RIGHT
-0.28586250543594,-0.3965499997139,-0.12306249886751,0.63373750448227,0.70289999246597,0.2910875082016,3.34500026702881,3.22995018959045,3.51000022888184,9.2160005569458,9.5710506439209,9.95595073699951,0.48922500014305,0.54037499427795,0.38499999046326,0.30600002408028,0.52799999713898,4.55400037765503,-0.14533749222755,-0.12938749790192,0.02488750033081,0.32615000009537,0.1537249982357,-0.34003749489784,5.67300033569336,4.97595024108887,5.10495042800903,10.243950843811,10.6080007553101,12.0190505981445,-0.72930002212524,-0.95810002088547,-1.95208752155304,6.44700050354004,12.2020502090454,16.9200000762939,0.89966249465942,1.49242496490479,2.09577488899231,-0.76463747024536,-0.99879997968674,-1.21797502040863,4.46805000305176,2.55495023727417,1.63695013523102,17.7709503173828,18.0349502563477,17.3470516204834,-6.91020011901855,-9.00033760070801,-10.5231494903564,26.4550514221191,23.941951751709,17.8639507293701,0.80712497234344,0.52827501296997,0.63043749332428,0.32188749313354,0.54752498865128,0.69547498226166,-21.105001449585,-20.860050201416,-21.5170516967773,6.00705051422119,6.75195026397705,7.07295036315918,-8.30637454986572,-7.30606269836426,-6.51007509231567,-3.27405023574829,-3.48705005645752,-4.04295015335083,0.11536250263453,0.13667500019073,0.29205000400543,0.54119998216629,0.70083749294281,0.60280001163483,-17.2510509490967,-17.0830516815186,-16.7410507202148,7.46295022964478,7.99500036239624,9.0730504989624,-3.72611236572266,-2.58307504653931,-1.36358749866486,-12.6120004653931,-13.606050491333,-13.2199506759644,SWING_RIGHT
-0.13255000114441,-0.08153750002384,-0.02296249940991,-0.00481249997392,-0.08139999955893,-0.09844999760389,3.14205026626587,3.19395017623901,3.331050157547,9.44400024414062,9.70995044708252,9.62805080413818,0.33605000376701,0.43064999580383,0.45512500405312,-0.22995001077652,0.21705001592636,0.95700001716614,-0.04111250117421,-0.04633750021458,-0.01869999989867,0.01333750039339,-0.05266249924898,-0.03891250118613,3.21795010566711,2.90400004386902,2.97105002403259,9.67605018615723,9.97800064086914,10.2220506668091,0.20611250400543,0.22632500529289,0.24873749911785,1.29000008106232,1.98495006561279,3.81195020675659,0.08772499859333,0.04619999974966,-0.06558749824762,-0.13681249320507,-0.19208750128746,-0.49224999547005,5.49300003051758,7.45500040054321,11.2890005111694,11.4889507293701,11.8680009841919,13.9590005874634,-2.82466244697571,-5.77046251296997,-8.21700000762939,30.5760021209717,30.6769523620605,26.6340007781982,0.90502500534058,1.51057493686676,1.9181250333786,0.65821248292923,0.93059998750687,1.87137496471405,-12.2340002059937,-15.997950553894,-18.6109504699707,18.0640506744385,16.9740009307861,12.7009506225586,-10.554087638855,-10.8020000457764,-10.2188625335693,18.0190505981445,8.96100044250488,7.46700048446655,2.75563740730286,1.98934996128082,1.76701247692108,0.42515000700951,-0.10161250084639,-0.2239875048399,-22.5439510345459,-20.4559516906738,-20.5249500274658,5.29305028915405,7.06305027008057,7.86795043945313,-7.15921258926392,-6.51117515563965,-5.49477481842041,-3.46095013618469,-7.09395027160645,-11.3140506744385,SWING_RIGHT
0.27500000596046,0.57612502574921,0.93266248703003,-0.12925000488758,-0.13887499272823,-0.07081250101328,6.03705024719238,6.68400049209595,6.48705053329468,13.5199508666992,14.3700008392334,13.6540508270264,-3.05250000953674,-4.07082509994507,-5.36071252822876,14.8390502929688,18.1009502410889,17.4490509033203,1.44347500801086,1.87976253032684,2.01396250724792,0.35708749294281,0.56883752346039,0.4507249891758,-6.94305038452148,-14.1970510482788,-17.3539505004883,14.6200504302979,10.6609506607056,9.17295074462891,-9.82079982757568,-9.65153789520264,-9.43552494049072,6.28605031967163,4.47795009613037,2.99505019187927,0.97308748960495,1.11993753910065,1.16036248207092,-0.56993746757507,-0.45608749985695,-0.20487499237061,-21.4930515289307,-20.9629516601563,-20.6899509429932,9.45600032806396,9.99195003509522,10.4760007858276,-5.86946249008179,-4.46572494506836,-1.76687502861023,-12.0640506744385,-12.5400009155273,-13.5559511184692,0.02488750033081,0.55907499790192,0.79433751106262,0.32615000009537,0.75927501916885,0.94985002279282,-15.553050994873,-8.91600036621094,-5.68095016479492,11.238000869751,9.92295074462891,7.89900016784668,3.26259994506836,2.76237487792969,0.72022497653961,-0.70605003833771,1.78800010681152,2.13300013542175,-1.08294999599457,-1.29896247386932,-0.49871250987053,0.86570000648499,0.73369997739792,-0.40713748335838,2.13600015640259,1.00305008888245,0.05205000191927,5.53005027770996,7.77000045776367,9.04200077056885,0.91176247596741,0.45512500405312,-0.27912500500679,-3.12105011940002,-2.49495005607605,-6.74700021743774,SWING_RIGHT
-0.13158750534058,-0.12842500209808,-0.10064999759197,0.07287500053644,0.12925000488758,0.18782499432564,2.75100016593933,2.800950050354,3.05100011825562,9.51600074768066,9.68805027008057,9.54495048522949,-0.0173249989748,-0.0417999997735,-0.03011249937117,-0.03105000220239,-0.33795002102852,-0.61500000953674,-0.27307498455048,-0.21876250207424,-0.19538749754429,0.25808748602867,0.15482500195503,0.08456250280142,2.7850501537323,3.05805015563965,3.15105009078979,9.60900020599365,9.82695007324219,9.87495040893555,0.1870000064373,0.21257500350475,0.09872499853373,1.16295003890991,3.11505007743835,5.54400014877319,0.36217498779297,0.48138749599457,0.9784500002861,-0.8816499710083,-0.78058749437332,-0.65078747272491,5.59605026245117,5.6850004196167,5.08605003356934,13.5030002593994,14.4810009002686,16.5430507659912,-5.09038734436035,-6.99957513809204,-8.36178779602051,26.0670013427734,23.6790008544922,21.3340511322021,0.78691250085831,0.75075000524521,0.84754997491837,0.68268752098083,1.34035003185272,1.75010001659393,-19.5859508514404,-23.4780006408691,-24.9409503936768,11.6779508590698,9.63105010986328,8.65605068206787,-9.46852493286133,-8.73207473754883,-8.21067523956299,1.78605008125305,1.06695008277893,0.72495001554489,2.13633751869202,1.64890003204346,1.17108750343323,0.10381250083447,-0.16128750145435,-0.77096247673035,-20.752950668335,-21.4780502319336,-21.0780010223389,3.78195023536682,4.35195016860962,7.66695022583008,-4.75089979171753,-3.80489993095398,-2.97261238098145,-10.6000509262085,-10.2480001449585,-11.4550504684448,SWING_RIGHT
0.52085000276566,0.73259997367859,0.98271250724792,-0.35804998874664,-0.50599998235703,-0.52098751068115,3.81195020675659,4.81095027923584,6.01995038986206,12.7080001831055,13.5540008544922,13.6380004882813,-1.96913743019104,-2.82369995117188,-3.54516243934631,11.7589502334595,11.4520502090454,11.9599504470825,2.20329999923706,2.05218744277954,1.59994995594025,-1.38929998874664,-1.60434997081757,-1.30308747291565,2.14305019378662,0.04200000315905,-2.22495007514954,13.1419506072998,12.4069509506226,14.2390508651733,-6.46112489700317,-6.96767473220825,-7.63386249542236,12.3169507980347,12.5970001220703,13.1050510406494,1.00182497501373,0.49321249127388,0.18136249482632,0.40383750200272,0.48578751087189,0.39957499504089,-10.8540000915527,-14.2050008773804,-22.2780017852783,6.05505037307739,5.06805038452148,11.5009508132935,-10.5146245956421,-9.05245018005371,-8.09366226196289,1.92000007629395,-4.02104997634888,-6.64605045318604,1.20408749580383,0.88054996728897,1.09766244888306,0.28888750076294,0.80396246910095,-0.23471249639988,-18.6949501037598,-18.4200000762939,-17.5000514984131,9.36495018005371,8.86905002593994,8.74005031585693,-2.49480009078979,-1.31780004501343,-0.13007499277592,-11.8170003890991,-11.803050994873,-10.5450000762939,0.10037499666214,0.11219999939203,0.02172499895096,0.69547498226166,0.61036247014999,0.53899997472763,-6.30600023269653,-4.29195022583008,-2.81100010871887,7.01100015640259,6.17205047607422,5.46600008010864,2.0344500541687,2.08229994773865,1.96638751029968,-4.63395023345947,-3.79095029830933,-2.81205010414124,SWING_RIGHT
-1.98013746738434,-0.8094624876976,0.767662525177,-1.23818755149841,-2.27053737640381,-2.20989990234375,-1.55205011367798,-2.50005006790161,-3.62595009803772,19.4790000915527,24.3790512084961,21.3019504547119,-4.67747497558594,-5.14043760299683,-5.94068765640259,10.8130502700806,12.7720508575439,11.6749505996704,1.47001254558563,2.34382510185242,2.03940010070801,-1.99705004692078,-2.45355010032654,-2.78341245651245,-14.4420003890991,-17.9239501953125,-17.9479503631592,20.5279502868652,14.3059511184692,13.4269504547119,-7.2485876083374,-7.37742519378662,-7.45181226730347,1.51995003223419,0.31800001859665,-2.37600016593933,1.63611245155334,1.30831253528595,0.72187501192093,-1.38820004463196,-1.44897496700287,-1.19886255264282,-17.9029502868652,-15.9750003814697,-11.3710508346558,9.43905067443848,8.06700038909912,7.61700057983398,-4.41567516326904,-1.80729997158051,1.19583749771118,-30.8430023193359,-29.2810516357422,-10.1760005950928,-0.91588747501373,-1.02863752841949,-0.67430001497269,-0.63373750448227,-0.01333750039339,0.1898874938488,2.65095019340515,3.41205024719238,4.42305040359497,9.49695014953613,11.5110006332397,11.3170509338379,0.10724999755621,-0.0716374963522,-0.21738749742508,-3.72705006599426,-3.8970000743866,-4.49805021286011,-0.02199999988079,-0.18796250224113,-0.19112500548363,0.30703750252724,0.02392499893904,0.17393749952316,4.29105043411255,4.39695024490356,4.37700033187866,8.11500072479248,8.97000026702881,9.15705013275146,0.23278750479221,0.26675000786781,0.28916248679161,-3.22800016403198,-2.61300015449524,-2.59800004959106,SWING_RIGHT
-0.4295499920845,-0.56471252441406,0.09515000134706,0.52621251344681,1.1669625043869,1.01997494697571,4.01805019378662,3.89100027084351,2.82105016708374,10.5100507736206,11.8990507125854,11.4870004653931,-0.1727000027895,0.00398749997839,-0.96236246824265,0.69600003957748,3.57495021820068,7.28205013275146,0.73796248435974,0.77412497997284,1.07098746299744,0.7401624917984,0.31020000576973,-1.32659995555878,1.05300009250641,0.82995003461838,0.32700002193451,12.2890510559082,11.7379503250122,14.3989505767822,-2.67685008049011,-3.47806239128113,-4.51357507705688,13.2150001525879,14.8530006408691,13.4929504394531,2.3203125,2.63642501831055,2.94937491416931,-2.42261242866516,-2.95899987220764,-3.05167508125305,-11.4480009078979,-14.1690006256104,-19.8349514007568,20.4040508270264,20.2140007019043,19.0140018463135,-8.00524997711182,-8.152099609375,-7.71361255645752,0.54495000839233,-5.10405015945435,-9.69300079345703,2.18308758735657,1.68396246433258,1.67117500305176,-3.06019997596741,-2.5812873840332,-1.5329874753952,-17.8429508209229,-15.0400505065918,-10.6789503097534,11.731050491333,12.2719507217407,10.0399503707886,-4.47851228713989,-1.79244995117188,-1.25606250762939,-23.1070518493652,-15.9000005722046,-12.9589509963989,0.44316250085831,-0.14959999918938,-0.36671251058578,-1.1892374753952,-1.50108754634857,-0.72311252355576,1.39095008373261,3.15795016288757,3.89805006980896,4.61100006103516,7.47495031356812,9.19200038909912,0.24983750283718,0.26894998550415,0.3242250084877,-6.57705020904541,-5.23995018005371,-4.30605030059814,SWING_RIGHT
0.08868750184774,0.174899995327,0.48675000667572,-0.0622874982655,-0.01017499994487,-0.14946250617504,4.7920503616333,4.87095022201538,3.35700011253357,12.1000509262085,12.2100009918213,11.3479509353638,-1.00705003738403,-1.42738747596741,-1.65192496776581,9.05505084991455,8.53995037078857,8.91795063018799,0.22921249270439,0.5154874920845,1.08583748340607,-1.52336251735687,-1.22966253757477,-1.29250001907349,1.0150500535965,0.05895000323653,-2.40405011177063,16.8780002593994,18.6960010528564,18.5380516052246,-4.34651231765747,-4.60831260681152,-5.21166229248047,11.2770004272461,12.127950668335,14.2780504226685,1.70101249217987,1.89048743247986,2.16713738441467,-1.38393747806549,-0.99453747272491,-1.47344994544983,-10.618950843811,-13.9840507507324,-16.5250511169434,19.0549507141113,18.2959499359131,19.2799510955811,-7.25395011901855,-7.40932512283325,-7.46789979934692,3.51300024986267,1.12695002555847,-2.59395003318787,3.52935004234314,3.17597508430481,2.11928749084473,-2.01616239547729,-2.12684988975525,-2.13537502288818,-19.4809513092041,-17.0449504852295,-12.2190008163452,11.695050239563,9.15705013275146,7.84200048446655,-5.32661247253418,-3.38442492485046,-0.62823748588562,-15.538950920105,-25.0570507049561,-17.0119514465332,0.63249999284744,-0.16142499446869,-0.3603875041008,-2.06291246414185,-0.54862499237061,-0.32518750429153,1.4389500617981,3.40995025634766,3.85995006561279,4.62000036239624,5.23800039291382,5.28405046463013,0.43285000324249,0.42006251215935,0.20295000076294,-6.64605045318604,-6.17895030975342,-4.41900014877319,SWING_RIGHT
-0.18053749203682,0.12594999372959,0.26001250743866,1.32013750076294,0.88907498121262,0.20267499983311,2.53605008125305,1.66095006465912,1.63005006313324,12.8620510101318,12.4380006790161,13.9729509353638,-1.50301253795624,-1.9626749753952,-2.93851256370544,8.89905071258545,9.20595073699951,10.792950630188,1.30624997615814,1.81706249713898,2.20123744010925,-1.56708753108978,-2.19381237030029,-2.20137500762939,-4.51905012130737,-6.89295053482056,-9.6709508895874,18.3940505981445,19.2829513549805,19.3519515991211,-6.6750750541687,-7.28695011138916,-7.80835008621216,9.93795013427734,8.14200019836426,5.99895048141479,3.39954996109009,2.99928736686707,2.3810875415802,-4.09873723983765,-3.85728740692139,-3.89551258087158,-24.0739517211914,-23.9520015716553,-22.945951461792,16.3680000305176,13.5250511169434,13.1680507659912,-7.98723745346069,-6.58556222915649,-5.14249992370605,-17.566951751709,-21.2200508117676,-20.041051864624,1.16998744010925,0.77412497997284,0.84218752384186,-0.13681249320507,-0.08456250280142,-0.91148751974106,-6.05400037765503,-4.33695030212402,1.06305003166199,6.79995012283325,7.25700044631958,4.57500028610229,0.14121249318123,0.7148625254631,0.74360001087189,-14.9779510498047,-7.87905025482178,-7.02000045776367,-0.88824999332428,-0.49871250987053,-0.36781248450279,0.13351249694824,0.24736249446869,0.38678750395775,3.86505007743835,4.11195039749146,4.3560004234314,11.0250005722046,9.8700008392334,9.11100006103516,0.37001249194145,0.15716250240803,0.09336250275373,-2.80695009231567,-3.57795023918152,-4.24395036697388,SWING_RIGHT
-0.06558749824762,-0.17091250419617,-0.44659999012947,0.20693749189377,0.30483749508858,0.5048999786377,2.22405004501343,2.16705012321472,2.22900009155273,8.83095073699951,8.05695056915283,8.4859504699707,-0.73782497644424,-0.91025000810623,-0.88357502222061,2.2260000705719,1.92705011367798,2.6340000629425,0.20363749563694,0.10257499665022,0.72723752260208,-0.95191252231598,-1.16269993782043,-0.60610002279282,1.8550500869751,1.60905003547668,-0.46695002913475,11.8530006408691,15.2040004730225,18.0520515441895,-2.78313755989075,-4.09859991073608,-4.41251230239868,10.7790002822876,9.42600059509277,9.00405025482178,1.96171247959137,2.09165000915527,2.34588742256165,-2.91857504844666,-2.31728744506836,-1.91509997844696,-8.24805068969727,-10.7220001220703,-15.703950881958,19.2180004119873,19.678050994873,19.2640514373779,-9.06413745880127,-9.19613742828369,-8.97792530059814,4.60995006561279,-0.41700002551079,-3.331050157547,1.85212504863739,1.24561250209808,0.80176252126694,-2.01396250724792,-1.42876243591309,-1.11374998092651,-20.3410511016846,-17.1960010528564,-14.7580509185791,10.5409507751465,9.64005088806152,10.3900508880615,-5.71724987030029,-4.97433757781982,-3.94638752937317,-16.4029502868652,-19.8499507904053,-22.8600006103516,1.36152493953705,0.79213750362396,-0.50503748655319,-1.75119996070862,-1.64999997615814,-0.92633748054504,-3.30495023727417,-0.20595000684261,2.7679500579834,5.13300037384033,3.85200023651123,5.78895044326782,1.28851246833801,1.27242493629456,1.15225005149841,-8.05395030975342,-6.27195024490356,-2.51700019836426,SWING_RIGHT
0.07809999585152,0.02172499895096,-0.00164999999106,-0.36134999990463,-0.14630000293255,0.00164999999106,2.9760000705719,2.91405010223389,2.47995018959045,10.1530504226685,10.7490005493164,11.8890008926392,-0.96978747844696,-1.99361252784729,-2.3425874710083,7.15095043182373,9.06704998016357,9.16995048522949,0.48042500019073,0.38348749279976,0.80176252126694,-0.95301246643066,-1.40951251983643,-1.91180002689362,-0.26100000739098,-1.52295005321503,-4.87095022201538,14.1619510650635,17.5200004577637,19.8910503387451,-4.98822498321533,-5.53423738479614,-5.6629376411438,11.2290000915527,7.9699501991272,8.16600036621094,1.65632498264313,1.64243745803833,2.13097500801086,-2.7355625629425,-1.49792504310608,-0.91258752346039,-13.7140502929688,-15.8929510116577,-19.2919502258301,20.2720508575439,21.5599517822266,22.4179515838623,-8.86833763122559,-9.63888740539551,-9.90054988861084,9.18900012969971,2.72505021095276,-3.53295016288757,3.36861252784729,2.52573752403259,2.0873875617981,-3.84766244888306,-2.81641244888306,-1.79272496700287,-28.5319519042969,-26.8219509124756,-22.0390510559082,12.1380004882813,11.5870504379272,10.0950002670288,-6.8037748336792,-5.15418767929077,-2.37668752670288,-25.4800510406494,-26.2399520874023,-25.9429512023926,0.98051249980927,0.53253751993179,-0.71156251430511,-1.75436246395111,-1.07854998111725,-0.2441999912262,-1.58805012702942,1.01700007915497,3.10995006561279,4.10100030899048,2.61795020103455,3.25500011444092,1.65343749523163,1.77911245822906,1.60448753833771,-8.2339506149292,-4.94805002212524,-2.46000003814697,SWING_RIGHT
0.03657500073314,0.10683749616146,0.2759625017643,0.80726248025894,-0.43051248788834,-1.98632502555847,1.42005002498627,0.21495001018047,-0.77805006504059,10.6150503158569,11.8050003051758,15.8580007553101,-3.16744995117188,-3.79101252555847,-4.99564981460571,10.3339500427246,11.0449504852295,9.54600048065186,1.44237494468689,1.7520250082016,2.20549988746643,-0.83916246891022,-0.72421246767044,-0.75501251220703,-9.29700088500977,-11.6250009536743,-15.3469505310059,18.04905128479,18.4300518035889,18.2700004577637,-7.35611248016357,-7.43489980697632,-7.5954999923706,5.37405014038086,4.15200042724609,3.80205011367798,2.70985007286072,3.13555002212524,3.96453738212585,-1.15197503566742,-1.59582495689392,-2.00763750076294,-20.8219509124756,-23.2189502716064,-25.4899520874023,14.5480508804321,15.5629510879517,8.19900035858154,-6.6261248588562,-4.31351232528687,-0.90598750114441,-30.6439514160156,-30.9559516906738,-21.9409503936768,-0.18259999155998,-0.81578749418259,-1.52996253967285,-0.55605000257492,-0.74126249551773,-0.12608750164509,-1.28595006465912,0.40200001001358,2.87805008888245,1.17195010185242,3.11595010757446,9.64305019378662,1.45241248607636,0.99577498435974,0.23388749361038,-1.84200012683868,-0.77805006504059,-2.08800005912781,-0.08579999953508,0.16114999353886,0.19621250033379,-0.07507500052452,-0.05059999972582,0.083599999547,4.60995006561279,4.07295036315918,3.48405027389526,11.2620000839233,10.0240507125854,8.50500011444092,-0.11096250265837,-0.05458749830723,-0.06201250106096,-4.17405033111572,-3.94200015068054,-3.83205008506775,SWING_RIGHT
-0.10491249710321,-0.01347499992698,0.19304999709129,-0.52841252088547,-0.46557500958443,-0.67526251077652,0.2029500156641,-0.21495001018047,-1.24995005130768,12.8089504241943,13.5229501724243,14.9290504455566,-4.24228763580322,-4.51357507705688,-4.85099983215332,6.63795042037964,5.68695020675659,9.09105014801025,1.31683754920959,1.93833744525909,2.30972504615784,0.50063747167587,0.01113750040531,-1.41487503051758,-8.48295021057129,-10.8010501861572,-12.5710506439209,14.9910011291504,13.3210506439209,11.2930507659912,-6.44833755493164,-6.38549995422363,-6.7516622543335,2.74905014038086,3.80205011367798,5.04105043411255,1.41047501564026,1.61906254291534,2.20329999923706,-1.19143748283386,-1.037024974823,-1.55429995059967,-15.9670505523682,-17.2219505310059,-20.1990013122559,15.2490005493164,16.4280014038086,13.94700050354,-7.5135498046875,-6.65376234054565,-4.4019250869751,-12.1570501327515,-16.9950008392334,-21.9379501342773,0.6484500169754,-0.0027499999851,-0.18369999527931,-0.16761249303818,-0.47630000114441,-0.73053747415543,-4.45905017852783,-2.1979501247406,-0.6319500207901,2.42895007133484,4.80195045471191,6.04800033569336,0.35406249761581,0.79791247844696,0.93403750658035,-13.5049505233765,-9.89400005340576,-7.51995038986206,-0.92441248893738,-0.86473751068115,-0.33274999260902,0.56883752346039,0.64542502164841,0.19318750500679,2.4250500202179,2.95905017852783,3.58905005455017,9.94695091247559,10.6150503158569,10.4740505218506,0.67333751916885,0.38170000910759,0.26675000786781,-2.35395002365112,-2.43600010871887,-2.43795013427734,SWING_RIGHT
0.10367500036955,0.15042500197887,0.12704999744892,0.04839999973774,0.02502499893308,0.00907499995083,1.98705005645752,1.93395006656647,1.71405005455017,10.1860504150391,9.72405052185059,9.49905014038086,0.07315000146627,0.08057499676943,0.02419999986887,-0.25095000863075,0.36795002222061,1.11000001430511,0.13667500019073,0.23993749916553,0.69217497110367,-0.06971249729395,0.03355000168085,0.4507249891758,1.43595004081726,1.51800012588501,1.1539500951767,11.2189502716064,12.6030006408691,13.5060005187988,-1.76797497272491,-2.29583740234375,-3.30357503890991,10.2000007629395,10.4320507049561,10.4130001068115,0.73796248435974,0.65917497873306,0.68585002422333,-2.95377492904663,-2.66323757171631,-2.22254991531372,-5.75505018234253,-7.44300031661987,-9.27600002288818,16.0279502868652,17.1370506286621,19.8979511260986,-5.83426237106323,-6.41960000991821,-7.00383758544922,8.35995006561279,8.36505031585693,7.47600030899048,2.26613759994507,2.2789249420166,2.17786240577698,-1.55856251716614,-2.10017490386963,-2.12368750572205,-16.47705078125,-19.4950504302979,-18.0439510345459,14.0400009155273,11.8410005569458,10.4760007858276,-8.46395015716553,-8.07331275939941,-5.73320007324219,-8.27505016326904,-12.8490009307861,-20.3020515441895,1.18593752384186,0.90392500162125,0.50063747167587,-1.62882494926453,-1.638312458992,-1.32756245136261,-6.9810004234314,-4.1380500793457,-2.04495000839233,8.04495048522949,7.32000017166138,8.30595016479492,-0.9953625202179,-0.38334998488426,0.14231249690056,-13.9320011138916,-12.282000541687,-9.86700057983398,SWING_RIGHT
0.05898749828339,-0.0027499999851,-0.0283249989152,0.0867625027895,0.07177499681711,0.2389750033617,2.3490002155304,1.90095007419586,1.94595015048981,9.7069501876831,9.97095012664795,9.62805080413818,-0.37070000171661,-2.41284990310669,-3.20141243934631,8.050950050354,11.4709501266479,10.5880508422852,1.10934996604919,1.16682493686676,1.54989993572235,0.40383750200272,-0.6348375082016,-2.48545002937317,-2.96700024604797,-4.67700004577637,-7.64700031280518,12.8160009384155,14.7180004119873,17.9610004425049,-5.88321256637573,-6.45039987564087,-6.82398748397827,9.33495044708252,8.49195003509521,9.48600006103516,3.23234987258911,3.82621240615845,3.4154999256134,-2.12465000152588,-2.19284987449646,-3.79334998130798,-17.3369998931885,-19.9549503326416,-24.4840507507324,19.2900009155273,15.0150003433228,10.3279504776001,-8.81828784942627,-7.57858753204346,-6.21527481079102,-15.2470502853394,-17.9479503631592,-18.3790512084961,0.70592498779297,0.81881248950958,1.12419998645782,0.84122496843338,-0.16018749773502,-1.15513753890991,-9.47700023651123,-7.15095043182373,-1.14195001125336,6.14100027084351,6.76605033874512,3.16395020484924,0.2774749994278,0.86707496643066,1.17782497406006,-14.5999507904053,-11.5819501876831,-9.82395076751709,-1.37238752841949,-1.74487495422363,-1.83108747005463,-0.41346248984337,0.0686125010252,0.35282498598099,3.24705004692078,3.21300005912781,3.48900008201599,5.81505012512207,8.34705066680908,10.3680000305176,1.22677505016327,0.91602498292923,0.43064999580383,-2.68695020675659,-2.13900017738342,-3.25200009346008,SWING_RIGHT
0.49321249127388,0.53253751993179,0.2909500002861,-1.14248752593994,-1.88416254520416,-2.34396243095398,-1.99500012397766,-3.08700013160706,-3.6780002117157,11.8630504608154,11.0989503860474,12.5959501266479,-4.83284997940063,-5.31382513046265,-5.69277477264404,5.76600027084351,4.47495031356812,3.92505025863647,0.61022502183914,0.51232498884201,0.28462499380112,-2.18542504310608,-2.25032496452332,-2.22791242599487,-6.56895017623901,-6.83295011520386,-6.9190502166748,11.7930002212524,11.122950553894,11.3100004196167,-6.26106262207031,-6.63671255111694,-7.15178728103638,1.63500010967255,1.22295010089874,-0.16800001263618,-0.32835000753403,-0.04111250117421,0.43986248970032,-1.24781250953674,-0.83806252479553,-0.55398750305176,-9.28995037078857,-8.06595039367676,-7.22100019454956,13.4800510406494,14.1019506454468,14.8230009078979,-5.63639974594116,-4.26346254348755,-2.95556259155273,-14.1780004501343,-15.6780004501343,-14.4270009994507,0.78677499294281,0.40590000152588,0.24089999496937,-0.74552500247955,-0.03135000169277,0.48578751087189,-0.34905001521111,0.51705002784729,1.3620001077652,8.02605056762695,8.43600082397461,6.85005044937134,-0.38871249556541,0.0114124994725,0.17311249673367,-8.68200016021729,-6.4980001449585,-5.1109504699707,-0.32518750429153,-0.31886249780655,-0.30181249976158,0.5847874879837,0.47836250066757,0.29961249232292,3.23700022697449,3.35205006599426,3.46500015258789,8.30400085449219,8.26095008850098,8.67495059967041,0.26578751206398,0.31900000572205,0.24557499587536,-3.37005019187927,-2.60295009613037,-1.87800014019012,SWING_RIGHT
0.10573749989271,0.34196248650551,0.65807497501373,-0.2389750033617,-0.2549250125885,-0.79653751850128,0.74205005168915,0.10905000567436,-0.52200001478195,11.6590509414673,11.8150501251221,11.650050163269,-3.3408374786377,-3.73889994621277,-3.72501254081726,7.26300048828125,4.5930004119873,4.78695011138916,-0.26771250367165,0.21119999885559,0.8731250166893,-2.7057249546051,-1.78419995307922,-1.54151248931885,-3.76200008392334,-4.11405038833618,-5.98995018005371,19.0720500946045,19.1800518035889,15.9940509796143,-6.51117515563965,-7.91793727874756,-8.73950004577637,7.31805038452148,5.99100017547607,5.7330002784729,0.44206249713898,0.89759999513626,0.49637499451637,-1.62772500514984,-1.72246253490448,-2.29281258583069,-15.3210010528564,-19.8949508666992,-15.2059507369995,10.6219501495361,9.41295051574707,9.95895004272461,-6.21101236343384,-4.52099990844727,-3.19934988021851,-19.1119518280029,-18.7699508666992,-16.2859516143799,0.32931250333786,0.03451250120997,0.03657500073314,-0.73699998855591,-0.69753748178482,-0.56457501649857,-2.4019501209259,-0.97500002384186,0.12900000810623,8.05995082855225,9.35295009613037,8.88600063323975,-0.43656250834465,0.36148750782013,0.66054999828339,-14.521050453186,-10.3579502105713,-6.83505010604858,-0.40617498755455,-0.38692501187325,-0.32738751173019,0.24103750288486,0.48468750715256,0.54546248912811,3.07395005226135,3.14205026626587,3.39495015144348,9.28605079650879,9.19200038909912,8.73000049591064,0.40094998478889,0.37743750214577,0.32216250896454,-4.11495018005371,-3.63300013542175,-2.80695009231567,SWING_RIGHT
0.04303750023246,-0.13255000114441,-0.12622499465942,0.56993746757507,0.71142500638962,0.87216252088547,1.9939501285553,2.09700012207031,2.10705018043518,8.49300003051758,9.28800010681152,10.8930006027222,-2.05108737945557,-2.10003757476807,-1.99251246452332,5.19195032119751,5.56005048751831,8.73405075073242,0.00041249999776,-0.0954250022769,0.28874999284744,-1.30528748035431,-2.44708752632141,-2.17689990997314,-1.49895012378693,-2.1979501247406,-7.10100030899048,11.050950050354,14.2720508575439,17.1870002746582,-5.85763740539551,-6.17168760299683,-6.23012495040894,8.35500049591064,6.27600049972534,7.03995037078857,1.48183751106262,1.55306243896484,1.6935875415802,-0.96689999103546,-0.11550000309944,0.22508749365807,-12.3319501876831,-14.3820009231567,-17.3089504241943,15.9150009155273,14.8039503097534,15.4960508346558,-8.56721210479736,-8.26815032958984,-7.68391227722168,-2.26800012588501,-6.89295053482056,-11.6830501556396,1.82022500038147,1.47853744029999,1.5020500421524,-1.32866251468658,-0.7039999961853,-0.71678751707077,-12.1690502166748,-9.19695091247559,-6.67695045471191,10.1580009460449,10.243950843811,7.69800043106079,-3.63563752174377,-3.2386748790741,-2.9768750667572,-12.0060005187988,-12.0370502471924,-14.5999507904053,0.70276248455048,0.50063747167587,0.32078748941422,0.3964124917984,0.49114999175072,0.17503750324249,-0.36600002646446,0.77505004405975,1.53705012798309,6.50505018234253,5.53305006027222,6.07200050354004,-0.1055999994278,0.20514999330044,0.56581246852875,-8.9209508895874,-7.74795055389404,-3.71895027160645,SWING_RIGHT
0.03341250121593,0.03121249936521,0.15578749775887,0.0930875018239,0.14423750340939,0.13255000114441,2.02800011634827,2.7199501991272,1.96800005435944,9.98295021057129,10.488000869751,11.1850509643555,-1.41680002212524,-2.09467506408691,-2.86192488670349,8.14905071258545,9.94800090789795,10.4320507049561,0.31226250529289,-0.09322500228882,-0.40933749079704,0.98381251096725,-0.11976250261068,-1.18607497215271,-2.67495012283325,-3.54705023765564,-4.0570502281189,6.78105020523071,8.18205070495605,11.8080005645752,-4.67637491226196,-4.98506259918213,-5.18086242675781,9.96195030212402,9.32295036315918,11.1600008010864,0.13131250441074,0.21326249837875,0.7209125161171,-2.05232501029968,-2.03101253509521,-2.24070000648499,-10.0849504470825,-12.1980009078979,-14.2840509414673,16.3200016021729,19.314001083374,21.7230014801025,-8.30541229248047,-8.9971752166748,-9.26103782653809,5.9239501953125,2.04000020027161,-4.68900012969971,2.36719989776611,1.83081245422363,0.94971251487732,-0.80616247653961,-1.86711251735687,-2.43759989738464,-13.3740005493164,-9.24705028533936,-6.81600046157837,4.78605031967163,3.21405005455017,4.19400024414063,-3.83363747596741,-3.05029988288879,-2.17442488670349,-15.2850008010864,-15.8569507598877,-14.2069511413574,0.598537504673,0.09088750183582,-0.07521250098944,-0.21340000629425,-0.50819998979568,-0.39531248807907,-0.28500002622604,2.03295016288757,2.76300024986267,6.6589503288269,6.49995040893555,7.05105018615723,0.04124999791384,0.35626250505447,0.3605250120163,-8.05005073547363,-5.01300001144409,-4.94295024871826,SWING_RIGHT
-0.30813750624657,-0.02516249939799,0.31858751177788,-1.55429995059967,-0.69547498226166,-0.14630000293255,-7.78800058364868,-8.74905014038086,-9.79995059967041,15.5080509185791,14.9929504394531,14.0059509277344,-5.09891223907471,-5.84705018997192,-6.81010007858276,10.1010007858276,9.8929500579834,6.95205020904541,0.90076249837875,0.8123499751091,0.95081251859665,-1.3084499835968,-0.76999998092651,0.00054999999702,-16.0729503631592,-16.0320014953613,-15.6580505371094,12.282000541687,13.0840501785278,12.2290506362915,-7.70618724822998,-7.44548749923706,-7.23689985275268,-4.34400033950806,-5.06505012512207,-6.33495044708252,0.7177500128746,0.4974749982357,0.16857500374317,-1.09133744239807,-1.27435004711151,-0.92317497730255,-11.0190000534058,-9.10800075531006,-6.47295045852661,8.24895000457764,8.24895000457764,9.86295032501221,-4.5827374458313,-3.3217248916626,-2.21058750152588,-17.4259510040283,-17.0329513549805,-15.1840505599976,0.23347499966621,0.04193750023842,0.03877500072122,-0.7902125120163,-1.11265003681183,-0.80396246910095,-0.60600000619888,0.33195000886917,1.43400001525879,7.23600053787232,9.2790002822876,9.77700042724609,0.25189998745918,0.78196251392365,0.81812500953674,-9.03105068206787,-5.25195026397705,-3.98805022239685,-0.60623747110367,-0.40507498383522,-0.19112500548363,0.49541249871254,0.2910875082016,0.14423750340939,3.02700018882751,3.10095024108887,3.04605007171631,10.6249504089355,10.9069509506226,10.6320009231567,0.64996248483658,0.55522501468658,0.41373750567436,-1.96605014801025,-1.49700009822845,-1.33905005455017,SWING_RIGHT
-0.01663750037551,-0.00921249948442,0.17379999160767,0.24103750288486,-0.01113750040531,-0.37193748354912,1.9369500875473,1.94595015048981,1.69695007801056,9.49695014953613,10.4329500198364,11.5609502792358,-0.51108747720718,-0.95493751764297,-2.36610007286072,7.69395017623901,10.6710004806519,15.3850507736206,-0.17627499997616,-0.6349750161171,-1.03193747997284,-0.89237499237061,-2.29391241073608,-3.05263757705688,-3.27600026130676,-6.41595029830933,-8.87100028991699,7.30500030517578,9.86805057525635,14.2840509414673,-5.35865020751953,-6.32596254348755,-7.3167872428894,12.03600025177,13.452000617981,12.0460510253906,0.84644997119904,0.84108752012253,1.08061254024506,0.28998750448227,-1.61699998378754,-2.82809996604919,-17.9029502868652,-19.92405128479,-22.5510005950928,14.0779504776001,17.0959510803223,22.3440017700195,-9.75370025634766,-10.3668127059937,-10.6434621810913,5.85495042800903,1.89105010032654,-4.93605041503906,2.57468748092651,1.7158625125885,0.77728748321533,-0.60183751583099,-0.96263748407364,-1.05943751335144,-27.7099514007568,-21.1740016937256,-15.6580505371094,5.49195003509521,4.11495018005371,8.296950340271,-6.15037488937378,-4.78073740005493,-3.55574989318848,-21.3229503631592,-21.6600017547607,-21.9810009002686,0.57722496986389,0.41222500801086,0.26647499203682,-1.68946254253387,-0.75501251220703,0.0591249987483,-3.47700023651123,-1.26195001602173,-0.00195000006352,9.40995025634766,9.03000068664551,6.38100051879883,0.50517499446869,0.99893748760223,1.14372503757477,-11.5270509719849,-7.85595035552979,-5.15205001831055,SWING_RIGHT
0.65491247177124,0.78154999017715,0.55274999141693,0.54119998216629,0.4325749874115,-0.18246249854565,-2.33205008506775,-5.47995042800903,-7.96605014801025,12.2170505523682,9.73605060577393,6.91995048522949,-4.5667872428894,-5.60862493515015,-6.87610006332397,12.9679508209229,18.2130012512207,17.4229507446289,-0.34017500281334,0.40906250476837,0.86556249856949,-1.59046244621277,-0.92427498102188,-0.35708749294281,-20.1660003662109,-23.4469509124756,-23.4420013427734,19.9219512939453,18.2500514984131,16.3849506378174,-8.9566125869751,-9.47595024108887,-10.0942878723145,5.91000032424927,4.24500036239624,1.29000008106232,2.40872502326965,1.90753746032715,1.35093748569489,-0.74332499504089,-0.15056249499321,0.12182500213385,-29.707950592041,-26.3710517883301,-19.1599502563477,8.76405048370361,6.52905035018921,5.08005046844482,-6.19712495803833,-3.34193754196167,-2.13716244697571,-32.423999786377,-24.0700511932373,-16.5469512939453,0.15798750519753,-0.18150000274181,-0.10917499661446,-1.43715000152588,-1.05297493934631,-0.50819998979568,-2.31600022315979,-0.95505005121231,0.64605003595352,6.91695022583008,9.4680004119873,8.85195064544678,0.91176247596741,1.03729999065399,0.90007501840591,-8.67495059967041,-4.91400003433228,-3.3600001335144,-0.71582502126694,-0.6349750161171,-0.54766249656677,0.45388749241829,0.43367499113083,0.46557500958443,3.40500020980835,3.61605024337769,3.85305023193359,9.53505039215088,10.0090503692627,10.4590501785278,0.44137498736382,0.16142499446869,-0.01526249945164,-1.24995005130768,-1.90200006961823,-3.01800012588501,SWING_RIGHT
-0.09748750180006,-0.23691250383854,-0.16238750517368,-0.03891250118613,-0.03244999796152,0.4507249891758,1.75005006790161,1.73595011234283,1.1010000705719,9.76200008392334,11.7810001373291,13.582950592041,-2.50222492218018,-3.22162508964539,-3.35995006561279,13.2649507522583,10.4940004348755,9.74400043487549,-0.06022499874234,-0.27417498826981,-0.44659999012947,-1.11897504329681,-2.47582507133484,-3.29848742485046,-5.00505018234253,-6.0949501991272,-8.56695079803467,9.24000072479248,11.9680509567261,15.3169507980347,-5.77678728103638,-6.54829978942871,-6.88036251068115,12.8599510192871,9.24600028991699,6.81495046615601,0.30689999461174,0.83160001039505,1.14125001430511,-1.40428745746613,-1.36276245117188,-1.42449998855591,-14.6170511245728,-16.3189506530762,-19.4640007019043,20.7799510955811,18.6580505371094,17.7160511016846,-9.45147514343262,-9.58979988098144,-8.82145023345947,-0.30405002832413,-8.08995056152344,-13.3230009078979,1.49668753147125,0.95081251859665,0.92523747682571,-0.24103750288486,-0.49224999547005,-0.61668747663498,-15.2320508956909,-10.0399503707886,-8.29800033569336,4.25594997406006,6.41205024719238,6.79305028915405,-4.51577520370483,-2.73212504386902,-0.42913749814034,-24.9700508117676,-23.9140510559082,-13.8100509643555,-0.49871250987053,-0.54766249656677,-0.47630000114441,-0.05692499876022,0.22192500531673,0.09528750181198,2.82495021820068,3.14205026626587,3.54900026321411,7.57095050811768,8.05500030517578,8.42805004119873,0.95851248502731,0.81592500209808,0.51686251163483,-3.45300006866455,-1.59300005435944,-1.11795008182526,SWING_RIGHT
0.0354750007391,0.02488750033081,0.02172499895096,0.01856249943376,0.0622874982655,0.11329999566078,2.08500003814697,2.08095002174377,2.06895017623901,9.54900074005127,9.55905055999756,9.79395008087158,0.09872499853373,0.04015000164509,-0.13543750345707,0.87795001268387,2.45895004272461,4.12604999542236,0.09088750183582,0.29727500677109,0.5048999786377,0.39434999227524,0.32615000009537,1.03386247158051,2.71305012702942,2.63895010948181,1.1010000705719,11.3790006637573,13.1800508499146,12.6010503768921,-3.70589995384216,-5.41392517089844,-6.16948747634888,18.631950378418,14.9250011444092,8.04195022583008,0.89759999513626,0.98697501420975,1.10508751869202,-2.62377500534058,-3.71359992027283,-3.41563749313354,-8.58300018310547,-8.96700000762939,-10.7629508972168,15.7999505996704,19.1050510406494,21.3280506134033,-7.46570014953613,-7.82003736495972,-8.05529975891113,6.60900020599365,3.94095015525818,1.08600008487701,2.81627488136292,2.06071257591248,1.47757494449615,-0.72421246767044,-1.67983746528625,-1.62978744506836,-20.2090511322021,-17.215051651001,-13.9699506759644,9.71205043792725,6.52005052566528,6.72105026245117,-6.05247497558594,-5.13617515563965,-3.05456256866455,-16.056001663208,-18.6859512329102,-17.776050567627,0.18452499806881,0.15578749775887,0.13667500019073,-1.73731243610382,-1.71710002422333,0.1357125043869,-2.91405010223389,-0.70905005931854,1.5940500497818,8.12205028533936,9.98805046081543,7.27905035018921,0.89471250772476,1.1171875,1.56942498683929,-8.3230504989624,-7.0339503288269,-2.27805018424988,SWING_RIGHT
0.09198749810457,0.06324999779463,0.04399999976158,0.11976250261068,0.12608750164509,0.21023750305176,2.72205018997192,2.51895022392273,2.47305011749268,9.39105033874512,9.52305030822754,9.3190507888794,-0.35791251063347,-0.62287497520447,-0.99742501974106,2.92605018615723,4.36005020141602,8.22405052185059,0.00783750042319,0.17063750326633,0.22605000436306,-0.4464625120163,-0.36767500638962,-0.7987374663353,2.29800009727478,0.33495002985001,-1.5130500793457,10.7130002975464,10.0330505371094,12.081000328064,-3.67716240882874,-3.90802502632141,-4.08155012130737,8.69505023956299,8.25705051422119,8.91105079650879,-0.00384999997914,0.15798750519753,0.28036248683929,-1.65646255016327,-1.40318751335144,-1.43082499504089,-4.32495021820068,-5.91495037078857,-7.36005020141602,15.3859510421753,15.1270503997803,15.6850509643555,-6.08643770217896,-6.28980016708374,-6.36322498321533,5.70405006408691,2.85195016860962,0.41100001335144,1.54453754425049,1.9181250333786,2.03623747825623,-0.24956250190735,0.27087500691414,0.24956250190735,-12.7219505310059,-12.3250503540039,-11.6899509429932,13.8720006942749,10.7880001068115,6.83295011520386,-4.97007513046265,-3.82181239128113,-3.18656253814697,-15.5080509185791,-13.6369504928589,-12.3150005340576,0.174899995327,0.08552499860525,-0.02942499890924,-1.24561250209808,-0.82417500019073,-0.86047500371933,-1.3860000371933,-1.18500006198883,0.21000000834465,8.89305019378662,8.01195049285889,8.86005020141602,-0.52703750133514,0.29342499375343,0.34979999065399,-13.2229509353638,-6.7300500869751,-5.79300022125244,SWING_RIGHT
-0.06764999777079,-0.11027500033379,-0.16238750517368,0.13034999370575,0.23361249268055,0.23993749916553,2.07795000076294,2.20695018768311,2.36100006103516,9.65895080566406,9.38595008850098,9.60705089569092,0.25189998745918,0.17957499623299,0.04551250115037,1.12005007266998,1.61295008659363,1.48605012893677,0.24832500517368,0.29301249980927,0.3951750099659,0.10271249711514,0.38046249747276,0.45814999938011,1.50105011463165,1.92705011367798,2.07600021362305,10.0620002746582,10.5289506912231,11.7720003128052,-1.1336874961853,-2.88956236839294,-4.19856262207031,8.89695072174072,18.7450504302979,20.3620510101318,1.87027502059937,1.75848746299744,-0.20391249656677,0.98917502164841,-1.50218749046326,-4.37236261367798,-7.60395050048828,-12.2310009002686,-17.8450508117676,10.9170007705688,8.69204998016357,22.3840503692627,-8.03618717193604,-7.88933753967285,-7.96688747406006,3.7260000705719,2.96700024604797,2.7199501991272,2.01286244392395,1.91166245937347,1.84469997882843,-2.02991247177124,-2.27480006217957,-1.96721243858337,-20.3119506835938,-21.2869510650635,-20.275951385498,13.3360509872437,13.4869508743286,12.1810503005981,-7.79239988327026,-6.36954975128174,-5.18512487411499,-9.63705062866211,-16.7670001983643,-19.1380500793457,0.90076249837875,0.5293750166893,0.28448748588562,-1.43192493915558,-0.60500001907349,0.70922499895096,-6.76995038986206,-3.54000020027161,-0.14805001020432,8.79195022583008,9.34305000305176,5.38005018234253,0.52758747339249,1.23736250400543,1.4470499753952,-13.1890506744385,-9.13005065917969,-4.08105039596558,SWING_RIGHT
0.36011248826981,0.70069998502731,0.80176252126694,-0.10161250084639,0.17723749577999,1.76288747787476,-0.14805001020432,1.30200004577637,-0.15105000138283,12.8539505004883,11.788950920105,10.6200008392334,-3.28652501106262,-4.24545001983643,-5.00637483596802,15.6979503631592,13.1790008544922,11.3800506591797,-0.57846248149872,-0.28476250171661,0.16857500374317,-2.41092491149902,-1.79795002937317,-0.8816499710083,-8.90895080566406,-11.5630502700806,-15.2610006332397,16.8540000915527,18.7849502563477,18.1930503845215,-8.18400001525879,-8.67570018768311,-9.23120021820068,7.86705017089844,6.89205026626587,4.83705043792725,2.53536248207092,1.80207502841949,0.84644997119904,-1.05517494678497,-2.88351249694824,-3.75182509422302,-21.7540512084961,-21.5959510803223,-18.9109516143799,10.2100505828857,6.838050365448,10.6699504852295,-6.56012487411499,-4.82748746871948,-3.48658752441406,-20.9970016479492,-20.3020515441895,-17.2729511260986,-0.17943750321865,-0.13474999368191,0.12168750166893,0.43477499485016,-0.22824999690056,-0.61888748407364,-2.25795006752014,-0.25605002045631,1.33800005912781,8.63700008392334,9.8730001449585,10.1670007705688,0.22852499783039,0.70950001478195,1.05008745193481,-11.0580005645752,-8.74905014038086,-6.33705043792725,-0.54546248912811,-0.71362501382828,-0.64556246995926,0.54752498865128,0.62741249799728,0.69121247529984,2.64105010032654,3.07200002670288,3.28005003929138,8.16495037078857,9.65505027770996,10.2250509262085,0.8425999879837,0.66371250152588,0.58176249265671,-0.91995006799698,-1.19295001029968,-1.12995004653931,SWING_RIGHT
-0.14327499270439,-0.06022499874234,-0.0496375001967,0.29205000400543,0.34636250138283,0.28462499380112,0.58799999952316,-1.36305010318756,-2.38800001144409,11.5369501113892,11.5969505310059,11.0730009078979,-2.81297492980957,-4.17202520370483,-5.10743761062622,12.0270004272461,15.6340503692627,15.5719509124756,0.22068749368191,0.42184999585152,0.62933748960495,-1.3585000038147,-0.96579998731613,-0.65078747272491,-12.0660009384155,-14.8230009078979,-17.1910514831543,15.2950506210327,15.0910511016846,16.0849514007568,-8.00524997711182,-8.68422508239746,-9.3333625793457,10.7239503860474,8.30505084991455,5.00205039978027,2.56410002708435,2.69706249237061,2.34066247940063,-0.31666249036789,-0.09955000132322,-0.47299998998642,-25.4059505462646,-24.4960517883301,-23.0850009918213,10.7179508209229,6.42600011825562,3.61200022697449,-7.40506267547607,-4.93391227722168,-3.1024124622345,-26.3260517120361,-25.4830513000488,-19.7920513153076,0.62301248311996,0.46860000491142,0.05788749828935,-0.59221249818802,0.58258748054504,0.05059999972582,-4.00695037841797,-2.16000008583069,0.55695003271103,10.8109502792358,7.77000045776367,5.9520001411438,0.7233874797821,0.951087474823,0.86487501859665,-9.11295032501221,-5.81505012512207,-4.90005016326904,-0.51782500743866,-0.45182499289513,-0.35612499713898,0.56993746757507,0.28682500123978,0.02076249942183,3.01905012130737,3.1560001373291,3.3469500541687,9.5110502243042,9.7669506072998,10.1430006027222,0.65848749876022,0.45306250452995,0.26894998550415,-1.05105006694794,-1.14495003223419,-1.75800013542175,SWING_RIGHT
0.07273750007153,-0.18892499804497,-0.18259999155998,1.32646250724792,1.38613748550415,0.2549250125885,-0.23895001411438,-2.06895017623901,-4.38495016098022,9.14205074310303,9.30300045013428,9.79605007171631,-4.30388736724854,-5.10743761062622,-5.87578725814819,14.4460506439209,13.9240503311157,12.8440504074097,0.09624999761581,0.91038751602173,1.24561250209808,-1.29139995574951,-0.86363750696182,-0.60390001535416,-11.6830501556396,-14.4439506530762,-16.5900001525879,19.1340007781982,16.4779510498047,14.1000003814697,-7.61791229248047,-8.04677486419678,-8.42875003814697,6.14205026626587,4.81995010375977,-1.54200005531311,2.44805002212524,2.07556247711182,1.455162525177,-1.23186254501343,-2.68771243095398,-3.10378742218018,-16.159049987793,-16.6399517059326,-16.7860507965088,6.96705055236816,7.85805034637451,9.28095054626465,-5.20643758773804,-3.74206256866455,-2.41078758239746,-21.1650009155273,-20.9040012359619,-19.1070003509521,0.56333750486374,0.5154874920845,0.15798750519753,-0.63690000772476,-0.3240875005722,0.07081250101328,-0.34905001521111,1.00995004177094,2.12100005149841,8.93100070953369,6.79305028915405,6.08895015716553,1.39919996261597,1.55347502231598,1.05544996261597,-6.65295028686523,-2.95800018310547,-0.89100003242493,-0.59551250934601,-0.28476250171661,-0.09858749806881,-0.06971249729395,0.26661249995232,0.74332499504089,3.92205023765564,3.87000012397766,3.63495016098022,12.0190505981445,11.8770008087158,10.4550008773804,0.32532501220703,0.45416250824928,0.598812520504,-2.53605008125305,-2.85705018043518,-1.97595012187958,SWING_RIGHT
0.02062499895692,0.04509999975562,0.10683749616146,-0.05266249924898,0.04633750021458,0.16335000097752,1.8840000629425,1.89600014686584,2.00400018692017,9.95400047302246,10.090950012207,9.48000049591064,0.06572499871254,0.05719999969006,0.05926249921322,0.39705002307892,0.42300000786781,0.55995005369186,-0.00481249997392,-0.05802499875426,-0.40177500247955,0.15908749401569,0.37509998679161,0.77742499113083,1.49100005626678,1.27800011634827,1.68105006217957,9.98505020141602,8.68005084991455,8.20995044708252,-1.54866254329681,-2.2404248714447,-2.69692492485046,9.71295070648193,9.24900054931641,9.48300075531006,0.0686125010252,-0.08470000326633,-0.44440001249313,-0.51768749952316,-0.88701248168945,-1.38929998874664,-3.54000020027161,-5.22600030899048,-7.39995050430298,10.252950668335,10.5889501571655,16.2289505004883,-5.4745626449585,-6.32486248016357,-6.94856262207031,11.3179502487183,9.44700050354004,6.43200016021729,1.87769997119904,2.60878753662109,3.37397503852844,0.42625001072884,0.86033749580383,0.92963749170303,-14.0940008163452,-16.0390510559082,-20.6710510253906,14.5570507049561,12.5770502090454,8.13600063323975,-8.84386253356934,-8.05103778839111,-6.76871252059937,-7.92495059967041,-12.4590005874634,-17.377950668335,0.68901246786118,-0.14423750340939,-0.87119996547699,-2.27149987220764,-2.4450249671936,-1.83631253242493,-9.83805084228516,-6.73695039749146,-4.36304998397827,5.92605018615723,7.78695058822632,12.996000289917,-1.5274875164032,-1.27091252803802,-0.78361248970032,-11.9580001831055,-11.9370002746582,-11.6179504394531,SWING_RIGHT
0.03657500073314,0.22921249270439,0.23031249642372,-0.19634999334812,-0.58162498474121,-1.28191244602203,0.41595003008842,-0.17205001413822,0.58605003356934,11.695050239563,11.6520004272461,13.5270004272461,-3.65048742294312,-4.39546251296997,-4.9233250617981,11.943000793457,9.94095039367676,7.8120002746582,0.08236250281334,0.26441249251366,0.68791252374649,-2.42481255531311,-2.10237503051758,-1.16586244106293,-6.2839503288269,-7.95795059204102,-10.5450000762939,15.4390506744385,17.4150009155273,15.7879505157471,-7.63592481613159,-7.66149997711182,-7.81907510757446,3.16995024681091,1.78800010681152,0.27195000648499,2.74615001678467,1.40098750591278,0.0536249987781,-1.03180003166199,-1.17122495174408,-1.78199994564056,-16.7070007324219,-11.896050453186,-7.19895029067993,8.07194995880127,0.67605000734329,5.53995037078857,-3.81438755989075,-2.57564997673035,-1.79561245441437,-20.5609512329102,-18.3960018157959,-17.0449504852295,0.07809999585152,-0.13901250064373,-0.19538749754429,-0.28792500495911,0.1900250017643,0.33151251077652,-0.1000500023365,1.09095001220703,1.9939501285553,8.70900058746338,8.72100067138672,8.6419506072998,0.85745000839233,0.85208749771118,0.9288125038147,-5.57295036315918,-5.09895038604736,-4.22504997253418,-0.27843749523163,-0.6210874915123,-0.55398750305176,0.19744999706745,0.67636251449585,0.72105002403259,3.76200008392334,4.14000034332275,3.81705021858215,7.72395038604736,9.07005023956299,9.20700073242188,0.51163750886917,0.40094998478889,0.28063750267029,-1.83900010585785,-1.87800014019012,-2.24595022201538,SWING_RIGHT
-0.02406249940395,0.16541250050068,0.55384999513626,0.35172501206398,0.56663751602173,0.90090000629425,1.16595005989075,0.13800001144409,-1.34100008010864,11.3809509277344,12.9649505615234,11.0100002288818,-2.57675004005432,-3.30673742294312,-5.03827476501465,10.828950881958,12.3720006942749,10.4850006103516,-0.19648750126362,-0.07617499679327,-0.14217500388622,-2.47692489624023,-2.33117508888245,-2.03637504577637,-11.5990505218506,-13.6369504928589,-14.5639505386353,15.8509511947632,15.4669504165649,17.3790016174316,-8.20215034484863,-10.084662437439,-10.4806623458862,10.6549501419067,5.37405014038086,-1.1779500246048,2.47362494468689,1.89681243896484,1.16792500019073,-0.72737497091293,-1.55966246128082,-1.08074998855591,-22.5079517364502,-19.0950012207031,-19.4620513916016,6.52395009994507,7.02300024032593,12.2940006256104,-7.53486251831055,-5.17976236343384,-3.21420001983643,-23.3749504089355,-23.9359512329102,-19.6729507446289,0.04399999976158,-0.11976250261068,0.27183750271797,-1.00402498245239,0.17820000648499,0.40177500247955,-2.89500021934509,-0.37305000424385,0.76995003223419,6.95100021362305,11.437050819397,6.97695016860962,0.90323752164841,1.60558748245239,1.78117501735687,-11.1300001144409,-6.75105047225952,-2.64195013046265,-0.76683747768402,-0.89773750305176,-0.77742499113083,0.09528750181198,0.49114999175072,0.54642498493195,3.39795017242432,3.3469500541687,3.56505012512207,8.06205081939697,9.97995090484619,10.1580009460449,0.58712500333786,0.34869998693466,0.03272499889135,-0.7590000629425,-0.82395005226135,-2.33505010604858,SWING_RIGHT
0.75817501544952,1.1253000497818,1.1785124540329,-2.91225004196167,-0.98711252212524,0.98285001516342,-4.88295030593872,-10.453950881958,-12.3820505142212,14.8330507278442,15.4789505004883,11.5540504455566,-6.61429977416992,-5.93436241149902,-5.81088733673096,0.17895001173019,2.35605001449585,5.08905029296875,0.98587501049042,0.2579500079155,0.00673749996349,-3.60387492179871,-2.19064998626709,-0.76889997720718,-12.0319509506226,-13.9290008544922,-14.8420505523682,11.5609502792358,13.1509504318237,14.6269502639771,-7.78387498855591,-7.58917474746704,-7.29011249542236,-0.65100002288818,-2.84505009651184,-5.0440502166748,0.79543751478195,0.39737498760223,0.55907499790192,-1.14454996585846,0.37936249375343,1.10948753356934,-15.0480003356934,-15.2200508117676,-14.451000213623,11.2590007781982,11.695050239563,10.6680002212524,-4.86695003509521,-2.45863747596741,-0.79530000686646,-26.7210006713867,-23.6440505981445,-16.6450500488281,0.26647499203682,-0.01017499994487,-0.18259999155998,-0.10903749614954,0.13777500391006,-0.15908749401569,-1.35300004482269,0.31500002741814,1.35195004940033,6.89805030822754,6.39000034332275,7.20900011062622,0.56374996900558,0.71170002222061,0.41896250844002,-6.34905052185059,-4.39005041122437,-2.63895010948181,-0.22728750109673,-0.19965000450611,-0.25176250934601,-0.09844999760389,-0.11866249889135,0.01003750041127,2.45700001716614,2.75100016593933,2.78205013275146,9.77895069122314,9.62805080413818,10.3560009002686,0.40617498755455,0.24873749911785,0.27004998922348,-1.36305010318756,-2.20800018310547,-2.65395021438599,SWING_RIGHT
0.11329999566078,0.1175625026226,0.11219999939203,0.0409750007093,0.07081250101328,0.11219999939203,1.64895009994507,1.55400002002716,1.4719500541687,9.8299503326416,9.72405052185059,10.042950630188,-0.22701250016689,-0.39723750948906,-0.66866248846054,2.89905023574829,5.3929500579834,8.83005046844482,0.29411250352859,0.5378999710083,0.80396246910095,0.76353746652603,0.46667498350143,-0.06118749827147,-0.69000005722046,-1.26000010967255,-3.3360002040863,12.9600009918213,12.8620510101318,11.4730501174927,-3.79733753204346,-4.35187482833862,-6.25570011138916,12.1609506607056,13.4710502624512,9.52200031280518,0.06435000151396,-0.20074999332428,-0.48372501134872,-2.40666246414185,-2.4641375541687,-2.65155005455017,-15.2179508209229,-17.4709510803223,-19.8619518280029,14.1480007171631,14.2290010452271,17.5799999237061,-8.61190032958984,-8.87892532348633,-9.03333759307861,1.74495005607605,-0.17205001413822,-3.29505014419556,0.80712497234344,0.3814249932766,0.174899995327,1.41597497463226,0.684750020504,-1.02327501773834,-20.3310012817383,-13.7020502090454,-8.64795017242432,9.08505058288574,5.67705011367798,9.03705024719238,-2.86728739738464,-1.92431247234344,-1.43165004253387,-16.981050491333,-12.5110502243042,-9.6109504699707,-0.20391249656677,-0.09858749806881,-0.007012499962,0.66879999637604,0.01649999991059,-0.28146249055862,0.86895006895065,1.10805010795593,1.53405010700226,7.79400014877319,8.29200077056885,8.11200046539307,0.06998749822378,0.14973749220371,0.1220999956131,-5.20395040512085,-4.06905031204224,-3.67095017433167,SWING_RIGHT
0.25588750839233,0.18246249854565,0.10573749989271,0.33893749117851,0.31982499361038,0.10903749614954,1.82400012016296,1.50600004196167,1.48395001888275,9.36195087432861,8.95800018310547,9.09195041656494,-0.02584999985993,-0.20143750309944,-0.52387499809265,2.41995000839233,3.89295029640198,4.54200029373169,0.08978749811649,0.11110000312328,0.31652501225471,0.08249999582767,-0.00054999999702,0.64116251468658,1.11300003528595,0.61500000953674,0.6889500617981,10.0189504623413,9.98505020141602,10.4329500198364,-2.58527493476868,-4.10918760299683,-4.9264874458313,13.0540504455566,13.6339502334595,11.9449501037598,-0.63910001516342,-0.20074999332428,0.26867499947548,-1.85858750343323,-1.24891245365143,-1.19996249675751,-9.32400035858154,-11.6869506835938,-14.1880502700806,18.4279518127441,18.693000793457,17.439001083374,-7.4614372253418,-8.14783763885498,-8.22346210479736,10.8079509735107,4.17405033111572,2.93805003166199,1.85006248950958,1.34241247177124,0.68158751726151,1.28397500514984,-0.46351251006126,-2.41422510147095,-22.1730003356934,-20.1750011444092,-15.7609510421753,2.65200018882751,2.33295011520386,8.74695014953613,-4.43382501602173,-2.32773756980896,-1.59871244430542,-19.7850017547607,-14.9620504379272,-14.2530002593994,0.254787504673,0.07383749634027,-0.1900250017643,-0.38898751139641,0.11550000309944,0.56457501649857,1.06695008277893,1.45800006389618,1.62105011940002,8.89800071716309,8.31795024871826,8.32800006866455,0.56691247224808,0.88412499427795,0.86377501487732,-6.19095039367676,-3.78195023536682,-2.03295016288757,SWING_RIGHT
