gyro_x_0,gyro_y_0,gyro_z_0,acc_x_0,acc_y_0,acc_z_0,gyro_x_1,gyro_y_1,gyro_z_1,acc_x_1,acc_y_1,acc_z_1,gyro_x_2,gyro_y_2,gyro_z_2,acc_x_2,acc_y_2,acc_z_2,gyro_x_3,gyro_y_3,gyro_z_3,acc_x_3,acc_y_3,acc_z_3,gyro_x_4,gyro_y_4,gyro_z_4,acc_x_4,acc_y_4,acc_z_4,gyro_x_5,gyro_y_5,gyro_z_5,acc_x_5,acc_y_5,acc_z_5,gyro_x_6,gyro_y_6,gyro_z_6,acc_x_6,acc_y_6,acc_z_6,gyro_x_7,gyro_y_7,gyro_z_7,acc_x_7,acc_y_7,acc_z_7,gyro_x_8,gyro_y_8,gyro_z_8,acc_x_8,acc_y_8,acc_z_8,gyro_x_9,gyro_y_9,gyro_z_9,acc_x_9,acc_y_9,acc_z_9,gyro_x_10,gyro_y_10,gyro_z_10,acc_x_10,acc_y_10,acc_z_10,gyro_x_11,gyro_y_11,gyro_z_11,acc_x_11,acc_y_11,acc_z_11,gyro_x_12,gyro_y_12,gyro_z_12,acc_x_12,acc_y_12,acc_z_12,gyro_x_13,gyro_y_13,gyro_z_13,acc_x_13,acc_y_13,acc_z_13,gyro_x_14,gyro_y_14,gyro_z_14,acc_x_14,acc_y_14,acc_z_14,motion_type
1.95992493629456,0.86377501487732,0.52222502231598,1.50837504863739,1.84140002727509,2.33956241607666,-13.1149501800537,-28.711051940918,-33.457950592041,1.51605010032654,1.97895014286041,2.46705007553101,0.99137496948242,5.93367481231689,8.15787506103516,-39.5460014343262,-21.2599506378174,-0.63900005817413,-2.12451243400574,-3.23344993591309,-2.69280004501343,-1.06383752822876,-0.76477497816086,-0.53597497940063,-5.46495008468628,5.74500036239624,21.8680515289307,-1.6750500202179,8.41604995727539,15.4480504989624,0.63923752307892,-3.00685000419617,-5.6736626625061,31.2660007476807,25.1950511932373,17.8660507202148,-0.79530000686646,-0.38458749651909,0.99467498064041,1.41996252536774,1.84992504119873,2.23519992828369,-5.8840503692627,-23.8399505615234,-38.9640007019043,8.51205062866211,10.4449501037598,7.0420503616333,-1.80949997901917,7.18410015106201,7.69271230697632,-46.4029541015625,-6.72705030441284,5.68005037307739,-4.01884984970093,-3.05896258354187,0.93720000982285,-0.71582502126694,-1.04898750782013,-1.82256245613098,-0.78795003890991,17.7540016174316,42.5659523010254,10.6489505767822,17.8290004730225,16.6979999542236,-1.18799996376038,-5.37033748626709,-6.622962474823,22.9360504150391,13.5330009460449,7.47900056838989,-1.41143751144409,-1.49022495746613,1.58633744716644,1.39122498035431,2.91733741760254,1.14014995098114,-8.7180004119873,-25.818000793457,-38.5039520263672,8.08095073699951,9.36000061035156,-0.6360000371933,4.63003730773926,8.41967487335205,9.26144981384277,-30.1750507354736,-7.3410005569458,8.800950050354,SHAKE
0.65092498064041,0.0709500014782,-0.11742500215769,0.59633749723434,1.0954624414444,1.80097496509552,9.16499996185303,-2.91705012321472,-19.7610015869141,5.21700048446655,6.47400045394897,5.79600048065186,-2.30546259880066,4.00743770599365,7.73423767089844,-47.506950378418,-32.5750503540039,-10.1839504241943,-2.86728739738464,-2.00419998168945,0.12732499837875,-0.68502497673035,-1.26816248893738,-1.4522750377655,1.06305003166199,20.2399501800537,40.1299514770508,8.90505027770996,16.4209499359131,16.2600002288818,0.73809999227524,-3.1429750919342,-5.52571249008179,36.5899505615234,25.6830005645752,19.291051864624,-0.93898749351501,-1.74239993095398,0.16775000095367,0.26111251115799,2.21388745307922,2.33200001716614,7.72605037689209,-27.9229507446289,-42.400951385498,2.69205021858215,12.2410507202148,11.5009508132935,-0.66343748569489,6.02621269226074,8.19499969482422,-50.392951965332,-25.1640014648438,10.3339500427246,-2.46716237068176,-1.39122498035431,0.20184999704361,-0.31363749504089,-0.59565001726151,-0.33701249957085,13.8570003509521,32.6149520874023,43.9099502563477,9.53295040130615,13.6020002365112,11.6830501556396,-4.78183746337891,-6.55490016937256,-7.51368761062622,20.4810009002686,14.1559505462646,8.57805061340332,-2.3926374912262,-1.89571249485016,3.31787490844727,1.80743753910065,3.12482500076294,-1.730024933815,-20.5440006256104,-40.3270530700684,-35.5180511474609,6.08895015716553,13.2469511032104,-1.20795011520386,8.55153751373291,7.88961267471313,7.26701259613037,-3.3120002746582,13.6939506530762,26.8380012512207,SHAKE
-0.62933748960495,0.05706249922514,1.08624994754791,0.88151252269745,1.52322494983673,-0.15289999544621,-25.7629508972168,-42.8970031738281,-40.5210037231445,10.0260000228882,6.27105045318604,2.14605021476746,5.84636259078979,8.7313871383667,8.14715003967285,-26.2009506225586,1.47705006599426,10.4130001068115,-2.06703758239746,-1.33278751373291,-0.1515250056982,-0.99041247367859,-0.85841250419617,0.15784999728203,13.651050567627,35.1049499511719,45.1860008239746,11.1540002822876,15.6540002822876,13.6450510025024,-1.89474999904633,-4.93515014648438,-6.87733745574951,31.0410022735596,22.9819507598877,15.1480503082275,0.99357497692108,0.01031249947846,-0.18122500181198,-0.01979999989271,0.67182499170303,2.29377508163452,-1.75305008888245,-20.7769508361816,-43.5910530090332,5.02995014190674,7.80795049667358,8.68905067443848,-3.33877491950989,4.23197507858276,8.4365873336792,-56.6160011291504,-37.5540008544922,-6.78495025634766,-1.43494999408722,-1.09862494468689,-0.64955002069473,-2.31962490081787,-2.55474996566772,-1.96308743953705,10.9249505996704,34.465950012207,47.6359519958496,6.06900024414063,8.02395057678223,6.05700016021729,-1.56585001945496,-7.41578769683838,-8.53104972839355,34.5229530334473,18.7570514678955,10.8769502639771,-0.51122498512268,-0.63139998912811,0.11137499660254,0.05884999781847,1.22416245937347,1.76797497272491,-16.5880508422852,-38.5260009765625,-50.6740531921387,9.35100078582764,10.0000505447388,9.89700031280518,0.81372499465942,7.39901256561279,8.9271879196167,-46.2499504089355,-17.239049911499,14.1940507888794,SHAKE
-1.08157503604889,-0.91767501831055,-0.51122498512268,-0.10711249709129,-0.35722500085831,0.05884999781847,12.1830005645752,-2.17905020713806,-16.5880508422852,5.32395029067993,10.8349504470825,9.35100078582764,-9.07059955596924,-6.39196252822876,0.81372499465942,-11.0700006484985,-44.1160507202149,-46.2499504089355,2.18336248397827,-1.06026244163513,-1.59458744525909,-1.26926255226135,-0.41992500424385,-0.18479999899864,-31.8540019989014,2.11605000495911,21.6670513153076,1.44000005722046,5.05395030975342,10.8790502548218,5.66651248931885,1.43948745727539,-5.2288498878479,37.5199508666992,34.701000213623,19.1400012969971,1.52680003643036,0.38060000538826,-1.22526252269745,-0.24227499961853,0.1515250056982,1.81060004234314,8.82495021820068,-4.45905017852783,-44.193000793457,2.32095003128052,3.29595017433167,9.95205020904541,-1.54027497768402,5.83151245117188,8.64943790435791,-52.5229530334473,-28.7190017700195,12.6739501953125,-1.44237494468689,-0.70592498779297,0.67650002241135,0.20790000259876,0.19511249661446,0.26853749155998,19.3080005645752,37.6110000610351,44.4439506530762,9.61395072937012,11.238000869751,8.26995086669922,-2.16177487373352,-6.76348733901978,-7.54242515563965,29.6569519042969,13.2120008468628,7.64205026626587,-3.56757497787476,0.93830001354218,2.4536874294281,2.60975003242493,1.06136250495911,-2.90166258811951,-26.191951751709,-43.5750007629395,-30.9600009918213,12.5550003051758,1.65105009078979,-0.13800001144409,8.55373764038086,7.18506240844727,5.36538743972778,2.91105008125305,20.6440505981445,35.6680526733398,SHAKE
1.56406247615814,1.99718749523163,0.4115374982357,-0.26455000042915,-0.18906250596046,-1.28411245346069,38.2600517272949,27.1300506591797,6.2310004234314,3.67005014419556,-1.71600008010864,2.16495013237,-6.8336124420166,-6.75276231765747,4.01802492141724,0.71505004167557,-25.3890018463135,-30.4980010986328,2.05988740921021,1.71943747997284,0.79997497797012,-0.94572502374649,-0.92014998197556,0.45691248774529,-16.498950958252,-4.19099998474121,12.2470502853394,4.78095006942749,3.96705007553101,3.1429500579834,5.89324998855591,-0.95713746547699,-3.94652509689331,29.3910007476807,27.3600006103516,20.1720008850098,-3.18986248970032,-3.7707998752594,-2.38947486877441,-0.06352499872446,0.67512500286102,1.52542495727539,0.95205003023148,-18.4390506744385,-36.1330528259277,2.24700021743774,12.4330501556396,19.2559509277344,-0.4643374979496,5.42286252975464,7.25106239318848,-44.9980506896973,-19.9500007629395,1.2679500579834,0.69671249389648,-0.62617498636246,-0.51122498512268,-0.80739998817444,0.37386250495911,0.9315624833107,2.2390501499176,17.8470001220703,34.7050514221191,-0.03705000132322,4.14600038528442,5.35305023193359,-1.97339999675751,-4.19127511978149,-5.79081249237061,22.9530010223389,18.5370006561279,14.0220003128052,-1.74776244163513,-0.37606251239777,2.13757491111755,-0.19758750498295,1.455162525177,0.53460001945496,-1.8270001411438,-33.2470512390137,-29.32200050354,7.34595012664795,17.8909511566162,9.92295074462891,4.68421268463135,6.22091245651245,6.4007625579834,-17.8240509033203,5.38800048828125,15.5740509033203,SHAKE
0.90639996528625,0.71692502498627,-1.34557497501373,-0.87119996547699,-1.56502497196198,-1.5555374622345,46.957950592041,36.5110511779785,10.9590005874634,-4.32195043563843,-6.01995038986206,4.32300043106079,-6.86138725280762,-6.37284994125366,-2.41931247711182,4.49205017089844,-26.1300010681152,-46.5420036315918,0.98298752307892,0.82871252298355,0.12099999934435,0.68365001678467,0.22068749368191,-0.26248750090599,-30.703950881958,-3.47700023651123,10.4580001831055,9.43395042419434,-3.49305009841919,-0.00300000002608,6.90415000915527,3.79885005950928,-4.12211227416992,29.6260509490967,41.1600036621094,21.1810512542725,-1.31889998912811,-3.02376246452332,-3.68362498283386,-2.55474996566772,-2.06634998321533,-1.05847501754761,18.1800003051758,3.01500010490417,-14.7150011062622,-4.5949501991272,4.84500026702881,13.6879510879517,-5.14483737945557,3.19536256790161,9.00171279907227,-55.1809539794922,-44.0010032653809,-5.6569504737854,2.18446254730225,-1.61686253547668,-0.45374998450279,0.56223750114441,1.48280000686646,0.39833748340607,-8.69099998474121,22.9960517883301,45.2820014953613,-9.99300003051758,-1.37805008888245,-2.49195003509521,-3.61446237564087,-6.12177515029907,-7.92976236343384,27.9060020446777,23.427001953125,18.996000289917,-5.63956260681152,-0.04922499880195,3.89894986152649,-0.34979999065399,0.81124997138977,-0.90420001745224,-13.8810005187988,-38.7490501403809,-34.8040504455566,13.956000328064,22.6860008239746,5.82705020904541,6.00379991531372,8.21741199493408,8.03756237030029,-18.9829502105713,3.19905018806458,24.2490005493164,SHAKE
-1.93393743038177,-4.66152477264404,-5.63956260681152,-2.84858751296997,-1.94920003414154,-0.34979999065399,20.6440505981445,3.30000019073486,-13.8810005187988,-10.5630006790161,2.04299998283386,13.956000328064,-5.36401224136353,0.79351252317429,6.00379991531372,-40.2409515380859,-40.0090522766113,-18.9829502105713,1.64065003395081,-0.97198748588562,0.68928748369217,-1.44801247119904,-0.0922624990344,-0.90420001745224,-14.0470504760742,21.79905128479,44.578052520752,-5.36295032501221,6.10500049591064,2.05800008773804,0.84246248006821,-3.5100998878479,-6.49316263198853,35.8090515136719,27.2899513244629,21.9589519500732,-5.14580011367798,-5.28522491455078,-3.20787501335144,0.24516250193119,1.50727498531342,2.09467506408691,1.13895010948181,-18.3930015563965,-37.7620506286621,5.0110502243042,13.8910503387451,20.7630004882813,-3.39735007286072,4.08292484283447,9.31466197967529,-51.3079528808594,-39.9940528869629,-5.26695013046265,2.27383756637573,1.84181249141693,3.02843737602234,-0.30511251091957,0.63359999656677,-0.44549998641014,-8.98605060577393,27.3820514678955,41.1169509887695,-1.41405010223389,-1.06005001068115,-6.77400016784668,-3.38030004501343,-7.90858745574951,-8.70979976654053,27.7890014648438,16.4340000152588,5.38995027542114,-3.7707998752594,2.04723739624023,2.35262489318848,1.23158752918243,0.17599999904633,-0.25080001354218,-25.3390502929688,-30.6270008087158,-24.4510517120361,22.5540008544922,8.76900005340576,2.40300011634827,7.48096227645874,7.51506233215332,6.46360015869141,0.483000010252,8.87295055389404,31.1800518035889,SHAKE
2.35262489318848,1.23736250400543,0.05389999970794,-0.25080001354218,0.18658749759197,0.12801249325275,-24.4510517120361,-13.9150505065918,-3.87195014953613,2.40300011634827,-0.9709500670433,1.23405003547668,6.46360015869141,3.04754996299744,-1.06988751888275,31.1800518035889,36.0079498291016,27.8080520629883,0.87339997291565,-3.68678736686707,-3.65488743782043,-1.18937504291534,0.51438748836517,1.21247494220734,31.021951675415,2.68200016021729,-9.75195026397705,-12.0600004196167,4.26405000686646,12.7609510421753,-5.20327520370483,-0.73039996623993,4.25961256027222,-31.6519508361816,-36.8070030212402,-22.2949504852295,1.83108747005463,-0.89746248722076,0.8233500123024,0.97734999656677,1.07621252536774,0.0323125012219,-14.2690505981445,7.86195039749146,29.6880016326904,-2.74605011940002,5.80800008773804,5.35305023193359,3.55299997329712,-3.98268747329712,-5.83549976348877,38.2669525146484,19.420051574707,17.0779514312744,-4.69246244430542,-5.49697494506836,-3.87942504882813,-0.44123750925064,0.69629997014999,0.65917497873306,0.591000020504,-14.3530502319336,-26.4960021972656,0.70695000886917,11.3050508499146,20.3800506591797,-4.65423727035522,0.5157625079155,5.45366239547729,-34.6150512695313,-34.4640007019043,-17.5410003662109,1.58537495136261,0.3466374874115,0.15922500193119,1.63074994087219,1.48706245422363,1.41047501564026,-12.2719507217407,0.02805000171065,15.2080507278442,-1.10805010795593,0.97500002384186,2.22495007514954,6.04958724975586,2.13647508621216,-2.00433754920959,32.2890014648438,33.751953125,22.8120002746582,SHAKE
-0.27816250920296,2.68138742446899,2.99543738365173,-0.50833749771118,-0.82871252298355,0.57818752527237,-30.1530017852783,-27.8710517883301,-22.5919513702393,22.381950378418,14.8039503097534,4.35195016860962,7.93003749847412,7.54489994049072,7.10214996337891,5.05695009231567,11.5000505447388,16.3549499511719,0.6903874874115,1.12241244316101,0.79145002365112,1.2167375087738,0.44096249341965,-0.20817500352859,35.3500518798828,44.7259521484375,38.284049987793,-1.54800009727478,-6.06300020217896,-6.6589503288269,-4.49982500076294,-6.22063732147217,-7.25298738479614,17.0490016937256,13.3110008239746,7.68495035171509,-3.03544998168945,-2.2479875087738,-1.00498747825623,0.49101248383522,0.94325000047684,0.91135001182556,-9.34305000305176,-24.1939506530762,-35.7360000610352,9.70995044708252,11.9970006942749,12.4620008468628,0.24653749167919,6.8870997428894,9.56999969482422,-45.202953338623,-22.8000011444092,19.8780002593994,0.29975000023842,1.93118751049042,3.26356244087219,-0.04427500069141,-0.3965499997139,-0.43697500228882,17.8639507293701,37.8000030517578,44.3449516296387,5.82495021820068,4.52700042724609,-5.65605020523071,-4.22853755950928,-5.59707498550415,-6.65170001983643,15.4950008392334,13.5310506820679,8.59500026702881,-2.5278000831604,-2.21278738975525,0.04427500069141,-0.27637499570847,-0.942562520504,-1.15857493877411,-19.6990509033203,-29.8800010681152,-30.5050506591797,5.88000011444092,16.5040512084961,22.9780502319336,8.60158729553223,8.25357532501221,7.47779989242554,3.10095024108887,12.9300003051758,16.9630508422852,SHAKE
1.68533754348755,0.2411749958992,-1.27957499027252,0.61338752508163,1.26032495498657,0.86666250228882,-24.9180011749268,-14.32200050354,-0.1410000026226,0.75000005960464,-4.02195024490356,0.90300005674362,8.0407247543335,1.79176247119904,-2.58211255073547,21.9469509124756,37.8840026855469,24.3280506134033,-1.67859995365143,-3.06638741493225,-3.61762499809265,-0.14437499642372,0.6931374669075,1.99361252784729,12.5059509277344,-0.6319500207901,-12.7600507736206,-2.06295013427734,2.92905020713806,6.58395051956177,-7.56689977645874,-5.42258739471436,7.18616247177124,-14.2290010452271,-39.0790519714355,-24.2179508209229,2.3483624458313,-0.33453750610352,0.82431250810623,-0.07947500050068,-0.08470000326633,-0.19648750126362,-18.0100517272949,17.9689502716064,37.0240516662598,-6.70905017852783,4.98900032043457,4.64400005340576,2.56960010528564,-5.56201267242432,-7.39983749389648,40.8630027770996,21.7650012969971,18.2080516815186,-4.50092506408691,-5.21290016174316,-1.31683754920959,0.52401250600815,3.94432497024536,2.83855009078979,-5.83395004272461,-35.3310012817383,-37.7620506286621,-2.98995018005371,13.1850004196167,11.1589508056641,3.30605006217957,8.02271270751953,9.87112522125244,-36.9289512634277,-14.0950508117676,7.39695024490356,0.45718750357628,-0.4144249856472,-0.0504624992609,-1.472487449646,-0.46474999189377,0.2727999985218,0.57900005578995,20.9890518188477,40.3309516906738,0.46995002031326,6.02100038528442,5.47800016403198,1.75230002403259,-5.7088623046875,-7.67978763580322,36.1879501342773,20.6470508575439,14.4889507293701,SHAKE
0.73919999599457,-0.26537498831749,0.18053749203682,-1.37458753585815,-0.15399999916553,0.76876246929169,6.82500028610229,24.4399509429932,41.2510528564453,2.10105013847351,6.94395017623901,7.48995018005371,0.22412499785423,-3.50377488136292,-5.76840019226074,31.2229518890381,21.6570014953613,17.4780006408691,-0.63992500305176,-2.17236256599426,-3.16951251029968,-0.10711249709129,0.48675000667572,1.23695003986359,6.8730001449585,-5.64000034332275,-22.3879508972168,-2.17095017433167,0.18195000290871,6.08595037460327,-6.81669998168945,-1.20188748836517,5.1950249671936,-35.9869499206543,-46.7509536743164,-27.9949512481689,1.57891249656677,1.40868747234344,0.31886249780655,-1.92046248912811,-1.61823749542236,-0.27527499198914,-17.3920516967773,6.55395030975342,25.8420009613037,2.17305016517639,1.00394999980927,3.09195017814636,4.5916748046875,-0.33563750982285,-6.1238374710083,41.4379501342773,32.5090522766113,17.8560009002686,-1.81266248226166,-3.83473753929138,0.34869998693466,-0.86583751440048,1.9404000043869,0.98477500677109,5.36595010757446,-26.8530006408691,-36.892951965332,-1.43805003166199,10.5240001678467,8.67495059967041,5.29938745498657,8.28973770141602,7.93223762512207,-26.2399520874023,0.36600002646446,9.79200077056885,-0.34306249022484,-0.98271250724792,0.02089999988675,-1.0202499628067,-0.07947500050068,0.71665000915527,8.18100070953369,29.0100021362305,45.2580032348633,2.91300010681152,8.27805042266846,8.05695056915283,-0.51658749580383,-4.10932493209839,-6.1015625,31.1659507751465,19.8949508666992,15.1480503082275,SHAKE
-0.34306249022484,-0.98271250724792,0.02089999988675,-1.0202499628067,-0.07947500050068,0.71665000915527,8.18100070953369,29.0100021362305,45.2580032348633,2.91300010681152,8.27805042266846,8.05695056915283,-0.51658749580383,-4.10932493209839,-6.1015625,31.1659507751465,19.8949508666992,15.1480503082275,-1.50094997882843,-3.62078738212585,-4.21245002746582,-0.49981248378754,0.8592374920845,2.43952488899231,4.47105026245117,-10.0710000991821,-28.1149520874023,-3.66105008125305,2.79495024681091,11.0770502090454,-5.14483737945557,1.37884998321533,7.0424747467041,-45.808952331543,-44.8950004577637,-16.8460502624512,1.9045125246048,-1.66264998912811,-1.9542875289917,-1.89392495155334,-0.28696250915527,-0.13158750534058,-15.7930507659912,8.75804996490479,34.6030502319336,-2.17305016517639,2.62305021286011,13.8120002746582,3.23056244850159,-5.22458744049072,-7.20087480545044,44.427001953125,21.7939510345459,13.8949508666992,-1.04857504367828,-3.07697486877441,-0.99646252393723,-0.02736249938607,1.29332494735718,3.55478739738464,0.52095001935959,-15.8430004119873,-38.1000022888184,-1.48605012893677,7.48695039749146,8.14800071716309,2.68358755111694,7.1403751373291,7.5193247795105,-33.316951751709,0.70605003833771,9.50700092315674,-2.59063744544983,3.29340004920959,2.97522497177124,-0.34017500281334,-0.54449999332428,-1.84387493133545,22.1340007781982,44.662052154541,24.2029514312744,12.8400001525879,6.66105031967163,-15.6330003738403,-6.9177622795105,-8.08513736724854,-6.27384996414185,13.2150001525879,-11.1970500946045,-35.6640014648438,SHAKE
1.59486246109009,0.67966252565384,-1.66691243648529,0.89746248722076,-2.17483758926392,-0.90639996528625,-30.7879505157471,-11.6200504302979,0.42300000786781,-0.43200001120567,-3.44295024871826,1.79205012321472,7.37673759460449,0.87119996547699,-4.89788770675659,23.5639514923096,29.7960014343262,17.4799499511719,-0.83792501688004,-5.47249984741211,-3.00244998931885,-1.56296253204346,2.69280004501343,2.97907495498657,9.02400016784668,-24.2470512390137,-34.3159523010254,-9.2629508972168,10.3110008239746,13.7550010681152,-1.14014995098114,4.19361257553101,7.50117492675781,-42.2140502929688,-26.0719509124756,4.85595035552979,-2.55557489395142,-2.94813752174377,-0.98257499933243,0.00467499997467,0.21216249465942,-0.25712499022484,4.21395015716553,23.1780014038086,41.9100036621094,3.25005006790161,11.7120008468628,15.4720506668091,1.07126247882843,-5.7960376739502,-7.0379376411438,35.0719528198242,13.53600025177,8.60400009155273,-3.68142509460449,-2.05425000190735,0.96799999475479,2.17772507667542,2.66296243667603,1.36042499542236,-20.7330017089844,-33.4410018920898,-34.972053527832,9.24795055389404,12.1020002365112,3.14505004882813,7.63317489624023,8.00566291809082,7.79391241073608,-4.31595039367676,5.94405031204224,13.2360010147095,-4.04648733139038,2.32278752326965,3.38057494163513,-0.06668750196695,-0.21463750302792,-0.47217500209808,31.5780010223389,43.2049522399902,27.6379508972168,20.7580509185791,11.3170509338379,1.71795010566711,-7.05608749389648,-8.02023792266846,-8.26182460784912,12.9660005569458,6.39105033874512,-7.06305027008057,SHAKE
1.74597501754761,2.40363740921021,-0.67718750238419,-0.37523749470711,-1.88759994506836,-1.21068751811981,-30.3610515594482,-22.0170001983643,2.91600012779236,2.11800003051758,-4.53000020980835,3.36495018005371,7.76613759994507,4.32025003433228,-0.41964998841286,31.4119510650635,40.9230003356934,33.271053314209,1.51827502250671,-1.24547493457794,-3.81122493743896,-1.07662498950958,-0.45938751101494,0.68997502326965,32.0209503173828,14.5900506973267,-4.26000022888184,-10.711950302124,-7.10895013809204,-0.02295000106096,-8.9450626373291,-6.51117515563965,-0.25052499771118,-13.47705078125,-43.6969528198242,-46.3890037536621,3.63604998588562,-0.54738748073578,-1.72012495994568,-1.90024995803833,-0.95204997062683,-0.86803752183914,-31.2640514373779,-0.43095001578331,24.6130504608154,0.26100000739098,-1.23900008201599,10.5190505981445,5.3770751953125,0.42638748884201,-3.23344993591309,42.6520538330078,33.1390533447266,25.6380004882813,-0.30689999461174,-2.94401240348816,-3.53347492218018,-0.28063750267029,1.20078754425049,3.13555002212524,3.91305017471313,-13.1460008621216,-33.5950508117676,-5.09805011749268,2.67795014381409,6.76905012130737,-3.30261254310608,3.20498752593994,7.56085014343262,-49.5220527648926,-31.4059505462646,0.07800000160933,-1.8191249370575,-0.57612502574921,2.29294991493225,-1.19679999351501,-0.58382499217987,-0.2231625020504,5.06505012512207,45.2220039367676,42.7980003356934,1.1910001039505,19.6519508361816,7.77705049514771,-3.90926241874695,-7.6796498298645,-7.96592473983765,22.4329509735107,7.82805013656616,-4.04505014419556,SHAKE
-2.47458744049072,2.94428753852844,2.08656239509583,0.28022500872612,-3.32419991493225,-2.6889500617981,-30.7690505981445,-8.23905086517334,5.67300033569336,9.85605049133301,3.40800023078919,-1.40205001831055,7.02446269989014,3.92658758163452,-4.22001266479492,27.082052230835,37.0620002746582,22.5670509338379,1.60874998569489,0.45292499661446,-0.97734999656677,-0.3242250084877,0.11206249892712,1.72012495994568,14.2140007019043,-1.04595005512238,-16.0630512237549,0.08400000631809,0.99900007247925,2.89095020294189,-2.77158737182617,2.70586252212524,6.53922510147095,-40.9360504150391,-32.6890525817871,-11.203950881958,0.00921249948442,-1.09656250476837,-1.30831253528595,-1.04362499713898,-0.74882501363754,-0.74346250295639,-7.44300031661987,7.15800046920776,28.006950378418,-0.25304999947548,2.88405013084412,9.10605049133301,4.25961256027222,-4.5413498878479,-6.39526224136353,38.2090530395508,18.1750507354736,12.4320001602173,-2.70132493972778,-5.26817512512207,-1.34337496757507,-0.59455001354218,1.65948748588562,1.32316243648529,0.34905001521111,-17.2699508666992,-33.5400009155273,-4.93005037307739,3.61200022697449,17.2879505157471,4.29467487335205,7.27457475662232,7.29368734359741,-26.9730014801025,-5.03400039672852,15.9360008239746,0.23375000059605,1.61617493629456,1.4363249540329,-0.06875000149012,-0.50833749771118,-1.08721244335175,44.8870506286621,37.873950958252,24.2490005493164,5.72700023651123,-1.3090500831604,-3.22695016860962,-7.64678764343262,-7.63070011138916,0.80519998073578,3.37095022201538,-13.8100509643555,-38.5480499267578,SHAKE
2.61758756637573,2.32925009727478,-1.79464995861053,-1.57574999332428,-1.7800749540329,-0.20927499234676,-22.9219512939453,-11.5530004501343,21.4080009460449,0.68295001983643,-3.95505023002625,3.93495011329651,5.328125,1.04252505302429,-2.55131244659424,34.0180511474609,28.9759521484375,21.7480506896973,1.69069993495941,-0.90172499418259,-3.42814993858337,-1.75133752822876,-1.00429999828339,0.99852502346039,24.8089504241943,9.35700035095215,-7.69005060195923,-6.4150505065918,-2.56095004081726,4.51005029678345,-7.94997501373291,-6.05893754959106,4.99179983139038,-9.6709508895874,-35.7460517883301,-23.7150020599365,2.27177500724792,-0.10463749617338,-2.14046239852905,-1.69592499732971,-0.99151247739792,-0.0954250022769,-16.3510513305664,-4.19099998474121,12.2740507125854,-5.2819504737854,-2.47995018959045,3.21000003814697,3.25709986686707,-1.19872498512268,-6.26752519607544,36.0060005187988,25.3600521087646,13.701000213623,-2.08298754692078,-4.14974975585938,-3.71332502365112,-0.95534998178482,1.17521250247955,2.77048754692078,-0.29205000400543,-19.8160514831543,-36.6240005493164,-0.75300002098083,7.60005044937134,14.6460008621216,-1.89791250228882,4.17656230926514,8.05777454376221,-45.4450531005859,-26.427001953125,5.69205045700073,-1.84786248207092,0.49665001034737,3.01661252975464,0.24089999496937,-0.01979999989271,-1.52569997310638,15.4230003356934,48.7590026855469,41.110050201416,1.10895001888275,8.99400043487549,-2.12100005149841,-4.87973737716675,-6.90291261672974,-8.07881259918213,19.0470008850098,14.367000579834,4.39394998550415,SHAKE
3.10186243057251,0.96057498455048,-2.08298754692078,-0.49348750710487,-1.94177496433258,-0.95534998178482,42.0649528503418,15.6049509048462,-0.29205000400543,-1.3330500125885,-8.31900024414063,-0.75300002098083,-7.95959997177124,-7.04756259918213,-1.89791250228882,-3.27900004386902,-32.2540512084961,-45.4450531005859,2.94112491607666,0.81166249513626,-1.84786248207092,-1.13300001621246,-1.09793746471405,0.24089999496937,-30.0210018157959,-4.51395034790039,15.4230003356934,2.90295004844666,-4.79595041275024,1.10895001888275,2.13647508621216,-2.02565002441406,-4.87973737716675,33.3690032958984,23.1400508880615,19.0470008850098,-0.1727000027895,-3.79101252555847,-5.5427622795105,-1.73854994773865,0.89856249094009,3.56977486610413,10.1710500717163,-10.5739507675171,-33.3240013122559,-6.63795042037964,0.91500002145767,10.1860504150391,-4.65093755722046,2.03115010261536,6.09647512435913,-46.2670516967773,-33.6670532226563,-10.4659509658813,2.49947500228882,-0.52071249485016,-2.16383743286133,-1.08088743686676,-0.01883750036359,0.18452499806881,-4.69605016708374,12.2260503768921,30.6220512390137,-7.57905054092407,-5.04300022125244,4.50495004653931,3.03256249427795,-0.63896250724792,-3.6984748840332,28.7059516906738,23.7169513702393,17.8440017700195,2.10045003890991,-0.38664999604225,-3.34303736686707,-1.73222494125366,-0.9147874712944,1.55086255073547,16.594051361084,2.22405004501343,-18.7339515686035,-4.63305044174194,-2.80800008773804,0.24195000529289,-7.61805009841919,-2.15118741989136,4.42667484283447,-33.2239532470703,-47.4310531616211,-23.4420013427734,SHAKE
0.03588749840856,1.6608624458313,2.39304995536804,0.00893750041723,0.53143751621246,-0.3060750067234,40.5780029296875,38.485050201416,29.7259521484375,8.20995044708252,0.50805002450943,-4.90395021438599,-6.67081260681152,-7.00081253051758,-3.6654748916626,4.95705032348633,-2.53605008125305,-44.5470008850098,0.23058749735355,1.63432502746582,1.51607501506805,0.01319999992847,-0.9978374838829,-1.14372503757477,-31.3579521179199,-20.3569507598877,-6.77295017242432,10.6800003051758,5.10405015945435,0.00495000043884,7.94392490386963,2.70806241035461,-1.82338750362396,12.3019504547119,36.4470024108887,24.7230014801025,-0.46007499098778,-2.88227486610413,-4.21038770675659,-1.27352499961853,0.20679999887943,2.79290008544922,10.4920501708984,-5.49600028991699,-23.3850002288818,-5.51700019836426,2.08395004272461,8.08095073699951,-0.71761250495911,5.44307518005371,7.65118741989136,-46.3150520324707,-20.7580509185791,-1.53705012798309,-0.53143751621246,0.25189998745918,2.16631245613098,-1.9045125246048,-1.48211252689362,-0.92014998197556,22.1170501708984,43.1740531921387,46.2469520568848,3.29400014877319,8.91195011138916,2.31195020675659,-2.88433742523193,-5.247962474823,-6.61237478256226,20.5440006256104,13.5910511016846,9.60300064086914,-4.38171243667603,-3.95284986495972,0.42432498931885,1.87756252288818,4.18371248245239,2.01176238059998,-13.1940002441406,-30.3330020904541,-30.4639511108398,9.44400024414062,12.9379510879517,-0.87495005130768,6.53592491149902,7.69491243362427,8.4365873336792,-11.7589502334595,-1.60695004463196,9.5580005645752,SHAKE
0.96593749523163,1.03193747997284,1.14578747749329,-0.79997497797012,-2.02056241035461,-1.98123753070831,-20.484001159668,-9.61305046081543,4.546950340271,-0.47805002331734,1.89000010490417,4.60395002365112,8.01624965667725,4.69589996337891,0.3060750067234,28.476001739502,37.6110000610351,28.090051651001,3.26246237754822,-0.27073749899864,-3.95491242408752,-1.14358747005463,-1.6608624458313,-0.8233500123024,32.5639533996582,20.0910015106201,3.74295020103455,-19.8679504394531,-15.5730009078979,-4.47495031356812,-8.8929500579834,-4.7647876739502,7.07121229171753,-22.3999519348145,-45.2539520263672,-13.3189506530762,1.82256245613098,-1.02726244926453,-1.9713374376297,-2.26421236991882,-0.79887497425079,0.80272501707077,-8.76300048828125,9.02400016784668,32.6700019836426,-5.91405010223389,1.64595007896423,7.53495025634766,4.09364986419678,-3.78688740730286,-6.08547496795654,37.7130012512207,19.9590015411377,15.1120510101318,-3.09828758239746,-3.86347508430481,-2.57262492179871,0.25464999675751,1.67007493972778,2.49493741989136,-0.93405002355576,-19.9480514526367,-36.3940505981445,4.66800022125244,10.8829507827759,13.5300006866455,-1.64133751392365,4.94064998626709,8.0247745513916,-45.8479537963867,-25.7250003814697,7.22505044937134,-0.62713748216629,-0.31542500853539,1.75766253471375,-0.53597497940063,-0.16142499446869,-0.17517499625683,17.5480499267578,37.6609535217285,37.3879508972168,3.49005007743835,7.49700021743774,-4.40805006027222,-4.16033744812012,-6.22819995880127,-7.34978723526001,18.2160015106201,12.8989505767822,5.96805047988892,SHAKE
-2.68001246452332,-3.64636254310608,-2.59489989280701,0.32601249217987,2.0787250995636,2.73322486877441,-3.19905018806458,-21.5430011749268,-38.4229507446289,3.88305020332336,8.85000038146973,10.4020500183105,-0.48358750343323,6.55407476425171,8.8070125579834,-49.021053314209,-20.4750003814697,4.62405014038086,0.49348750710487,-0.96882498264313,-0.41964998841286,-1.40868747234344,-0.69671249389648,0.24516250193119,1.37895011901855,20.7430515289307,42.8920516967773,-1.82400012016296,5.04195022583008,12.6940507888794,0.9147874712944,-2.83442497253418,-5.19048738479614,32.6029510498047,20.7280502319336,18.4930515289307,-1.54879999160767,-3.80270004272461,-4.18797492980957,-1.28301250934601,0.66866248846054,2.6140124797821,8.49000072479248,-8.89995002746582,-31.2090015411377,-0.78900003433228,6.09105014801025,12.8230504989624,-5.73540019989014,1.92898750305176,7.55754995346069,-49.1670036315918,-42.7800025939941,-11.4070501327515,1.98329997062683,0.54670000076294,-0.64735001325607,-1.62153744697571,-0.79667496681213,0.81771248579025,-9.05505084991455,5.72595024108887,27.0510005950928,0.07695000618696,2.27295017242432,6.59595012664795,4.30856227874756,0.07411249727011,-3.00464987754822,35.6800498962402,27.1489505767822,21.6640510559082,-1.85308754444122,-3.96989989280701,-4.10822486877441,-0.6210874915123,1.16572499275208,2.47362494468689,5.21295022964478,-11.5750503540039,-29.3389511108398,-3.28500008583069,3.84705018997192,10.3849506378174,1.84387493133545,7.0691499710083,8.27694988250732,-39.6490516662598,-12.928050994873,3.97200012207031,SHAKE
-1.85308754444122,-3.96989989280701,-4.10822486877441,-0.6210874915123,1.16572499275208,2.47362494468689,5.21295022964478,-11.5750503540039,-29.3389511108398,-3.28500008583069,3.84705018997192,10.3849506378174,1.84387493133545,7.0691499710083,8.27694988250732,-39.6490516662598,-12.928050994873,3.97200012207031,0.20295000076294,-0.49197500944138,0.33481249213219,-1.25537502765656,-0.29122498631477,-0.02089999988675,8.39595031738281,26.9550018310547,41.5459518432617,1.01595008373261,4.09800004959106,4.01700019836426,0.10601250082254,-3.18656253814697,-5.39907503128052,27.5370006561279,19.4680500030518,14.8270511627197,-2.47252488136292,-3.96233749389648,-3.79637503623962,-0.34869998693466,1.47111248970032,2.67368745803833,5.3929500579834,-10.7700004577637,-27.7939510345459,1.03005003929138,6.19095039367676,10.9819507598877,-4.59456253051758,1.88113749027252,6.95103740692139,-42.8040008544922,-38.3749504089355,-14.4060010910034,1.4192750453949,0.3965499997139,0.12526249885559,-1.26610004901886,-1.12021243572235,-0.49774998426437,-8.8609504699707,5.56005048751831,22.7590503692627,-1.39305007457733,2.39100003242493,5.80305004119873,5.23118734359741,1.87687504291534,-1.36895000934601,30.7699508666992,28.3420505523682,18.5149517059326,3.70411252975464,1.27778744697571,-1.42326247692108,-2.84212493896484,-2.62611246109009,-1.22141253948212,20.4100513458252,12.5970001220703,2.14500021934509,-9.77805042266846,-5.04705047607422,-2.84895014762878,-6.91033744812012,-6.69955015182495,-2.30972504615784,-4.9699501991272,-28.5700511932373,-43.066951751709,SHAKE
-4.08691263198853,-5.51292514801025,-4.47741270065308,0.51328748464584,2.16919994354248,2.75137495994568,-14.1690006256104,-28.6180515289307,-29.7100505828857,1.07805001735687,8.42400074005127,12.2149505615234,3.99574995040894,7.48838758468628,7.30757474899292,-27.8970012664795,-2.30595016479492,9.57900047302246,0.80423748493195,-0.14300000667572,0.57969999313354,-0.91162496805191,0.67938750982285,0.72187501192093,17.5090503692627,34.5910530090332,42.3670501708984,-0.13305000960827,1.42500007152557,-2.09895014762878,-2.21718740463257,-4.42433738708496,-6.37711238861084,21.1399517059326,17.5519504547119,14.5800008773804,-2.86728739738464,-2.60342502593994,-1.41143751144409,-0.17627499997616,0.70386248826981,1.34337496757507,-4.23195028305054,-21.586051940918,-33.7909507751465,8.84805011749268,12.4540510177612,11.2690505981445,-0.69849997758865,5.20148754119873,7.78634977340698,-42.1740036010742,-22.4869518280029,0.4420500099659,-0.49527499079704,-0.39311251044273,1.29373753070831,-0.7627124786377,-0.73713749647141,-0.47643750905991,4.389000415802,22.1920509338379,37.9099502563477,2.5729501247406,9.51300048828125,9.06300067901611,1.3000625371933,-2.142662525177,-4.55840015411377,28.6080017089844,19.851001739502,15.0349502563477,-2.14046239852905,-2.91197490692139,-1.80097496509552,0.07053750008345,1.28810000419617,1.99787497520447,7.34700012207031,-9.73605060577393,-26.484001159668,3.04695010185242,10.4020500183105,11.6760005950928,-3.60703754425049,1.95662498474121,5.91552495956421,-39.6540031433105,-32.449951171875,-11.8219509124756,SHAKE
-2.36816239356995,-0.16527499258518,2.68248748779297,0.04606249928474,-0.26248750090599,-1.32563745975494,22.2940502166748,38.284049987793,41.9070014953613,10.3110008239746,12.0979509353638,1.72695004940033,-2.02771258354187,-4.1975998878479,-6.08121252059937,19.4110507965088,16.6489505767822,11.428050994873,-2.61731243133545,-1.30404996871948,1.06177496910095,1.12419998645782,1.39658749103546,1.12310004234314,-4.18095016479492,-19.5859508514404,-33.4680023193359,10.7899503707886,13.9849510192871,7.60005044937134,-1.0954624414444,4.69589996337891,7.64596223831177,-42.8560523986816,-25.6840515136719,-0.99600005149841,-1.86271250247955,-2.00007510185242,-0.44838750362396,-0.4657124876976,-0.54986250400543,-0.50297498703003,-1.67895007133484,13.735050201416,35.9170532226563,2.00999999046326,8.79705047607422,15.1009502410889,2.90592503547669,-1.17741250991821,-3.64003753662109,36.2089500427246,22.957950592041,18.2080516815186,-0.78044998645782,-2.19793748855591,-2.05314993858337,-0.75625002384186,0.21848750114441,1.05820000171661,16.7160015106201,1.37595009803772,-13.2829504013062,-0.73605000972748,6.62700033187866,13.6930503845215,-7.11136245727539,-3.83899998664856,1.90024995803833,-20.2620010375977,-40.0729522705078,-36.586051940918,-0.14300000667572,-1.12419998645782,-1.71159994602203,0.34732499718666,-0.07411249727011,-0.35296249389648,-19.9669513702393,-7.64505052566528,4.32705020904541,-3.37305021286011,-0.42705002427101,2.28795003890991,6.83292484283447,5.35370016098022,1.75450003147125,20.1840000152588,34.7050514221191,29.041051864624,SHAKE
-0.29837501049042,1.05421245098114,0.93610000610352,1.43274998664856,1.41047501564026,0.75803750753403,-28.5340518951416,-35.2420501708984,-30.502950668335,11.0100002288818,1.1620500087738,-3.64395022392273,6.57744979858398,7.75238752365112,7.07877492904663,-12.3679504394531,5.72595024108887,10.3579502105713,-1.72864997386932,0.50943750143051,3.44767498970032,-0.34443750977516,-0.51892501115799,-1.0456874370575,21.5190010070801,39.1360511779785,42.669002532959,10.0590000152588,11.5780506134033,-1.93605005741119,-1.19556248188019,-3.43035006523132,-5.66623735427856,20.8879508972168,19.7320518493652,16.1730003356934,-2.71933746337891,-3.16002488136292,-1.94782495498657,-0.81592500209808,0.2759625017643,1.05077505111694,-0.04995000362396,-16.1449508666992,-32.4979515075684,4.88895034790039,12.2290506362915,14.8230009078979,-3.05676245689392,3.71153736114502,7.7268123626709,-47.146053314209,-33.612003326416,-6.85005044937134,0.26894998550415,-1.06988751888275,-1.36468744277954,0.09184999763966,0.67512500286102,1.01034998893738,-5.05605030059814,9.83805084228516,30.013952255249,-0.99000006914139,0.27600002288818,7.84200048446655,3.82964992523193,0.17737500369549,-2.74931240081787,36.2239532470703,27.8080520629883,22.4550018310547,-0.97624999284744,-3.08866238594055,-3.20044994354248,-1.29373753070831,0.10037499666214,1.15719997882843,20.2279510498047,4.3289999961853,-9.89100074768066,-4.83900022506714,5.50695037841797,11.7930002212524,-7.207200050354,-4.74251270294189,-0.11219999939203,-16.6210498809814,-33.7339515686035,-36.7849502563477,SHAKE
-0.26537498831749,2.14183759689331,3.24224996566772,-0.80423748493195,-0.98188751935959,-1.35217499732971,30.984001159668,45.4159507751465,42.2520027160645,9.61200046539307,3.04005002975464,-13.267050743103,-3.58778738975525,-5.73759984970093,-7.45305013656616,20.0809516906738,16.6849498748779,9.32100009918213,-3.61019992828369,-1.49448752403259,1.5054874420166,1.34873747825623,1.36358749866486,1.09119999408722,-8.20305061340332,-18.8629512786865,-30.2419509887695,12.6270008087158,16.4920501708984,9.40305042266846,-1.82022500038147,3.56688737869263,7.0691499710083,-40.9669532775879,-30.0190505981445,-4.72995042800903,-1.92334997653961,-2.19367504119873,-1.23915004730225,-1.25963747501373,-1.06067502498627,-0.74566251039505,-4.85700035095215,8.25705051422119,30.7249507904053,1.84500002861023,7.01805019378662,13.2520503997803,4.30856227874756,-0.45265001058578,-3.34523749351501,38.7310523986816,24.8040008544922,17.3490009307861,-0.51754999160767,-2.25541257858276,-2.65237498283386,-0.90736252069473,-0.06132499873638,0.91245001554489,19.5349502563477,4.33905029296875,-8.24100017547607,-1.74705004692078,5.28105020523071,11.7120008468628,-7.14010000228882,-5.36401224136353,-1.50727498531342,-9.69495010375977,-26.1529521942139,-37.8150024414063,0.98188751935959,-0.85593748092651,-1.51263749599457,0.64528751373291,-0.24543750286102,-0.72861248254776,-25.8589515686035,-16.2480010986328,-5.35695028305054,-8.8840503692627,-2.5969500541687,3.5350501537323,7.23937511444092,5.38986253738403,0.7041375041008,20.2390518188477,37.5510025024414,30.4369506835938,SHAKE
-0.85593748092651,-1.51263749599457,-0.64212501049042,-0.24543750286102,-0.72861248254776,-0.42322498559952,-16.2480010986328,-5.35695028305054,25.3270511627197,-2.5969500541687,3.5350501537323,11.5540504455566,5.38986253738403,0.7041375041008,-2.88969993591309,37.5510025024414,30.4369506835938,18.2419509887695,0.8595125079155,-1.7881875038147,-3.40257501602173,-1.4884375333786,-0.86487501859665,0.26427498459816,23.6760005950928,8.47005081176758,-7.90305042266846,-9.97605037689209,-1.70100009441376,6.04995012283325,-7.58078765869141,0.12416250258684,6.3326997756958,-11.1220502853394,-44.3359527587891,-19.3999500274658,0.8094624876976,-0.14300000667572,-1.50191247463226,-1.36496245861053,-1.22553753852844,0.46653750538826,-13.6710004806519,-2.61795020103455,36.3870010375977,-2.18295001983643,-1.34700012207031,7.85400056838989,3.07408738136292,-1.17534995079041,-3.78784990310669,37.1820030212402,24.6060009002686,17.7610511779785,-0.55907499790192,-2.25005006790161,-2.71301245689392,-1.2138500213623,0.00673749996349,1.40511250495911,17.8330516815186,4.24995040893555,-7.06500053405762,-0.74595004320145,5.70105028152466,9.80805015563965,-7.21682500839233,-5.93766260147095,-2.28951239585876,-7.18005037307739,-23.9239501953125,-40.5910530090332,1.30748748779297,-1.26995003223419,-1.61906254291534,0.19401249289513,-0.99041247367859,-0.85525000095367,-27.1710014343262,-5.86800050735474,4.53495025634766,-8.92500019073486,1.35405004024506,4.02195024490356,6.97661256790161,5.22692489624023,-2.28731250762939,20.4430503845215,34.0039520263672,19.9260005950928,SHAKE
-0.27706250548363,-1.16778755187988,-2.40872502326965,-0.37523749470711,-0.84988749027252,-0.75625002384186,-11.7139501571655,-0.76905006170273,8.47500038146973,-2.35304999351501,-1.43100011348724,2.25600004196167,4.30113744735718,0.64240002632141,-2.13097500801086,30.0780010223389,23.4340515136719,16.9990501403809,-0.66756248474121,-1.93297493457794,-1.54247498512268,-0.8925125002861,0.19511249661446,0.88151252269745,11.8999509811401,-1.70700013637543,-15.07200050354,2.07000017166138,8.87205028533936,13.9660511016846,-6.51763725280762,2.38232493400574,6.91157484054565,-18.7650012969971,-34.9669532775879,-8.81805038452148,-1.12199997901917,-1.58290004730225,-0.27912500500679,-0.79887497425079,-0.64886248111725,-0.50943750143051,-8.38905048370361,1.41705012321472,39.5700035095215,0.77595001459122,1.6270500421524,11.752950668335,2.20247507095337,-1.2997875213623,-5.6438250541687,30.3010520935059,21.3529510498047,12.3379507064819,-2.09371256828308,-2.27672505378723,-1.06136250495911,-0.03258749842644,0.84218752384186,1.3860000371933,1.5130500793457,-11.4100503921509,-25.5190505981445,5.13000011444092,10.9980001449585,10.5859508514404,1.2639000415802,6.18475008010864,7.53417491912842,-37.6969528198242,-13.5940504074097,3.64395022392273,-0.75487500429153,0.7871875166893,2.65374994277954,-0.88192498683929,-0.99577498435974,-1.191575050354,21.9949512481689,40.5229530334473,44.452953338623,6.54600048065186,7.53495025634766,-0.64800000190735,-1.74033749103546,-5.71312475204468,-6.77613735198975,19.5880508422852,11.6389503479004,5.75700044631958,SHAKE
-0.30579999089241,-0.63043749332428,-0.75487500429153,-0.08579999953508,-1.1255749464035,-0.88192498683929,-21.2479515075684,-8.86605072021484,21.9949512481689,-2.80800008773804,0.79305005073547,6.54600048065186,5.41956233978271,1.51291251182556,-1.74033749103546,33.5080528259277,28.6720504760742,19.5880508422852,-1.45406246185303,-2.82906246185303,-1.25716245174408,-0.8094624876976,0.14079999923706,1.10398745536804,13.7490005493164,0.75600004196167,-25.8130512237549,-0.99000006914139,5.48700046539307,12.3610506057739,-3.90610003471375,1.87893748283386,6.79772520065308,-38.2699508666992,-36.9480018615723,-10.3180503845215,0.0283249989152,-0.97404998540878,-0.65587496757507,-1.02231252193451,-0.86583751440048,0.31116250157356,-6.37005043029785,18.6829509735107,40.8319511413574,-0.64305001497269,3.85605025291443,7.15905046463013,1.37664997577667,-4.56692504882813,-6.34631252288818,34.1430015563965,16.5250511169434,14.5150508880615,-2.4256374835968,-2.98539996147156,-0.06531249731779,-0.1379124969244,1.19542503356934,1.84249997138977,-1.03694999217987,-14.623950958252,-37.2139511108398,5.02800035476685,10.1580009460449,8.6220006942749,2.60163760185242,7.52675008773804,8.14604949951172,-36.529052734375,-8.01600074768066,7.25595045089722,-1.04431247711182,-0.47286251187325,1.2809499502182,0.08662500232458,0.49623748660088,-0.12099999934435,22.1359519958496,39.4159507751465,43.2559509277344,2.85495018959045,5.46300029754639,1.300950050354,-3.76873755455017,-5.4661750793457,-6.51433753967285,14.8699502944946,11.3059501647949,6.20895051956177,SHAKE
1.38737499713898,1.48211252689362,0.9286749958992,1.07951247692108,0.02158750034869,-0.73067498207092,-32.2819519042969,-19.7779502868652,-6.79200029373169,1.05195009708405,-2.73105001449585,-2.40300011634827,6.9850001335144,4.93858766555786,1.37032496929169,20.3929500579834,30.5500507354736,25.2589511871338,1.59280002117157,-0.36643749475479,-2.11378741264343,-1.56722497940063,-1.12131249904633,-0.12306249886751,26.9820003509521,14.5969505310059,1.31895005702972,-5.79195022583008,-1.87200009822845,3.81300020217896,-6.966712474823,-6.50168752670288,2.22598743438721,-2.28000020980835,-19.0330505371094,-35.5540504455566,0.50407499074936,-1.31243753433228,-1.7158625125885,0.17379999160767,-0.82225000858307,-0.69781249761581,-19.9410018920898,8.26905059814453,26.4469509124756,-2.382000207901,-0.30000001192093,6.14595031738281,4.53626251220703,-2.69280004501343,-4.75956249237061,33.7830009460449,18.4650001525879,14.8170003890991,-0.95273751020432,-1.68712496757507,-0.9315624833107,0.12278749793768,1.04651248455048,1.48389995098114,8.89200019836426,-4.14105033874512,-17.0359516143799,4.0339503288269,9.19695091247559,12.8860502243042,-5.70666265487671,-1.88622498512268,3.82964992523193,-24.9940509796143,-39.5989532470703,-28.3330516815186,0.07315000146627,-1.31353747844696,-1.83603751659393,0.70166248083115,0.518649995327,-0.36148750782013,-15.8479509353638,-3.15405011177063,9.68205070495606,-4.54200029373169,-2.53695011138916,3.18300008773804,6.24758768081665,4.24160003662109,-2.35014986991882,22.5100517272949,33.2730026245117,17.5830001831055,SHAKE
-1.2167375087738,0.40081250667572,-0.67402499914169,0.97624999284744,0.76023751497269,0.32174998521805,-25.336950302124,-30.1669521331787,-7.81905031204224,9.98295021057129,-0.2119500041008,-2.13000011444092,6.8998875617981,5.13438749313354,-2.73116254806519,10.7770509719849,36.316951751709,20.2129516601563,-0.26853749155998,-2.28841257095337,-1.55828750133514,-0.50407499074936,1.44773745536804,2.04572510719299,25.0369510650635,-2.77800011634827,-15.4069509506226,-3.55305027961731,8.85000038146973,9.99000072479248,-6.6782374382019,-3.28556251525879,7.75238752365112,-21.7080001831055,-42.6910514831543,-7.69995021820068,-1.12626254558563,-0.94435000419617,-0.59839999675751,-0.97226250171661,-1.40332496166229,-1.35547494888306,-7.09095048904419,5.48895025253296,24.9769515991211,0.78405004739761,3.18300008773804,8.34000015258789,5.29512500762939,0.98505002260208,-2.17140007019043,38.4540023803711,30.4830017089844,20.826000213623,1.208624958992,-0.69423747062683,-1.91482496261597,-0.83819997310638,-0.16994999349117,0.89429998397827,26.0950508117676,11.5120506286621,-2.10495018959045,-4.79295015335083,0.81495004892349,5.62395048141479,-7.68817472457886,-6.94539976119995,-3.86553740501404,-3.43005013465881,-19.2439517974854,-39.5200500488281,0.87546247243881,-0.28874999284744,-1.25826251506805,0.73039996623993,0.24722500145435,-0.31253749132156,-31.3960514068604,-20.8000507354736,-8.15700054168701,-6.82905054092407,-6.42705011367798,-3.2989501953125,7.0723123550415,6.87761259078979,5.96337509155273,10.7959508895874,16.7860507965088,33.0529518127441,SHAKE
-0.91025000810623,-1.55732500553131,-0.92083752155304,0.70798748731613,0.0662750005722,-2.06634998321533,-25.9380016326904,-13.0090503692627,17.3490009307861,-5.50995016098022,-1.2150000333786,5.97600030899048,6.09963750839233,1.74707496166229,-2.48957490921021,36.3360023498535,37.4790000915527,23.0820007324219,-0.26853749155998,-0.69629997014999,-0.60266250371933,0.44302499294281,0.47176250815392,0.46227499842644,13.7989501953125,1.10295009613037,-9.40995025634766,0.30900001525879,3.1279501914978,7.86105060577393,-5.57796239852905,-0.71238750219345,5.84100008010864,-31.5090007781982,-44.9089508056641,-24.517951965332,-0.89319998025894,-0.38664999604225,0.16348749399185,-0.98505002260208,-1.60132503509521,-1.49063754081726,-2.60805010795593,13.1140508651733,35.1580505371094,2.01900005340576,3.01095008850098,8.37600040435791,3.87543749809265,-0.72517502307892,-3.65694999694824,40.5919532775879,27.4270515441895,19.3170013427734,-0.70908749103546,-2.30326247215271,-2.5778501033783,-0.59345000982285,0.13557499647141,0.75281250476837,18.7330513000488,2.92605018615723,-10.3249502182007,-4.15904998779297,2.83395004272461,10.9140005111694,-7.6243748664856,-0.25148749351501,6.35085010528564,-11.5530004501343,-45.8209533691406,-21.2959518432617,-0.20253749191761,-0.51122498512268,0.07837499678135,-0.7871875166893,-0.68818747997284,-0.76903748512268,3.15300011634827,21.8250007629395,43.9410018920898,-2.07795000076294,-0.08700000494719,5.44200038909912,1.00100004673004,-5.61412477493286,-7.42005014419556,35.6940002441406,18.2560501098633,11.2939500808716,SHAKE
-0.09075000137091,-0.64102500677109,-0.91451251506805,2.04572510719299,0.59317499399185,-2.07267498970032,-35.0920524597168,-28.8619518280029,-5.90100049972534,-6.70695018768311,-10.7689504623413,-1.38795006275177,7.45758724212646,7.45965003967285,1.21274995803833,10.9200000762939,23.9209518432617,30.3900012969971,0.73397499322891,0.16348749399185,-0.31322500109673,-0.36891248822212,-0.10601250082254,0.81124997138977,26.6080513000488,11.0400009155273,-14.2480506896973,4.36199998855591,6.46905040740967,10.3440008163452,-6.73997497558594,-4.68393754959106,0.42102500796318,-14.0539503097534,-34.6150512695313,-41.8380012512207,-1.06878745555878,-0.98257499933243,-1.05283749103546,-0.77123749256134,-1.47468745708466,-1.56186246871948,-10.7080507278442,1.932000041008,20.0170516967773,-2.24505019187927,0.60405004024506,6.99600028991699,1.47138750553131,-5.36401224136353,-6.96024990081787,36.8110504150391,15.4489507675171,10.5709505081177,-2.6640625,-2.47994995117188,1.35657501220703,0.32284998893738,0.87835001945496,0.94435000419617,-5.44095039367676,-17.2750511169434,-33.75,4.84305000305176,12.4710006713867,3.63105010986328,3.08054995536804,7.49911260604858,8.52073764801025,-33.4890022277832,-8.7940502166748,10.4149503707886,-1.47853744029999,0.80423748493195,3.77863740921021,0.90708750486374,0.08758749812841,-2.07913756370544,24.4909515380859,42.928050994873,36.9760513305664,8.37795066833496,10.2100505828857,-16.8499507904053,-4.5903000831604,-7.62327480316162,-7.550950050354,17.9620513916016,3.8620502948761,-5.62800025939941,SHAKE
1.46726250648499,-0.97404998540878,-2.6640625,-1.02341246604919,-0.54449999332428,0.32284998893738,23.6479511260986,8.57295036315918,-5.44095039367676,-9.68895053863525,-3.69900012016296,4.84305000305176,-7.45841264724732,-2.32993745803833,3.08054995536804,-8.09700012207031,-38.3970031738281,-33.4890022277832,0.11879999935627,-0.97831249237061,-1.47853744029999,-0.05183750018477,-0.21353749930859,0.90708750486374,-19.2769508361816,-6.27705049514771,24.4909515380859,-4.11794996261597,1.56405007839203,8.37795066833496,5.50687503814697,-2.19161248207092,-4.5903000831604,35.4889526367188,21.6499519348145,17.9620513916016,-3.86443758010864,-3.28239989280701,-1.0060875415802,0.27390000224113,0.62933748960495,0.62617498636246,-5.14200019836426,-18.7459506988525,-33.3100509643555,6.45300006866455,15.2659511566162,15.0910511016846,-2.78863739967346,3.74673748016357,8.30788707733154,-43.7860527038574,-34.0549507141113,-2.50500011444092,-1.62112498283386,-1.6275874376297,1.92059993743896,-0.16458749771118,0.23347499966621,-1.73854994773865,9.23400020599365,28.3200016021729,46.2090034484863,0.8890500664711,5.8609504699707,-1.15995001792908,-2.65127491950989,-6.63464975357056,-7.16677474975586,20.1030006408691,8.92995071411133,0.34605002403259,-0.80698752403259,1.43948745727539,1.99182498455048,0.62933748960495,0.29411250352859,0.92839998006821,-14.3440504074097,-26.2440013885498,-34.5430526733398,17.0550003051758,12.0570001602173,-0.01995000056922,6.77118730545044,7.66617488861084,7.11700010299683,-9.67800045013428,7.66305017471313,11.5980005264282,SHAKE
-1.09326255321503,-0.23017500340939,-0.56223750114441,1.69991254806519,-0.43491250276566,-0.33054998517036,-24.7330513000488,1.27305006980896,12.5059509277344,0.52500003576279,-0.87795001268387,-1.58895003795624,2.73679995536804,-1.1583000421524,-3.14613747596741,33.6679534912109,20.2230014801025,15.2290506362915,-0.174899995327,-0.862399995327,-1.09119999408722,-1.46616244316101,-0.74566251039505,0.01209999993443,19.7629508972168,6.13800048828125,-7.13205051422119,3.95505023002625,7.99695014953613,11.4270009994507,-4.13269996643066,0.09322500228882,5.09712505340576,-29.6599521636963,-36.2530517578125,-17.2900505065918,-1.49874997138977,-1.15706253051758,0.55192500352859,0.83366250991821,-0.44879999756813,-1.37252497673035,-8.52405071258545,2.95005011558533,40.0080032348633,-3.08805012702942,-2.5639500617981,7.93005037307739,2.01093745231628,-1.57011246681213,-5.51718759536743,31.3570518493652,19.1659507751465,9.0329999923706,-0.17599999904633,0.71898752450943,1.04156243801117,-0.30181249976158,-0.24227499961853,0.19621250033379,0.40605002641678,-10.0540504455566,-20.3860511779785,11.5590009689331,10.7280006408691,3.84405016899109,-3.81136250495911,4.98327493667603,7.45332479476929,-28.1530513763428,-18.5560512542725,4.50705003738403,-1.36358749866486,1.40978753566742,2.68042492866516,-1.58207499980927,-2.19931244850159,-1.53202497959137,4.22595024108887,41.3419532775879,46.2610511779785,4.41000032424927,9.46305084228516,3.79200029373169,-1.43701243400574,-3.76873755455017,-6.36006259918213,21.166051864624,15.1090507507324,0.41805002093315,SHAKE
-0.06531249731779,1.24258744716644,0.19332499802113,0.2216500043869,0.02158750034869,1.10398745536804,-8.72700023651123,-19.8589515686035,-32.6629524230957,11.2740001678467,9.30300045013428,-6.77400016784668,4.40110015869141,7.09994983673096,6.36460018157959,-23.377950668335,9.48105049133301,28.9620018005371,1.1032999753952,1.11924993991852,-0.86982500553131,-0.97982501983643,-0.36891248822212,0.18878750503063,48.5460014343262,31.503002166748,3.20400023460388,7.03500032424927,-3.18195009231567,4.84305000305176,-6.66228723526001,-4.73605012893677,4.67994976043701,-1.30305004119873,-25.8570003509521,-25.8090019226074,-3.11423754692078,-0.55907499790192,1.01488745212555,0.98257499933243,-1.76618754863739,-2.22062492370605,-15.9000005722046,16.4910011291504,37.5990028381348,0.91005003452301,6.72300052642822,8.37795066833496,3.1411874294281,-1.30198752880096,-6.4707498550415,39.1669502258301,28.8810005187988,13.1209506988525,-2.3703625202179,-1.28053748607636,1.30968749523163,0.72723752260208,0.32807499170303,-0.41249999403954,-0.7540500164032,-13.3500003814697,-26.0100021362305,7.03200054168701,14.26305103302,14.1000003814697,-3.60167503356934,1.39906251430511,6.76472473144531,-33.4270515441895,-38.6220016479492,-15.3499507904053,-2.61511254310608,-0.8038250207901,0.30937498807907,0.39737498760223,-1.36606252193451,-1.15431249141693,-8.01600074768066,31.6810512542725,47.5789527893066,4.7590503692627,6.1080002784729,6.39495038986206,-3.55162501335144,-7.24336242675781,-7.34442472457886,21.2809505462646,5.93400049209595,-1.61700010299683,SHAKE
1.30968749523163,2.67726254463196,0.61902499198914,-0.41249999403954,0.04936249926686,1.15719997882843,-26.0100021362305,-34.4710502624512,-33.9679527282715,14.1000003814697,-0.99300003051758,-10.6609506607056,6.76472473144531,8.49942493438721,6.5668625831604,-15.3499507904053,9.51900005340576,27.6660003662109,0.30937498807907,0.2050125002861,-0.77082496881485,-1.15431249141693,-0.4657124876976,0.21958750486374,47.5789527893066,34.2379531860352,3.93195009231567,6.39495038986206,-1.57905006408691,11.0410509109497,-7.34442472457886,-5.25442504882813,-1.22952497005463,-1.61700010299683,-28.0000514984131,-42.6070518493652,-1.98082494735718,-1.11457502841949,-0.33343750238419,1.96487498283386,-0.42212501168251,-1.44911253452301,-28.7539520263672,-1.35105001926422,33.3400497436523,-1.63395011425018,0.57795000076294,8.18895053863525,3.62106251716614,-0.85387498140335,-5.5204873085022,40.0060501098633,26.8069515228271,15.2269506454468,-1.69028747081757,-0.07053750008345,0.01663750037551,-0.04853750020266,0.51754999160767,1.06246244907379,3.46500015258789,-20.2350006103516,-32.742000579834,6.75000047683716,11.0250005722046,-2.02005004882813,4.97695016860962,7.22342491149902,6.05068731307983,-22.9060516357422,10.7959508895874,31.8700523376465,0.48812499642372,0.02089999988675,-0.44412499666214,-0.85745000839233,-0.29122498631477,-0.09322500228882,47.4250526428223,28.4470520019531,14.2570505142212,3.49005007743835,0.87495005130768,3.62400007247925,-7.18162488937378,-7.45937490463257,-3.74646258354187,6.31005048751831,-2.24895000457764,-43.5289535522461,SHAKE
2.28236246109009,-0.38981249928474,-2.04792499542236,-1.48211252689362,-0.61366248130798,0.14822499454021,42.0289535522461,17.8330516815186,4.14000034332275,-0.91395002603531,-2.07300019264221,4.12200021743774,-7.11040019989014,-6.25047492980957,-3.21860003471375,-3.63105010986328,-19.1149501800537,-28.5870018005371,2.06524991989136,1.00966250896454,-1.72218751907349,0.15784999728203,0.0599500015378,0.69533747434616,-11.7619504928589,-6.80595016479492,-0.26595002412796,-3.10500025749207,-4.21605014801025,-0.44895002245903,5.67077493667603,5.09506225585938,0.78072500228882,7.83600044250488,16.4359512329102,27.2400016784668,-0.78251248598099,-3.4238874912262,-2.86412501335144,-0.83393746614456,0.47918748855591,1.89034998416901,23.5969505310059,12.3460502624512,-13.4359502792358,-9.00900077819824,1.399050116539,13.5490503311157,-3.58352494239807,3.57857489585876,8.53874969482422,-46.2859535217285,-35.7690010070801,-3.75495028495789,-0.11522500216961,0.8595125079155,2.62404990196228,-0.43491250276566,-0.53171247243881,-1.191575050354,12.3190507888794,30.9169521331787,41.0550003051758,3.13095021247864,4.5130500793457,-10.3789501190186,-2.99406242370605,-5.02878761291504,-6.57084989547729,19.7050514221191,15.528000831604,10.0750503540039,-3.0599250793457,-1.38063752651215,1.31284999847412,1.25936245918274,1.44347500801086,0.31116250157356,-23.3059501647949,-37.4670028686523,-26.1750011444092,13.0650005340576,11.9970006942749,0.73995006084442,8.96444988250732,8.18015003204346,7.44796228408813,4.71300029754639,12.2190008163452,19.6530017852783,SHAKE
-2.88227486610413,-3.0599250793457,-1.38063752651215,-0.25286251306534,1.25936245918274,1.44347500801086,6.58605051040649,-23.3059501647949,-37.4670028686523,2.44605016708374,13.0650005340576,11.9970006942749,6.60302495956421,8.96444988250732,8.18015003204346,-19.9530010223389,4.71300029754639,12.2190008163452,0.19978749752045,0.96057498455048,2.48132491111755,-0.66907501220703,-0.34333750605583,-0.82225000858307,16.7479515075684,35.9509506225586,44.7600021362305,2.49600005149841,2.54400014877319,-4.80300045013428,-1.48816251754761,-4.08691263198853,-6.04931259155273,26.0160007476807,19.5659999847412,14.568000793457,-3.52398753166199,-4.14645004272461,-3.35692501068115,-0.13695000112057,0.83572500944138,1.31889998912811,-0.83805006742477,-20.4030017852783,-40.5739517211914,3.13995003700256,8.03805065155029,15.6349506378174,0.45292499661446,8.8591251373291,7.83117485046387,-51.2220039367676,7.14600038528442,11.5020008087158,-0.20996250212193,-1.35396254062653,-0.27169999480247,1.06878745555878,1.83713746070862,0.29947498440742,19.3630504608154,36.8850021362305,40.2640533447266,-5.3730001449585,-2.21205019950867,-3.69405007362366,-4.01774978637695,-5.72907495498657,-6.85712480545044,18.8959503173828,13.1980504989624,-1.37700009346008,-1.46574997901917,0.24337500333786,1.30652499198914,1.25083744525909,0.9677249789238,0.28132501244545,-14.9160003662109,-19.4280014038086,-17.9380512237549,13.2979507446289,8.35200023651123,4.26405000686646,2.46853756904602,5.78146266937256,5.5547251701355,-19.9170017242432,0.06105000153184,5.41695022583008,SHAKE
-2.27246260643005,-2.69280004501343,-2.83964991569519,1.3391125202179,1.4190000295639,0.73672497272491,-9.82905006408691,-19.2919502258301,-25.1670017242432,-1.99605011940002,-3.2749502658844,1.87095010280609,4.3267126083374,9.14966201782227,10.2022247314453,-29.6479511260986,-5.41305017471313,13.6150503158569,0.57543748617172,2.85381245613098,3.47215008735657,-2.15778756141663,-2.09398746490479,-0.24021250009537,15.949951171875,33.9180030822754,44.4700508117676,12.9019508361816,7.86600017547607,-6.36705017089844,-1.29236245155334,-4.61367511749268,-7.02941226959229,30.9139518737793,22.9669513702393,20.0070018768311,-3.98364996910095,-4.41897487640381,-3.32282495498657,-0.31363749504089,1.20614993572235,2.83648753166199,-4.07595014572144,-24.9100513458252,-38.9329528808594,3.88500022888184,9.35805034637451,10.3800001144409,-2.65127491950989,4.53736257553101,8.43878746032715,-47.8140029907227,-29.1259517669678,-4.57695007324219,0.01457499992102,-0.40369999408722,-0.21848750114441,-1.05324995517731,-0.37743750214577,-0.09006249904633,19.5690002441406,36.4039535522461,45.8260536193848,-0.29295000433922,1.99995005130768,0.65895003080368,-5.39907503128052,-7.47106266021729,-8.30761241912842,20.3179512023926,12.4840507507324,0.57900005578995,0.55728751420975,2.37173748016357,0.56045001745224,2.31714987754822,-1.0202499628067,-1.1255749464035,-39.1369514465332,-24.7330513000488,-8.25795078277588,6.13905048370361,-7.74900054931641,-2.26200008392334,7.91408729553223,4.2670373916626,0.53061246871948,16.2450008392334,32.4300003051758,29.7450008392334,SHAKE
-0.40369999408722,-0.21848750114441,-1.22526252269745,-0.37743750214577,-0.09006249904633,0.18975000083447,36.4039535522461,45.8260536193848,26.9530506134033,1.99995005130768,0.65895003080368,-2.6620500087738,-7.47106266021729,-8.30761241912842,-4.81593751907349,12.4840507507324,0.57900005578995,-38.7580528259277,2.37173748016357,0.56045001745224,-0.23443749547005,-1.0202499628067,-1.1255749464035,-1.18305003643036,-24.7330513000488,-8.25795078277588,9.6540002822876,-7.74900054931641,-2.26200008392334,5.07105016708374,4.2670373916626,0.53061246871948,-5.13727474212646,32.4300003051758,29.7450008392334,15.5119504928589,-2.22667503356934,-3.65158748626709,-3.39625000953674,-0.55935001373291,0.66439998149872,1.60407495498657,6.39900016784668,-11.5920009613037,-30.553050994873,-0.3649500310421,6.54105043411255,11.5279502868652,-3.98475003242493,2.75481247901917,7.76723766326904,-43.8190536499023,-37.5150032043457,-8.50500011444092,-0.13969999551773,-1.39865005016327,-1.45612502098084,0.05032499879599,0.49623748660088,0.71871250867844,-1.15905010700226,16.185001373291,33.3259506225586,-1.5289500951767,1.47795009613037,5.76495027542114,2.5558500289917,-0.96566247940063,-3.88258743286133,32.2650032043457,26.0209503173828,20.2560005187988,-2.21182489395142,-3.30577492713928,-1.83603751659393,-0.47850000858307,0.65491247177124,0.9091500043869,14.368950843811,-1.44600009918213,-15.7950010299683,2.32800006866455,13.0560007095337,19.8910503387451,-6.05577516555786,2.98044991493225,6.78067493438721,-24.1609516143799,-30.5790023803711,-8.16405010223389,SHAKE
-3.5601499080658,-1.99567496776581,0.23168750107288,0.72833746671677,1.01131248474121,0.77082496881485,-16.7239513397217,-31.2139511108398,-32.8930511474609,13.7880010604858,15.2950506210327,11.0730009078979,4.41718769073486,7.21710014343262,6.84035015106201,-25.1950511932373,-1.3000500202179,7.33695030212402,0.03052499890327,0.23375000059605,1.4502124786377,-0.02406249940395,0.14932499825954,-0.42322498559952,17.32200050354,31.8840007781982,38.8800010681152,1.30995011329651,2.26605010032654,-3.0090000629425,-1.23378753662109,-3.59947490692139,-5.38532495498657,21.8110504150391,17.2360515594482,12.8320503234863,-3.39308738708496,-4.37428760528564,-4.36466264724731,0.48138749599457,1.81376254558563,2.73212504386902,-0.28200000524521,-17.7060012817383,-33.8730010986328,3.32205009460449,4.78305006027222,7.22895050048828,-1.32852494716644,4.76189994812012,7.36175012588501,-45.2130012512207,-23.7060012817383,7.13595056533813,1.63638746738434,1.98660004138947,2.35262489318848,-2.1898250579834,-0.41786250472069,-0.20391249656677,24.5700016021729,41.7300033569336,42.609001159668,7.19700050354004,3.17400026321411,-6.16095018386841,-2.74175000190735,-5.03841257095337,-6.64001226425171,21.0820503234863,16.8979511260986,9.97005081176758,-1.48596251010895,0.18053749203682,1.27242493629456,1.20504999160767,1.11677503585815,0.75803750753403,-27.9709510803223,-35.3190002441406,-28.7809505462646,13.4100008010864,9.68100070953369,2.91000008583069,6.74561262130737,7.07121229171753,6.68387508392334,-7.05795049667358,5.45505046844482,13.9500007629395,SHAKE
2.30999994277954,0.40411248803139,-2.07240009307861,-2.08119988441467,-1.472487449646,0.0844250023365,34.6549530029297,25.3549518585205,13.1770505905151,-5.72295045852661,-4.33095026016235,3.09195017814636,-6.41011238098145,-4.89252519607544,-0.46117499470711,-10.2510004043579,-30.457052230835,-37.6140022277832,0.6903874874115,0.52854996919632,-0.03973750025034,-1.04678750038147,-1.30652499198914,-0.57433748245239,-9.6040506362915,1.48905003070831,16.0699501037598,0.48900002241135,0.87900006771088,2.83800005912781,2.1929874420166,-0.767662525177,-3.12812495231628,26.0160007476807,20.7949504852295,16.2970504760742,-1.27957499027252,-1.91276252269745,-1.29016244411469,-0.43917500972748,0.9315624833107,1.28480005264282,16.0150508880615,-9.05295085906982,-23.4490509033203,3.30105018615723,10.0500001907349,7.3410005569458,-3.09718751907349,5.83893728256226,6.65939998626709,-37.7050514221191,-10.3920001983643,0.49005001783371,0.69987499713898,0.32642498612404,2.31756258010864,-1.88333749771118,-0.85841250419617,-0.96277499198914,5.5770001411438,23.4780006408691,38.7670516967773,3.72000026702881,6.52005052566528,-1.90695011615753,-2.08944988250732,-4.30718755722046,-6.02799987792969,19.8870010375977,16.4149513244629,11.3320503234863,-3.09925007820129,-2.74285006523132,-1.34117496013641,1.05820000171661,1.54989993572235,1.70953750610352,-4.91895008087158,-19.6560001373291,-29.8579521179199,8.02395057678223,11.7840003967285,10.6099500656128,4.91837501525879,6.61154985427856,6.75729990005493,-18.1210517883301,-2.51700019836426,6.94200038909912,SHAKE
0.55302500724792,-1.74886250495911,-3.04713749885559,-1.49160003662109,-0.49445000290871,0.72503751516342,22.0890007019043,9.04995059967041,-4.64595031738281,-6.73800039291382,0.58500003814697,5.8609504699707,-7.28805017471313,-5.41928768157959,-1.06136250495911,-11.6520004272461,-30.6660022735596,-40.7320518493652,-0.2216500043869,-1.04857504367828,-1.71792495250702,0.12168750166893,-0.89567500352859,-0.45938751101494,-23.0209503173828,-1.94895005226135,7.89105033874512,-2.10105013847351,4.213050365448,4.86495018005371,6.23686265945435,-0.05568749830127,-3.06844997406006,22.92405128479,28.4350509643555,19.6140003204346,0.54243749380112,-3.6421000957489,-2.83964991569519,-1.11498749256134,1.38806247711182,1.86161243915558,18.7830009460449,-11.5249509811401,-27.0679512023926,-6.04605007171631,9.69795036315918,15.621000289917,-3.72088742256165,2.81544995307922,8.08871269226074,-43.6990509033203,-39.927001953125,-9.73995018005371,1.20120000839233,0.39875000715256,2.13661241531372,-0.598812520504,-0.60087502002716,-0.38802498579025,-3.06795024871826,11.9290504455566,40.9279518127441,-0.38400000333786,1.63905012607574,-0.83700001239777,-1.09862494468689,-3.92204999923706,-5.89297485351563,26.3629512786865,19.4730014801025,16.2450008392334,-4.21891260147095,-4.02627515792847,-1.87329995632172,0.16431249678135,0.78044998645782,0.66976249217987,-2.02800011634827,-17.6410503387451,-30.2539520263672,7.02705049514771,15.1750507354736,19.4140510559082,-1.08913743495941,4.78431224822998,7.73107481002808,-43.9270515441895,-28.8840007781982,-4.014000415802,SHAKE
2.57290005683899,3.75952506065369,1.28631246089935,-2.00997495651245,-2.70490002632141,-2.14087510108948,37.4500503540039,32.2360496520996,23.6599502563477,6.9940505027771,-6.99900054931641,-8.02905082702637,-6.3344874382019,-7.80738735198975,-7.85633754730225,15.2070007324219,4.78005027770996,-16.8990001678467,-2.07762503623962,1.17026245594025,2.67932510375977,2.9886999130249,0.76972502470016,-1.41295003890991,-34.7179527282715,-31.5610523223877,-7.78095054626465,13.4389505386353,8.55495071411133,-4.00305032730103,7.38526248931885,4.55124998092651,1.27558743953705,8.75100040435791,29.8219509124756,28.4500522613525,3.48067498207092,-2.62363743782043,-4.7158374786377,-1.92582499980927,-0.46474999189377,2.76512503623962,32.8060531616211,8.24295043945313,-26.9530506134033,-13.336950302124,-1.38300001621246,11.3910007476807,-4.63498735427856,5.86767482757568,7.02129983901978,-44.2890014648438,-13.9510507583618,-0.43800002336502,-0.70482498407364,-2.3394250869751,2.22062492370605,0.16747500002384,0.98161250352859,-1.2447874546051,5.88600015640259,22.443000793457,40.0969505310059,-2.67405009269714,7.40595054626465,0.42705002427101,-2.3735249042511,-4.90641260147095,-6.8272876739502,22.3039512634277,18.105001449585,10.40505027771,-2.31714987754822,0.4945875108242,2.30477499961853,2.50126242637634,1.70417499542236,0.22921249270439,-23.9190006256104,-33.6520500183105,-31.3789520263672,17.6680507659912,10.0950002670288,2.83095002174377,7.26288747787476,7.24583768844604,6.75303745269775,-1.20000004768372,8.27595043182373,17.506950378418,SHAKE
2.48036241531372,-0.12594999372959,-3.03751254081726,-2.17593741416931,-1.5916999578476,0.00041249999776,34.4040031433105,22.816951751709,7.08105039596558,-8.33295059204102,-5.34705018997192,5.9089503288269,-7.17309999465942,-4.45197486877441,0.57433748245239,-16.6620006561279,-35.0610008239746,-35.1400527954102,0.49128749966621,-1.12832498550415,-1.27737498283386,0.13021250069141,-0.168850004673,-0.55838751792908,-9.22500038146973,3.01200008392334,17.6580009460449,-5.08995008468628,0.52005004882813,9.43395042419434,5.34407520294189,2.07267498970032,-3.76983737945557,29.5030517578125,29.6370010375977,16.678050994873,-1.9626749753952,-2.71933746337891,-1.15390002727509,-0.65834999084473,1.55306243896484,1.97766244411469,12.6690006256104,-16.4730014801025,-30.832950592041,1.96200013160706,13.3410005569458,10.7130002975464,-0.79323750734329,4.51178741455078,6.96808767318726,-40.7269515991211,-22.8990001678467,-3.682950258255,0.12526249885559,0.7732999920845,2.23561239242554,-0.51686251163483,-0.03684999793768,-1.64697504043579,18.4099502563477,34.3170013427734,34.828052520752,4.64895009994507,4.921950340271,-9.98805046081543,-4.13063764572144,-6.15999984741211,-7.71058750152588,18.901050567627,13.7509508132935,-12.646050453186,-1.3029500246048,0.10615000128746,0.89045000076294,1.52858746051788,0.95493751764297,-1.18841254711151,-31.5210018157959,-30.6300010681152,-7.44600057601929,8.79705047607422,4.32300043106079,1.51605010032654,7.07451248168945,6.90208768844604,4.77262496948242,6.24300050735474,19.8660011291504,32.0110511779785,SHAKE
2.23561239242554,0.30401250720024,-2.06703758239746,-1.64697504043579,-1.59060001373291,-0.33384999632835,34.828052520752,24.3640518188477,11.3730001449585,-9.98805046081543,-7.12905025482178,1.32495009899139,-7.71058750152588,-5.57369995117188,-0.03973750025034,-12.646050453186,-36.5890502929688,-41.4889526367188,0.89045000076294,0.66577500104904,0.05499999970198,-1.18841254711151,-1.46189999580383,-0.61159998178482,-7.44600057601929,3.81195020675659,19.4730014801025,1.51605010032654,2.07705020904541,5.53500032424927,4.77262496948242,0.84452497959137,-2.37778759002686,32.0110511779785,28.359001159668,21.5329513549805,-0.8123499751091,-2.86302495002747,-3.75594997406006,-0.82761251926422,0.08016250282526,0.98903751373291,20.7880516052246,7.24695014953613,-7.80795049667358,-6.39300012588501,1.33005011081696,7.82205057144165,-4.70841264724731,1.45763754844666,6.62007474899292,-41.3260536193848,-38.7660026550293,-13.828950881958,1.62896251678467,1.191575050354,0.93183749914169,-1.8853999376297,-2.15778756141663,-0.10395000129938,-5.94405031204224,7.93905019760132,39.4909515380859,0.0430500023067,1.19805002212524,2.07705020904541,0.08579999953508,-5.59061241149902,-7.11136245727539,28.0500011444092,15.5449504852295,8.14200019836426,-3.86773753166199,-0.56650000810623,2.61332488059998,1.82228744029999,1.48073744773865,-0.60197502374649,-15.7470006942749,-31.6549510955811,-12.6190509796143,8.57505035400391,14.3680505752563,-1.71300005912781,7.39268732070923,7.2085747718811,6.13373756408691,4.95900011062622,14.8170003890991,28.0420513153076,SHAKE
1.89186251163483,2.79633736610413,1.28205001354218,0.19401249289513,-0.89567500352859,-1.65769994258881,38.3839530944824,35.3350524902344,25.851001739502,-0.11595000326633,-10.1680507659912,-12.8790006637573,-7.19661235809326,-8.20751285552979,-6.86881256103516,8.98800086975098,-6.99795055389404,-31.7389507293701,1.77154994010925,3.14008736610413,2.98691248893738,0.33343750238419,-1.40868747234344,-2.23231244087219,-25.2120018005371,-10.6069507598877,3.882000207901,5.64300012588501,-0.01305000018328,-0.76995003223419,6.93508768081665,4.69383764266968,-2.07130002975464,20.0119514465332,32.3509521484375,20.7949504852295,-0.77934998273849,-3.11739993095398,-3.49731254577637,-0.71582502126694,1.03578746318817,1.73291254043579,23.1280517578125,-5.44605016708374,-24.5800514221191,-2.78205013275146,3.65805006027222,5.65995025634766,-5.76949977874756,0.76477497816086,6.68387508392334,-40.7149505615234,-41.5459518432617,-18.0270004272461,1.54907500743866,1.43316245079041,1.34804999828339,-1.37032496929169,-1.8183000087738,-1.37142503261566,-8.45700073242188,5.79795026779175,19.5589504241943,0.62100005149841,3.11595010757446,3.75300025939941,2.27589988708496,-0.96882498264313,-3.73257493972778,29.041051864624,24.0139503479004,17.3610000610352,-3.46114993095398,-3.71552491188049,-2.80555009841919,0.93266248703003,1.73827493190765,1.84676253795624,-2.05200004577637,-18.5950508117676,-31.1520023345947,5.08305025100708,7.66395044326782,10.5600004196167,-0.54106247425079,5.47387504577637,7.36285018920898,-42.0709533691406,-21.1810512542725,8.86800003051758,SHAKE
1.83122503757477,0.16994999349117,-3.46114993095398,-1.07442498207092,-1.19583749771118,0.93266248703003,34.5379524230957,24.025951385498,-2.05200004577637,-8.76405048370361,-7.26000022888184,5.08305025100708,-7.83722496032715,-6.18763732910156,-0.54106247425079,-10.7440509796143,-35.3070030212402,-42.0709533691406,1.53958749771118,2.46647500991821,2.1377124786377,0.03011249937117,-1.75339996814728,-1.26073753833771,-21.7939510345459,4.60005044937134,17.9190006256104,3.61905026435852,0.70500004291534,0.13005000352859,1.68850004673004,-1.34763753414154,-3.84010004997253,27.9420013427734,22.5079517364502,16.8120002746582,-1.9542875289917,-2.34478759765625,-1.85308754444122,-0.79241251945496,0.33453750610352,1.51263749599457,11.5030508041382,-18.2020511627197,-30.7930507659912,2.17005014419556,11.60205078125,10.5580501556396,-0.55054998397827,8.15031242370605,7.41922473907471,-44.3920516967773,3.52005004882813,13.1620502471924,2.11846256256104,1.35863745212555,0.69561249017715,-0.3284874856472,0.25368750095367,-0.50943750143051,23.2090511322021,37.5289535522461,38.5729522705078,-4.80795001983643,-9.52605056762695,-13.7080507278442,-5.82271242141724,-7.64252519607544,-6.68153762817383,16.0549507141113,7.93605041503906,-30.9700508117676,0.48606249690056,2.02166247367859,1.0393625497818,0.74854999780655,0.01526249945164,-0.38060000538826,-31.8679523468018,-23.8639507293701,6.19005012512207,12.0900001525879,2.43600010871887,1.97100007534027,6.1443247795105,1.19583749771118,-2.03623747825623,16.7790012359619,26.6599521636963,20.2440013885498,SHAKE
1.11072504520416,1.15747499465942,2.65595006942749,-0.69244998693466,-1.37142503261566,-0.37111249566078,-2.95800018310547,12.2670001983643,38.6070022583008,0.22305001318455,5.1589503288269,-1.70400011539459,-0.63676249980927,-5.72907495498657,-7.44342517852783,27.2260513305664,11.1889505386353,-9.38595008850098,-2.73102498054504,2.44090008735657,1.60022497177124,1.49558746814728,-0.46791249513626,-1.28837502002716,-33.3019523620605,-22.7359504699707,7.43805027008057,15.1990509033203,1.67895007133484,0.89100003242493,6.63808727264404,-0.00041249999776,-3.06955003738403,21.9400501251221,25.4340019226074,20.0569515228271,-2.44268751144409,-4.69342517852783,-4.74347496032715,-0.61366248130798,1.09010004997253,2.75233745574951,17.4709510803223,2.35395002365112,-34.2100524902344,-6.6109504699707,0.80505001544952,13.1590509414673,-1.3860000371933,8.90601253509521,7.19894981384277,-47.661003112793,-0.88800007104874,21.8940010070801,2.63037490844727,-0.68351250886917,-3.75278759002686,-0.64130002260208,-0.49981248378754,-0.80629998445511,34.7800521850586,33.5770530700684,8.21895027160645,-8.80500030517578,-13.2649507522583,1.48305010795593,-8.14151287078857,-5.16505002975464,8.13339996337891,3.89805006980896,-43.7590522766113,-9.72795009613037,3.65199995040894,2.77722501754761,2.02702498435974,-1.85666251182556,-1.01172494888306,0.39091250300407,-1.13505005836487,32.3389511108398,41.2819519042969,-1.43595004081726,-3.04995012283325,-9.19305038452148,-4.29123735427856,-7.47642517089844,-7.88191223144531,17.578950881958,5.42100048065186,-8.99100017547607,SHAKE
1.44278752803802,1.7960250377655,1.79176247119904,-0.88714998960495,0.06531249731779,-0.38486251235008,33.9220504760742,43.7490005493164,38.2620010375977,2.23695015907288,-2.88195013999939,-11.0950508117676,-4.47218751907349,-6.29309988021851,-7.54242515563965,17.6860504150391,13.5690002441406,4.50195026397705,-1.88402497768402,0.13901250064373,0.80739998817444,1.541375041008,0.60060000419617,-0.71266251802444,-37.2900009155273,-36.2119522094727,-7.47000026702881,10.6249504089355,6.3880500793457,-0.04395000264049,6.56040000915527,3.85412502288818,-3.67936253547669,26.6719512939453,34.8709526062012,19.2600002288818,-2.49906253814697,-4.68393754959106,-2.97261238098145,-0.79667496681213,0.7899374961853,2.1840500831604,15.8209505081177,-0.1410000026226,-33.5539512634277,-5.4810004234314,5.62905025482178,12.7510509490967,-3.05250000953674,4.16171264648438,8.56858730316162,-46.5280532836914,-32.4979515075684,-3.77400016784668,1.27352499961853,2.0845000743866,2.70696258544922,-1.30116248130798,-0.58808749914169,-0.3242250084877,2.25495004653931,33.5800514221191,41.2200012207031,2.43600010871887,0.9700500369072,-6.43395042419434,-4.11455011367798,-7.21778726577759,-8.02766227722168,16.5510005950928,6.83205032348633,-8.59305000305176,-0.46639999747276,2.43457508087158,3.27951240539551,0.93472498655319,-0.60417497158051,-1.66402494907379,-35.745002746582,-23.871000289917,-5.38905048370361,15.2610006332397,5.89005041122437,2.81895017623901,5.98042488098145,-0.79640001058578,-3.38566255569458,22.666051864624,21.5569515228271,14.439001083374,SHAKE
0.0677874982357,0.05073750019073,-0.14712500572205,0.00041249999776,-0.02626249939203,0.18548749387264,9.45195007324219,9.25395011901856,8.26395034790039,2.76405024528503,2.62800002098084,1.75800013542175,0.60623747110367,0.8456249833107,1.00416254997253,-2.91495013237,-2.79195022583008,3.27600026130676,-0.4643374979496,0.86803752183914,2.03128743171692,-0.68392497301102,-1.33732497692108,-1.54811251163483,17.3819999694824,20.826000213623,21.3679504394531,8.7810001373291,9.88005065917969,6.85695028305054,-3.07601237297058,-4.5115122795105,-5.29058742523193,11.5099506378174,7.11195039749146,3.56805014610291,-1.67007493972778,-2.19257497787476,-2.4256374835968,1.84043753147125,1.89887499809265,1.33375000953674,-0.76905006170273,-13.1820001602173,-28.0290012359619,-0.40605002641678,-1.22505009174347,-1.57200002670288,-1.88718748092651,6.29117488861084,10.4851999282837,-48.9130516052246,-26.1439514160156,2.60295009613037,1.76412498950958,2.58458757400513,2.94648742675781,-1.8321875333786,-2.60699987411499,-1.89076244831085,-0.93105006217957,22.5390014648438,38.3359527587891,0.76695001125336,2.35199999809265,-4.44900035858154,0.86693751811981,-4.98519992828369,-6.60055017471313,31.150951385498,15.1090507507324,11.1000003814697,-4.11661243438721,-3.11093759536743,0.55412501096725,1.37637495994568,1.56158745288849,0.64735001325607,-4.71300029754639,-21.435001373291,-32.1840019226074,7.85400056838989,9.51300048828125,8.66595077514648,6.75097513198853,9.80526256561279,9.03581237792969,-21.610050201416,4.05600023269653,17.8399505615234,SHAKE
1.2639000415802,-3.60800004005432,-4.36576271057129,-0.16775000095367,0.96552497148514,1.11677503585815,41.827953338623,20.8500003814697,8.49195003509521,-12.6160507202148,-3.28905010223389,3.3510000705719,-7.79886245727539,-8.38309955596924,-0.09295000135899,5.38800048828125,-9.35700035095215,-44.3130035400391,2.37077498435974,2.65058755874634,2.80596256256104,-0.5157625079155,-1.16283750534058,-1.73965001106262,-23.9790019989014,-11.3140506744385,7.33005046844482,2.0310001373291,0.12705001235008,3.69300007820129,3.8478000164032,-0.0749375000596,-3.55272507667542,31.8360023498535,28.6200008392334,19.5640506744385,-5.07553768157959,-5.32674980163574,-4.24434995651245,0.62617498636246,1.43701243400574,1.35409998893738,2.15700006484985,-12.025050163269,-27.4590015411377,0.99405002593994,6.12405014038086,11.2639503479004,-4.33592510223389,2.83676242828369,8.25577449798584,-44.0160026550293,-37.2810020446777,-9.41205024719238,3.34661245346069,2.31426239013672,1.54811251163483,-1.37252497673035,-0.4796000123024,0.25891250371933,-1.5660001039505,30.7009506225586,41.1649513244629,-1.72095012664795,-4.81995010375977,-10.9680004119873,-1.65096247196198,-4.41691255569458,-7.32641267776489,23.9089508056641,16.8529510498047,4.0420503616333,-4.17945003509521,-2.49810004234314,0.34333750605583,1.50191247463226,1.26362502574921,0.75913751125336,-19.1839504241943,-33.5230522155762,-35.1109504699707,9.8100004196167,15.2329511642456,11.952000617981,9.39867496490478,8.56652450561523,6.83388757705688,4.39394998550415,16.7430000305176,26.2630519866943,SHAKE
1.54811251163483,0.33907499909401,-1.65728747844696,0.25891250371933,-0.39338749647141,-0.64240002632141,41.1649513244629,36.3870010375977,23.8110008239746,-10.9680004119873,-13.2450008392334,-8.03595066070557,-7.32641267776489,-7.72653722763062,-6.08877515792847,4.0420503616333,-9.59895038604736,-34.5049514770508,0.34333750605583,2.06318759918213,2.15792489051819,0.75913751125336,-0.57969999313354,-1.52143752574921,-35.1109504699707,-10.2169504165649,8.9040002822876,11.952000617981,-0.32400000095367,3.1470000743866,6.83388757705688,-0.08772499859333,-3.69751238822937,26.2630519866943,30.1549510955811,21.256950378418,-3.26218748092651,-4.28271245956421,-2.12877488136292,-0.33907499909401,1.03262495994568,0.51974999904633,13.8450002670288,-17.7250499725342,-34.4740524291992,-4.31895017623901,12.7609510421753,17.4979515075684,-1.47331249713898,5.84842491149902,9.25815010070801,-47.3179512023926,-26.0890502929688,4.300950050354,0.97446250915527,0.65518748760223,1.31614995002747,0.42707499861717,0.48991250991821,0.21958750486374,10.4370002746582,27.4819507598877,39.7249526977539,-0.26399999856949,-0.00795000046492,-3.75600028038025,-3.52508759498596,-5.8642373085022,-7.39131259918213,21.961051940918,16.326000213623,9.1960506439209,-4.01458740234375,-2.57991242408752,-0.45155000686646,0.81977498531342,0.79640001058578,0.6154500246048,-18.0820503234863,-34.5739517211914,-36.6720008850098,11.7100505828857,14.3269510269165,12.0540008544922,5.39618730545044,8.9601879119873,8.25783729553223,-26.8339519500732,2.54700016975403,15.0450010299683,SHAKE
-4.0804500579834,-4.01458740234375,-2.57991242408752,0.36753749847412,0.81977498531342,0.79640001058578,-0.57900005578995,-18.0820503234863,-34.5739517211914,5.50395011901855,11.7100505828857,14.3269510269165,-2.02344989776611,5.39618730545044,8.9601879119873,-47.5579528808594,-26.8339519500732,2.54700016975403,1.19377493858337,1.55443751811981,1.77471244335175,-0.74882501363754,-1.20436251163483,-0.75734996795654,8.3100004196167,24.3610515594482,37.4650535583496,2.04105019569397,2.01495003700256,-1.8600001335144,0.61366248130798,-3.05566239356995,-5.4331750869751,30.5040016174316,21.9780006408691,15.9880504608154,-3.45578742027283,-4.14012479782104,-3.4791624546051,-0.02626249939203,0.3271124958992,0.41428750753403,2.17905020713806,-18.0649509429932,-36.9690017700195,1.84005010128021,7.49895048141479,14.2120504379272,-2.32457494735718,9.9914379119873,9.60093784332275,-50.7139511108398,3.550950050354,20.3350505828857,2.05782508850098,1.16077494621277,-0.83462500572205,-1.22979998588562,0.33137500286102,0.15468749403954,31.3000507354736,40.7980537414551,28.3399505615234,1.71300005912781,-11.3269500732422,-8.08905029296875,-6.10362482070923,-7.50309991836548,-7.27636241912842,14.6569509506226,8.01000022888184,-25.9950008392334,1.13203752040863,2.40899991989136,1.10109996795654,0.47079998254776,-0.00714999996126,0.09404999762774,-35.4409523010254,-26.1030006408691,6.4830002784729,10.7250003814697,3.61695027351379,1.67400002479553,6.27632474899292,4.37249994277954,1.15101253986359,18.6439514160156,27.1800022125244,29.8339519500732,SHAKE
1.16077494621277,-0.83462500572205,-2.70558738708496,0.33137500286102,0.15468749403954,0.33453750610352,40.7980537414551,28.3399505615234,12.6979503631592,-11.3269500732422,-8.08905029296875,-0.77700001001358,-7.50309991836548,-7.27636241912842,-2.59489989280701,8.01000022888184,-25.9950008392334,-44.3959503173828,2.40899991989136,1.10109996795654,1.10220003128052,-0.00714999996126,0.09404999762774,-0.14547500014305,-26.1030006408691,6.4830002784729,22.230001449585,3.61695027351379,1.67400002479553,2.67300009727478,4.37249994277954,1.15101253986359,-2.5086874961853,27.1800022125244,29.8339519500732,20.7810001373291,-0.97941249608994,-2.98333740234375,-3.70273756980896,-1.11594998836517,-0.21573749184608,0.58038747310638,20.4529514312744,6.29595041275024,-10.0090503692627,-5.44005012512207,3.04200005531311,9.44595050811768,-3.93153738975525,3.57115006446838,9.33061218261719,-45.5890502929688,-39.271053314209,-3.04200005531311,2.09728741645813,2.29308748245239,2.06112504005432,-0.81702500581741,-1.22347497940063,0.06201250106096,2.07795000076294,21.7840518951416,43.5840034484863,1.40895009040833,-0.46800002455711,-12.9870004653931,-2.46510004997253,-6.74217510223389,-7.82980012893677,23.53005027771,12.0480003356934,0.35100001096725,-3.62505006790161,-1.37527501583099,1.87591254711151,1.95745003223419,1.31683754920959,-0.52854996919632,-28.8760509490967,-36.3390007019043,-16.6210498809814,13.2640504837036,12.5220003128052,1.65795004367828,8.24835014343262,6.98926258087158,5.60271263122559,9.69195079803467,15.5550003051758,26.6440505981445,SHAKE
0.31363749504089,1.07140004634857,0.15289999544621,0.00989999994636,-0.7510250210762,-0.99041247367859,40.3150520324707,36.1020011901855,25.0969505310059,2.10600018501282,-3.93600010871887,-4.53495025634766,-6.99751234054565,-7.41895008087158,-6.60164976119995,5.36895036697388,-6.2839503288269,-29.2810516357422,0.21037499606609,2.11640000343323,2.02276253700256,0.53996247053146,-0.14327499270439,-0.81702500581741,-36.1020011901855,-26.8120517730713,9.70905017852783,13.6020002365112,5.85405015945435,4.45695018768311,6.05288743972778,0.35502499341965,-3.25998759269714,23.5879516601563,30.8880023956299,21.621000289917,-1.68492496013641,-3.9250750541687,-4.57105016708374,-1.40332496166229,-0.55522501468658,0.86019998788834,17.0539512634277,2.30805015563965,-14.4990005493164,-7.37505054473877,4.51500034332275,11.4649505615234,-3.96880006790161,3.42526245117188,8.1493501663208,-46.7770538330078,-34.8570022583008,-5.16795015335083,1.31821250915527,1.15225005149841,1.49600005149841,-0.54986250400543,-0.85208749771118,-0.52745002508163,2.46405005455017,17.6629505157471,32.461051940918,0.85995006561279,2.3860502243042,0.61800003051758,-1.69248747825623,-4.14012479782104,-5.91098737716675,22.2700519561768,16.6950016021729,13.0830001831055,-4.62316226959229,-4.49872493743896,-2.46606254577637,0.45374998450279,1.45612502098084,1.56254994869232,-4.97700023651123,-23.3419513702393,-36.553050994873,7.49205017089844,14.2870502471924,18.6529502868652,6.89039993286133,9.53177452087402,6.44228744506836,-20.53005027771,5.56005048751831,22.7419509887695,SHAKE
-1.11663746833801,-3.57279992103577,-4.62852478027344,-1.51401245594025,-0.71266251802444,0.25575000047684,19.7080516815186,6.49905014038086,-7.90995025634766,-9.11595058441162,0.51105004549026,9.39405059814453,-7.89249992370605,-5.52901268005371,1.20326244831085,-13.8859510421753,-41.1390037536621,-43.5270004272461,2.12698745727539,1.56516253948212,1.30542504787445,0.36011248826981,0.49733749032021,0.02378750033677,-23.0130004882813,-5.1589503288269,12.4870510101318,5.06100034713745,1.98300004005432,1.66995012760162,6.05604982376099,-0.34306249022484,-3.56757497787476,27.5470504760742,28.5670509338379,20.449951171875,-4.31255006790161,-4.83601236343384,-3.66863751411438,0.20047499239445,1.60311245918274,1.97119998931885,0.46605002880096,-16.7239513397217,-34.5910530090332,4.84305000305176,10.4230508804321,16.4329509735107,-2.49067497253418,8.840012550354,8.57601261138916,-49.0020027160645,-1.77195012569427,12.6139507293701,1.95249998569489,2.24413752555847,1.39810001850128,-1.16820001602173,-0.28063750267029,-1.27036249637604,18.4120502471924,39.1459503173828,34.5709533691406,1.18395006656647,-10.9009504318237,-14.4720010757446,-4.35723733901978,-7.32324981689453,-7.8648624420166,17.8399505615234,5.37600040435791,-8.7940502166748,-3.20787501335144,-0.21106250584126,2.32498741149902,1.98082494735718,1.0954624414444,-0.11879999935627,-33.8749504089355,-35.1559524536133,-25.2430515289307,16.7100009918213,15.1579504013062,6.76395034790039,7.55438756942749,5.74213743209839,0.8094624876976,13.9620008468628,19.1380500793457,31.2829513549805,SHAKE
2.22915005683899,2.01313757896423,1.5054874420166,-0.64886248111725,0.82513749599457,-0.57433748245239,22.2610511779785,38.0370025634766,30.4930515289307,1.04895007610321,-10.40505027771,-14.7900009155273,-5.0957498550415,-6.21321249008179,-7.27003765106201,13.7989501953125,10.2450008392334,2.68605017662048,-3.97622489929199,-1.64450001716614,0.17737500369549,2.15531253814697,1.36358749866486,0.00247499998659,-37.9560012817383,-31.2859516143799,-15.0499505996704,14.6220006942749,12.5569505691528,7.389000415802,7.61928749084473,5.56654977798462,1.67887496948242,19.7650508880615,33.8410530090332,32.7490501403809,-1.3721125125885,-4.42309999465942,-5.50013732910156,-1.25014996528625,-0.28916248679161,0.91561251878738,21.8130016326904,7.10805034637451,-10.10205078125,-12.6180009841919,-0.0679500028491,9.58800029754639,-5.19364976882935,2.19615006446838,7.42348766326904,-47.1079521179199,-40.5139503479004,-11.8980007171631,1.90355002880096,0.9288125038147,0.82665002346039,-1.62360000610352,-0.16994999349117,0.61008751392365,17.0809516906738,33.8220024108887,39.0400505065918,0.21795001626015,0.90105003118515,-3.16500020027161,-2.83964991569519,-6.5962872505188,-7.44026231765747,21.5590515136719,8.92500019073486,0.99495005607605,-3.8197500705719,-2.2563750743866,0.92234998941422,2.06497502326965,1.66581249237061,-0.19126249849796,-26.5339508056641,-38.4540023803711,-34.0260009765625,9.23100090026856,13.5439510345459,12.0280504226685,8.95069980621338,10.289400100708,8.76754951477051,-12.2190008163452,8.81805038452148,22.560001373291,SHAKE
2.04077506065369,-0.44192498922348,-2.86838746070862,0.30263748764992,-0.39022499322891,-0.77549999952316,34.5910530090332,23.7270011901855,10.7839508056641,-17.6599502563477,-13.7080507278442,-3.97395014762878,-8.65136241912842,-6.81986236572266,0.27211248874664,-10.0279502868652,-41.9269523620605,-48.3460540771484,1.78970003128052,3.97347497940064,3.86485004425049,-0.25080001354218,-2.49411249160767,-1.99072504043579,-23.7490520477295,5.35695028305054,21.6259517669678,6.34200048446655,0.0409500002861,-1.59900009632111,4.80452489852905,-3.02912497520447,-5.25016260147095,35.8570518493652,22.2799510955811,16.5750007629395,-5.0084376335144,-6.4898624420166,-6.75482511520386,-0.4657124876976,1.29868745803833,3.44203758239746,2.36100006103516,-14.2500009536743,-32.253002166748,-0.29295000433922,6.14595031738281,10.8349504470825,-4.71267509460449,4.1606125831604,8.85802459716797,-55.2150039672851,-36.3730506896973,-4.70100021362305,4.31502485275269,2.48572492599487,0.69891250133514,-3.06349992752075,-1.43742501735687,0.32807499170303,11.8330507278442,28.6750507354736,37.5049514770508,-6.17295026779175,-7.71105051040649,-11.4180002212524,-4.02943754196167,-6.02483749389648,-7.63289976119995,19.0039501190186,15.163950920105,9.37995052337646,-4.67651224136353,-2.41931247711182,1.0032000541687,1.47647500038147,2.40762495994568,0.28338751196861,-16.8030014038086,-37.9870529174805,-30.3810005187988,6.28695011138916,13.8960008621216,8.06205081939697,9.48062515258789,8.25577449798584,5.3993501663208,-5.1870002746582,22.5870018005371,30.1450519561768,SHAKE
0.73823750019073,-0.03437500074506,-0.76436251401901,3.07697486877441,1.36895000934601,-0.21779999136925,35.2990531921387,24.0979518890381,10.5570001602173,-12.8239507675171,-10.1200504302979,-4.06500005722046,-7.97774982452393,-7.64884996414185,-1.22842502593994,6.42495012283325,-38.4450035095215,-51.7660522460938,0.07631249725819,1.92059993743896,2.8050000667572,0.36959999799728,-1.26610004901886,-2.09715008735657,-25.5229511260986,6.28605031967163,22.5679512023926,8.03805065155029,4.93905019760132,3.73200011253357,4.42887496948242,0.76587498188019,-3.08660006523132,30.1860008239746,31.0770015716553,21.4870510101318,-3.27057504653931,-3.46747493743896,-1.80097496509552,0.40479999780655,1.07621252536774,1.12090003490448,5.94105005264282,-7.65405035018921,-38.8300514221191,1.65795004367828,6.79995012283325,14.9190006256104,-0.74208748340607,6.79139995574951,10.1989250183105,-49.6870536804199,-25.5430507659912,-0.23895001411438,1.46836245059967,2.63037490844727,4.53859996795654,0.3121249973774,-0.6903874874115,-1.50122499465942,5.03805017471313,25.0099506378174,40.6710014343262,1.31505000591278,4.14105033874512,-18.5430011749268,-3.89221239089966,-6.57607507705688,-8.42256259918213,22.3999519348145,16.2880516052246,10.2190504074097,-5.4064998626709,-5.13411235809326,2.33034992218018,1.69675004482269,1.56791245937347,-0.35186249017715,-22.8870010375977,-40.9090538024902,-34.6009521484375,0.05805000290275,7.86105060577393,4.48605012893677,10.4395503997803,10.3820753097534,7.90776252746582,-3.75495028495789,13.9530010223389,26.3040008544922,SHAKE
4.53859996795654,1.56200003623962,-2.14142489433289,-1.50122499465942,-1.15321254730225,-0.19552500545979,40.6710014343262,30.2749519348145,13.7389507293701,-18.5430011749268,-19.1040000915527,-10.4239501953125,-8.42256259918213,-9.92090034484863,-9.85283756256104,10.2190504074097,-1.65495002269745,-29.226001739502,2.33034992218018,3.60415005683899,2.26008749008179,-0.35186249017715,-0.67003750801086,-1.56612503528595,-34.6009521484375,-19.78005027771,3.132000207901,4.48605012893677,-8.85300064086914,-8.69505023956299,7.90776252746582,0.34443750977516,-3.43144989013672,26.3040008544922,29.0479507446289,20.6490001678467,-1.57533752918243,-2.84927487373352,-2.96628737449646,0.90488749742508,0.55261248350143,0.345124989748,15.2599506378174,-17.776050567627,-33.355052947998,-3.23700022697449,-0.08505000174046,7.26000022888184,-3.46651244163513,5.40787506103516,11.0801620483398,-53.6029510498047,-36.7900505065918,-5.58495044708252,1.92266249656677,2.41972494125366,1.14372503757477,-2.22804999351501,-1.74597501754761,0.02268750034273,21.1810512542725,39.1120529174805,34.7250022888184,0.50100004673004,0.69000005722046,-11.5260009765625,-5.3000750541687,-6.83265018463135,-8.65562534332275,13.81605052948,8.83695030212402,-3.94005012512207,-3.95697498321533,-1.59018754959106,2.22488737106323,0.05032499879599,0.81977498531342,0.0716374963522,-34.2030029296875,-35.3740501403809,-30.6679515838623,11.4840002059937,14.2440004348755,5.88300037384033,11.5590753555298,8.38241291046143,4.64488744735718,19.1899509429932,27.2470512390137,31.1629524230957,SHAKE
-0.13117499649525,-2.74175000190735,-3.56441259384155,0.17379999160767,-0.14231249690056,0.20790000259876,36.8629531860351,11.743950843811,2.32200002670288,-11.9569501876831,-3.89100027084351,-0.5020500421524,-7.25298738479614,-5.49491262435913,-0.50050002336502,-11.5489501953125,-30.3829517364502,-41.9410514831543,1.39810001850128,1.92912495136261,3.03902506828308,-0.3284874856472,-0.57639998197556,-2.00997495651245,-24.9559516906738,3.27105021476746,28.4449520111084,6.81900024414063,1.36800003051758,5.38905048370361,3.29546236991882,-0.32065001130104,-3.39308738708496,31.0270519256592,25.9950008392334,19.5090007781982,-3.26741242408752,-4.27308750152588,-4.07522487640381,0.08016250282526,-0.0496375001967,1.08693754673004,4.34400033950806,-8.88495063781738,-33.5230522155762,-6.48900032043457,-1.05705010890961,14.6940002441406,1.63954997062683,10.3266620635986,13.2298374176025,-52.1250038146973,-15.3400506973267,18.8359508514404,4.59813737869263,2.34203743934631,-0.98573750257492,-0.44343748688698,-0.7871875166893,0.28984999656677,14.7430505752563,41.3130035400391,38.5540504455566,-7.42605018615723,-21.5899505615234,-18.8449516296387,-6.38770008087158,-7.52001237869263,-8.29688739776611,12.292950630188,8.20200061798096,1.89795005321503,-4.05074977874756,0.76491248607635,2.52285003662109,0.93266248703003,0.02914999984205,-0.84039998054504,-28.9480514526367,-28.8790512084961,-23.0370006561279,9.56400012969971,5.30505037307739,-2.32905006408691,11.9612627029419,5.65372514724731,1.98536252975464,13.3969507217407,31.8270015716553,31.8670520782471,SHAKE
0.76491248607635,2.52285003662109,2.51762509346008,0.02914999984205,-0.84039998054504,-1.34378755092621,-28.8790512084961,-23.0370006561279,-9.01905059814453,5.30505037307739,-2.32905006408691,-6.01695013046265,5.65372514724731,1.98536252975464,-1.558424949646,31.8270015716553,31.8670520782471,26.8090515136719,-1.58922493457794,-1.1368499994278,-0.70592498779297,1.46891248226166,0.47396248579025,0.16747500002384,24.4050006866455,-0.28200000524521,-11.2540502548218,-1.20600008964539,3.62895011901855,2.94105005264282,-7.21462488174438,1.98013746738434,8.65053749084473,-13.3690509796143,-40.4970016479492,-14.6310005187988,1.14688754081726,2.06524991989136,3.67551255226135,-0.55522501468658,-2.62611246109009,-3.8286874294281,-8.25495052337646,13.4710502624512,31.1869506835938,-3.84300017356873,3.58800005912781,4.54605007171631,3.02623748779297,-1.22526252269745,-4.61477518081665,34.5859527587891,28.6440010070801,16.6519508361816,-0.90172499418259,-1.30184996128082,-1.97010004520416,-0.5348749756813,-0.98298752307892,-0.40617498755455,1.9080001115799,-8.7940502166748,-20.9970016479492,-3.33000016212463,-1.2150000333786,-0.43500003218651,-5.62361240386963,8.25577449798584,11.8133125305176,-33.9540023803711,-19.2850513458252,11.413950920105,1.25221252441406,3.3264000415802,1.19047498703003,-1.34804999828339,-2.7219500541687,0.83682501316071,13.1310005187988,33.6679534912109,41.6580009460449,6.02895021438599,5.18100023269653,-14.8290004730225,-5.12668752670288,-7.01456260681152,-7.894700050354,17.0040016174316,9.57705020904541,1.41705012321472,SHAKE
-0.97088748216629,1.76206254959106,3.80957508087158,0.69629997014999,-1.45447504520416,-2.58995008468628,-32.3539505004883,-10.8919506072998,13.1479501724243,3.06405019760132,3.06600022315979,4.92900037765503,6.12727499008179,2.43031239509583,-1.72012495994568,30.8659515380859,33.5959510803223,26.6599521636963,-2.88433742523193,-3.44726252555847,-2.1840500831604,2.23093748092651,1.28589999675751,-0.53913748264313,24.1750507354736,11.0310001373291,-8.80605030059814,-12.1579504013062,-5.63700008392334,2.29500007629395,-7.207200050354,-4.44234991073608,2.43773746490479,-13.2130508422852,-38.8110008239746,-40.2150001525879,3.47861242294312,4.86199998855591,5.04721260070801,-1.6438125371933,-2.40267491340637,-2.80279994010925,-7.40295028686523,18.3120002746582,39.730052947998,-0.60900002717972,-4.24305009841919,-18.5460014343262,0.52428752183914,-6.61553764343262,-8.09366226196289,34.6930503845215,13.4779510498047,4.6690502166748,-2.48943758010864,-0.84961247444153,-0.02158750034869,0.9645624756813,0.72833746671677,1.42422497272491,-10.4250001907349,-21.9640502929688,-28.1629505157471,6.53895044326782,4.69200038909912,0.99900007247925,3.73821258544922,9.52104949951172,8.86022472381592,-36.2220001220703,-7.49895048141479,23.4870014190674,3.19756245613098,1.69289994239807,-0.80588752031326,-2.01093745231628,0.21848750114441,1.28810000419617,29.3770523071289,40.2550506591797,37.6870536804199,-0.82305002212524,-10.4740505218506,-13.0950002670288,-4.43066263198853,-7.47752475738525,-8.5683126449585,17.0179500579834,8.03700065612793,0.88800007104874,SHAKE
-3.46637487411499,-3.67716240882874,-0.98367500305176,0.60486251115799,1.91056251525879,0.67292499542236,-15.3949508666992,-28.8379516601563,-27.6019515991211,0.70905005931854,0.91995006799698,2.03400015830994,9.30187511444092,10.5363502502441,9.40403747558594,-6.39900016784668,8.98800086975098,21.9109516143799,3.33918738365173,1.00539994239807,-1.42848753929138,-1.36496245861053,0.59743750095367,1.24657499790192,45.5050506591797,38.9370002746582,23.1570014953613,-7.41105031967163,-13.4730005264282,-10.7070007324219,-7.35088729858398,-9.15048789978027,-7.59770011901855,12.0319509506226,-3.57105016708374,-32.4550514221191,1.04156243801117,2.99543738365173,4.17986249923706,-0.9149249792099,-3.5561625957489,-4.37786245346069,-26.5579509735107,-13.5940504074097,6.53505039215088,-4.20195007324219,-2.78595018386841,-3.9340500831604,3.52742505073547,-1.90849995613098,-5.4363374710083,41.4880523681641,30.4729518890381,16.2610511779785,-2.75976252555847,-1.73497498035431,-2.17346239089966,2.52463746070862,1.03894996643066,1.7019749879837,12.1900501251221,0.00405000010505,-25.0540504455566,-2.29995012283325,-1.64895009994507,-3.44295024871826,-1.99677503108978,4.98863744735718,9.31136226654053,-42.5110511779785,-26.1769504547119,-6.12600040435791,1.61191248893738,2.96779990196228,4.81414985656738,-2.9837498664856,-3.61693739891052,-2.96339988708496,-7.65195035934448,15.8400011062622,35.8069534301758,3.08505010604858,11.5279502868652,5.81295013427734,1.25111246109009,-5.37363767623901,-7.16883754730225,32.5999526977539,16.7449512481689,9.3420000076294,SHAKE
-2.6331250667572,-2.34794998168945,-1.94149994850159,1.51263749599457,-0.4838624894619,0.45265001058578,8.91795063018799,-16.1950511932373,-29.1780014038086,-6.75495052337646,-2.91105008125305,4.43595027923584,6.39443731307983,10.3852376937866,7.44796228408813,-24.0100517272949,21.0750007629395,30.8160018920898,3.7424750328064,0.55522501468658,-3.86759996414185,-2.02798748016357,0.37606251239777,2.60452508926392,42.1350021362305,42.256950378418,14.1300010681152,-10.1389503479004,-15.6190509796143,-5.80395030975342,-8.12240028381348,-8.86847496032715,-8.1107120513916,8.57595062255859,0.5500500202179,-22.3530006408691,-0.40039998292923,1.73222494125366,3.9117374420166,-0.1199000030756,-2.6399998664856,-4.13943767547607,-28.7160015106201,-17.1120014190674,27.6450004577637,-0.54704999923706,-2.12505006790161,0.04800000041723,4.13517475128174,-0.29301249980927,-4.15717506408691,38.0200500488281,34.2499504089355,22.7490005493164,-1.19322502613068,-0.74731248617172,-1.32632493972778,1.76687502861023,0.79103749990463,0.44302499294281,17.2980003356934,-7.34805011749268,-22.980001449585,-1.3950001001358,-2.4580500125885,-3.97005009651184,0.28476250171661,7.58958768844604,11.0099000930786,-42.8250007629395,-18.7620010375977,5.02095031738281,1.58743751049042,3.69256258010864,2.33241248130798,-3.33588743209839,-4.17670011520386,0.81441247463226,6.17100048065186,30.2149505615234,45.0400505065918,6.70905017852783,8.3730001449585,-7.55505037307739,-3.89757490158081,-6.5165376663208,-8.97696208953857,23.9449520111084,13.88805103302,0.88005006313324,SHAKE
-1.32632493972778,-1.93283748626709,-0.58877497911453,0.44302499294281,1.21041250228882,0.16321249306202,-22.980001449585,-32.8140029907227,-26.6250019073486,-3.97005009651184,-0.04905000329018,-1.56000006198883,11.0099000930786,10.6524000167847,7.57253742218018,5.02095031738281,23.3599510192871,31.5870018005371,2.33241248130798,0.42006251215935,-0.76230001449585,0.81441247463226,2.34162497520447,1.52858746051788,45.0400505065918,32.7060012817383,16.0270500183105,-7.55505037307739,-12.0600004196167,-10.1100006103516,-8.97696208953857,-8.22566223144531,-1.81266248226166,0.88005006313324,-29.8800010681152,-49.0039520263672,2.20687508583069,3.20292496681213,3.39666247367859,-1.89392495155334,-3.03159999847412,-2.91238737106323,-14.5759506225586,7.04295015335083,31.7239513397217,-2.41305017471313,-0.93300002813339,-2.57805013656616,3.44767498970032,-4.98726224899292,-6.98156261444092,40.6789512634277,21.070951461792,13.687050819397,-1.59871244430542,-1.44760000705719,-0.49939998984337,1.33278751373291,0.89209997653961,0.94957500696182,-0.11205000430346,-29.9110507965088,-30.189001083374,0.34305000305176,0.08700000494719,-3.62700009346008,9.43057537078857,8.31641292572021,5.76757478713989,-2.75205016136169,22.9120502471924,29.2330513000488,-1.40084993839264,0.30195000767708,0.74043750762939,2.05425000190735,1.85308754444122,0.36533749103546,39.5940017700195,13.9669504165649,5.06205034255981,8.67300033569336,-2.95395016670227,-3.59805011749268,-6.24084997177124,0.25822499394417,6.23273754119873,-8.08800029754639,-34.2150001525879,-18.928050994873,SHAKE
-2.32127499580383,-2.35427498817444,-1.59871244430542,2.23203754425049,2.18624997138977,1.33278751373291,29.2090511322021,13.1890506744385,-0.11205000430346,-4.35495042800903,-0.91800004243851,0.34305000305176,-7.57542514801025,4.47562503814697,9.43057537078857,-20.590051651001,-30.9529514312744,-2.75205016136169,2.48778748512268,1.16613745689392,-1.40084993839264,-3.06143736839294,-2.80912494659424,2.05425000190735,16.2850513458252,33.1009521484375,39.5940017700195,-4.08900022506714,-1.81200003623962,8.67300033569336,-5.85351228713989,-6.3122124671936,-6.24084997177124,8.06295013427734,4.71000003814697,-8.08800029754639,-1.54013752937317,0.0922624990344,1.52789998054504,0.04399999976158,-0.78182500600815,-2.8996000289917,-25.4490013122559,-21.6960010528564,17.1240005493164,2.22300004959106,0.04800000041723,5.51100015640259,2.23973751068115,-2.29913759231567,-6.29406261444092,37.2580528259277,24.4909515380859,8.67600059509277,-0.36533749103546,0.15716250240803,0.08373750001192,0.86129999160767,-0.00714999996126,0.03121249936521,0.73695003986359,-12.2449502944946,-23.1910514831543,0.26399999856949,-0.83400005102158,-1.58700013160706,2.51116251945496,7.93650007247925,9.71478748321533,-31.7389507293701,-10.1670007705688,19.1929512023926,-0.15468749403954,-2.5086874961853,-1.05393743515015,-2.62611246109009,2.71933746337891,1.85418748855591,39.472053527832,32.5570526123047,18.8340015411377,7.67400026321411,4.45305013656616,4.68300008773804,-6.75386238098145,-6.87197494506836,-0.16321249306202,3.01695013046265,-4.90694999694824,-41.836051940918,SHAKE
-0.28874999284744,-0.0599500015378,0.08373750001192,2.56932497024536,0.89003747701645,-1.23309993743896,29.8840522766113,18.586950302124,7.90305042266846,-6.24495029449463,-7.32000017166138,-6.02505016326904,-7.30509996414185,-7.89786243438721,-7.57748746871948,6.16395044326782,1.54605007171631,-15.7759504318237,-2.9247624874115,1.31394994258881,1.69496250152588,1.32742500305176,-1.02231252193451,-2.14087510108948,-27.2790012359619,-20.9389514923096,-7.12305021286011,9.70005035400391,-0.96105003356934,0.77895003557205,3.36998748779297,-2.02125000953674,-5.00321245193481,29.9340019226074,22.735050201416,13.7730007171631,-0.58671247959137,-0.92083752155304,-1.6689749956131,-0.26894998550415,-0.66054999828339,-0.24227499961853,1.80495011806488,-9.46005058288574,-23.8800010681152,-2.40300011634827,-2.13000011444092,2.3929500579834,2.13867497444153,14.0780744552612,11.6803503036499,-50.4510040283203,19.4110507965088,47.5350036621094,-0.14506250619888,-2.43416237831116,-1.80303752422333,0.78361248970032,3.64100003242493,2.60975003242493,44.8099517822266,36.8299522399902,22.0000514984131,-1.71795010566711,-0.78195005655289,1.84005010128021,-7.33177518844604,-7.92233753204346,-7.488112449646,9.11205005645752,6.6259503364563,-22.2450008392334,-0.93568748235703,-0.19181250035763,1.05324995517731,0.42391249537468,-0.10711249709129,-2.6389000415802,-33.2470512390137,-23.4250507354736,29.8099517822266,-1.59105002880096,-0.65205001831055,15.5659503936768,2.80169987678528,-2.65031242370605,-7.62217473983765,30.7390518188477,26.7780017852783,7.75200033187866,SHAKE
-0.14506250619888,-2.43416237831116,-1.80303752422333,0.78361248970032,3.64100003242493,2.60975003242493,44.8099517822266,36.8299522399902,22.0000514984131,-1.71795010566711,-0.78195005655289,1.84005010128021,-7.33177518844604,-7.92233753204346,-7.488112449646,9.11205005645752,6.6259503364563,-22.2450008392334,-0.93568748235703,-0.19181250035763,1.05324995517731,0.42391249537468,-0.10711249709129,-2.6389000415802,-33.2470512390137,-23.4250507354736,29.8099517822266,-1.59105002880096,-0.65205001831055,15.5659503936768,2.80169987678528,-2.65031242370605,-7.62217473983765,30.7390518188477,26.7780017852783,7.75200033187866,-1.66044998168945,-1.64133751392365,-1.95841252803802,-0.93403750658035,-1.23516249656677,-0.4657124876976,-4.86405038833618,-19.560001373291,-33.316951751709,-0.26700001955032,1.33395004272461,4.17495012283325,-2.4756875038147,7.50543737411499,11.1951122283936,-56.8309516906738,-32.2579498291016,41.0880012512207,2.86879992485046,1.07882499694824,-1.59348750114441,-2.07267498970032,0.15042500197887,1.97229993343353,38.0299530029297,45.0499534606934,25.6159515380859,1.73205006122589,-5.38500022888184,-4.21395015716553,-7.44452476501465,-7.894700050354,-7.33067512512207,6.3600001335144,1.31595003604889,-17.8210506439209,-1.22099995613098,0.03904999792576,0.75212502479553,1.81376254558563,0.66439998149872,-0.65518748760223,-34.8709526062012,-31.0609512329102,-23.8350009918213,2.79300022125244,-0.45600003004074,-2.49195003509521,9.2060375213623,3.41467499732971,0.55082499980927,41.7520523071289,29.2279510498047,28.2750015258789,SHAKE
1.62896251678467,1.35657501220703,0.64459997415543,-1.12447500228882,-0.54133749008179,-0.15180000662804,14.3650503158569,9.36405086517334,3.46005010604858,3.21195006370544,-0.06599999964237,-2.4580500125885,-6.43994998931885,-4.70841264724731,2.69527506828308,0.7990500330925,-40.8300018310547,-42.2770538330078,-0.29191249608994,-0.66536247730255,-0.46860000491142,-0.03258749842644,-0.05706249922514,-1.25963747501373,-22.1869506835938,-9.69195079803467,24.7590007781982,-0.73395001888275,0.21600000560284,14.121000289917,3.57431244850159,-0.66439998149872,-3.1663498878479,34.8540000915527,24.4789505004883,25.5229511260986,-0.15784999728203,-3.33973741531372,-4.4305248260498,1.24121248722076,1.06672501564026,1.89461243152618,19.0090503692627,-13.5150003433228,-32.4790496826172,-9.925950050354,-5.08800029754639,-2.11605000495911,-5.77266263961792,10.8545246124268,12.8519878387451,-50.8800010681152,-9.02205085754394,17.9140510559082,1.43742501735687,2.08133745193481,-0.64941251277924,-4.1904501914978,-3.75952506065369,1.85954999923706,22.1119518280029,42.1060523986816,38.2090530395508,6.00000047683716,7.20000028610229,-1.05494999885559,-5.82367515563965,-8.58646202087402,-9.01532459259033,16.9099502563477,6.46095037460327,-4.98900032043457,-0.46956250071526,0.37317499518394,0.25616249442101,0.7070249915123,-1.29373753070831,-2.57290005683899,-35.6710510253906,-29.3839511871338,4.36995029449463,-6.49905014038086,-4.0009503364563,2.9610002040863,7.50117492675781,-0.10889999568462,-6.74217510223389,36.3100509643555,31.5799522399902,14.1030006408691,SHAKE
0.37317499518394,0.25616249442101,1.85679996013641,-1.29373753070831,-2.57290005683899,-3.90747499465942,-29.3839511871338,4.36995029449463,33.355052947998,-4.0009503364563,2.9610002040863,11.1469507217407,-0.10889999568462,-6.74217510223389,-8.11923789978027,31.5799522399902,14.1030006408691,8.86500072479248,-3.16098737716675,-0.28764998912811,1.40868747234344,0.80492502450943,-0.24447499215603,-0.78925001621246,-32.2339515686035,-32.308952331543,-23.5020008087158,-1.00905001163483,4.32600021362305,-2.46105003356934,8.61973762512207,4.25535011291504,0.77536249160767,32.8729515075684,31.6639518737793,31.7400016784668,-0.91341251134872,-0.76436251401901,-1.14647495746613,2.58953738212585,-0.03684999793768,-0.36781248450279,37.756950378418,5.46495008468628,-12.598051071167,-4.26405000686646,-0.23805001378059,2.14904999732971,-5.21496248245239,9.47526264190674,11.0801620483398,-45.3570022583008,-9.50295066833496,17.5950012207031,2.18020009994507,0.82445001602173,-0.49197500944138,-2.4314124584198,-0.7041375041008,0.81977498531342,35.0620498657227,43.7250022888184,40.5010528564453,-1.12005007266998,-3.09795022010803,-2.78400015830994,-6.49316263198853,-7.56153726577759,-8.175612449646,10.6570501327515,6.37005043029785,-2.56500005722046,-2.14472508430481,-1.57850003242493,-0.28022500872612,0.83888751268387,1.11031246185303,0.70908749103546,-28.795051574707,-33.5539512634277,-29.3599510192871,3.46095013618469,5.09895038604736,1.95195007324219,9.94358730316162,10.5033502578735,7.50763750076294,-4.16700029373169,19.4779510498047,24.8119506835938,SHAKE
-0.77714997529984,-1.12516248226166,-1.49022495746613,1.00814998149872,0.43023750185966,0.28764998912811,25.7980518341064,12.0220508575439,0.71100002527237,-3.0090000629425,-1.31805002689362,0.60600000619888,-7.78511238098145,-7.51574993133545,-3.66024994850159,-1.01805007457733,-19.7110500335693,-43.8859519958496,1.35657501220703,1.27036249637604,0.81056249141693,0.12594999372959,1.30721247196198,-0.68708747625351,-31.9519519805908,-21.7969512939453,20.8309516906738,6.46200037002563,-1.1050500869751,1.84500002861023,4.9354248046875,-1.66264998912811,-5.03305006027222,28.312952041626,30.0180015563965,19.4509506225586,-2.91087508201599,-2.80761241912842,-1.39122498035431,0.99000000953674,0.85909998416901,0.6239749789238,10.5330009460449,-3.16395020484924,-32.1030006408691,2.10600018501282,5.06595039367676,8.26800060272217,-2.20866250991821,10.7757377624512,7.18093729019165,-46.9140014648438,0.43695002794266,25.8649520874023,3.34881258010864,1.80454993247986,-1.11773753166199,-2.4314124584198,-0.72008746862411,0.34402498602867,32.461051940918,39.4860000610351,23.9689502716064,-4.30500030517578,-8.44305038452148,-4.94700002670288,-6.61649990081787,-7.39667510986328,-6.88366270065308,10.992000579834,5.59395027160645,-19.1380500793457,-0.62493747472763,0.49238750338554,0.7595499753952,0.50269997119904,0.76340001821518,0.71555000543594,-33.5950508117676,-31.1710510253906,-21.1090507507324,10.2630004882813,5.32200002670288,1.96395003795624,10.295862197876,7.47779989242554,4.95343732833862,18.1339511871338,23.8540515899658,25.4340019226074,SHAKE
1.94081246852875,2.01313757896423,2.14829993247986,-0.03684999793768,-0.87436246871948,-0.90846252441406,-16.4080505371094,6.2790002822876,37.0740013122559,0.86700004339218,2.05305004119873,-7.14795017242432,0.87972497940063,-5.50439977645874,-8.44909954071045,32.6149520874023,15.246000289917,-6.31995010375977,-4.73385000228882,1.08515000343323,3.45840001106262,0.98257499933243,0.15468749403954,-1.20958745479584,-35.0440521240234,-27.8160018920898,-10.818000793457,12.4069509506226,10.6750507354736,2.32095003128052,8.5420503616333,2.921875,-4.53502511978149,22.8000011444092,32.3220024108887,18.9990005493164,-4.16033744812012,-3.40257501602173,-2.05947494506836,0.47822499275208,1.31669998168945,1.37747502326965,14.2140007019043,-15.1480503082275,-31.7550010681152,0.99705004692078,10.6249504089355,13.5109510421753,-3.76447486877441,9.1698751449585,8.75160026550293,-42.703052520752,0.04905000329018,20.2800006866455,3.38497495651245,1.41831254959106,-0.20253749191761,-0.75844997167587,0.56856250762939,-0.33164998888969,22.8570003509521,41.1820526123047,34.6050033569336,-2.50095009803772,-15.8059511184692,-14.5459508895874,-4.93831253051758,-6.32706260681152,-8.01061248779297,14.2690505981445,10.0219507217407,-7.1850004196167,-2.8215000629425,-0.44508749246597,1.88979995250702,0.83888751268387,0.80588752031326,0.41112500429153,-34.9309501647949,-32.423999786377,-23.0250015258789,15.8269510269165,16.0969505310059,5.42295026779175,8.66648769378662,8.39093780517578,7.30331230163574,1.35195004940033,10.4149503707886,19.570951461792,SHAKE
1.24588751792908,-1.01653754711151,-2.88323760032654,-0.80203747749329,-0.6903874874115,-0.11453749984503,32.8710021972656,23.5060520172119,11.356050491333,-11.6700010299683,-6.20205020904541,1.04895007610321,-6.73145008087158,-7.07203769683838,-6.17484998703003,3.38595008850098,-6.74895048141479,-25.2940521240234,-0.43986248970032,1.47688746452332,1.54604995250702,0.78471249341965,0.73039996623993,0.3812874853611,-30.2940006256104,-24.6160507202148,-12.693000793457,13.5319509506226,4.80495023727417,-0.26895001530647,6.39663743972778,4.20860004425049,0.99151247739792,20.2830009460449,27.82200050354,28.0279521942139,0.07631249725819,-4.08471250534058,-4.59772491455078,-0.6540874838829,0.71334999799728,1.73607504367828,33.6490516662598,7.39500045776367,-7.93200016021729,-12.7429504394531,2.14200019836426,6.31800031661987,-5.16601228713989,2.65691256523132,9.29018783569336,-44.3460006713867,-42.234001159668,-10.4400005340576,2.87526249885559,2.94868755340576,1.70994997024536,-1.58537495136261,-2.49411249160767,-0.84782499074936,-5.22105026245117,27.2830505371094,38.0490036010742,-1.19895005226135,-3.23400020599365,-8.77200031280518,-0.3920125067234,-3.83363747596741,-6.04078769683838,29.1130504608154,20.556001663208,13.7149505615234,-3.62395000457764,-3.61858749389648,-2.7161750793457,0.99426251649857,2.14898753166199,2.36816239356995,1.86705005168915,-10.9260005950928,-24.8190002441406,6.48600053787231,7.80300045013428,8.90505027770996,2.19724988937378,8.20778751373291,9.8872127532959,-38.5380020141602,-12.997950553894,10.1230506896973,SHAKE
1.6715874671936,-1.04321253299713,-2.9970874786377,-0.02309999987483,0.63992500305176,1.10178744792938,38.5759506225586,27.4129505157471,13.81605052948,-12.4309501647949,-8.43600082397461,0.97305005788803,-7.98943758010864,-7.30730009078979,4.0128002166748,-3.4939501285553,-22.2859516143799,-34.0740013122559,2.08340001106262,2.50483751296997,3.32859992980957,-0.94572502374649,-2.0046124458313,-3.6594250202179,-19.1770515441895,-4.8469500541687,13.5000009536743,0.97995007038116,-1.00005006790161,0.33300000429153,5.92721223831177,-0.42074999213219,-3.95394992828369,32.7510032653809,31.465051651001,23.2500019073486,-3.769700050354,-4.03576231002808,-3.36531257629395,-0.26138749718666,0.91987496614456,2.15105009078979,-0.30900001525879,-15.748950958252,-31.0030517578125,5.9089503288269,10.1740503311157,12.1650009155273,-4.23692512512207,8.81237506866455,9.24866199493408,-47.5170021057129,-6.31305027008057,11.4810009002686,3.80847501754761,3.16359996795654,2.12712502479553,-2.17387509346008,-0.45086249709129,0.8729875087738,13.0980005264282,28.1790008544922,41.2579536437988,-0.60195004940033,-6.34800052642822,-14.2249507904053,-1.66581249237061,-5.09478759765625,-7.14546251296997,28.5570011138916,20.556001663208,16.9339504241943,-6.41423749923706,-3.95271253585815,0.04124999791384,1.78612494468689,2.45437502861023,1.88182497024536,-22.1659507751465,-35.2709999084473,-37.2210006713867,14.6550006866455,19.3279514312744,14.5879507064819,4.87052488327026,8.23652458190918,6.48064994812012,-27.8830509185791,10.5660009384155,18.939001083374,SHAKE
