gyro_x_0,gyro_y_0,gyro_z_0,acc_x_0,acc_y_0,acc_z_0,gyro_x_1,gyro_y_1,gyro_z_1,acc_x_1,acc_y_1,acc_z_1,gyro_x_2,gyro_y_2,gyro_z_2,acc_x_2,acc_y_2,acc_z_2,gyro_x_3,gyro_y_3,gyro_z_3,acc_x_3,acc_y_3,acc_z_3,gyro_x_4,gyro_y_4,gyro_z_4,acc_x_4,acc_y_4,acc_z_4,gyro_x_5,gyro_y_5,gyro_z_5,acc_x_5,acc_y_5,acc_z_5,gyro_x_6,gyro_y_6,gyro_z_6,acc_x_6,acc_y_6,acc_z_6,gyro_x_7,gyro_y_7,gyro_z_7,acc_x_7,acc_y_7,acc_z_7,gyro_x_8,gyro_y_8,gyro_z_8,acc_x_8,acc_y_8,acc_z_8,gyro_x_9,gyro_y_9,gyro_z_9,acc_x_9,acc_y_9,acc_z_9,gyro_x_10,gyro_y_10,gyro_z_10,acc_x_10,acc_y_10,acc_z_10,gyro_x_11,gyro_y_11,gyro_z_11,acc_x_11,acc_y_11,acc_z_11,gyro_x_12,gyro_y_12,gyro_z_12,acc_x_12,acc_y_12,acc_z_12,gyro_x_13,gyro_y_13,gyro_z_13,acc_x_13,acc_y_13,acc_z_13,gyro_x_14,gyro_y_14,gyro_z_14,acc_x_14,acc_y_14,acc_z_14,motion_type
0.20748749375343,0.36382499337196,0.46887499094009,0.35895001888275,0.38805001974106,0.95295006036758,0.24557499587536,0.34828749299049,0.46557500958443,-0.69203752279282,-1.10371243953705,-1.51538753509521,2.9800500869751,2.79795002937317,3.11700010299683,11.2660503387451,11.1750001907349,11.1510009765625,0.34787499904633,0.28682500123978,-0.09927500039339,4.07505035400391,6.07800006866455,9.20100021362305,0.45704999566078,0.05871250107884,-0.33096250891685,-2.32539987564087,-2.21306252479553,-1.50686252117157,3.57405018806458,3.41295027732849,2.70495009422302,9.25395011901856,9.46695041656494,9.44505023956299,-3.51752495765686,-4.94945001602173,-6.20771265029907,21.8020515441895,23.0340003967285,21.7879505157471,-0.18067499995232,0.53267496824265,1.46245002746582,0.8729875087738,0.17544999718666,-0.20817500352859,-8.48805046081543,-12.0409507751465,-14.2789506912231,14.3599510192871,15.5500507354736,15.1500005722046,-10.4616870880127,-10.9272623062134,-11.320650100708,12.106050491333,9.78000068664551,7.24095010757446,0.96648746728897,0.47286251187325,0.53033751249313,0.10821250081062,-0.00659999996424,-0.49527499079704,-23.4559516906738,-20.6059513092041,-16.6979999542236,2.49405002593994,4.53000020980835,7.48800039291382,-8.28960037231445,-7.39887475967407,-6.61952495574951,-7.90500020980835,-8.08695030212402,-8.16105079650879,0.64996248483658,0.64267498254776,0.8650124669075,-2.0787250995636,-2.07006239891052,-1.75367498397827,-13.1920509338379,-10.6410007476807,-8.42295074462891,9.01905059814453,10.5769500732422,11.5030508041382,SWING_RIGHT
1.39246249198914,1.88237500190735,2.36857509613037,-0.85995006561279,-2.24595022201538,-2.70795011520386,0.21147499978542,0.16499999165535,0.0196624994278,-1.77320003509521,-2.09453749656677,-2.14829993247986,3.72495007514954,3.38700008392334,3.58605027198792,10.6579504013062,9.86895084381104,9.08400058746338,3.53292489051819,3.2983500957489,2.44928741455078,3.07500004768372,6.65505027770996,11.6059503555298,-0.40424999594688,-0.6572499871254,-0.70235002040863,-0.55646252632141,-0.84356248378754,-0.98890000581741,3.51195025444031,3.60000014305115,3.15705013275146,9.27105045318604,10.5460500717163,11.9200506210327,-2.89451241493225,-3.75938749313354,-4.9652624130249,21.223051071167,21.9430503845215,24.7909507751465,0.93472498655319,0.70867496728897,0.20899999141693,0.21449999511242,0.50641250610352,0.73122501373291,-4.78095006942749,-9.39495086669922,-13.6729507446289,10.885950088501,8.21295070648193,6.63600015640259,-9.12147521972656,-9.03842449188232,-8.93461227416992,19.5169506072998,17.635950088501,15.6810007095337,0.59386247396469,1.48444998264313,2.3617000579834,3.69022488594055,3.32983756065369,1.74528753757477,-20.2939510345459,-19.7749500274658,-19.7299518585205,7.5600004196167,8.17005062103271,8.34000015258789,-8.84784984588623,-8.31764984130859,-7.45511245727539,2.28795003890991,-1.54200005531311,-4.32300043106079,0.79172497987747,0.77219998836517,0.98972499370575,-1.31628751754761,-0.82637500762939,-0.4989874958992,-12.0030002593994,-11.038950920105,-10.8210000991821,6.088050365448,8.05995082855225,9.09600067138672,SWING_RIGHT
-0.00756249995902,0.13777500391006,0.37963750958443,0.99600005149841,0.62505000829697,-0.19995000958443,-0.13681249320507,-0.24310000240803,-0.39696249365807,-0.1568875014782,-0.44398748874664,-0.7567999958992,2.42805004119873,2.64300012588501,2.96805024147034,9.45000076293945,9.25605010986328,9.44505023956299,1.24465000629425,1.64903748035431,1.90437495708466,0.26595002412796,0.90705001354218,2.10105013847351,-0.76958751678467,-0.48496249318123,0.15028749406338,-1.08790004253387,-1.54233753681183,-2.27163743972778,3.20295023918152,2.70000004768372,2.23605012893677,11.6059503555298,13.1179504394531,14.8200006484985,2.86096239089966,2.23176240921021,-0.00756249995902,6.59295034408569,13.2280502319336,22.7209510803223,1.06906247138977,-0.04152499884367,-0.93087500333786,-2.42316246032715,-1.90643751621246,-1.1171875,-0.33495002985001,-2.00100016593933,-3.1230001449585,7.85595035552979,4.90800046920776,6.14805030822754,-5.95485019683838,-5.95856237411499,-6.85519981384277,16.699951171875,17.4210014343262,22.5460510253906,-0.56677502393723,-0.63648748397827,-0.51177501678467,2.53206253051758,2.39772510528564,2.14720010757446,-8.53305053710938,-12.4360504150391,-15.5730009078979,6.50400018692017,5.08305025100708,5.49705028533936,-10.9198369979858,-11.0250253677368,-11.5772247314453,17.473051071167,16.1980514526367,16.090051651001,0.93953746557236,1.26087498664856,1.30116248130798,0.83146250247955,-0.38664999604225,-0.94489997625351,-23.6779518127441,-25.0009517669678,-24.2310009002686,4.22895002365112,6.20805025100708,5.68800020217896,SWING_RIGHT
2.1646625995636,1.74074995517731,1.02478754520416,7.29105043411255,8.68605041503906,12.3829507827759,0.73796248435974,0.43628749251366,0.26028749346733,-1.43852496147156,-1.15871250629425,-0.99384999275208,-1.44600009918213,-1.56000006198883,-2.19195008277893,11.1940507888794,10.4959506988525,11.4820508956909,-3.99038743972778,-4.86626243591309,-5.83151245117188,19.94700050354,20.8380012512207,21.2779502868652,0.43862500786781,0.51314997673035,0.46309998631477,1.3836624622345,1.45089995861053,1.18690001964569,-6.39600038528442,-8.59305000305176,-11.1150007247925,7.51395034790039,7.50000047683716,6.33405017852783,-10.6449747085571,-11.6113252639771,-12.3908128738403,19.5120010375977,19.4280014038086,17.4640502929688,-0.07328750193119,0.28352499008179,0.85401248931885,1.28218746185303,0.6347000002861,0.00673749996349,-23.601001739502,-24.8650512695313,-22.3909511566162,5.97600030899048,8.26800060272217,10.0819501876831,-11.652850151062,-10.8539752960205,-9.85091209411621,5.01600027084351,1.55100011825562,-0.64500004053116,1.70678746700287,1.44897496700287,1.25358748435974,-0.67003750801086,-0.77261251211166,-0.63332498073578,-16.8079509735107,-17.1409511566162,-17.064001083374,8.25600051879883,8.10300064086914,8.03295040130615,-6.78686237335205,-5.9951376914978,-4.66963768005371,-3.49005007743835,-6.42900037765503,-10.4220008850098,1.58097493648529,1.81678748130798,1.87178754806519,-0.71032500267029,-0.23993749916553,0.0141624994576,-13.2709503173828,-11.203950881958,-9.39000034332275,12.163950920105,11.5219507217407,10.5580501556396,SWING_RIGHT
2.37847495079041,1.90313744544983,1.34612500667572,5.95395040512085,7.56405019760132,8.35605049133301,-0.58753746747971,-0.14409999549389,0.45457500219345,-0.14107500016689,-0.90090000629425,-1.97243750095367,-1.09395003318787,-1.50495004653931,-1.8139500617981,11.3880004882813,12.5899505615234,13.4749507904053,0.33206251263618,-0.12003749608994,-1.53711247444153,10.6030502319336,15.0250511169434,21.7900505065918,0.15895000100136,-0.67553746700287,-1.09697496891022,-0.35241249203682,0.49059998989105,0.93403750658035,-3.23100018501282,-3.24705004692078,-4.75305032730103,6.40605020523071,5.65305042266846,7.1650505065918,-8.39946269989014,-10.2393503189087,-12.0621871948242,28.396951675415,28.4730014801025,28.7080516815186,-0.00481249997392,-0.17957499623299,0.01223750039935,1.54247498512268,1.99567496776581,2.51377487182617,-21.1609516143799,-25.9270515441895,-24.9370517730713,5.46105003356934,3.82395029067993,4.61895036697388,-14.0083627700806,-13.3901624679565,-12.0817127227783,17.1760501861572,9.78194999694824,2.42700004577637,1.6493124961853,1.04582500457764,0.32628750801086,-0.64074999094009,-1.04637503623962,-1.20642495155334,-23.3770503997803,-21.8380508422852,-19.4520015716553,3.67605018615723,2.82405018806458,3.44100022315979,-4.78816270828247,-3.07532501220703,-1.50534999370575,-11.6380500793457,-12.3220510482788,-12.1380004882813,0.63538748025894,0.90420001745224,0.99948751926422,-0.47822499275208,-0.7042750120163,-1.11347496509552,-10.078950881958,-8.9640007019043,-8.02395057678223,9.96900081634522,10.042950630188,9.31095027923584,SWING_RIGHT
5.03690004348755,5.58057498931885,5.06990003585815,0.71100002527237,4.26705026626587,13.5370502471924,1.47468745708466,0.7013875246048,0.1710499972105,-0.85456252098083,-0.95961248874664,-1.28823745250702,-1.59600007534027,-2.48205018043518,-1.41405010223389,9.19200038909912,8.68695068359375,9.2989501953125,-3.43076252937317,-4.18825006484985,-5.84485006332397,21.5430011749268,23.5819511413574,29.6430015563965,0.3408625125885,0.14176249504089,-0.04262499883771,0.88027501106262,1.17713749408722,1.09051251411438,-6.98805046081543,-13.6159505844116,-20.4120006561279,7.87095022201538,6.74595022201538,5.55405044555664,-14.4762744903564,-15.5489120483398,-16.0828247070313,29.1049518585205,26.3340015411377,23.1990013122559,0.71843749284744,1.00182497501373,0.98229998350143,0.8595125079155,-0.13983750343323,-0.82403749227524,-39.4639511108398,-37.9060516357422,-32.3550033569336,4.75305032730103,6.6340503692627,6.35805034637451,-11.6945123672485,-9.70915031433106,-7.84368753433228,-1.71705007553101,-5.57400035858154,-6.72300052642822,-1.38283753395081,-1.06287503242493,-0.14533749222755,-0.44893750548363,-0.38046249747276,-0.72503751516342,-18.2149505615234,-16.8370513916016,-14.683051109314,7.4850001335144,10.7020502090454,13.6300506591797,-2.45588755607605,-1.46134996414185,-0.67952501773834,-8.92905044555664,-8.08005046844482,-7.15605020523071,1.56145000457764,1.1583000421524,0.75515002012253,-0.68585002422333,-0.43422499299049,-0.30965000391006,-8.46195030212402,-5.8840503692627,-4.03695011138916,8.05695056915283,7.7509503364563,7.67505025863647,SWING_RIGHT
0.69492501020432,0.82802498340607,1.07112503051758,2.19900012016296,2.02905011177063,1.6560001373291,-0.67058748006821,-0.65958750247955,-0.5655375123024,0.20831249654293,-0.06159999966621,-0.52827501296997,3.37995004653931,3.48000025749207,2.84595012664795,8.43105030059814,8.84895038604736,9.35400009155273,3.67221236228943,3.87378740310669,3.15177488327026,2.70705008506775,6.72195053100586,13.1370010375977,0.24557499587536,-0.0671000033617,-0.24062499403954,-1.53628754615784,-1.75119996070862,-1.64491248130798,-0.37095001339912,0.12795001268387,0.24795001745224,10.2160501480103,9.88095092773438,10.6560001373291,-3.69957494735718,-5.54922485351563,-8.12460041046143,23.7520503997803,27.1189517974854,30.6990013122559,-1.07140004634857,-1.4745500087738,-1.92417502403259,0.78869998455048,1.42147493362427,1.55471253395081,-8.19795036315918,-14.4799509048462,-17.4640502929688,6.16695022583008,4.07595014572144,3.26205015182495,-14.2734622955322,-14.3247499465942,-14.2001752853394,18.6430511474609,16.4560508728027,14.94105052948,0.73067498207092,1.57245004177094,1.67131245136261,0.72022497653961,-1.00237500667572,-1.94548749923706,-23.5009517669678,-24.1420516967773,-23.4360008239746,8.00505065917969,10.1869506835938,8.48099994659424,-10.9394998550415,-9.15818786621094,-6.9591498374939,1.86195003986359,-2.6100001335144,-6.86700010299683,-0.58630001544952,-0.37619999051094,-0.0671000033617,-0.53322499990463,-0.55398750305176,-0.50875002145767,-16.3050003051758,-14.1970510482788,-13.1470508575439,10.7179508209229,11.5870504379272,11.1439504623413,SWING_RIGHT
4.24517488479614,4.2598876953125,3.63439989089966,3.56295013427734,7.30305051803589,12.0630006790161,-1.66636252403259,-1.02011251449585,-0.25162500143051,-1.2502875328064,-0.63222497701645,-0.01759999990463,0.02505000121891,-1.12005007266998,-2.23800015449524,10.7059507369995,12.867000579834,13.1179504394531,-2.12478756904602,-3.16689991950989,-4.26277494430542,18.8749504089355,19.5310516357422,19.6990509033203,-0.4959625005722,-0.47025001049042,-0.29686251282692,0.31583750247955,0.65188747644424,1.08061254024506,-3.27105021476746,-5.33595037460327,-8.88000011444092,9.34695053100586,9.89805030822754,9.796950340271,-11.104362487793,-12.7439126968384,-14.908712387085,25.0440006256104,24.1639518737793,27.6600017547607,0.04042499884963,0.01842499896884,0.58410000801086,2.70792508125305,2.69706249237061,2.68482494354248,-32.3359527587891,-37.2340507507324,-35.7859535217285,3.15900015830994,2.9800500869751,4.99005031585693,-15.2410497665405,-12.5373878479004,-9.58828735351562,4.15904998779297,-5.17695045471191,-8.57700061798096,1.7019749879837,1.25111246109009,0.56209999322891,-0.23141250014305,-0.0042624999769,-0.51974999904633,-12.7759504318237,-20.6869506835938,-24.5779514312744,7.16700029373169,5.76000022888184,5.72895050048828,-4.95426225662231,-2.4400749206543,0.18424999713898,-8.78295040130615,-17.4379501342773,-18.5220012664795,3.60043740272522,3.27786254882813,2.56327509880066,0.75075000524521,1.1588499546051,1.16256248950958,-6.62100028991699,-4.46100044250488,-2.46000003814697,10.9170007705688,6.34905052185059,3.68100023269653,SWING_RIGHT
1.31188750267029,1.62951254844666,1.80056250095367,3.87195014953613,3.52005004882813,3.46695017814636,-0.30662500858307,-0.51672500371933,-0.74153751134872,0.7899374961853,1.300612449646,1.66471254825592,1.84395003318787,1.66395008563995,1.03305006027222,7.5120005607605,6.88200044631958,7.15500020980835,2.18047499656677,2.02537488937378,1.71256244182587,6.1360502243042,7.2940502166748,9.71295070648193,0.53033751249313,0.61943751573563,-0.07562500238419,-0.9314249753952,-1.56309998035431,-1.78543746471405,1.42995011806488,2.800950050354,3.08805012702942,12.1470003128052,11.4670505523682,8.68905067443848,-6.3237624168396,-8.23941230773926,-10.205249786377,28.3560009002686,28.3369522094727,28.0000514984131,-3.55025005340576,-3.73463749885559,-2.75728750228882,2.83868741989136,3.10873746871948,2.7531623840332,-12.2209501266479,-18.1240501403809,-19.066951751709,0.56505000591278,3.43200016021729,9.16995048522949,-13.0712995529175,-12.2845249176025,-11.8263750076294,6.56895017623901,5.84400033950806,6.25800037384033,2.21622490882874,1.94507503509521,1.34392499923706,1.04403746128082,0.04592499881983,-0.58822500705719,-18.4330501556396,-16.0139999389648,-12.9240007400513,5.92800045013428,5.15505027770996,4.31205034255981,-7.11301231384277,-5.94385004043579,-4.94078731536865,-4.54305028915405,-4.54800033569336,-5.56005048751831,-1.00292503833771,-0.52277499437332,0.05266249924898,-0.58822500705719,-0.35117501020432,-0.26441249251366,-9.31095027923584,-8.4330005645752,-7.89405059814453,9.08595085144043,10.606050491333,11.1439504623413,SWING_RIGHT
3.52563738822937,3.29229998588562,2.96367502212524,4.87395000457764,6.58800029754639,7.80300045013428,0.58038747310638,0.85043752193451,0.93348747491837,0.03973750025034,0.09473749995232,-0.07383749634027,0.07995000481606,0.01800000108778,0.31005001068115,11.1160507202148,10.9069509506226,10.2180004119873,-0.68928748369217,-2.09426259994507,-3.38318753242493,16.4869499206543,18.7819499969482,20.6290512084961,-0.75129997730255,-0.91987496614456,-1.10921251773834,-1.01461243629456,-0.02502499893308,0.77770000696182,-2.58195018768311,-5.5969500541687,-11.3830509185791,10.4650506973267,9.16800022125244,8.01705074310303,-13.1483001708984,-14.6412744522095,-15.4011001586914,28.605001449585,24.1950016021729,19.9159507751465,0.71967500448227,1.01777493953705,0.91025000810623,-0.70303750038147,-1.60338747501373,-1.92843747138977,-30.6150016784668,-31.7299518585205,-29.7610511779785,9.34005069732666,8.58600044250488,7.02105045318604,-12.9296751022339,-11.2826995849609,-9.76910018920898,3.1560001373291,0.49305000901222,-2.07105016708374,-1.63212502002716,-1.61136245727539,-1.15568745136261,-1.0671374797821,-1.63157498836517,-1.97601246833801,-18.7800006866455,-19.2100505828857,-17.5230007171631,7.44705057144165,11.7349510192871,14.1349506378174,-4.33482503890991,-2.26778745651245,-0.84686249494553,-10.6710004806519,-11.6329507827759,-9.50595092773438,1.1813999414444,1.18263745307922,1.0922999382019,0.22797499597073,0.30360001325607,0.08373750001192,-9.64800071716309,-7.86600017547607,-5.81505012512207,11.3550004959106,9.72300052642822,9.14100074768066,SWING_RIGHT
-0.70276248455048,-0.56718748807907,-0.42913749814034,0.07395000010729,-0.34800001978874,-0.1540500074625,-0.19167499244213,-0.10381250083447,-0.02928750030696,-0.47822499275208,-0.34141248464584,-0.28146249055862,-1.41195011138916,-0.94995003938675,-0.49305000901222,9.39495086669922,9.6870002746582,9.75900077819824,0.29411250352859,0.44082498550415,0.57144999504089,0.36600002646446,0.86400002241135,1.20405006408691,-0.14781250059605,-0.24914999306202,-0.32615000009537,-0.36698749661446,-0.4989874958992,-0.65532499551773,1.32705008983612,1.87500011920929,2.27895021438599,9.27105045318604,9.41700077056885,9.79200077056885,1.01983749866486,-0.12856249511242,-2.39359998703003,7.33695030212402,14.9010009765625,22.2610511779785,-0.95768749713898,-0.6767749786377,0.12099999934435,0.90846252441406,1.43247497081757,1.72081243991852,2.14995002746582,0.39600002765656,-2.51505017280579,12.8910007476807,14.5090503692627,15.6810007095337,-10.2467746734619,-11.6847496032715,-12.5728626251221,22.0459518432617,19.9230003356934,16.4590511322021,3.96206259727478,4.69150018692017,5.06041240692139,0.77275002002716,0.26578751206398,-0.46241250634193,-15.3150005340576,-18.5140514373779,-20.2920017242432,11.1850509643555,8.54805088043213,6.25305032730103,-12.202712059021,-11.1423120498657,-9.63586235046387,2.06505012512207,-2.94705009460449,-7.89495038986206,1.34035003185272,0.45581248402596,-0.21738749742508,-3.82084989547729,-3.74013757705688,-2.87278747558594,-13.7550010681152,-12.4549503326416,-11.2680006027222,6.57405042648315,9.20805072784424,10.5079507827759,SWING_RIGHT
0.65944999456406,0.46887499094009,0.37606251239777,2.91000008583069,3.32400012016296,2.59200000762939,-3.36820006370544,-3.23138737678528,-2.35537505149841,1.98467493057251,0.98903751373291,-0.6650875210762,0.22905001044273,0.17295001447201,0.08295000344515,7.90395021438599,12.1129503250122,16.135950088501,1.12860000133514,0.8232125043869,-0.31790000200272,3.79995012283325,8.39400005340576,14.5540504455566,1.7800749540329,1.37816250324249,0.96882498264313,-0.951087474823,-0.07383749634027,0.45512500405312,-1.05300009250641,-1.97205007076263,-2.07195019721985,14.9110507965088,13.0920009613037,12.7909507751465,-5.42712497711182,-6.79909992218018,-10.4874000549316,18.0430507659912,19.7299518585205,21.502950668335,1.62854993343353,2.19670009613037,2.51184988021851,0.08126249909401,-0.12155000120401,0.23278750479221,-16.9870510101318,-20.2129516601563,-19.3210506439209,8.72294998168945,8.06205081939697,6.31095027923584,-12.8904876708984,-13.0542497634888,-13.4281120300293,12.1470003128052,13.2040510177612,13.3290004730225,0.2773374915123,0.38733750581741,0.6903874874115,-0.08731249719858,-0.98766249418259,-1.2479499578476,-21.2899513244629,-20.1289501190186,-16.5499515533447,3.29295015335083,6.81795024871826,8.51895046234131,-8.42517471313477,-6.69281244277954,-5.01297473907471,-8.01000022888184,-8.23500061035156,-7.05795049667358,-0.16981250047684,-0.84534996747971,-1.08363747596741,-1.26747500896454,-0.75185000896454,-0.37070000171661,-13.314001083374,-12.9529504776001,-12.3930006027222,8.73495006561279,8.98095035552979,10.9120502471924,SWING_RIGHT
0.83421248197556,0.97226250171661,1.11636245250702,3.17295026779175,3.05805015563965,3.1230001449585,-0.5545374751091,-0.29796248674393,0.03299999982119,-0.63332498073578,-0.78856247663498,-0.68585002422333,2.40795016288757,2.54205012321472,2.956050157547,10.6390504837036,11.2849502563477,11.0800504684448,-0.2909500002861,-1.02409994602203,-2.12602496147156,10.2799501419067,13.642050743103,16.6879501342773,0.21628749370575,0.20047499239445,0.2578125,-0.85084998607635,-0.7177500128746,-0.64432501792908,4.2460503578186,3.50205016136169,-1.89105010032654,11.9650506973267,11.6320505142212,11.6869506835938,-9.71767520904541,-10.6754999160767,-11.6272745132446,21.9790515899658,19.4449501037598,20.1049518585205,-0.65848749876022,-0.89182502031326,-0.52896249294281,-0.3438875079155,-0.21188749372959,-0.1190750002861,-19.1599502563477,-20.8999519348145,-21.2610015869141,3.82695007324219,5.80605030059814,7.8400502204895,-10.9993124008179,-9.68357467651367,-8.4739875793457,1.02195000648499,-1.83405005931854,-2.53500008583069,-0.65477502346039,-0.72930002212524,-0.51177501678467,-1.29428744316101,-0.92661249637604,-0.61146247386932,-15.8340005874634,-15.3559503555298,-14.6710510253906,8.28705024719238,9.550950050354,11.2159509658813,-1.83644998073578,-0.4657124876976,0.62768751382828,-9.96495056152344,-10.5679502487183,-9.68805027008057,1.1423499584198,1.06177496910095,0.85153746604919,-0.03836249932647,-0.08978749811649,-0.19965000450611,-7.26300048828125,-5.79300022125244,-3.92700028419495,10.7640008926392,9.61005020141602,8.95500087738037,SWING_RIGHT
1.33869993686676,1.44622504711151,1.45241248607636,2.67495012283325,2.77605009078979,3.48705005645752,-1.16792500019073,-1.52336251735687,-2.03651237487793,0.26207500696182,0.82293748855591,1.23832499980927,3.24795007705688,3.38505005836487,2.91300010681152,7.15995025634766,6.35805034637451,6.06600046157837,0.32601249217987,0.37358748912811,0.5263500213623,3.73305010795593,3.04905009269714,3.87405014038086,-0.88316249847412,-0.39820000529289,-0.32615000009537,-1.06466245651245,-1.54604995250702,-1.97119998931885,2.61900019645691,1.94400012493134,1.8270001411438,14.1109504699707,13.9080009460449,13.7910003662109,-2.64646244049072,-3.80957508087158,-5.58841228485107,17.1960010528564,20.5150508880615,25.6549510955811,-0.70853751897812,-0.51053750514984,0.16252499818802,1.96033751964569,2.21567487716675,1.96638751029968,-2.01495003700256,-5.5570502281189,-6.86100053787231,13.1730003356934,13.3860006332397,14.2570505142212,-11.1373624801636,-11.6663246154785,-12.212474822998,20.1250514984131,19.8370513916016,20.9479503631592,0.52786248922348,0.24076250195503,0.42528748512268,2.96092510223389,2.91073751449585,2.53206253051758,-16.4110507965088,-17.4420013427734,-17.4090003967285,0.72300004959106,1.58895003795624,3.49200010299683,-11.4965124130249,-10.6669750213623,-9.59433746337891,9.16995048522949,6.80595016479492,4.34595012664795,1.35987496376038,0.79791247844696,0.12099999934435,0.1032624989748,-0.15207499265671,-0.23636250197887,-14.8890008926392,-14.1400508880615,-14.8939504623413,3.43695020675659,2.67600011825562,2.9890501499176,SWING_RIGHT
3.37163758277893,3.33135008811951,2.79496240615845,4.22399997711182,6.69300031661987,9.94500064849854,0.43738749623299,0.45210000872612,0.17847499251366,-1.08294999599457,-1.45433747768402,-1.6328125,0.34605002403259,1.04700005054474,1.29300010204315,11.0890502929688,11.1660003662109,10.042950630188,-1.94026243686676,-2.99461245536804,-4.01596260070801,18.2440509796143,19.1890506744385,20.4210014343262,-0.54119998216629,-0.84163749217987,-0.96263748407364,-0.68708747625351,0.74098747968674,1.10508751869202,-1.22100007534027,-5.34600019454956,-9.06195068359375,9.8899507522583,8.11695003509521,7.36305046081543,-11.0591249465942,-12.4665746688843,-13.8800745010376,23.1829509735107,23.2279510498047,22.0840511322021,-0.52648746967316,-0.20514999330044,0.08923749625683,0.53583747148514,-0.15331250429153,-0.4147000014782,-25.7260513305664,-26.0470504760742,-25.1880016326904,4.16700029373169,5.37000036239624,4.76505041122437,-13.5062122344971,-11.9839496612549,-10.7402620315552,6.58305025100708,1.13205003738403,-1.24305009841919,-1.71764993667603,-1.54783749580383,-0.86734998226166,-1.53628754615784,-1.93943750858307,-1.69743752479553,-22.4100017547607,-18.7920017242432,-15.6690006256104,7.10295057296753,10.9890003204346,12.9679508209229,-2.8859875202179,-1.01915001869202,0.15248750150204,-13.6219511032104,-11.3130006790161,-7.92405033111572,0.66838747262955,0.45086249709129,0.12718750536442,-0.19965000450611,-0.25464999675751,-0.52703750133514,-9.62895011901856,-7.98105049133301,-6.49695014953613,8.20305061340332,7.61700057983398,7.63905048370361,SWING_RIGHT
2.36500000953674,3.26053738594055,3.91407489776611,-1.65000009536743,-1.8270001411438,1.10805010795593,-2.46537494659424,-1.39878749847412,-0.22838750481606,-3.27841258049011,-2.1117250919342,-0.69203752279282,0.50400000810623,1.15905010700226,1.9080001115799,14.1760511398315,16.336950302124,17.9980506896973,-2.53893756866455,-3.94143748283386,-4.82597494125366,22.1350517272949,20.026050567627,17.9110507965088,0.26399999856949,-0.45691248774529,-0.87216252088547,-0.64074999094009,-0.09707500040531,1.08308744430542,-3.67095017433167,-5.60700035095215,-7.78200054168701,8.671950340271,8.01195049285889,8.3299503326416,-9.38781261444092,-10.3200626373291,-10.9492626190186,23.5939502716064,20.7970504760742,20.2920017242432,0.96401250362396,1.48073744773865,1.50397503376007,1.77705001831055,1.78433752059937,1.84552502632141,-19.9020004272461,-20.1270008087158,-21.1030502319336,8.56005001068115,5.92305040359497,2.3689501285553,-13.7053127288818,-13.7590751647949,-12.9405374526978,16.2220516204834,11.0959501266479,5.41500043869019,0.69767498970032,-0.36519998311996,-1.49531245231628,-1.24671244621277,-1.28452503681183,-0.96566247940063,-21.8449516296387,-19.2490501403809,-17.356050491333,3.77895021438599,2.76405024528503,3.31695008277893,-6.35799980163574,-4.9799747467041,-3.68981242179871,-4.5,-4.95000028610229,-6.03600025177002,-0.49224999547005,0.52291250228882,1.29387497901917,-0.33770000934601,-0.06902500241995,0.01292499992996,-15.7360506057739,-13.1209506988525,-11.0460004806519,13.7140502929688,14.0730009078979,12.9630002975464,SWING_RIGHT
-0.02227500081062,0.00838750042021,0.10601250082254,0.27300000190735,-0.11100000888109,-0.41505002975464,-0.63029998540878,-0.76106250286102,-0.87711250782013,-0.40617498755455,-0.49651250243187,-0.74580001831055,2.30295014381409,2.36805009841919,2.29605007171631,9.11700057983398,9.12900066375732,9.22800064086914,0.72421246767044,1.08707499504089,1.60022497177124,-1.18305003643036,-1.81995010375977,-2.11199998855591,-0.66701251268387,-0.4446749985218,-0.17710000276566,-1.55938744544983,-1.43728744983673,-1.54962503910065,2.67195010185242,2.27700018882751,1.82505011558533,10.2709503173828,10.5079507827759,11.017050743103,4.02902507781982,3.07353758811951,-0.22013749182224,3.14400005340576,13.9390506744385,27.9130516052246,-0.76477497816086,-1.49036252498627,-1.81898748874664,-2.46344995498657,-2.12506246566772,2.39030003547669,2.65500020980835,0.23100000619888,-6.63105010986328,9.33495044708252,11.5960502624512,9.83295059204102,-10.6279249191284,-11.7103252410889,-12.9722995758057,23.6370010375977,23.9269504547119,24.7999515533447,0.65614998340607,2.08669996261597,3.35486245155334,3.38731241226196,3.34331250190735,3.09897494316101,-20.521951675415,-20.8740005493164,-21.3589515686035,9.1560001373291,8.72504997253418,6.41595029830933,-12.5435752868652,-11.9913749694824,-11.1776494979858,12.3400506973267,7.68600034713745,2.81895017623901,1.87055003643036,0.67443752288818,-0.50572502613068,-2.36816239356995,-2.61868739128113,-2.82631254196167,-16.4419498443604,-13.9200010299683,-13.032000541687,0.79695004224777,1.66800010204315,3.64500021934509,SWING_RIGHT
0.92949998378754,0.84149998426437,1.08955001831055,5.34795045852661,2.62305021286011,1.23495006561279,-0.4116750061512,-0.69506251811981,-0.72434997558594,0.25107499957085,-0.40246251225471,-0.65532499551773,3.40605020523071,3.48795008659363,3.56400012969971,7.47795057296753,8.28900051116943,8.41604995727539,1.1310750246048,1.25565004348755,0.86597502231598,1.33995008468628,1.96500015258789,4.49895000457764,-1.65041244029999,-1.94493746757507,-2.17703747749329,-0.12388750165701,0.30483749508858,0.57859998941422,2.90895009040833,2.79795002937317,2.6380500793457,7.61505031585693,8.02395057678223,8.63400077819824,2.50676250457764,2.58362507820129,0.08896250277758,1.81905007362366,14.202000617981,23.8890018463135,-0.75858747959137,-0.02557500079274,0.60114997625351,-1.63514995574951,-1.32728743553162,-0.09707500040531,-0.27795001864433,-1.89795005321503,-4.35495042800903,19.4170513153076,20.0670013427734,17.8039512634277,-8.66580009460449,-10.5569753646851,-12.1342372894287,26.0730018615723,28.6980018615723,26.3080520629883,1.46850001811981,2.30051255226135,3.34757494926453,3.10255002975464,2.56011247634888,1.59747493267059,-20.3950500488281,-22.7040004730225,-24.3340511322021,5.91600036621094,6.30105018615723,5.78205013275146,-13.5624494552612,-13.6307878494263,-12.9735374450684,15.9109506607056,11.9190006256104,6.62400054931641,0.33605000376701,-1.02987504005432,-2.15751242637634,-2.82507491111755,-2.56863737106323,-2.29130005836487,-20.6680507659912,-18.1789512634277,-16.7700004577637,-0.31695002317429,1.52700006961823,4.23105001449585,SWING_RIGHT
3.68692493438721,3.9898374080658,3.94226241111755,-0.26895001530647,1.48605012893677,3.94800019264221,-2.0402250289917,-0.94311249256134,0.0489500015974,-2.76526260375977,-2.738450050354,-2.68702507019043,-0.65595000982285,-0.92895007133484,-0.62205004692078,14.6070003509521,15.6049509048462,16.2600002288818,0.00096249999478,-2.40088748931885,-4.65245008468628,17.6500511169434,22.8550510406494,24.6280517578125,-1.46231245994568,-1.7433625459671,-1.55883753299713,-1.96624994277954,-0.56870001554489,1.50342500209808,-2.33295011520386,-4.50795030593872,-6.01095008850098,8.34705066680908,10.1299505233765,10.0050001144409,-9.50152492523193,-11.106837272644,-12.965012550354,26.8630504608154,26.9059505462646,26.9590511322021,-0.4959625005722,0.16128750145435,0.7099124789238,2.27177500724792,1.71599996089935,1.58152496814728,-22.8310508728027,-23.3740520477295,-24.1230010986328,4.09500026702881,5.19105005264282,3.22095012664795,-14.1378870010376,-13.7407875061035,-12.9490623474121,14.7379503250122,10.7320508956909,7.14495038986206,-0.51053750514984,-1.56612503528595,-2.49713754653931,-0.87037497758865,-0.7763249874115,-0.71885001659393,-22.2570018768311,-20.4049510955811,-19.525951385498,1.09605002403259,1.20195007324219,3.88695025444031,-6.72086238861084,-4.90778732299805,-3.0801374912262,-8.77395057678223,-10.827000617981,-11.3839502334595,1.07634997367859,1.46850001811981,1.59802496433258,0.06544999778271,0.16321249306202,0.1717374920845,-13.2900009155273,-11.4019508361816,-9.25095081329346,12.5230503082275,10.642050743103,9.14595031738281,SWING_RIGHT
1.89227497577667,1.70046246051788,1.41817498207092,5.66700029373169,6.28905010223389,7.17900037765503,1.42945003509521,0.98106247186661,0.60114997625351,-0.56980001926422,-1.19528746604919,-1.54481244087219,0.9300000667572,0.95595002174377,1.22400009632111,8.83695030212402,8.05305004119873,8.11200046539307,-0.23347499966621,-0.68804997205734,-1.83026254177094,10.4550008773804,13.7880010604858,20.1030006408691,1.52473747730255,0.63043749332428,-0.88192498683929,-1.37609994411469,-0.82266247272491,-0.21064999699593,1.5330001115799,-0.34500002861023,-3.50805020332336,9.17505073547363,4.06605005264282,0.60795003175735,-8.32741260528564,-10.9601249694824,-14.4285621643066,25.3410015106201,31.677001953125,32.6710510253906,-3.18120002746582,-2.13303756713867,1.13506245613098,3.40931248664856,2.82658743858337,0.04592499881983,-35.4420013427734,-31.1680507659912,-24.166051864624,0.98400002717972,5.61900043487549,11.2690505981445,-11.7958498001099,-9.39276218414307,-7.2632999420166,-4.70295000076294,-7.24200057983398,-7.63500022888184,0.02213750034571,-0.27486249804497,-0.40920001268387,-0.85689997673035,-0.71637499332428,-0.81413751840591,-11.8810501098633,-11.6200504302979,-11.7139501571655,5.41095018386841,7.19100046157837,8.52405071258545,-2.44722509384155,-1.60668754577637,-0.89567500352859,-3.59505009651184,-3.99300026893616,-4.29195022583008,0.29933750629425,0.71238750219345,1.0202499628067,-0.04331250116229,0.05939999967813,-0.05307500064373,-8.66295051574707,-7.2480001449585,-5.96595048904419,11.4360008239746,11.4100503921509,10.900050163269,SWING_RIGHT
3.94831252098084,3.33025002479553,2.7913875579834,3.09405016899109,5.0440502166748,5.80305004119873,0.83819997310638,1.14606249332428,1.03853750228882,-1.68767499923706,-1.47262501716614,-1.53257501125336,0.50400000810623,0.32400000095367,0.49905002117157,13.2880506515503,12.1519508361816,10.900050163269,0.68639999628067,-0.81014996767044,-2.64522504806519,12.0630006790161,16.9440002441406,20.0670013427734,-0.67182499170303,-1.26073753833771,-1.60517501831055,-2.68702507019043,-1.20395004749298,0.60307496786118,-0.58905005455017,-2.14200019836426,-3.48195028305054,9.46695041656494,8.40195083618164,7.87095022201538,-7.71402502059937,-10.2246370315552,-12.5629625320435,27.2580013275146,30.7390518188477,30.2680511474609,-2.22832489013672,-2.06703758239746,0.01471249945462,2.32677507400513,3.06226253509521,3.05868744850159,-20.6580009460449,-23.5489501953125,-24.2040004730225,2.68305015563965,2.64705014228821,6.52605009078979,-14.6228494644165,-13.805549621582,-10.3041124343872,13.8120002746582,8.39700031280518,-2.12400007247925,1.65178751945496,0.55591249465942,-1.35726249217987,-0.65656250715256,-0.91437500715256,-0.74937498569489,-16.2499504089355,-14.1520509719849,-12.8359508514404,3.0990002155304,2.42895007133484,4.69500017166138,-2.35688757896423,-1.47963750362396,-0.70028752088547,-5.35395002365112,-5.25105047225952,-5.78505039215088,-0.08538749814034,0.44604998826981,0.75267499685287,-0.33041250705719,-0.25946250557899,-0.3755125105381,-9.16305065155029,-7.67400026321411,-6.63600015640259,11.1589508056641,10.6369504928589,9.86595058441162,SWING_RIGHT
1.63322496414185,2.18061256408691,2.61181259155273,-3.06705021858215,-2.84595012664795,-1.675950050354,-2.59599995613098,-1.96446251869202,-0.84782499074936,-4.37909984588623,-4.38762474060059,-3.72184991836548,0.27600002288818,0.07500000298023,1.19505000114441,9.5910005569458,11.9389505386353,14.2530002593994,1.85074996948242,1.70898747444153,1.28988754749298,5.9850001335144,8.69595050811768,11.5530004501343,0.53886252641678,0.25052499771118,0.24323749542236,-0.91918748617172,-1.85996246337891,-2.61992502212524,0.47700002789497,0.74295002222061,0.34095001220703,10.326000213623,11.2350006103516,12.4510507583618,-3.46623754501343,-4.92854976654053,-6.93096256256104,22.2450008392334,25.0350017547607,28.8589515686035,-0.12691250443459,-1.03345000743866,-1.50136244297028,0.35378751158714,1.71105003356934,2.71040010452271,-9.55695056915283,-13.9840507507324,-17.473051071167,6.92100048065186,4.36500024795532,4.87695026397705,-13.2276372909546,-14.137749671936,-14.2379875183105,22.9050006866455,18.9469509124756,13.6660509109497,0.65119999647141,1.42587494850159,1.77278745174408,2.17291259765625,0.85346251726151,-0.34498751163483,-25.4220008850098,-24.2260513305664,-22.443000793457,5.9520001411438,5.41995048522949,5.09295034408569,-11.3804626464844,-10.2881622314453,-8.95647525787354,-0.43905001878738,-3.19305014610291,-6.06705045700073,-0.05609999969602,-0.37743750214577,-0.45677500963211,-1.61562502384186,-1.49228751659393,-1.17947494983673,-14.7550506591797,-13.6519508361816,-12.1470003128052,6.14100027084351,7.42605018615723,8.71995067596436,SWING_RIGHT
-0.00384999997914,0.50077497959137,1.11897504329681,2.16300010681152,1.29000008106232,1.06500005722046,-1.06768751144409,-0.90639996528625,-0.6180624961853,-0.99494999647141,-0.78608751296997,-0.61503750085831,0.2119500041008,-0.42900002002716,-1.39995002746582,10.4569501876831,11.2399501800537,11.8140001296997,3.15067505836487,3.17253756523132,2.93067502975464,4.74795007705688,6.31695032119751,8.48805046081543,1.48940002918243,2.5888500213623,2.36527490615845,-1.39328753948212,-1.72796249389648,-1.46162497997284,-3.82905006408691,-2.52195000648499,-2.60400009155273,13.4029502868652,13.7170505523682,9.5910005569458,-5.18512487411499,-6.87225008010864,-9.06523704528809,22.3620014190674,24.6280517578125,27.6880512237549,-0.36891248822212,-0.16967499256134,-0.03781250119209,2.45024991035461,3.0599250793457,3.03421258926392,-12.4390506744385,-16.2360000610352,-20.1270008087158,8.84700012207031,6.81105041503906,4.86795043945313,-14.5518999099731,-14.4542751312256,-14.2819871902466,17.310001373291,12.2850008010864,10.0140008926392,1.78983747959137,1.79231250286102,1.28892505168915,-0.13736249506474,-1.01213753223419,-1.48238754272461,-22.1470508575439,-20.1630001068115,-17.578950881958,5.50200033187866,4.69305038452148,3.17805004119873,-9.60162448883057,-8.06960010528564,-6.41052484512329,-3.39405012130737,-6.1080002784729,-8.41695022583008,-1.29497504234314,-1.39754998683929,-1.2167375087738,-1.63143754005432,-1.41157495975494,-1.03771245479584,-12.5560503005981,-12.0460510253906,-11.97705078125,7.94295024871826,9.34500026702881,10.4980506896973,SWING_RIGHT
4.57022476196289,4.77675008773804,4.53970003128052,-1.36005008220673,0.81405001878738,3.45600008964539,0.41909998655319,1.16929996013641,1.59802496433258,-2.70050001144409,-2.61497497558594,-1.96748745441437,-0.85395002365112,-1.3330500125885,-0.64200001955032,13.8430509567261,12.3379507064819,10.6849508285522,0.45925000309944,-0.90420001745224,-1.96955001354218,16.746000289917,16.7700004577637,16.3099498748779,-0.14657500386238,0.58038747310638,0.80148750543594,-0.81908750534058,-2.81531238555908,-2.9973623752594,-0.30705001950264,-1.62300002574921,-3.57000017166138,9.09794998168945,13.8550510406494,11.8189506530762,-10.0365371704102,-11.1604623794556,-12.611912727356,27.6880512237549,26.1120014190674,26.8990516662598,-2.71452498435974,-2.49947500228882,-2.0402250289917,3.2687873840332,3.83803749084473,3.95175004005432,-20.2560005187988,-25.1659507751465,-28.3800010681152,2.86005020141602,2.33805012702942,2.55105018615723,-14.908712387085,-13.9948873519897,-12.4774370193481,10.0309505462646,4.76700019836426,-1.68300008773804,1.74473750591278,1.66773748397827,1.16929996013641,-0.00659999996424,-0.74084997177124,-0.58698749542236,-20.9119510650635,-19.2180004119873,-18.070951461792,8.93100070953369,6.97095012664795,4.97805023193359,-6.13071250915527,-4.22235012054443,-2.43374991416931,-9.2160005569458,-11.8800001144409,-12.5070009231567,0.42157500982285,0.69162499904633,0.88096249103546,0.0189750008285,-0.30841249227524,-0.33893749117851,-13.3570508956909,-12.3550510406494,-10.9170007705688,8.50005054473877,8.30100059509277,7.63905048370361,SWING_RIGHT
3.08591246604919,3.28872489929199,3.06748747825623,0.75195002555847,2.8000500202179,6.40800046920776,0.06971249729395,0.4643374979496,0.38733750581741,-1.93572497367859,-2.01025009155273,-1.89048743247986,-0.15600000321865,0.34305000305176,0.91800004243851,12.4990501403809,12.0769510269165,10.4020500183105,-1.25125002861023,-2.07831239700317,-3.4539999961853,14.4130506515503,16.5450000762939,20.5290012359619,-0.63648748397827,-0.20391249656677,0.05747500061989,-1.82572495937347,-1.19900000095367,-0.37070000171661,-2.63205003738403,-4.14495038986206,-5.36505031585693,13.5730504989624,13.6950006484985,11.0460004806519,-8.61808776855469,-11.2496995925903,-13.599024772644,26.6119518280029,30.553050994873,27.8730010986328,-2.57042503356934,-2.5471875667572,-1.5966500043869,3.97003746032715,3.77451252937317,3.02816247940063,-26.3080520629883,-28.195951461792,-26.7859516143799,-4.42500019073486,-1.49400007724762,3.02295017242432,-13.8763628005981,-13.1348247528076,-12.0840501785278,7.2199501991272,2.70705008506775,-0.64995002746582,0.87353748083115,0.07342500239611,-0.87106251716614,-1.51909995079041,-1.63638746738434,-1.09023749828339,-19.5810012817383,-17.545051574707,-15.0180006027222,4.88700008392334,4.25699996948242,4.60395002365112,-5.13383769989014,-3.49786257743835,-2.2236499786377,-8.20394992828369,-7.49805021286011,-6.19395017623901,-0.690249979496,0.00371249997988,0.607337474823,-0.23512500524521,-0.46474999189377,-0.51727497577667,-12.8500509262085,-11.5720500946045,-10.3930501937866,11.6800508499146,11.8669509887695,10.9960508346558,SWING_RIGHT
1.22031247615814,1.65164995193481,2.07556247711182,-1.73595011234283,-2.64300012588501,-2.24595022201538,-0.36272498965263,-0.49224999547005,-0.57901251316071,-0.71761250495911,-0.6540874838829,-0.80808746814728,0.67395001649857,0.3120000064373,0.28605002164841,9.85395050048828,9.46395015716553,9.92895030975342,2.79509997367859,3.12496256828308,2.75852489471436,0.43995001912117,1.86705005168915,6.29595041275024,0.20528750121593,-0.10381250083447,-0.67925000190735,-2.19230008125305,-1.89296245574951,-1.22099995613098,0.47505003213882,1.38405001163483,1.54905009269714,11.6800508499146,11.4340505599976,10.4689502716064,-1.40263748168945,-1.57011246681213,-2.46317505836487,13.7980508804321,14.8339509963989,19.9740009307861,-0.89058750867844,-0.18191249668598,0.85043752193451,1.98109996318817,2.60535001754761,2.81063747406006,-1.31400001049042,-2.55795001983643,-3.46305012702942,14.7840003967285,16.0930500030518,16.5450000762939,-5.72137498855591,-6.72072505950928,-7.72873735427856,18.8659515380859,19.7080516815186,19.1410503387451,3.79224991798401,4.00124979019165,3.85948753356934,1.78433752059937,1.1418000459671,0.53336250782013,-12.9360008239746,-13.3290004730225,-12.7519502639771,9.04605007171631,6.88200044631958,5.07300043106079,-8.32493782043457,-8.32369995117188,-8.531325340271,8.76300048828125,9.12405014038086,8.42295074462891,0.93348747491837,0.31900000572205,-0.30167499184608,-1.0341374874115,-1.0781375169754,-1.00966250896454,-13.1440505981445,-12.6420001983643,-13.8120002746582,2.74500012397766,4.05900001525879,4.38195037841797,SWING_RIGHT
-0.0954250022769,-0.58533751964569,-1.29401254653931,11.613000869751,13.5919504165649,16.17405128479,0.19304999709129,0.24076250195503,-0.12457499653101,-1.75615000724792,-1.84167504310608,-1.8990124464035,-0.33495002985001,-2.04404997825623,-1.98405003547668,10.0000505447388,8.52600002288818,6.73200035095215,-5.16064977645874,-6.27123737335205,-7.3816876411438,24.295051574707,25.8319511413574,25.0320014953613,-1.92046248912811,-1.72246253490448,-1.46107494831085,1.51689994335175,1.21508753299713,0.78746247291565,-8.51700019836426,-11.943000793457,-14.3170509338379,5.56605005264282,7.34205055236816,7.64595031738281,-10.9551753997803,-11.3620376586914,-12.0107622146606,20.4090003967285,20.1840000152588,21.7920017242432,-1.42078745365143,-0.76711249351501,-0.15015000104904,1.7575249671936,1.61823749542236,0.77398747205734,-23.0700016021729,-23.613000869751,-22.4940013885498,6.00900030136108,7.09095048904419,7.80900049209595,-11.3425121307373,-10.9113121032715,-10.913649559021,6.81795024871826,7.50900030136108,7.85595035552979,-0.8318749666214,-0.96139997243881,-0.65834999084473,-0.66385000944138,-1.17094993591309,-1.67667496204376,-21.4020004272461,-20.2750511169434,-18.7939510345459,4.72605037689209,8.38005065917969,11.6899509429932,-6.26381254196167,-4.31406259536743,-2.66475009918213,-8.19900035858154,-8.43405055999756,-7.82595014572144,0.91148751974106,0.85896247625351,0.8124874830246,0.68970000743866,0.99027496576309,0.80451250076294,-10.8829507827759,-9.66000080108643,-8.55195045471191,10.3999500274658,8.94300079345703,8.77305030822754,SWING_RIGHT
1.91785001754761,2.27218747138977,2.54704999923706,2.0749499797821,2.65095019340515,3.66795015335083,-0.4311999976635,0.2065249979496,0.93101251125336,-2.23629999160767,-1.83315002918243,-0.9118999838829,0.64200001955032,1.25505006313324,2.89395022392273,12.4480504989624,12.8410501480103,13.9630508422852,-1.88897502422333,-3.80696249008179,-5.02383756637573,25.5319519042969,25.7430019378662,25.6810512542725,-1.02492499351501,-2.57399988174438,-3.44024991989136,-2.56121253967285,-0.8153749704361,2.08862495422363,-1.87605011463165,-4.42005014419556,-8.58405017852783,2.25495004653931,0.63000005483627,1.44300007820129,-9.55391216278076,-10.1818752288818,-11.1604623794556,23.8810520172119,22.2349510192871,25.1070003509521,-1.32302498817444,-0.25038748979568,0.65491247177124,3.87722492218018,3.31154990196228,2.79839992523193,-21.8190002441406,-22.3549518585205,-22.3879508972168,6.09000015258789,6.87495040893555,5.800950050354,-12.1415252685547,-12.0865249633789,-11.6320877075195,15.4630508422852,14.0989503860474,10.171950340271,0.45938751101494,0.33852499723434,0.28104999661446,1.0757999420166,0.69093751907349,0.32326251268387,-18.5740509033203,-18.6460514068604,-18.5089511871338,2.94105005264282,3.95805025100708,5.13300037384033,-8.21246242523193,-7.10325002670288,-6.02442502975464,0.88800007104874,-1.78905010223389,-3.51600027084351,0.16018749773502,0.59509998559952,1.43687498569489,-1.13671255111694,-1.03894996643066,-0.40122500061989,-20.3449516296387,-18.715051651001,-15.3600006103516,10.6249504089355,12.5629501342773,13.2880506515503,SWING_RIGHT
3.68939995765686,3.38277506828308,2.96367502212524,5.889000415802,7.4520001411438,9.153000831604,1.19487500190735,1.2694000005722,0.73672497272491,-1.0671374797821,-1.4470499753952,-2.09330010414124,-1.76400005817413,-1.3000500202179,-1.59600007534027,8.96700000762939,7.33500051498413,5.33895015716553,-0.98972499370575,-1.65439999103546,-2.69898748397827,14.5369510650635,17.284049987793,21.7950019836426,-1.51483750343323,-1.82022500038147,-2.15256237983704,-0.89237499237061,0.49059998989105,1.76123750209808,-4.11600017547607,-5.82705020904541,-9.21495056152344,6.58605051040649,6.05895042419434,4.56105041503906,-10.4469747543335,-12.5508623123169,-14.2342748641968,33.8239517211914,30.3709506988525,29.1480007171631,-2.68647503852844,-2.38466238975525,-1.72246253490448,3.85769987106323,4.07880020141602,3.69875001907349,-30.9430522918701,-32.659049987793,-31.1250019073486,-0.32895001769066,0.02400000020862,1.69005012512207,-14.9452877044678,-13.8946495056152,-12.7572498321533,14.0440502166748,7.06605052947998,4.75005006790161,0.45210000872612,-0.38348749279976,-1.12144994735718,-0.10807500034571,-0.12759999930859,-0.35846251249313,-23.5969505310059,-22.8000011444092,-20.9860515594482,2.85300016403198,1.95495009422302,4.17405033111572,-6.82948732376099,-4.71350002288818,-2.77351260185242,-7.23000049591064,-9.62595081329346,-9.79500007629394,0.31157499551773,0.85772502422333,1.39039993286133,0.01044999994338,0.18878750503063,0.12897500395775,-14.1610507965088,-12.9360008239746,-11.0220003128052,10.687050819397,10.371000289917,10.2109508514404,SWING_RIGHT
3.33877491950989,3.12001252174377,2.66928744316101,3.05100011825562,4.921950340271,6.48495054244995,0.47905001044273,1.50039994716644,2.17222499847412,-3.21722507476807,-3.92713737487793,-3.92466259002686,-2.61600017547607,-2.9479501247406,-2.27295017242432,17.0950508117676,16.4470500946045,14.8630504608154,-1.54068744182587,-2.94456243515015,-4.42282485961914,18.3850517272949,20.4600009918213,23.2999515533447,-0.6767749786377,-1.40483748912811,-1.84098744392395,0.06049999967217,0.91574996709824,1.86381244659424,-3.7020001411438,-6.45600032806396,-10.2010507583618,4.45095014572144,4.49895000457764,4.09995031356812,-10.4787378311157,-11.7493753433228,-13.7370748519897,22.1940002441406,23.2069511413574,27.8730010986328,-3.20691251754761,-3.39377498626709,-2.98938751220703,2.86192488670349,4.12403726577759,4.97667503356934,-25.7839508056641,-27.6840019226074,-26.3050518035889,-0.88200002908707,-1.05900001525879,1.04895007610321,-14.2452745437622,-13.3179750442505,-11.8934745788574,11.7130508422852,7.89705038070679,3.14400005340576,2.59132504463196,2.3897500038147,1.74707496166229,0.60664999485016,-0.09088750183582,-0.20336249470711,-21.3160514831543,-20.9329509735107,-19.6270503997803,7.11900043487549,4.15200042724609,3.01095008850098,-6.13676261901855,-4.46668767929077,-2.92490005493164,-4.56704998016357,-6.33000040054321,-8.26200008392334,-0.20638750493526,0.3092375099659,0.87848746776581,0.25850000977516,0.52964997291565,0.50765001773834,-14.4990005493164,-11.90505027771,-9.76095008850098,7.90200042724609,9.82095050811768,9.98100090026856,SWING_RIGHT
2.42976260185242,2.21966242790222,1.73098754882813,3.56295013427734,6.98295021057129,9.40200042724609,0.93225002288818,0.43505001068115,-0.35048750042915,-1.4860999584198,-3.14888739585876,-3.88437509536743,0.91995006799698,0.5950500369072,0.31695002317429,7.06005048751831,6.97095012664795,5.32200002670288,-2.65746259689331,-3.85343742370605,-4.38116264343262,24.7429504394531,22.9699516296387,20.6370010375977,-0.87106251716614,-1.00416254997253,-1.28273749351501,0.28778749704361,0.23773749172688,1.27613747119904,-2.95500016212463,-4.85295009613037,-13.1280002593994,8.3899507522583,7.78500032424927,6.9060001373291,-11.6711378097534,-11.7994251251221,-12.4946250915527,23.2860012054443,20.0050506591797,22.9840507507324,-1.34255003929138,-0.90034997463226,0.01718750037253,3.5485999584198,3.29326248168945,2.85092496871948,-26.3200511932373,-28.1410522460938,-25.3120517730713,1.18005001544952,3.22605013847351,5.20995044708252,-12.1207628250122,-11.1544122695923,-9.97424983978272,8.33700084686279,3.20895004272461,-0.66195005178452,0.93348747491837,0.20899999141693,-0.38843750953674,-0.56622499227524,-0.84466248750687,-0.99494999647141,-17.7030010223389,-18.7200012207031,-19.8090000152588,2.19495010375977,2.86695003509521,4.75800037384033,-5.56874990463257,-3.69709992408752,-1.73373746871948,-9.33105087280273,-12.5470504760742,-13.9380006790161,0.60843747854233,1.05435001850128,1.39645004272461,-0.40493750572205,0.01292499992996,0.17049999535084,-12.6010503768921,-10.7730007171631,-8.83200073242188,12.6450004577637,11.5530004501343,10.5750007629395,SWING_RIGHT
1.10178744792938,1.23860001564026,1.49641251564026,0.19395001232624,-0.19695000350475,-0.98205006122589,-1.01021254062653,-0.86734998226166,-0.74882501363754,-0.42198750376701,-0.67732501029968,-1.30652499198914,4.64100027084351,3.94005012512207,3.62895011901855,10.242000579834,10.3950004577637,9.9790506362915,3.48287487030029,3.91050004959106,4.22207498550415,-1.17599999904633,-0.05400000140071,1.39305007457733,-0.56196248531342,-0.75734996795654,-1.12144994735718,-3.06583738327026,-2.34135007858276,-1.25399994850159,-0.36600002646446,-1.38795006275177,-1.14600002765656,7.15500020980835,6.91605043411255,7.43805027008057,2.68152499198914,1.41941249370575,-0.61105000972748,12.070050239563,17.7820510864258,23.9029502868652,0.95424997806549,0.64391249418259,-0.01086249947548,-0.61998748779297,-0.95837497711182,-0.26441249251366,-2.52000021934509,-3.15900015830994,-3.61395025253296,14.881950378418,10.6660509109497,7.83705043792725,-5.73127508163452,-6.36652517318726,-7.58216238021851,17.7199516296387,19.1790008544922,21.2200508117676,-0.20762500166893,0.26152500510216,0.37633749842644,1.19184994697571,0.40136250853539,-0.11412499845028,-9.94995021820068,-13.3240509033203,-16.1430015563965,11.9550008773804,10.9789505004883,9.6409502029419,-11.7468996047974,-12.0559997558594,-12.4640998840332,17.8150501251221,16.5180015563965,15.5179510116577,-0.16362500190735,0.05142499879003,0.35681250691414,1.29085004329681,0.85827499628067,0.23649999499321,-21.8809509277344,-21.0910511016846,-19.1670017242432,5.71005010604858,6.95700025558472,7.87800025939941,SWING_RIGHT
2.44199991226196,2.93562507629395,3.23372507095337,0.07005000114441,-0.17805001139641,0.87600004673004,-1.30955004692078,-1.47936248779297,-1.32550001144409,-1.4580500125885,-1.89543747901917,-1.85267496109009,-0.01695000007749,-0.49800002574921,-0.93300002813339,6.78405046463013,7.93995046615601,9.2160005569458,2.35647487640381,1.99003744125366,1.3498375415802,7.70100021362305,9.39900016784668,12.3760509490967,-0.19167499244213,-0.14657500386238,-0.1733874976635,-0.70056247711182,-0.82761251926422,-1.12571251392365,-1.34700012207031,-1.27095007896423,-1.75395011901855,11.5750503540039,11.5180501937866,11.3239507675171,-3.25242495536804,-4.98602485656738,-7.02253723144531,22.5580501556396,25.3459510803223,28.6909523010254,-1.34255003929138,-1.32907497882843,-1.28521251678467,0.13997499644756,1.13561248779297,2.5260124206543,-9.21495056152344,-13.0800008773804,-16.10205078125,10.2280502319336,9.34005069732666,5.86305046081543,-12.1365747451782,-12.3028125762939,-13.3522119522095,19.1629505157471,20.0599517822266,23.53005027771,-1.11897504329681,0.08195000141859,1.49792504310608,3.61446237564087,2.64082503318787,2.04710006713867,-22.3759517669678,-20.3500518798828,-18.6310501098633,2.90505003929138,7.71000051498413,8.53095054626465,-11.8947124481201,-10.8550748825073,-10.1721124649048,5.90595006942749,5.21205043792725,5.92695045471191,1.67378747463226,1.00429999828339,0.45938751101494,-0.48675000667572,-0.96318751573563,-1.20147502422333,-17.5230007171631,-18.7030506134033,-18.9979515075684,3.74505019187927,4.72905015945435,6.27495050430298,SWING_RIGHT
2.58981251716614,2.42618751525879,2.05232501029968,1.14600002765656,2.11800003051758,5.78895044326782,0.51314997673035,0.50338751077652,0.23704999685287,-2.26558756828308,-1.30157494544983,-1.06947493553162,-0.50295001268387,0.40995001792908,-0.17700000107288,6.77505016326904,7.78005027770996,7.71300029754639,-1.34529995918274,-2.1455500125885,-3.03242492675781,15.6760511398315,17.8150501251221,18.961950302124,-1.3914999961853,-1.60159993171692,-1.3585000038147,0.31102499365807,0.6873624920845,0.57007497549057,-3.31905007362366,-4.71900033950806,-6.34395027160645,5.14005041122437,6.37995052337646,8.49105072021484,-7.94612503051758,-10.3786373138428,-12.8807249069214,28.5619506835938,32.2540512084961,34.900951385498,-1.15926253795624,-1.30473744869232,-1.03592503070831,1.45213747024536,2.80458760261536,3.42155003547669,-21.8689517974854,-26.6089515686035,-28.9540519714355,3.23295021057129,1.1779500246048,1.56300008296967,-15.1383371353149,-14.5788497924805,-13.6747875213623,17.1139507293701,12.1369504928589,7.11195039749146,-0.25409999489784,-0.55948752164841,-1.03592503070831,-0.23388749361038,-0.56980001926422,-0.89361250400543,-26.6260509490967,-23.0820007324219,-20.7370510101318,3.42000007629395,3.85305023193359,4.82505035400391,-7.22782516479492,-6.00613737106323,-4.94931268692017,-6.28305006027222,-5.71095037460327,-6.46395015716553,0.80396246910095,1.75078749656677,2.28717494010925,-1.61067497730255,-1.27847504615784,-0.37674999237061,-17.5350017547607,-15.1860008239746,-12.6180009841919,14.9010009765625,13.8390007019043,11.2420501708984,SWING_RIGHT
4.16831254959106,3.95945000648499,3.61611247062683,0.29895001649857,2.10600018501282,3.49605011940002,0.33852499723434,0.69396251440048,0.42886251211166,-3.49703741073608,-3.29546236991882,-2.37187504768372,-0.97200006246567,-0.65595000982285,-0.38100001215935,13.4890508651733,10.6609506607056,7.71300029754639,1.18854999542236,-0.0196624994278,-1.48335003852844,12.0580501556396,14.3700008392334,16.5180015563965,-0.47519999742508,-0.38348749279976,-0.59606248140335,-2.34011244773865,-3.00959992408752,-2.70654988288879,1.03995001316071,-0.19605000317097,-1.0480500459671,10.4670009613037,9.60105037689209,7.09095048904419,-4.98478746414185,-5.70679998397827,-6.88324975967407,21.7399501800537,22.5510005950928,24.8190002441406,-2.90509986877441,-2.69128751754761,-2.39566254615784,1.28713750839233,1.43618750572205,2.00433754920959,-7.41105031967163,-10.207950592041,-10.2559509277344,5.7529501914978,7.55505037307739,6.97095012664795,-11.1788873672485,-11.0664119720459,-10.9308376312256,24.5970020294189,16.8250503540039,17.3749504089355,-1.54536247253418,-0.8953999876976,0.05747500061989,3.84546256065369,3.42031240463257,2.57358741760254,-17.7960014343262,-20.0239505767822,-19.6219501495361,2.52000021934509,3.22800016403198,4.72905015945435,-10.8660745620728,-9.93753719329834,-9.00294971466064,7.94895029067993,3.45795011520386,1.54395008087158,1.1643500328064,0.54862499237061,-0.10381250083447,-0.45746248960495,-0.86432498693466,-1.0731874704361,-17.5279502868652,-17.4829502105713,-16.7170505523682,3.23595023155212,3.74805021286011,4.88700008392334,SWING_RIGHT
1.05421245098114,1.42436254024506,1.9215624332428,0.807000041008,0.94500005245209,1.24905002117157,-0.91863751411438,-0.60224997997284,-0.09404999762774,-3.14765000343323,-3.74989986419678,-3.64856243133545,-1.42905008792877,-2.50995016098022,-3.21600008010864,10.3470001220703,11.1900005340576,11.3070001602173,1.66993749141693,0.22701250016689,-1.05201244354248,13.5220508575439,17.4589500427246,17.9850006103516,0.08318749815226,-0.26867499947548,-0.35048750042915,-0.28641250729561,0.25354999303818,0.56141251325607,-2.23305010795593,-3.13305020332336,-3.23805022239685,8.53395080566406,7.99305057525635,7.93800020217896,-5.46493768692017,-6.9627251625061,-8.48856258392334,22.6900501251221,23.7900009155273,24.1420516967773,0.02942499890924,-0.61572498083115,-1.34378755092621,1.59018754959106,1.68671250343323,2.07762503623962,-10.8450002670288,-13.7260503768921,-14.1520509719849,4.47000026702881,1.63005006313324,0.13905000686646,-13.1298751831055,-13.1751127243042,-12.5801496505737,17.0710506439209,13.326000213623,9.46605014801025,-0.90516251325607,-0.63029998540878,-0.62782502174377,1.19308745861053,1.10632503032684,1.11361253261566,-21.4840507507324,-19.8640518188477,-19.5360012054443,7.07400035858154,6.41595029830933,5.31300020217896,-9.53933715820312,-8.26017475128174,-7.09706258773804,2.70195007324219,0.2710500061512,-0.70500004291534,-0.04509999975562,0.17847499251366,0.19676250219345,0.31955000758171,-0.1544124931097,-0.59427499771118,-16.6210498809814,-19.0020008087158,-19.0720500946045,7.3609504699707,7.86105060577393,7.92795038223267,SWING_RIGHT
1.18978750705719,1.18854999542236,0.65587496757507,7.53795051574707,9.47805023193359,13.756950378418,0.09171249717474,-0.47519999742508,-1.04321253299713,-2.76526260375977,-1.87577497959137,-1.27847504615784,5.95995044708252,5.44005012512207,3.60705018043518,11.050950050354,8.00699996948242,7.52100038528442,-5.87413740158081,-6.55586242675781,-7.36463737487793,20.6149501800537,20.428050994873,21.0000019073486,-1.67241251468658,-2.05727505683899,-2.58500003814697,-0.17765000462532,0.53336250782013,1.51689994335175,-2.91195011138916,-5.0590500831604,-8.5290002822876,5.44200038909912,3.45105028152466,0.95295006036758,-9.74943733215332,-10.0475378036499,-10.1440620422363,23.1520519256592,21.0460510253906,19.5210018157959,-2.19037508964539,-1.50631248950958,-1.09697496891022,2.85587501525879,2.04586243629456,1.6524749994278,-19.336950302124,-18.877950668335,-19.0960502624512,3.11100006103516,4.05900001525879,3.48705005645752,-10.1562995910645,-9.58086204528809,-8.99566268920898,9.9790506362915,6.6259503364563,4.20000028610229,-0.05238749831915,0.19676250219345,0.35681250691414,0.52112501859665,-0.36946249008179,-1.05847501754761,-18.6720008850098,-18.9829502105713,-18.6480007171631,6.1690502166748,7.57905054092407,8.67705059051514,-5.04102516174316,-3.61762499809265,-2.26036238670349,-6.02205038070679,-6.64395046234131,-7.39500045776367,0.91519999504089,1.12653744220734,1.18263745307922,0.30250000953674,0.43559998273849,0.21449999511242,-10.5940504074097,-8.77695083618164,-7.39200019836426,10.44105052948,9.61305046081543,9.06704998016357,SWING_RIGHT
2.9721999168396,3.65763759613037,4.25136232376099,-0.44895002245903,-0.42495003342628,-0.10395000129938,-1.66017496585846,-1.55155003070831,-0.77934998273849,-1.34323751926422,-2.19230008125305,-2.50992488861084,0.33900001645088,-0.86400002241135,-0.45495003461838,8.83995056152344,9.90495014190674,11.7499504089355,0.19896249473095,-1.99650001525879,-3.00561237335205,21.4999504089355,20.3400001525879,17.9830513000488,-1.87646245956421,-2.55089998245239,-2.6119499206543,-1.69743752479553,-1.65467500686646,-1.13671255111694,-0.93105006217957,-2.12295007705688,-4.07805013656616,7.27005052566528,9.57705020904541,12.7830009460449,-10.4189252853394,-13.1115875244141,-15.0052375793457,37.384952545166,34.47705078125,30.6169509887695,-1.74212503433228,-1.04087495803833,0.39833748340607,1.77581250667572,1.50823748111725,0.83146250247955,-32.4029998779297,-35.8560028076172,-33.6229515075684,5.90100049972534,8.84895038604736,10.8810005187988,-15.5036745071411,-14.6178998947144,-13.6662626266479,12.3550510406494,10.0099506378174,7.84200048446655,-0.02557500079274,-1.19226253032684,-1.65041244029999,-1.982062458992,-1.85391247272491,-1.85625004768372,-24.2260513305664,-24.9919509887695,-25.1569519042969,3.06795024871826,5.53995037078857,11.5699501037598,-6.18076229095459,-3.25366258621216,-0.55481249094009,-12.4729509353638,-15.6480007171631,-14.5669507980347,2.72813749313354,3.01523756980896,3.0445249080658,0.76188749074936,0.70936250686646,0.45155000686646,-12.7780504226685,-9.66000080108643,-6.32205009460449,14.0470504760742,10.7760009765625,8.51205062866211,SWING_RIGHT
4.67651224136353,5.62457513809204,6.08272504806519,-2.50695013999939,-1.10205006599426,1.80405008792877,1.25606250762939,0.86748749017715,0.4838624894619,-1.39081251621246,-0.09336250275373,0.86446249485016,-0.8809500336647,-1.14900004863739,-0.43095001578331,7.0620002746582,5.39400005340576,6.5590500831604,3.51958751678467,1.20078754425049,-0.75638747215271,15.8959503173828,18.7870502471924,17.7240009307861,-1.05187499523163,-1.59788751602173,-1.79093754291534,-2.18735003471375,-2.83126258850098,-2.76883745193481,2.4300000667572,0.55905002355576,-1.35705006122589,8.40195083618164,9.94995021820068,12.0199508666992,-5.33046245574951,-7.80821228027344,-10.1465377807617,25.2480010986328,30.3229522705078,30.2350521087646,-1.49778747558594,-2.06703758239746,-2.86728739738464,2.04957509040833,3.25049996376038,3.64869999885559,-13.8120002746582,-19.5310516357422,-25.3390502929688,5.9320502281189,0.20400001108646,-3.03000020980835,-15.192099571228,-14.8952369689941,-14.1781749725342,14.9059505462646,10.4280004501343,6.68805027008057,0.98106247186661,1.8130749464035,1.55897498130798,0.68860000371933,-0.71403747797012,-1.73662495613098,-22.2709503173828,-19.6870517730713,-17.356050491333,7.47795057296753,6.74100017547607,4.588050365448,-8.65961265563965,-6.83691263198853,-5.03854990005493,-8.51805019378662,-8.95800018310547,-9.49905014038086,-1.25826251506805,-1.43426251411438,-1.19844996929169,-1.37376248836517,-0.97666251659393,-0.49403750896454,-10.3999500274658,-10.1700000762939,-9.57900047302246,7.10700035095215,8.42805004119873,9.95700073242188,SWING_RIGHT
3.59411239624023,3.95807504653931,3.89826250076294,1.81200003623962,2.73000001907349,4.83105039596558,-0.64982497692108,-0.24186250567436,0.44110000133514,1.41295003890991,0.65917497873306,-0.23512500524521,0.24000000953674,0.70500004291534,0.74805003404617,10.0219507217407,12.2280006408691,13.3150510787964,2.41381239891052,2.15118741989136,1.52322494983673,6.59505033493042,7.10700035095215,10.2660007476807,0.79048746824265,0.08318749815226,-0.53624999523163,-2.92159986495972,-2.83249998092651,-2.46963739395142,2.32500004768372,3.20505023002625,3.20805025100708,8.72294998168945,8.11005020141602,7.92795038223267,-4.79545021057129,-6.63657474517822,-9.53081226348877,23.2230014801025,27.4369506835938,34.5750007629395,-4.29054975509644,-5.14703750610352,-5.32661247253418,0.02392499893904,2.4282500743866,4.01637506484985,-9.82800006866455,-18.1860008239746,-19.4449501037598,-0.48900002241135,-1.8510000705719,-1.74495005607605,-13.0040626525879,-13.8850250244141,-14.5288000106812,11.5440006256104,15.0400505065918,10.81605052948,-0.52043747901917,0.37262499332428,0.09047500044107,0.49307498335838,-0.85813748836517,-0.85456252098083,-24.2830505371094,-19.5739517211914,-14.8549509048462,6.8230504989624,6.00900030136108,6.06600046157837,-6.68909978866577,-4.78073740005493,-3.19866251945496,-7.61100053787232,-7.74000024795532,-6.93795013427734,-1.53188753128052,-1.32673752307892,-0.88934999704361,-0.54546248912811,-0.47341248393059,-0.43174999952316,-10.3780508041382,-10.1820001602173,-9.66000080108643,8.46705055236816,9.69900035858154,10.7329502105713,SWING_RIGHT
1.09807503223419,1.50617504119873,2.06318759918213,2.74500012397766,2.05305004119873,1.47900009155273,-0.00357499998063,-0.56924998760223,-1.29373753070831,1.38737499713898,2.84487509727478,4.29137516021729,1.56405007839203,1.04205000400543,-0.06705000251532,8.296950340271,6.7819504737854,7.0090503692627,5.36428737640381,5.57562494277954,5.14318752288818,0.27795001864433,2.28105020523071,5.14695024490356,2.3200376033783,2.67685008049011,1.61521244049072,-3.05607509613037,-5.1976375579834,-5.61921262741089,-3.24705004692078,-0.4120500087738,2.18595004081726,17.1790504455566,10.2880506515503,3.31905007362366,0.0314874984324,-2.33859992027283,-5.36112499237061,21.2250003814697,27.856050491333,33.8500518798828,-3.08962488174438,-3.07381248474121,-2.79881238937378,-1.55828750133514,-0.83737498521805,0.46488749980927,-1.44300007820129,-9.52905082702637,-14.2810506820679,7.86405038833618,7.45695018768311,7.28400039672852,-12.6851997375488,-14.0461750030518,-15.2703371047974,22.2180004119873,23.5870513916016,21.1270503997803,-2.51171255111694,-1.91798746585846,-1.06040000915527,3.03902506828308,2.94868755340576,2.51377487182617,-30.3880519866943,-29.3830509185791,-26.1790504455566,2.15205001831055,4.35795021057129,6.25800037384033,-12.5153875350952,-11.1128873825073,-9.89848709106445,1.16505002975464,-0.74505001306534,-2.31300020217896,0.02199999988079,-0.72434997558594,-1.36578750610352,-0.35846251249313,-1.0731874704361,-1.48004996776581,-19.431001663208,-19.6750507354736,-18.2389507293701,3.72105026245117,4.13100004196167,6.61395025253296,SWING_RIGHT
1.69922494888306,2.26971244812012,2.92091250419617,0.50700002908707,0.79200005531311,1.36905002593994,1.27558743953705,0.99825000762939,0.64267498254776,-0.8788999915123,-0.53446251153946,-0.62246251106262,2.40405011177063,1.56405007839203,0.64995002746582,6.70995044708252,6.2509503364563,6.29400014877319,4.1205997467041,3.11148738861084,0.96854996681213,8.53605079650879,14.367000579834,20.7709503173828,-0.81963747739792,-1.43907499313354,-1.77746248245239,-2.24606251716614,-2.04572510719299,-1.70733749866486,3.35595011711121,0.65700000524521,-2.5729501247406,6.48495054244995,7.03095054626465,8.33295059204102,-4.30553770065308,-5.97437477111816,-9.1801872253418,25.10205078125,29.767951965332,37.8100509643555,-1.13849997520447,-2.02551245689392,-3.19714999198914,-0.28764998912811,0.2743124961853,1.10027503967285,-13.6369504928589,-24.5389518737793,-30.6580505371094,6.48495054244995,-0.61095005273819,-1.89900004863739,-16.8781242370605,-16.1413993835449,-14.9576625823975,18.0120010375977,11.2009506225586,4.90305042266846,0.10999999940395,-0.5350124835968,-2.17456245422363,0.06544999778271,-1.66938745975494,-2.42316246032715,-28.8850517272949,-26.3050518035889,-24.2760009765625,6.25800037384033,2.02995014190674,-0.2119500041008,-8.8026123046875,-6.78315019607544,-4.06972503662109,-7.77105045318604,-11.8099508285522,-17.4649505615234,-1.06040000915527,1.05201244354248,2.29322504997253,-0.43064999580383,-0.07507500052452,-0.14588749408722,-17.2339515686035,-14.6659507751465,-12.7230005264282,18.0550518035889,17.3419513702393,13.2240009307861,SWING_RIGHT
3.05896258354187,2.58733749389648,1.96308743953705,5.90295028686523,8.59095001220703,10.7749509811401,0.22976249456406,0.24323749542236,0.09652499854565,-1.94301247596741,-2.01519989967346,-1.49833750724792,-0.68505001068115,0.00405000010505,0.3529500067234,9.42600059509277,9.12705039978027,7.86795043945313,-2.75398755073547,-3.99891257286072,-5.48817491531372,20.1150016784668,23.0820007324219,24.6900005340576,-1.11663746833801,-1.2557874917984,-1.34255003929138,-0.31569999456406,0.52607500553131,1.2529000043869,-5.14005041122437,-7.56900024414063,-12.1750507354736,7.04505014419556,6.05505037307739,5.15505027770996,-11.0200748443604,-12.5031499862671,-14.321174621582,22.3830013275146,22.8190517425537,24.1519508361816,-1.70665001869202,-2.45794987678528,-2.49589991569519,2.71163749694824,3.07697486877441,3.39831256866455,-29.5810508728027,-33.4650001525879,-32.650951385498,-0.21900001168251,-2.37705016136169,-0.07800000160933,-14.3956995010376,-12.4970998764038,-10.7377872467041,4.5949501991272,-3.03105020523071,-6.27300024032593,-0.64130002260208,-0.40191251039505,0.61943751573563,0.95974999666214,-0.01759999990463,-0.84356248378754,-27.8230514526367,-26.7169513702393,-23.590051651001,3.66900014877319,6.96900033950806,12.2620506286621,-3.03132510185242,-0.5157625079155,0.75239998102188,-22.863000869751,-19.2160511016846,-11.1900005340576,2.4227499961853,1.77526247501373,1.01406252384186,-0.32793748378754,-0.53927499055862,-0.61751252412796,-9.85905075073242,-6.39900016784668,-3.58695006370544,4.88205003738403,4.32195043563843,3.6540002822876,SWING_RIGHT
2.59957504272461,2.5946249961853,2.55804991722107,2.06805014610291,3.15405011177063,3.80205011367798,0.43381249904633,0.64143747091293,0.78691250085831,-0.48798748850822,-0.25341248512268,-0.38664999604225,0.59700000286102,0.08295000344515,-0.02205000072718,11.1829509735107,10.885950088501,11.1370506286621,1.46698749065399,-0.79433751106262,-4.07948732376099,11.1769504547119,21.0000019073486,26.4940509796143,0.23581250011921,-0.89787501096725,-1.63583743572235,-2.54045009613037,-1.26871252059937,0.35254999995232,-0.24195000529289,-3.24705004692078,-5.58300018310547,8.87100028991699,6.90900039672852,7.2199501991272,-11.6015625,-14.5263252258301,-16.1475868225098,34.6020011901855,31.4530506134033,24.4650020599365,-1.34502494335175,0.41057500243187,2.99694991111755,4.22784996032715,2.83139991760254,1.23337495326996,-33.2689514160156,-31.5580520629883,-26.6310005187988,3.98895025253296,10.7299509048462,14.8129510879517,-14.3602247238159,-13.4206876754761,-11.5417499542236,5.53695011138916,0.61500000953674,-7.15605020523071,2.0769374370575,1.41968750953674,0.94201248884201,-1.815962433815,-1.45928752422333,-1.07937502861023,-15.9079504013062,-11.3830509185791,-9.91200065612793,5.97300004959106,6.79905033111572,7.40205049514771,-3.81081247329712,-3.11684989929199,-2.46317505836487,-5.53605031967163,-3.64605021476746,-4.10700035095215,-0.01209999993443,-0.08910000324249,0.05623750016093,-0.56127500534058,-0.40369999408722,-0.50146251916885,-8.19105052947998,-7.29105043411255,-6.57600021362305,7.99995040893555,9.10095024108887,10.1730003356934,SWING_RIGHT
4.21217489242554,3.22506237030029,1.71875,7.09995031356812,12.1849508285522,16.0349998474121,1.38063752651215,0.3812874853611,-0.47396248579025,-0.80079996585846,-0.12883749604225,-0.01883750036359,3.34605026245117,2.50200009346008,1.24095010757446,5.51895046234131,3.40305018424988,4.74105024337769,-1.85239994525909,-3.02637505531311,-4.94821262359619,14.767050743103,17.2309513092041,22.2690010070801,-0.35296249389648,-1.26802504062653,-2.07927489280701,-3.50556254386902,-3.6180374622345,-2.85931253433228,0.0679500028491,-4.08300018310547,-8.2339506149292,8.35200023651123,4.45095014572144,2.68800020217896,-12.7206745147705,-15.2582378387451,-16.9196491241455,28.17405128479,30.5550022125244,28.5120010375977,-5.50247478485107,-6.13662481307983,-5.90933752059937,1.16380000114441,2.84968757629395,2.92173743247986,-36.1399536132813,-38.6550025939941,-33.0580520629883,0.67800003290176,-2.32005000114441,3.72105026245117,-12.9014873504639,-10.3981628417969,-5.77898740768433,-4.43100023269653,-8.41995048522949,-9.25200080871582,-1.5246000289917,-1.08473753929138,-0.48496249318123,0.1522125005722,0.14121249318123,0.06916250288486,-15.7720508575439,-16.1380500793457,-15.4990510940552,9.00705051422119,9.49305057525635,10.5559501647949,-1.21343743801117,-0.28366249799728,0.47382500767708,-6.48600053787231,-6.6340503692627,-5.84505033493042,1.30363750457764,1.06658744812012,0.67320001125336,-0.29988750815392,-0.27788749337196,-0.26565000414848,-7.57605028152466,-6.02295017242432,-4.30695009231567,8.01405048370361,6.83205032348633,6.25800037384033,SWING_RIGHT
3.32653737068176,3.77244997024536,3.60992503166199,0.62895005941391,1.97205007076263,4.82400035858154,-1.01145005226135,-0.32738751173019,0.13076250255108,-0.09088750183582,0.07768750190735,-0.12264999747276,2.10900020599365,1.62105011940002,0.96300005912781,11.2729501724243,12.1210508346558,11.5990505218506,2.21347498893738,1.33141243457794,0.19030000269413,8.04495048522949,9.89505004882812,11.4480009078979,-0.6377249956131,-1.08597505092621,-1.28754997253418,-1.88925004005432,-1.79767501354218,-1.66333746910095,1.31505000591278,0.44895002245903,-0.93105006217957,8.40000057220459,8.84700012207031,10.0120506286621,-3.99038743972778,-5.1130747795105,-7.23882484436035,18.1789512634277,22.1700019836426,29.5050010681152,-0.87106251716614,-0.97611248493195,-1.13973748683929,-0.29741248488426,0.51012498140335,0.93046247959137,-14.5560007095337,-16.6840515136719,-17.7289505004883,5.60205030441284,3.72900009155273,1.75905013084412,-14.019362449646,-14.952712059021,-14.8586626052856,22.8190517425537,18.5500507354736,11.8639507293701,-1.62841248512268,-2.0963249206543,-2.79028749465942,-1.4030499458313,-2.07982492446899,-2.20206260681152,-26.8990516662598,-24.1570510864258,-20.9479503631592,4.12800025939941,4.26195001602173,5.02800035476685,-9.13742542266846,-7.35858726501465,-5.40869998931885,-5.79195022583008,-8.45505046844482,-11.2120504379272,-1.62964999675751,-0.15633749961853,1.00182497501373,-0.37798750400543,-0.70179998874664,-0.7958499789238,-14.6470508575439,-13.678050994873,-12.4819507598877,16.8940505981445,17.8279514312744,15.937050819397,SWING_RIGHT
3.70878744125366,2.4285249710083,1.37898755073547,11.2639503479004,13.6540508270264,12.4890003204346,2.09769988059998,1.0225875377655,-0.08538749814034,-2.95583748817444,-2.94112491607666,-2.43787503242493,-2.4190502166748,-2.05305004119873,-1.03905010223389,8.18205070495605,5.19300031661987,4.10205030441284,-3.33313751220703,-5.04955005645752,-6.29199981689453,21.5479507446289,22.666051864624,22.3810501098633,-2.12451243400574,-2.05122494697571,-2.27232503890991,0.48207500576973,0.92922496795654,1.43247497081757,-8.95905017852783,-10.7680501937866,-15.0160503387451,6.54000043869019,5.03805017471313,2.53905010223389,-14.3455123901367,-15.0907621383667,-15.2960500717163,26.0250015258789,20.2900505065918,17.8750514984131,-3.98392486572266,-3.58201241493225,-2.69128751754761,3.62422490119934,3.20402503013611,2.11543750762939,-32.1679496765137,-30.3450012207031,-29.0070018768311,-3.80100011825562,0.79995006322861,4.65900039672852,-12.7964372634888,-10.8417377471924,-8.87356281280518,-1.64505004882813,-5.96205043792725,-9.45300006866455,-1.70060002803802,-1.12749993801117,-0.23938749730587,0.05197500064969,0.0409750007093,-0.10931249707937,-18.9349517822266,-17.8680000305176,-16.4680500030518,6.2790002822876,9.35205078125,10.735050201416,-1.79492497444153,-0.6318125128746,0.57639998197556,-10.4389505386353,-7.74000024795532,-4.80105018615723,1.04334998130798,1.12035000324249,1.13863754272461,-0.24612499773502,-0.36093750596046,-0.48069998621941,-7.8919506072998,-6.45405054092407,-4.5799503326416,8.4330005645752,8.4859504699707,8.36595058441162,SWING_RIGHT
3.40463757514954,3.46568751335144,3.26163744926453,3.26205015182495,4.78800010681152,7.90905046463013,2.42027497291565,2.19917488098145,1.455162525177,-3.0743625164032,-1.43110001087189,-0.18864999711514,-5.00100040435791,-2.81700015068054,-0.77805006504059,10.1419506072998,7.18605041503906,4.81995010375977,-1.93668746948242,-3.30137491226196,-4.25053739547729,20.4210014343262,19.8880500793457,17.8320007324219,-0.83063751459122,-1.26555001735687,-1.70417499542236,-0.34141248464584,-0.68103748559952,-0.44893750548363,-4.4320502281189,-6.65700054168701,-9.42105007171631,6.93795013427734,6.60000038146973,5.29800033569336,-11.9644250869751,-13.2118253707886,-14.2661752700806,24.7000503540039,22.1629505157471,20.9520015716553,-2.5422375202179,-2.95405006408691,-3.01881241798401,2.62363743782043,3.25283741950989,3.72446250915527,-29.3659515380859,-30.2149505615234,-33.0510025024414,1.67295002937317,-0.23505000770092,-1.11105000972748,-15.0077123641968,-13.4818744659424,-11.7543249130249,4.80300045013428,-0.87195003032684,-4.73895025253296,-0.88687497377396,-0.91616249084473,-0.78677499294281,-1.04871249198914,-1.2722874879837,-0.72256249189377,-22.4239501953125,-20.9140510559082,-19.2820510864258,7.82805013656616,7.14300012588501,8.17005062103271,-3.4760000705719,-1.44306254386902,0.07548750191927,-13.7080507278442,-12.492000579834,-10.4460000991821,1.1032999753952,1.37568747997284,1.37321245670319,-0.21064999699593,-0.42693749070168,-0.43546250462532,-11.4810009002686,-9.03600025177002,-6.97305011749268,9.96900081634522,9.21795082092285,7.80105018615723,SWING_RIGHT
2.29294991493225,1.64903748035431,0.81344997882843,6.63300037384033,9.20595073699951,11.1390008926392,-0.36891248822212,-0.40920001268387,-0.38472500443459,-0.93884998559952,-0.57846248149872,-0.14107500016689,1.33905005455017,1.13505005836487,-0.15300001204014,8.53395080566406,8.36400032043457,7.63095045089722,-2.83703756332397,-4.00509977340698,-4.98368740081787,19.9159507751465,19.3950004577637,19.8780002593994,-1.04087495803833,-0.84411251544952,-0.78677499294281,-1.36152493953705,-1.52033746242523,-1.30528748035431,-4.01100015640259,-6.50205039978027,-10.0579500198364,10.4290504455566,11.4700508117676,10.4959506988525,-10.8112125396729,-12.3395252227783,-13.4952125549316,26.9610004425049,27.7240505218506,25.4730014801025,-2.10856246948242,-2.59489989280701,-2.50566244125366,3.13197493553162,3.7977499961853,3.24059987068176,-29.9929523468018,-30.5239505767822,-27.3870010375977,1.46700012683868,1.05300009250641,3.97005009651184,-11.3841753005981,-10.1172494888306,-9.25842475891113,0.07905000448227,-1.33395004272461,-0.47700002789497,-0.23691250383854,-0.50572502613068,-1.28149998188019,0.7899374961853,0.56388747692108,-0.1898874938488,-15.8250007629395,-16.0830001831055,-16.2289505004883,4.74105024337769,3.44100022315979,4.7839503288269,-6.42028760910034,-5.05573749542236,-3.40890002250671,-6.53895044326782,-10.1089506149292,-12.5070009231567,0.53886252641678,1.03977501392365,0.98972499370575,-0.4989874958992,-0.02378750033677,-0.06655000150204,-10.5409507751465,-8.72700023651123,-7.55895042419434,11.1829509735107,8.31599998474121,7.93995046615601,SWING_RIGHT
3.61844992637634,3.04906249046326,1.83232498168945,5.85105037689209,9.8569507598877,14.8459510803223,-0.36272498965263,-0.58877497911453,-1.05187499523163,-2.83373737335205,-2.95583748817444,-2.12877488136292,-1.58205008506775,-1.47405004501343,-2.50095009803772,9.8899507522583,8.56500053405762,6.86100053787231,-4.12348747253418,-5.03621244430542,-6.13689994812012,24.457950592041,23.7229518890381,25.3600521087646,-0.72434997558594,-0.43367499113083,-0.14286249876022,1.56942498683929,1.69881248474121,1.33966255187988,-8.24400043487549,-11.4000005722046,-17.3110504150391,7.4089503288269,5.95395040512085,4.33395004272461,-13.9705495834351,-15.5953874588013,-17.0798377990723,28.0830020904541,25.6230010986328,23.9220008850098,-1.68093752861023,-1.91069996356964,-2.31261253356934,-1.91372501850128,-2.7664999961853,-2.54292488098145,-35.401050567627,-34.4130020141602,-19.3999500274658,0.96195006370544,3.96105027198792,4.40295028686523,-9.29018783569336,-7.82416248321533,-5.4625997543335,-1.52595007419586,-2.44200015068054,-11.28600025177,-2.96628737449646,-0.61682498455048,0.60967499017715,-1.19652497768402,-0.62851250171661,-0.51603752374649,-13.16100025177,-10.53600025177,-8.65095043182373,22.03005027771,21.1729507446289,16.1669998168945,-0.01979999989271,-0.75776249170303,-1.34420001506805,2.20395016670227,5.66205024719238,4.23600006103516,0.53267496824265,0.71843749284744,0.94929999113083,0.01168750040233,0.16197499632835,0.1142624989152,-3.28095006942749,-2.39805006980896,-1.95795011520386,9.9859504699707,10.9930505752563,11.1490507125854,SWING_RIGHT
2.80362486839294,2.70091247558594,2.64357495307922,3.22800016403198,3.84600019454956,3.61095023155212,-0.97734999656677,-0.89787501096725,-0.73177498579025,1.35794997215271,0.68970000743866,-0.4159374833107,0.68805003166199,0.40605002641678,-0.46695002913475,9.01500034332275,10.0530004501343,10.8810005187988,2.84267497062683,2.51762509346008,1.6160374879837,4.48695039749146,7.58100032806396,12.235050201416,0.39105001091957,-0.03162499889731,-0.57172501087189,-2.49163746833801,-2.04929995536804,-1.56433749198914,-0.62700003385544,-1.23000001907349,-2.21805000305176,9.5310001373291,8.03295040130615,7.50000047683716,-3.22808742523193,-4.06615018844604,-5.1473126411438,21.3709506988525,21.469051361084,23.7499504089355,0.31776249408722,0.50709998607635,0.34952500462532,-0.32312500476837,-0.32065001130104,-0.59675002098083,-5.74995040893555,-7.30095052719116,-9.52395057678223,9.86895084381104,7.3080005645752,5.06400012969971,-11.4342250823975,-11.5209875106812,-11.7823753356934,18.6480007171631,16.5330009460449,17.3010005950928,-2.01203751564026,-2.43595004081726,-3.01262497901917,0.45155000686646,0.97679996490479,1.03908753395081,-18.598051071167,-21.8860511779785,-24.8170509338379,1.05300009250641,-0.36705002188683,-1.01805007457733,-11.9571371078491,-10.6902122497559,-9.41847515106201,4.80495023727417,0.47400003671646,-2.06895017623901,-3.56358742713928,-3.42443752288818,-3.10433745384216,-0.99989998340607,-1.26499998569489,-1.56805002689362,-19.0570507049561,-19.85205078125,-20.0860500335693,6.85605049133301,8.18400001525879,10.4310007095337,SWING_RIGHT
2.84625005722046,2.61786246299744,1.85556244850159,5.7810001373291,9.82500076293945,13.0530004501343,1.29758751392365,0.27376249432564,-0.69629997014999,-0.79832500219345,-0.8398500084877,-1.3639999628067,2.3490002155304,2.85600018501282,2.80995011329651,1.74705004692078,2.90805006027222,3.43695020675659,-3.19013738632202,-4.66482496261597,-5.93161249160767,21.1650009155273,21.7279510498047,21.7300510406494,-3.51848745346069,-2.916100025177,-2.70847487449646,-0.96937501430511,-0.76284998655319,-0.36946249008179,-6.41295051574707,-8.05005073547363,-12.7570505142212,9.22800064086914,11.3929510116577,8.16000080108643,-15.426812171936,-16.8805999755859,-17.8336124420166,29.9500522613525,23.1900005340576,21.223051071167,-4.08292484283447,-3.46953749656677,-2.42261242866516,2.99021244049072,2.42330002784729,0.13392500579357,-43.2469520568848,-36.9990005493164,-20.1409511566162,2.16105008125305,5.88495016098022,12.8650503158569,-9.27066230773926,-7.70440006256104,-6.13689994812012,-9.21405029296875,-4.73895025253296,-6.71595048904419,-1.40855002403259,-0.45567500591278,0.35804998874664,0.0189750008285,-0.50998747348785,-0.78113746643066,-12.6040506362915,-10.0720500946045,-9.11700057983398,11.2849502563477,12.9630002975464,11.8690509796143,-1.56406247615814,-1.46272504329681,-1.22072494029999,-2.36100006103516,-1.58805012702942,-2.31000018119812,0.30676248669624,0.02694999985397,-0.18933749198914,-0.4989874958992,-0.48675000667572,-0.4672249853611,-4.48200035095215,-3.73995018005371,-3.26895022392273,7.72005033493042,7.87995052337646,8.3230504989624,SWING_RIGHT
5.04295015335083,5.04171228408813,4.32822513580322,5.96100044250488,9.04800033569336,12.6829509735107,-0.7012500166893,-0.30414998531342,0.26276248693466,-0.26565000414848,0.17049999535084,0.14726249873638,-3.77895021438599,-1.74705004692078,-0.11295000463724,7.72005033493042,8.99295043945313,9.69195079803467,-2.19078755378723,-4.19801235198975,-5.7386999130249,27.1020011901855,27.6690006256104,26.7550506591797,-2.38342499732971,-3.24720001220703,-3.55025005340576,-1.55333745479584,-0.9706124663353,-0.01154999993742,-3.34800004959106,-6.14805030822754,-10.1389503479004,1.09395003318787,2.05605006217957,3.97005009651184,-11.8863248825073,-13.1324872970581,-14.2966995239258,27.0400505065918,27.306001663208,27.9520511627197,-5.01256227493286,-5.24466228485107,-4.55083751678467,2.48806238174438,3.3127875328064,3.60112500190735,-29.1240005493164,-31.85205078125,-31.4329509735107,-1.06605005264282,0.20400001108646,4.96095037460327,-13.3670625686646,-12.1648998260498,-11.5295124053955,9.35595035552978,10.5409507751465,12.5800504684448,0.66467499732971,0.9285374879837,0.76614999771118,0.95727497339249,0.10697499662638,-0.50751250982285,-21.1129512786865,-20.4240016937256,-20.8900508880615,5.61195039749146,4.88400030136108,4.57800006866455,-8.68298721313477,-7.02391242980957,-5.12283754348755,0.88800007104874,-2.96595025062561,-5.67705011367798,0.3408625125885,0.70372498035431,1.00677502155304,-0.41346248984337,0.0276375003159,0.15950000286102,-15.0880508422852,-13.2190504074097,-11.5240507125854,9.78705024719238,10.0960502624512,9.83805084228516,SWING_RIGHT
3.70878744125366,4.00565004348755,3.93854999542236,3.00300025939941,4.77195024490356,5.64300012588501,0.7233874797821,0.38981249928474,0.18095000088215,0.55659997463226,0.58464998006821,0.41359999775887,2.41995000839233,2.23095011711121,2.04704999923706,7.54305028915405,7.40205049514771,8.01000022888184,3.50487494468689,2.9855375289917,2.53838753700256,7.64100027084351,8.40900039672852,8.45205020904541,-0.45801249146461,-0.79406249523163,-1.22168743610382,-0.59798747301102,-0.9229000210762,-1.23447501659393,3.23895025253296,3.39405012130737,4.53105020523071,8.17500019073486,7.3560004234314,6.07395029067993,-2.15173745155334,-3.98543739318848,-6.10032510757446,25.1089515686035,27.4110012054443,30.8710517883301,-3.10557508468628,-1.77869999408722,-1.22402501106262,2.23272490501404,2.57606244087219,1.50218749046326,-7.48800039291382,-11.2129507064819,-13.19700050354,12.0990009307861,11.053050994873,8.81805038452148,-12.9357252120972,-13.7567377090454,-13.9020748138428,25.336051940918,24.211950302124,20.8300514221191,-1.2754499912262,-0.80753749608994,-0.31762498617172,0.78264999389648,0.23773749172688,-0.23512500524521,-22.6920013427734,-23.0269508361816,-22.7850017547607,5.16405010223389,6.69300031661987,7.27005052566528,-11.241174697876,-9.55528736114502,-7.83021259307861,9.46395015716553,4.75995016098022,1.42200005054474,-0.50448751449585,-0.5020124912262,-0.45196250081062,0.24750000238419,-0.21683749556541,-0.83008748292923,-10.2370500564575,-10.6489505767822,-10.9860000610352,5.58300018310547,6.53505039215088,7.46205043792725,SWING_RIGHT
1.19707500934601,1.76756250858307,2.45300006866455,0.73695003986359,0.66495001316071,1.02900004386902,-0.37014999985695,0.72324997186661,1.56007504463196,-5.41516256332397,-6.59532499313354,-6.3339376449585,0.97305005788803,0.32400000095367,-0.16800001263618,15.4830007553101,14.767050743103,12.4459505081177,-0.15784999728203,-2.63669991493225,-5.04460000991821,21.5770511627197,27.1570510864258,30.0790519714355,-2.86852502822876,-3.24114990234375,-2.71947503089905,-0.73837500810623,1.14908754825592,2.71287488937378,-2.13705015182495,-5.53695011138916,-7.95195055007935,1.24995005130768,3.00600004196167,4.53495025634766,-10.7109746932983,-12.6803874969482,-14.3199377059937,26.6860504150391,25.2210006713867,24.0300006866455,-2.26751255989075,-2.23698759078979,-1.84717500209808,1.29085004329681,0.9645624756813,0.72764998674393,-30.105001449585,-32.014949798584,-29.6170520782471,-0.8479500412941,0.93795001506805,3.38205027580261,-13.7884998321533,-12.0670003890991,-10.1795377731323,4.45305013656616,-0.78405004739761,-3.96405029296875,-1.36826252937317,-1.48431253433228,-1.49902498722076,-0.89966249465942,-1.01942503452301,-1.10494995117188,-14.8240509033203,-14.9250011444092,-14.731050491333,7.07895040512085,7.86795043945313,9.25095081329346,-4.2407751083374,-2.73569989204407,-1.36358749866486,-7.17300033569336,-7.08195018768311,-6.6540002822876,0.18452499806881,0.61572498083115,0.9345874786377,-0.47451248764992,-0.41098749637604,-0.36093750596046,-11.0670003890991,-9.16695022583008,-7.29105043411255,12.2809505462646,11.7349510192871,11.0149507522583,SWING_RIGHT
1.7627500295639,1.2838374376297,0.98573750257492,6.84105014801025,6.84900045394897,6.2310004234314,-2.20398759841919,-2.89176249504089,-3.17405009269714,0.25354999303818,-1.27723753452301,-3.42374992370605,2.31495022773743,1.69500005245209,1.15905010700226,6.09795045852661,7.41795015335083,10.5559501647949,1.97408747673035,1.31188750267029,-2.99103736877441,8.93805027008057,15.6190509796143,30.3709506988525,-1.26073753833771,-0.38967499136925,0.56319999694824,0.34759998321533,1.43247497081757,1.64023745059967,-4.5130500793457,-6.01800012588501,-7.98495054244995,14.3770503997803,14.8129510879517,12.9270009994507,-10.4311628341675,-13.3241624832153,-15.4316253662109,28.5360012054443,30.5170516967773,28.2510013580322,-1.81293749809265,-2.77694988250732,-2.90881252288818,-0.94489997625351,0.19373749196529,1.05503749847412,-30.586051940918,-32.1750030517578,-30.3210010528564,-4.96605014801025,-5.03295040130615,-3.20295023918152,-15.1042375564575,-14.01207447052,-12.5813875198364,9.51000022888184,8.4330005645752,6.04200029373169,-2.6168999671936,-3.56124997138977,-4.48978757858276,-3.65337491035461,-3.51656246185303,-2.5636875629425,-17.3179512023926,-13.9890003204346,-13.4200506210327,4.17600011825562,4.23405027389526,5.35305023193359,-4.14424991607666,-2.92256259918213,-1.92073750495911,-1.81500005722046,-1.87305009365082,-1.89900004863739,-1.6773624420166,0.24310000240803,1.68602502346039,-0.07259999960661,-0.24860000610352,-0.43917500972748,-14.7259502410889,-13.0030508041382,-11.368950843811,16.6810512542725,16.4830513000488,14.8099508285522,SWING_RIGHT
2.82686257362366,2.51405000686646,2.56286239624023,3.35700011253357,2.61600017547607,2.97900009155273,-0.50214999914169,-0.53267496824265,-0.18328750133514,0.54917502403259,0.10216250270605,-0.8398500084877,0.94200003147125,1.03995001316071,1.7650500535965,8.4330005645752,9.59400081634522,10.756950378418,0.45553749799728,-1.78763747215271,-3.61404991149902,17.1000003814697,23.4940509796143,27.2029514312744,-1.72864997386932,-2.03775000572205,-2.39456248283386,-1.44952499866486,-0.25464999675751,0.12168750166893,-2.91705012321472,-6.92505025863647,-9.30600070953369,5.97300004959106,5.10495042800903,5.03505039215088,-11.021312713623,-12.3297624588013,-13.0345878601074,27.2430019378662,25.7430019378662,24.3930015563965,-2.66571259498596,-2.57894992828369,-2.3530375957489,1.11361253261566,1.94081246852875,2.32567501068115,-25.2979507446289,-23.9869518280029,-21.760950088501,3.74100017547607,3.66900014877319,4.02104997634888,-12.1232376098633,-11.5025625228882,-11.0493621826172,10.4809503555298,10.6489505767822,11.5030508041382,-1.26692497730255,-1.89364993572235,-2.76594996452332,0.09116250276566,-0.42570000886917,-0.47093749046326,-23.2159519195557,-21.5839519500732,-19.9450511932373,2.73300004005432,2.70705008506775,3.11400008201599,-7.10077476501465,-6.40805006027222,-3.29889988899231,0.92895007133484,-2.04704999923706,-11.0610008239746,3.25462508201599,4.15511226654053,3.82277488708496,-0.42941248416901,0.38554999232292,0.68117499351501,-14.7289505004883,-10.6939506530762,-8.40195083618164,15.5230503082275,8.11200046539307,6.21000051498413,SWING_RIGHT
2.32718753814697,1.98742496967316,1.90561246871948,9.52605056762695,7.77195024490356,6.57300043106079,-0.00247499998659,-0.26881250739098,-0.66096252202988,0.25121250748634,-0.12759999930859,-0.55027496814728,1.42695009708405,1.12604999542236,0.90105003118515,7.76100015640259,7.09305047988892,5.7049503326416,0.27706250548363,-1.07538747787476,-1.96226251125336,11.5120506286621,15.493950843811,18.8899517059326,-1.78365004062653,-1.4195499420166,-1.19597494602203,-0.31322500109673,-0.03478749841452,-0.02007500082254,-0.80895006656647,-1.32300007343292,-3.3840000629425,8.84700012207031,9.48600006103516,8.79705047607422,-10.5961627960205,-11.8691377639771,-14.0951251983643,25.666051864624,26.2980003356934,23.1559505462646,-3.27043747901917,-2.48985004425049,-1.74941253662109,1.70252501964569,1.38985002040863,0.35749998688698,-26.881950378418,-26.7340507507324,-19.0429515838623,-1.50795006752014,4.34100008010864,4.6690502166748,-8.74032497406006,-8.03426265716553,-7.07520008087158,0.03795000165701,0.43605002760887,-3.41595005989075,-1.56007504463196,-0.57791250944138,0.24076250195503,-0.71156251430511,-0.7042750120163,-0.63580000400543,-15.0949506759644,-13.1400003433228,-11.5720500946045,10.4740505218506,12.5749502182007,12.3810005187988,-0.65628749132156,0.14877499639988,0.73645001649857,-8.02005004882813,-5.98095035552979,-4.60005044937134,0.55343747138977,0.64996248483658,0.6707249879837,-0.55522501468658,-0.63098752498627,-0.73837500810623,-5.889000415802,-4.43400001525879,-3.17100024223328,9.51000022888184,9.59805011749268,9.24705028533936,SWING_RIGHT
0.77549999952316,0.52263748645782,0.62521249055862,5.04900026321411,3.73800015449524,1.00005006790161,-0.63896250724792,-0.70001250505447,-0.53624999523163,0.2072124928236,-0.44151249527931,-0.71885001659393,3.4830002784729,3.307950258255,2.99505019187927,9.31095027923584,10.0270500183105,10.570050239563,2.16823744773865,2.61428737640381,3.3900625705719,0.4909500181675,0.66105002164841,2.14200019836426,-1.22897493839264,-0.42267498373985,0.20528750121593,-2.25582504272461,-1.74762499332428,-1.27600002288818,0.44595003128052,-1.23300004005432,-0.74400001764297,10.0219507217407,10.7610006332397,11.5369501113892,-0.90310001373291,-2.20907497406006,-7.06777477264404,16.7149505615234,18.4489517211914,30.0450019836426,-0.44962498545647,-1.60283744335175,-2.48008751869202,-4.02971267700195,-2.95336246490479,-0.84589999914169,-4.21695041656494,-8.6050500869751,-11.0820007324219,4.91295003890991,1.78305006027222,-0.12300000339746,-12.9612998962402,-13.325400352478,-13.589262008667,24.517951965332,19.7869510650635,18.351001739502,-4.98093748092651,-4.63388729095459,-3.89963746070862,1.68423748016357,1.7795250415802,2.02757501602173,-23.0370006561279,-24.7840518951416,-24.0109519958496,0.52200001478195,2.56995010375977,4.65900039672852,-11.7713747024536,-10.763500213623,-5.84856224060059,3.30495023727417,-0.51600003242493,-14.1220502853394,0.50091248750687,0.03795000165701,-0.54614996910095,-1.21852505207062,-0.10064999759197,-0.14588749408722,-14.6500511169434,-11.8500003814697,-10.5390005111694,10.4460000991821,5.6380500793457,5.5570502281189,SWING_RIGHT
2.03390002250671,2.13289999961853,2.3955249786377,4.11794996261597,3.19500017166138,2.67795014381409,-0.40438750386238,-0.88934999704361,-1.44031250476837,0.26702499389648,0.21078750491142,-0.21312500536442,1.51095008850098,1.45800006389618,1.23105001449585,7.21695041656494,6.49995040893555,6.89205026626587,2.82562494277954,2.33571243286133,1.6637499332428,5.19000005722046,7.3560004234314,9.22005081176758,-0.71706247329712,-0.57296252250671,-1.20945000648499,-1.94548749923706,-2.03830003738403,-1.37376248836517,0.45105001330376,1.09995007514954,1.1779500246048,10.9459505081177,9.78495025634766,8.35395050048828,-3.70452499389648,-5.40746259689331,-6.72814989089966,17.3700008392334,19.2150001525879,21.6510009765625,-0.53872501850128,-0.99082499742508,-1.69564998149872,0.02392499893904,-0.73479998111725,-0.45127499103546,-10.4119501113892,-15.0010509490967,-15.2770509719849,8.15505027770996,5.76705026626587,3.96795010566711,-13.2606372833252,-13.1592998504639,-12.6644372940063,17.7460517883301,14.9290504455566,9.11205005645752,-2.21251249313354,-0.37138751149178,0.01718750037253,1.33608746528625,0.90969997644424,0.63593751192093,-20.3899517059326,-15.0709505081177,-14.0539503097534,9.12495040893555,8.47095012664795,7.62405014038086,-6.13194990158081,-4.94326257705688,-3.78386259078979,-4.08405017852783,-4.91595029830933,-5.68395042419434,-0.13557499647141,-0.24062499403954,-0.19428749382496,-0.5490375161171,-0.57722496986389,-0.54656249284744,-11.6320505142212,-10.5409507751465,-9.52200031280518,7.05495023727417,7.9350004196167,8.79900074005127,SWING_RIGHT
1.64779996871948,1.77856254577637,2.09866237640381,3.86700010299683,2.64000010490417,3.09405016899109,-1.52583754062653,-1.4415500164032,-0.40314999222755,0.428312510252,0.2035000026226,-0.50627499818802,1.88205003738403,1.55400002002716,1.00394999980927,8.38304996490479,10.5630006790161,12.4009504318237,0.63139998912811,0.34553748369217,-0.51700001955032,7.82295036315918,9.65100002288818,13.7760009765625,-0.74153751134872,-1.39273750782013,-1.82283747196198,-1.64133751392365,-1.73167502880096,-1.92953753471375,1.77705013751984,1.49700009822845,0.15000000596046,7.87800025939941,8.15295028686523,9.36405086517334,-5.2804126739502,-6.65733766555786,-8.26636219024658,21.3709506988525,24.4050006866455,26.2840518951416,-1.73965001106262,-1.75065004825592,-2.03651237487793,0.60417497158051,1.30666244029999,1.7685250043869,-7.51395034790039,-11.0599508285522,-15.3150005340576,7.85595035552979,5.92095041275024,3.18105006217957,-12.4861001968384,-12.2307624816895,-11.961950302124,16.8700504302979,12.9820508956909,10.4310007095337,-0.97487497329712,-0.73301249742508,-0.76353746652603,0.89993751049042,0.10697499662638,-0.30112498998642,-16.5880508422852,-14.1900005340576,-15.1860008239746,5.7049503326416,5.59995031356812,5.5420503616333,-8.68422508239746,-7.08125019073486,-5.94261264801025,4.26405000686646,0.33300000429153,-2.50905013084412,-0.03423750028014,0.33715000748634,0.70867496728897,-0.74208748340607,-0.64184999465942,-0.33288750052452,-14.4580507278442,-13.2090005874634,-11.5360507965088,11.1510009765625,11.1850509643555,10.885950088501,SWING_RIGHT
0.94407498836517,1.12983751296997,1.66732501983643,2.3929500579834,2.050950050354,1.56000006198883,-1.03358745574951,-0.68777501583099,-0.45443749427795,-0.02488750033081,-0.61751252412796,-0.83132499456406,2.85600018501282,2.00595021247864,1.95105004310608,8.44995021820068,9.18195056915283,9.07395076751709,2.35276246070862,1.52446246147156,-0.67828750610352,9.35400009155273,11.9239501953125,13.771050453186,-1.28645002841949,-1.07016253471375,-1.04816246032715,-0.9424250125885,-1.38709998130798,-0.71403747797012,2.0830500125885,-0.35895001888275,-1.54095005989075,11.2230005264282,12.2500505447388,11.0340003967285,-10.8770751953125,-13.6785001754761,-14.6558494567871,34.6639518737793,32.7090034484863,27.8389511108398,-1.8191249370575,-0.6182000041008,0.86858749389648,4.63347482681274,4.8423376083374,3.69517493247986,-25.2100505828857,-28.0189514160156,-27.0760517120361,2.35005021095276,5.40795040130615,6.45900011062622,-13.3376379013062,-12.3615245819092,-11.1006498336792,4.53900003433228,5.07600021362305,0.51495003700256,1.35973751544952,-0.05623750016093,-1.06768751144409,-1.41157495975494,-1.37252497673035,-1.43852496147156,-17.4660015106201,-13.7520008087158,-11.053050994873,0.73005002737045,1.77795004844666,4.23105001449585,-1.53958749771118,-1.38806247711182,-1.14372503757477,-1.52805006504059,1.2109500169754,-1.5660001039505,-0.1380500048399,1.18511247634888,1.32797503471375,-0.38170000910759,-0.3964124917984,-0.3634124994278,-8.43795013427734,-6.95595026016235,-6.05895042419434,12.9150009155273,11.7570009231567,10.276050567627,SWING_RIGHT
1.37912499904633,1.44498753547668,1.47441244125366,3.56595015525818,4.12800025939941,3.95595026016235,-0.10999999940395,-0.17462499439716,-0.12581250071526,0.76917499303818,0.5821750164032,0.49431249499321,3.79605007171631,4.16700029373169,4.9830002784729,7.81095027923584,7.78200054168701,7.67505025863647,0.88302499055862,0.12925000488758,-0.38637501001358,7.23405027389526,7.55505037307739,7.33200025558472,-1.44526255130768,-2.02922487258911,-2.51061248779297,-1.26128745079041,-1.84043753147125,-1.96377503871918,4.19595003128052,3.882000207901,3.57405018806458,5.70000028610229,6.27195024490356,6.84195041656494,-1.08762502670288,-4.43258762359619,-6.49481248855591,16.605001449585,26.401050567627,30.1219520568848,-3.2716748714447,-3.56124997138977,-3.72377490997315,2.88887500762939,2.02881240844727,1.79299998283386,-11.2900505065918,-17.7460517883301,-18.117000579834,7.02795028686523,5.40405035018921,6.61200046539307,-12.8904876708984,-12.0536623001099,-11.8203248977661,19.1269512176514,13.2210006713867,10.8349504470825,1.95359992980957,1.47949993610382,-0.33715000748634,-0.53322499990463,-0.9314249753952,-0.53446251153946,-15.892050743103,-12.6420001983643,-8.71305084228516,4.89405012130737,2.85000014305115,1.50600004196167,-5.2230749130249,-4.61587476730347,-3.75828742980957,1.35195004940033,3.15405011177063,2.60805010795593,-2.0952250957489,-1.76660001277924,-1.18263745307922,-0.66756248474121,-0.4672249853611,-0.2606999874115,-11.9220008850098,-11.706000328064,-11.050950050354,8.11500072479248,9.74205017089844,11.1709508895874,SWING_RIGHT
1.08212494850159,1.06507503986359,1.44869995117188,4.71195030212402,4.9680004119873,4.28295040130615,-0.52648746967316,-0.40314999222755,-0.38719999790192,-0.94613748788834,-1.38352501392365,-1.47028744220734,0.70200002193451,0.5059500336647,1.99695014953613,9.08400058746338,8.75895023345947,7.01595020294189,-0.87133747339249,-4.97626256942749,-5.76922512054443,21.1699504852295,22.9840507507324,21.6540012359619,-1.48802495002747,-1.76412498950958,-2.26874995231628,-0.34498751163483,-0.17765000462532,0.19373749196529,-2.84295010566711,-7.52595043182373,-12.8550004959106,7.7440505027771,6.58800029754639,4.02300024032593,-12.4287624359131,-12.8869123458862,-13.6736869812012,21.094051361084,19.5100517272949,20.7010517120361,-4.1562123298645,-3.74206256866455,-2.97604990005493,1.80152499675751,1.89186251163483,1.64518749713898,-24.3430519104004,-24.1950016021729,-22.47705078125,4.96095037460327,6.77505016326904,8.71995067596436,-12.1159496307373,-10.8612623214722,-6.58652496337891,5.47995042800903,0.34005001187325,-6.64200019836426,1.88017499446869,2.04393744468689,1.62854993343353,0.89375001192093,-0.27046251296997,-0.82513749599457,-11.2249507904053,-11.2420501708984,-10.7130002975464,9.00495052337646,5.62905025482178,4.64700031280518,-1.96721243858337,-0.87381249666214,0.52868747711182,-5.10795021057129,-5.84700012207031,-3.36105012893677,-0.21628749370575,0.18328750133514,0.30428749322891,-0.39875000715256,-0.35365000367165,-0.35969999432564,-5.14005041122437,-3.54705023765564,-2.74695014953613,10.4340009689331,10.3879508972168,10.2330007553101,SWING_RIGHT
2.14142489433289,2.05947494506836,1.5830374956131,3.48405027389526,5.800950050354,8.92995071411133,-1.06411254405975,-0.89787501096725,-0.71101248264313,-1.96872496604919,-2.06524991989136,-1.75738751888275,1.00394999980927,1.22895002365112,1.22895002365112,10.5390005111694,10.6969509124756,10.6920003890991,-1.97216248512268,-3.46747493743896,-4.52182483673096,19.7629508972168,20.4190502166748,19.359001159668,-1.18497502803802,-1.44773745536804,-1.54302501678467,-0.45251250267029,-0.90584999322891,-0.93513751029968,-1.94595015048981,-3.3120002746582,-4.42500019073486,9.10305023193359,9.30405044555664,9.73995018005371,-9.52104949951172,-11.2498378753662,-13.0359621047974,27.7099514007568,27.3649520874023,22.4070014953613,-2.03651237487793,-2.02441239356995,-1.35973751544952,1.05998754501343,0.94751250743866,1.19679999351501,-26.590051651001,-27.5110511779785,-24.6970520019531,2.77905011177063,4.80105018615723,5.45400047302246,-10.4641628265381,-9.57110023498535,-7.72639989852905,1.65405011177063,0.40200001001358,-2.5860002040863,-0.38362500071526,-0.10009999573231,0.24433749914169,-0.93637502193451,-0.76284998655319,-0.54051250219345,-14.532000541687,-12.5800504684448,-11.203950881958,7.82505035400391,11.2210502624512,12.127950668335,0.04248749837279,0.71926248073578,1.1640750169754,-5.60805034637451,-4.2679500579834,-3.40200018882751,1.20834994316101,1.17658746242523,1.10316252708435,0.04468749836087,-0.03712499886751,-0.10188750177622,-4.94400024414063,-3.5350501537323,-2.0269501209259,9.65805053710938,9.28500080108643,8.89695072174072,SWING_RIGHT
0.87697499990463,-0.23856249451637,-1.15967500209808,10.2850503921509,11.3830509185791,10.6410007476807,-2.11351251602173,-2.42013740539551,-2.46056246757507,-0.71403747797012,-0.56374996900558,-0.49046251177788,2.94195008277893,2.15205001831055,1.11105000972748,7.32300043106079,8.48805046081543,9.49095058441162,-1.96597504615784,-2.17249989509583,-2.42288756370544,8.00699996948242,9.12195014953613,11.5870504379272,-1.10811245441437,-0.47519999742508,-0.11233749985695,-1.5251499414444,-0.84342497587204,-0.01759999990463,-1.5940500497818,-2.04900002479553,-2.66805005073547,12.0030002593994,11.3400001525879,9.81900024414062,-6.96643733978271,-9.44900035858154,-11.7042751312256,24.0439510345459,27.82200050354,31.3690509796143,-1.82283747196198,-1.21921253204346,0.13681249320507,4.00798749923706,3.82827496528625,2.60177493095398,-20.9410514831543,-27.7840518951416,-24.9319515228271,-1.14000010490417,2.86200022697449,6.27495050430298,-11.3756504058838,-10.3860626220703,-7.6738748550415,1.61505007743835,-0.61395001411438,-4.33695030212402,-0.95053750276566,-1.06534993648529,-0.76972502470016,-0.95466250181198,-0.91313749551773,-0.85689997673035,-14.32200050354,-12.6540002822876,-12.0030002593994,5.30805015563965,9.153000831604,10.2180004119873,0.51411247253418,0.91850000619888,1.0173624753952,-4.54500007629395,-2.78400015830994,-1.40100002288818,0.5351499915123,0.71348750591278,0.68777501583099,-0.5820375084877,-0.53198748826981,-0.41098749637604,-6.1429500579834,-5.12805032730103,-4.11794996261597,10.2280502319336,9.61500072479248,9.07005023956299,SWING_RIGHT
3.03929996490479,3.47063755989075,4.09364986419678,-1.80105006694794,-2.50905013084412,-0.79605001211166,-1.18387496471405,-0.14409999549389,0.45938751101494,-3.69379997253418,-5.25016260147095,-5.83907508850098,-1.24500000476837,-1.31205010414124,-1.21800005435944,13.3530006408691,13.2829504013062,10.5010509490967,2.82920002937317,0.97831249237061,-1.04238748550415,12.9000005722046,19.7779502868652,24.4339504241943,-2.0952250957489,-1.67007493972778,-1.16544997692108,-1.28699994087219,0.19126249849796,0.88646250963211,1.39395010471344,-0.27495002746582,-4.35495042800903,9.2590503692627,11.2159509658813,10.4599504470825,-10.5228748321533,-12.282187461853,-14.2674121856689,30.3229522705078,29.4570007324219,30.9400520324707,-0.28091248869896,-0.61943751573563,-0.7537750005722,3.65488743782043,3.4288375377655,2.07515001296997,-22.2829513549805,-25.6470012664795,-24.1090507507324,1.05300009250641,0.21795001626015,2.0460000038147,-13.3108253479004,-10.4178247451782,-8.18455028533936,7.81500053405762,-4.24095010757446,-9.21405029296875,-1.30473744869232,-0.70001250505447,0.43491250276566,0.35254999995232,0.2230249941349,-0.2924624979496,-10.9090509414673,-11.2920007705688,-11.568000793457,8.60295009613037,9.3420000076294,9.09600067138672,-1.27091252803802,-0.45718750357628,-0.13584999740124,-3.01200008392334,-3.10500025749207,-3.43005013465881,0.83806252479553,1.17040002346039,1.4001624584198,-0.12388750165701,-0.1861750036478,-0.23870000243187,-6.24600028991699,-5.50395011901855,-4.66200017929077,9.46005058288574,9.57405090332031,9.12195014953613,SWING_RIGHT
4.26098728179932,5.11499977111816,4.44551229476929,-0.8890500664711,4.14900016784668,8.69099998474121,-2.10251259803772,-0.0354750007391,0.33109998703003,-1.16971254348755,-1.05847501754761,-1.64367496967316,-0.12495000660419,-1.80195009708405,-2.82900023460388,14.6980504989624,16.465950012207,13.7430009841919,-4.60858726501465,-5.09107494354248,-6.28347492218018,13.8859510421753,16.5420017242432,20.9239501953125,-0.14657500386238,-0.85153746604919,-1.48926246166229,-0.68103748559952,-1.23199999332428,-1.1281875371933,-5.03505039215088,-8.44500064849854,-9.4549503326416,4.3560004234314,2.67105007171631,0.85695004463196,-10.8992128372192,-12.2625246047974,-13.171537399292,21.235050201416,20.6839504241943,18.9229507446289,-4.33097505569458,-5.14456224441528,-5.50990009307861,-0.67856252193451,-0.24241249263287,0.14849999547005,-23.6230506896973,-26.3250007629395,-23.4480018615723,-1.50600004196167,-0.18300001323223,3.52800011634827,-10.3273496627808,-7.47711229324341,-6.0868501663208,1.96200013160706,-3.21495008468628,-5.06895017623901,-0.88934999704361,0.53872501850128,0.35791251063347,-0.52346247434616,-0.7042750120163,-0.99013751745224,-9.03600025177002,-8.99805068969727,-8.74395084381104,12.8029508590698,8.78700065612793,7.92600059509277,-2.59146237373352,-1.11691248416901,-0.46323749423027,-1.10895001888275,-2.40405011177063,-1.44705009460449,0.0622874982655,0.29809999465942,0.65119999647141,-0.15193749964237,-0.19112500548363,-0.23636250197887,-4.97700023651123,-4.25699996948242,-2.96700024604797,10.7299509048462,10.9500007629395,10.1340007781982,SWING_RIGHT
0.2880625128746,0.40287500619888,0.40287500619888,3.88905024528503,4.58295011520386,5.37900018692017,-0.88082498311996,-0.89058750867844,-1.07868754863739,0.0716374963522,0.01539999991655,-0.33164998888969,3.58305025100708,3.48495006561279,3.61905026435852,9.07200050354004,8.29200077056885,7.99995040893555,0.50063747167587,0.70331251621246,0.51026248931885,5.11395025253296,7.47300052642822,9.64605045318604,-1.36826252937317,-0.79406249523163,-1.04211246967316,-2.24963760375977,-0.66261249780655,1.27132499217987,2.78205013275146,2.09295010566711,-3.07500004768372,10.1680507659912,9.22305011749268,7.28205013275146,-5.79369974136353,-8.77470016479492,-10.6500625610352,24.5920505523682,23.8549518585205,24.8620510101318,-0.58877497911453,-0.60348749160767,-1.24973750114441,2.83139991760254,2.53701257705688,0.66536247730255,-23.367000579834,-25.3099517822266,-27.1260013580322,0.51705002784729,-0.07995000481606,1.49100005626678,-13.1191501617432,-10.1857252120972,-8.11016273498535,3.46500015258789,-6.74400043487549,-10.7500505447388,-1.32426249980927,-1.04211246967316,-0.78553748130798,-0.24969999492168,-0.61008751392365,-0.61627501249313,-13.8120002746582,-12.7740001678467,-12.3979501724243,9.09794998168945,9.75600051879883,9.61800003051758,-1.51291251182556,-0.62837499380112,0.06187500059605,-7.25700044631958,-5.99505043029785,-5.24400043487549,0.54738748073578,0.74524998664856,0.76491248607635,-0.70908749103546,-0.693274974823,-0.50379997491837,-8.97405052185059,-7.5949501991272,-6.19800043106079,10.3860006332397,9.48795032501221,8.95995044708252,SWING_RIGHT
0.76078748703003,0.81083750724792,0.79983747005463,3.27105021476746,2.55600023269653,2.83605003356934,-0.66453748941422,-0.60472500324249,-0.61201250553131,0.42336249351501,0.23278750479221,-0.1055999994278,3.95700025558472,4.33995008468628,4.96395015716553,8.74395084381104,9.05505084991455,9.12195014953613,1.59032499790192,1.9519499540329,2.09976243972778,1.78305006027222,3.03705024719238,4.36695003509521,-0.91987496614456,-0.8953999876976,-1.19116246700287,-2.34616255760193,-3.76090002059936,-4.47686243057251,3.95400023460388,3.95205020904541,3.55005025863647,9.00300025939941,8.41394996643066,6.02100038528442,1.63666248321533,1.38998746871948,-0.2593249976635,10.7680501937866,14.9820003509521,21.9120006561279,-4.03768730163574,-3.37919998168945,-0.22591249644756,1.37389993667603,2.39153742790222,1.62800002098084,-4.96095037460327,-5.04900026321411,-5.06400012969971,7.82295036315918,12.6949510574341,13.6540508270264,-8.96403789520264,-10.6781120300293,-12.2296628952026,21.6970500946045,22.4790019989014,16.2480010986328,-1.43178749084473,-2.22708749771118,-3.11038756370544,-0.4159374833107,-0.5429875254631,0.03973750025034,-15.363000869751,-16.0969505310059,-16.0399513244629,1.71405005455017,2.19495010375977,4.44900035858154,-10.3482503890991,-8.09792518615723,-7.18162488937378,3.83100008964539,-1.8840000629425,-2.10000014305115,-0.61572498083115,-0.02433750033379,0.69396251440048,-0.859375,-1.58509993553162,-1.87220001220703,-13.6249504089355,-14.1780004501343,-12.502950668335,11.2590007781982,12.939001083374,13.9890003204346,SWING_RIGHT
1.28480005264282,1.99705004692078,2.90001249313354,2.4100501537323,1.41705012321472,1.3620001077652,-2.21251249313354,-2.2760374546051,-2.51171255111694,-0.8203250169754,-2.25830006599426,-3.81466245651245,0.2569500207901,-2.20905017852783,-4.14705038070679,10.7400007247925,10.7400007247925,10.47705078125,3.45221257209778,1.7771874666214,-0.14698749780655,15.4320011138916,19.818000793457,23.3140506744385,0.87477499246597,0.2773374915123,-0.92839998006821,-0.4476999938488,0.22426250576973,0.47107499837875,-5.0779504776001,-6.45600032806396,-9.46200084686279,11.5219507217407,5.72205018997192,2.27595019340515,-13.3572998046875,-14.2700252532959,-15.661524772644,22.9600505828857,15.1860008239746,10.0980005264282,-1.75188744068146,-1.7604124546051,-1.95951247215271,0.27197501063347,-0.11288750171661,-0.45622500777245,-34.5060005187988,-27.187952041626,-20.4810009002686,2.36505007743835,4.07595014572144,5.96100044250488,-4.39120006561279,-2.19573760032654,-0.67966252565384,-15.2490005493164,-13.1620502471924,-9.17295074462891,0.74043750762939,1.13135004043579,1.36963748931885,-0.9094250202179,-0.99742501974106,-0.96937501430511,-6.99495029449463,-6.29595041275024,-5.17095041275024,10.6300506591797,9.36195087432861,8.7940502166748,-0.34127500653267,-0.70894998311996,-0.90200001001358,1.71795010566711,2.01300001144409,0.85905003547668,1.02135002613068,0.96648746728897,0.77096247673035,-1.13671255111694,-1.11223745346069,-1.10123753547668,-0.39495003223419,0.21705001592636,0.52799999713898,8.98800086975098,9.58605003356934,9.31395053863525,SWING_RIGHT
2.80224990844727,2.49067497253418,1.16875004768372,4.69005012512207,6.01800012588501,7.99695014953613,-1.63941252231598,-1.93875002861023,-1.89598751068115,-1.00718748569489,-2.56492495536804,-2.56244993209839,0.57795000076294,-0.39300000667572,-1.50105011463165,9.0169506072998,10.2970504760742,10.9260005950928,-3.93923759460449,-4.39243745803833,-5.13768768310547,17.4229507446289,19.8160514831543,22.7640018463135,0.09528750181198,-0.18562500178814,-0.62424999475479,-0.92895001173019,-0.2216500043869,0.08992499858141,-2.92905020713806,-5.02500009536743,-9.05700016021728,6.93000030517578,4.61895036697388,3.175950050354,-11.6323623657227,-13.3927745819092,-14.5314121246338,27.1189517974854,24.5710506439209,23.0269508361816,-4.16473770141602,-4.78417491912842,-4.73288726806641,0.52112501859665,0.60417497158051,0.12168750166893,-31.2090015411377,-32.4550514221191,-30.1870517730713,-2.02800011634827,1.00995004177094,5.02305030822754,-12.8638124465942,-11.3818378448486,-9.96710014343262,2.79000020027161,-0.25005000829697,-1.774050116539,-2.83181238174438,-2.22351241111755,-1.16792500019073,-0.60898751020432,-0.46227499842644,-0.21312500536442,-19.6440010070801,-17.0620498657227,-14.7000007629395,9.72000026702881,12.0270004272461,14.2099504470825,-2.64660000801086,-1.25138747692108,0.29768750071526,-8.3929500579834,-6.49995040893555,-2.78700017929077,1.22182500362396,1.34021246433258,1.31463754177094,-0.04083750024438,-0.02007500082254,0.09116250276566,-8.89500045776367,-6.19095039367676,-4.81695032119751,9.82095050811768,9.73200035095215,9.08205032348633,SWING_RIGHT
2.87430000305176,3.07587504386902,3.29216241836548,1.16505002975464,0.8400000333786,0.99300003051758,-1.10797500610352,-1.02863752841949,-0.66329997777939,-1.93572497367859,-1.74872493743896,-1.46410000324249,0.98700004816055,0.17595000565052,-0.06000000238419,7.8870005607605,8.93295001983643,10.032000541687,1.77237498760223,1.4803249835968,1.14551246166229,7.49205017089844,7.2199501991272,9.91200065612793,-0.66453748941422,-1.122687458992,-1.61741244792938,-2.70173740386963,-2.3926374912262,-1.85996246337891,-0.07395000010729,-0.47400003671646,-2.57505011558533,8.96700000762939,7.85205030441284,6.94695043563843,-9.03732490539551,-10.4460124969482,-12.4191370010376,28.1790008544922,26.4919509887695,26.3080520629883,-3.30591249465942,-3.65035009384155,-2.88928747177124,0.88398748636246,1.43494999408722,2.42453742027283,-19.5430507659912,-20.650951385498,-18.4380016326904,1.35195004940033,3.40095019340515,6.21705007553101,-12.9920997619629,-12.5950002670288,-11.8877000808716,13.8769502639771,10.2559509277344,5.81505012512207,0.5986750125885,0.64762496948242,0.30181249976158,-0.62479996681213,-0.93389999866486,-1.24052500724792,-16.4280014038086,-14.2909507751465,-14.122950553894,6.38700008392334,5.65500020980835,5.5900502204895,-6.1015625,-4.45843744277954,-2.87512493133545,-6.55095052719116,-7.95300054550171,-7.66305017471313,-0.66082501411438,-0.55343747138977,-0.38115000724792,-0.52456247806549,-0.69561249017715,-0.85813748836517,-8.06400012969971,-7.33200025558472,-6.38400030136108,10.2900009155273,10.7850008010864,11.053050994873,SWING_RIGHT
0.14382499456406,0.05087500065565,0.10835000127554,6.48000049591064,5.46600008010864,3.99600028991699,-1.02135002613068,-1.59431254863739,-1.88017499446869,0.75941246747971,0.07892499864101,-0.28146249055862,3.13305020332336,2.08800005912781,1.44405007362366,7.014000415802,6.81495046615601,7.65795040130615,1.67337501049042,1.78942501544952,0.64707499742508,4.61805009841919,6.92805051803589,12.3619508743286,0.79172497987747,1.33168745040894,1.51621246337891,-2.5086874961853,-1.71214997768402,-0.11412499845028,-4.37895011901855,-3.49905014038086,-3.46305012702942,13.0609502792358,12.5920505523682,7.63905048370361,-5.96117496490479,-10.045337677002,-12.8258628845215,18.8299503326416,27.0570011138916,29.1070518493652,-3.59658741950989,-3.05057501792908,-1.4415500164032,1.12956249713898,0.98175001144409,-1.1611875295639,-33.0820503234863,-33.867000579834,-28.0000514984131,0.79995006322861,7.15995025634766,15.7909507751465,-13.4832496643066,-11.9609870910645,-10.4142503738403,-3.29100012779236,-3.95205020904541,-5.68200016021729,-1.52707493305206,-0.94792497158051,0.06352499872446,-1.70238745212555,-0.93513751029968,-0.36217498779297,-17.5090503692627,-12.702000617981,-10.3639507293701,12.0340509414673,15.7099504470825,16.3750514984131,-0.00288749998435,0.26468750834465,0.35516250133514,-5.77800035476685,-3.14100003242493,-1.91100013256073,0.7429124712944,0.26523751020432,0.24557499587536,-0.09583749622107,-0.17888750135899,0.05816249921918,-1.0150500535965,0.79305005073547,1.63995003700256,6.84195041656494,8.01195049285889,8.43795013427734,SWING_RIGHT
1.25303745269775,1.01612496376038,1.1064624786377,3.99405026435852,3.24000024795532,1.83105003833771,-0.03533750027418,0.0757625028491,0.46309998631477,0.04839999973774,-0.09583749622107,-0.3634124994278,3.88695025444031,4.4520001411438,3.75105023384094,9.57705020904541,10.1539506912231,10.1890506744385,2.921875,3.18697500228882,3.43131256103516,1.21305000782013,0.90000003576279,0.63900005817413,0.45704999566078,0.41786250472069,-0.61077499389648,-2.56850004196167,-2.21058750152588,-2.0517749786377,1.79295003414154,1.75005006790161,3.43995022773743,7.30095052719116,6.20505046844482,4.91505002975464,0.0582999996841,-2.32773756980896,-3.23674988746643,16.6759510040283,20.0620517730713,24.7789516448975,-4.21478748321533,-2.95652508735657,-2.28813743591309,4.46366262435913,5.44953727722168,3.81617498397827,-6.41295051574707,-6.05205011367798,-7.05000019073486,9.71100044250488,9.74205017089844,8.50995063781738,-9.32566261291504,-10.9481620788574,-11.9963245391846,21.9000015258789,25.6380004882813,22.113000869751,-0.62672501802444,-0.3603875041008,0.20899999141693,2.52848744392395,1.46547496318817,-1.04390001296997,-14.8750505447388,-15.4129505157471,-18.3919506072998,3.09195017814636,3.04200005531311,3.35805010795593,-13.1008625030518,-11.9950876235962,-7.83516263961792,9.04995059967041,2.52705001831055,-4.27305030822754,-1.21797502040863,-2.74628758430481,-2.92833757400513,-1.69620001316071,-1.65715003013611,-1.31381249427795,-9.06900024414062,-9.2629508972168,-9.58605003356934,5.14005041122437,6.82695055007935,9.17205047607422,SWING_RIGHT
