gyro_x_0,gyro_y_0,gyro_z_0,acc_x_0,acc_y_0,acc_z_0,gyro_x_1,gyro_y_1,gyro_z_1,acc_x_1,acc_y_1,acc_z_1,gyro_x_2,gyro_y_2,gyro_z_2,acc_x_2,acc_y_2,acc_z_2,gyro_x_3,gyro_y_3,gyro_z_3,acc_x_3,acc_y_3,acc_z_3,gyro_x_4,gyro_y_4,gyro_z_4,acc_x_4,acc_y_4,acc_z_4,gyro_x_5,gyro_y_5,gyro_z_5,acc_x_5,acc_y_5,acc_z_5,gyro_x_6,gyro_y_6,gyro_z_6,acc_x_6,acc_y_6,acc_z_6,gyro_x_7,gyro_y_7,gyro_z_7,acc_x_7,acc_y_7,acc_z_7,gyro_x_8,gyro_y_8,gyro_z_8,acc_x_8,acc_y_8,acc_z_8,gyro_x_9,gyro_y_9,gyro_z_9,acc_x_9,acc_y_9,acc_z_9,gyro_x_10,gyro_y_10,gyro_z_10,acc_x_10,acc_y_10,acc_z_10,gyro_x_11,gyro_y_11,gyro_z_11,acc_x_11,acc_y_11,acc_z_11,gyro_x_12,gyro_y_12,gyro_z_12,acc_x_12,acc_y_12,acc_z_12,gyro_x_13,gyro_y_13,gyro_z_13,acc_x_13,acc_y_13,acc_z_13,gyro_x_14,gyro_y_14,gyro_z_14,acc_x_14,acc_y_14,acc_z_14,motion_type
0.31459999084473,0.32656249403954,0.30703750252724,-0.00522499997169,-0.007012499962,-0.16733749210835,3.26505017280579,3.30405020713806,3.64800024032593,8.81595039367676,8.81595039367676,9.42900085449219,0.3785375058651,0.56072497367859,0.69629997014999,-0.39705002307892,-0.62700003385544,0.59700000286102,0.00687499996275,0.00632499996573,0.00591249996796,-0.35199999809265,-0.36794999241829,-0.33770000934601,3.37995004653931,3.53295016288757,3.7630500793457,9.12195014953613,9.35205078125,10.0030508041382,0.54285001754761,0.39737498760223,0.16403749585152,0.25304999947548,0.21405000984669,-0.09105000644922,-0.00178749999031,-0.00206249998882,0.00013749999925,0.00192499998957,0.00343749998137,0.00123749999329,4.22294998168945,4.30005025863647,-3.28395009040833,6.97695016860962,6.55605030059814,9.77400016784668,-1.24066245555878,-2.79991245269775,-7.32159996032715,-51.4609527587891,-40.8120002746582,-24.5310020446777,3.09718751907349,4.0136251449585,3.66135001182556,0.00439999997616,2.54388737678528,3.54708743095398,-34.6960525512695,-23.9320507049561,-11.9800510406494,-1.90905010700226,-9.87705039978027,-3.48000025749207,-19.9923629760742,-20.7611255645752,-15.6322374343872,22.5859508514404,16.5330009460449,13.123950958252,-1.14702498912811,-2.13881254196167,-2.3310375213623,7.40918731689453,6.87032508850098,6.17980003356934,-2.51805019378662,-3.74400019645691,-4.05000019073486,9.23700046539307,9.61995029449463,10.8079509735107,-12.0966997146606,-10.781512260437,-8.96458721160889,1.97700011730194,1.97700011730194,1.21005010604858,SWING_LEFT
0.35557499527931,0.41112500429153,0.45086249709129,0.46406251192093,0.4160749912262,0.26908749341965,1.61805009841919,1.42695009708405,0.77505004405975,10.6930503845215,10.5780000686646,10.5780000686646,-0.56897497177124,-0.17847499251366,0.29589998722076,5.8840503692627,4.19805002212524,4.27500009536743,0.00027499999851,-0.00687499996275,-0.00384999997914,-1.00333750247955,-1.11319994926453,-1.01433753967285,1.84800004959106,3.37995004653931,2.53695011138916,11.2290000915527,8.93100070953369,8.93100070953369,2.4224750995636,2.7279999256134,3.34248757362366,-1.85295009613037,-9.63000011444092,-59.5060539245605,1.37747502326965,1.51635003089905,-0.53996247053146,1.66072499752045,4.05996227264404,8.08981227874756,-15.5040006637573,-29.7930011749268,-47.6440505981445,-11.7540006637573,-11.7540006637573,-11.7540006637573,18.2756748199463,16.9548492431641,15.4441375732422,17.8740005493164,38.2150535583496,26.1480007171631,-4.42062520980835,-6.65761232376099,-5.66362476348877,13.7933120727539,7.07258749008179,3.50020003318787,-15.6960010528564,-6.50205039978027,-4.27995014190674,5.63595008850098,1.38405001163483,1.38405001163483,-10.1542377471924,-10.5963001251221,-11.1109628677368,19.252950668335,9.3319501876831,2.05305004119873,-3.2210750579834,-1.07167494297028,0.14258749783039,7.21187496185303,8.95454978942871,10.021824836731,-1.6750500202179,-2.51805019378662,-2.63295006752014,5.06205034255981,7.12995052337646,10.9230003356934,-6.10004997253418,-4.69163751602173,-3.2548999786377,-1.16400003433228,-1.125,-0.39705002307892,SWING_LEFT
0.00604999996722,0.00343749998137,0.00013749999925,-0.26922500133514,-0.38018751144409,-0.52483749389648,3.26505017280579,4.06995010375977,3.61005020141602,10.5780000686646,11.4210004806519,13.1059503555298,-0.19456249475479,0.54491251707077,0.87505000829697,15.6520509719849,-0.51195001602173,-1.04895007610321,-0.2095499932766,-0.31006249785423,-1.12035000324249,-1.50988745689392,-1.64326250553131,-1.63583743572235,1.46505010128021,1.04295003414154,0.50700002908707,12.3400506973267,6.24900007247925,2.30400013923645,-1.83452498912811,-4.32286262512207,-6.8558874130249,-17.9809513092041,-32.881950378418,-61.1910018920898,-4.5934624671936,-5.13205003738403,-4.39972496032715,3.67716240882874,8.0407247543335,11.1979999542236,-37.8760528564453,-59.0599517822266,-78.3660049438477,-19.9519500732422,-21.0630016326904,-34.7770500183105,-10.6654624938965,-7.84973764419556,-8.54094982147217,51.775951385498,9.1399507522583,13.123950958252,-9.92846202850342,-9.41063785552978,-8.96774959564209,5.57864999771118,2.17387509346008,-0.40837499499321,-8.53200054168701,-5.12295007705688,-4.08900022506714,29.5399513244629,1.84395003318787,6.70905017852783,-8.93447494506836,-8.4811372756958,-7.37701225280762,11.2090501785278,10.2510004043579,7.56900024414063,1.64601254463196,2.58046245574951,3.03503751754761,15.7058000564575,15.4390497207642,14.0827503204346,0.20100000500679,0.08595000207424,-0.02805000171065,5.25300025939941,9.12195014953613,9.12195014953613,-4.98519992828369,-4.67554998397827,-3.90871238708496,0.25304999947548,-1.58505010604858,-0.85695004463196,SWING_LEFT
-0.28586250543594,-0.22935000061989,-0.15056249499321,0.21422499418259,0.00371249997988,-0.00068749999627,1.81005012989044,1.84800004959106,1.81005012989044,9.73500061035156,9.5440502166748,9.5440502166748,-0.00329999998212,-0.00027499999851,0.00096249999478,1.55505001544952,1.8229501247406,3.08700013160706,0.24433749914169,0.25066250562668,0.23539999127388,-0.19923749566078,-0.19236250221729,-0.21573749184608,1.6560001373291,1.38795006275177,0.92895007133484,10.0800008773804,10.1569509506226,10.3099508285522,0.00687499996275,0.45113748311996,0.91712498664856,17.1079502105713,-1.73805010318756,-49.9290008544922,-0.00384999997914,-2.88268756866455,-6.48573732376099,-1.96350002288818,-2.0268874168396,1.71091246604919,-9.528000831604,-38.7949523925781,-64.9210510253906,12.0340509414673,-25.3909511566162,-43.2430534362793,-4.39408731460571,-3.89427495002747,-4.49968767166138,44.3830528259277,40.4370002746582,13.8900003433228,-16.0685253143311,-16.7358131408691,-13.3269128799438,9.3035249710083,9.09658718109131,7.8630747795105,-8.83905029296875,3.8779501914978,3.26505017280579,11.076000213623,-2.56005001068115,-6.85095024108887,-0.83270001411438,-1.40291249752045,-2.52683758735657,16.0349998474121,5.3860502243042,-0.81900006532669,-5.45146226882935,-2.46111249923706,-2.93768739700317,18.446174621582,19.5953998565674,17.8842124938965,1.23495006561279,-3.36105012893677,-1.25400006771088,-0.7219500541687,15.9790506362915,13.3740005493164,-3.35871243476868,-6.18832492828369,-3.14146256446838,-0.01395000051707,-0.24405001103878,0.67395001649857,SWING_LEFT
0.00412499997765,0.0027499999851,0.00096249999478,0.28627499938011,0.3617624938488,0.43876248598099,0.62205004692078,0.69900006055832,0.43095001578331,10.4629507064819,10.5010509490967,11.2680006027222,-0.61462497711182,-0.6599999666214,-0.7067499756813,8.22105026245117,10.3660507202148,7.56900024414063,-0.28187498450279,-0.49857500195503,-0.72861248254776,-0.51590001583099,-0.92895001173019,-1.29841244220734,-1.17705011367798,-0.98595005273819,-1.13895010948181,11.9569501876831,13.2600002288818,13.2600002288818,-0.84205001592636,-1.04884994029999,-1.50562500953674,1.1340000629425,-11.3149509429932,-46.443000793457,-2.39689993858337,-3.34537506103516,-4.40123748779297,-0.41043749451637,1.04610002040863,7.45442485809326,-4.31895017623901,-21.211950302124,-59.5960540771484,0.3120000064373,-24.586950302124,-30.8689517974854,-9.54415035247803,-10.2497997283936,-10.2928371429443,14.6179504394531,46.3750534057617,16.1890506744385,17.9302749633789,19.9775123596191,21.2812881469727,26.4884128570557,27.1149997711182,26.4268131256104,-13.6650009155273,-4.58700037002563,-1.33095002174377,34.3290023803711,6.21105051040649,-0.91305005550385,-0.60967499017715,6.20248746871948,5.3191876411438,12.5880002975464,8.41200065612793,6.49695014953613,4.18082475662231,4.26153755187988,5.0824122428894,25.2192878723145,24.6811122894287,21.2948989868164,-0.7180500626564,-1.02404999732971,-1.02404999732971,8.73900032043457,7.05405044555664,6.97695016860962,-1.23199999332428,-4.33400011062622,-3.64416241645813,-1.93005013465881,-1.31700003147125,-1.20195007324219,SWING_LEFT
-0.15138749778271,-0.2072124928236,-0.00659999996424,-0.00563749996945,-0.30428749322891,-0.35598748922348,2.69100022315979,2.84400010108948,2.76705002784729,9.12195014953613,8.778000831604,8.778000831604,-0.84961247444153,-0.98752498626709,-1.19844996929169,2.89605021476746,5.19405031204224,10.8640508651733,0.33495000004768,0.29741248488426,0.17503750324249,-0.46667498350143,-0.72448748350143,-1.14138746261597,-0.64095002412796,-0.14295001327991,-0.7180500626564,11.7660007476807,14.8680009841919,16.1329498291016,-0.31707498431206,-0.00082499999553,0.00261249998584,-2.84895014762878,-7.75200033187866,-19.627950668335,-1.98646247386932,-3.64663743972778,-3.95793747901917,-1.61961245536804,1.02079999446869,3.92534995079041,-4.01205015182495,-46.9930534362793,-70.245002746582,-3.17295026779175,-52.245002746582,-52.245002746582,-5.5757622718811,-6.21362495422363,-7.85949993133545,15.2689504623413,26.2630519866943,15.9970502853394,-15.6682624816895,-14.158374786377,-12.6079244613647,12.4682245254517,13.269437789917,13.8528499603271,-4.70205020904541,1.35000002384186,2.30805015563965,9.12195014953613,-6.4680004119873,-6.4680004119873,3.22753739356995,4.61161231994629,5.6513876914978,23.4289512634277,16.9549503326416,4.04505014419556,3.22836256027222,2.97811245918274,2.83071255683899,21.7768383026123,20.4843368530273,18.4801368713379,-1.59900009632111,-1.06200003623962,-0.79395002126694,10.6549501419067,9.58200073242188,9.08400058746338,-2.35798740386963,-4.12197494506836,-1.9239000082016,-1.62300002574921,-1.73805010318756,0.44400003552437,SWING_LEFT
-0.55398750305176,-0.44742500782013,-0.31968748569489,0.00041249999776,-0.00357499998063,-0.16747500002384,2.03895020484924,2.38394999504089,2.69100022315979,9.88905048370361,10.3480501174927,10.3480501174927,-2.53412508964539,-2.7161750793457,-2.90111255645752,5.19405031204224,5.42400026321411,5.23305034637451,0.28600001335144,0.35530000925064,0.30002498626709,-1.25798749923706,-1.97119998931885,-2.28951239585876,2.30805015563965,1.27305006980896,0.88995003700256,11.7660007476807,11.3830509185791,8.89305019378662,-2.87787508964539,-3.09636259078979,-4.26401233673096,-5.30100011825562,-10.1280002593994,-48.1669540405273,-1.97188746929169,-2.42604994773865,-2.59544992446899,-0.19552500545979,1.67117500305176,4.75722503662109,-9.03000068664551,-38.6800537109375,-74.3440551757813,-16.9260005950928,-28.0729522705078,-43.6260032653809,-9.98250007629394,-10.59987449646,-10.1560249328613,29.2900505065918,30.5149517059326,39.0199508666992,15.6502494812012,18.6652126312256,19.3675632476807,19.1834506988525,20.8752498626709,20.8286380767822,-21.0970516204834,3.99300026893616,0.46905001997948,27.6630020141602,-6.1230001449585,-6.1230001449585,2.074049949646,4.99372482299805,4.9825873374939,9.79095077514648,12.7030506134033,6.15195035934448,4.33839988708496,4.33592510223389,4.64007520675659,24.5771617889404,23.3124370574951,21.7373752593994,-0.87105005979538,-1.02404999732971,-1.13895010948181,10.4629507064819,8.89305019378662,5.86605024337769,-4.57242488861084,-4.21162509918213,-3.19178748130798,0.59700000286102,0.75105005502701,0.06105000153184,SWING_LEFT
0.55096250772476,0.46818751096725,0.33316248655319,-0.19676250219345,-0.37207499146461,-0.53006249666214,2.23095011711121,2.34600019454956,2.23095011711121,10.1179504394531,9.77400016784668,9.77400016784668,-1.17603754997253,-1.19528746604919,-1.30597496032715,6.99495029449463,8.48895072937012,10.7490005493164,-0.67636251449585,-1.09587502479553,-1.38874995708466,-1.14730000495911,-1.60902500152588,-1.84607493877411,0.3160500228405,-1.71405005455017,-2.21205019950867,9.58200073242188,10.5780000686646,10.5780000686646,-2.48806238174438,-3.27360010147095,-5.82683753967285,-14.2260007858276,-20.9299507141113,-46.4040031433105,-4.73054981231689,-4.44537496566772,-2.92435002326965,2.4224750995636,5.64217519760132,8.97984981536865,-14.8909511566162,-35.7300033569336,-68.5210494995117,-14.5500011444092,-36.3859519958496,-41.0970001220703,-10.5091247558594,-10.0649995803833,-8.96032524108887,34.4610023498535,22.1260509490967,24.9229507446289,11.9565877914429,16.2709255218506,15.8285875320435,17.4431133270264,18.1691131591797,18.7213115692139,-15.5430011749268,3.80205011367798,-1.98195004463196,20.5380001068115,-9.26400089263916,-9.26400089263916,3.91778755187988,7.26577472686768,7.69312477111816,13.3920001983643,14.2350006103516,5.46300029754639,6.73145008087158,5.32620000839233,5.10193729400635,26.6114749908447,24.5928382873535,22.8886623382568,-0.75600004196167,-0.64095002412796,-0.90900003910065,7.12995052337646,4.10400009155273,4.10400009155273,-3.55038738250732,-3.97498750686646,-3.23083758354187,0.86595004796982,0.21405000984669,-0.89505004882813,SWING_LEFT
1.20133745670319,1.05338752269745,0.83916246891022,-0.34581249952316,-0.66687500476837,-0.97652500867844,2.84400010108948,2.88195013999939,2.95905017852783,9.61995029449463,9.61995029449463,9.77400016784668,-0.57502502202988,-0.00673749996349,-0.00068749999627,0.90405005216599,1.28700006008148,1.59300005435944,-0.23704999685287,-0.30992498993874,-0.29026249051094,-1.15101253986359,-1.0060875415802,-0.70620000362396,2.88195013999939,2.76705002784729,1.50300002098084,9.35205078125,9.65895080566406,10.8079509735107,-0.18507499992847,-0.24997499585152,-0.27541249990463,11.9749507904053,8.94795036315918,-3.1560001373291,-0.64652502536774,-1.03606247901917,-1.61590003967285,-1.87825000286102,-2.14046239852905,-1.89681243896484,11.2330503463745,2.99700021743774,-29.2570514678955,15.903000831604,-47.3800506591797,-62.2429542541504,-2.26545000076294,-3.43928742408752,-2.59929990768433,-22.4239501953125,44.8810539245605,26.5699520111084,-16.289213180542,-15.5346126556396,-12.2376375198364,12.4029121398926,14.6711120605469,18.3304004669189,-16.8829517364502,3.41895008087158,2.92095017433167,38.3509521484375,5.56005048751831,-14.3590507507324,2.0520498752594,4.59469985961914,5.02218770980835,14.695050239563,12.7030506134033,6.53505039215088,3.9591748714447,3.00795006752014,1.84318745136261,16.0897006988525,15.7195501327515,15.6040496826172,1.42695009708405,1.19700002670288,0.35400000214577,12.0340509414673,9.81195068359375,5.86605024337769,-0.78649997711182,-4.04882478713989,-4.222487449646,3.16395020484924,1.86195003986359,1.70805013179779,SWING_LEFT
-0.25602498650551,-0.24062499403954,-0.00467499997467,-0.434087485075,-0.33934998512268,-0.16582499444485,2.03895020484924,1.81005012989044,1.69500005245209,9.61995029449463,9.88905048370361,9.92700004577637,-0.24667499959469,-0.32477501034737,-0.37963750958443,4.92600011825562,8.22105026245117,10.7490005493164,0.00013749999925,-0.00659999996424,-0.39476248621941,-0.684750020504,-1.22636246681213,-1.79836249351501,-1.86705005168915,-3.706050157547,-5.62095022201538,12.5700006484985,14.907000541687,16.0939502716064,0.17655000090599,0.41690000891685,0.007012499962,-7.06305027008057,-28.3230018615723,-41.6539535522461,-3.09127497673035,-4.01747512817383,-3.35417509078979,-1.2754499912262,1.12543749809265,8.87012481689453,-5.23800039291382,-18.1470012664795,-49.2910537719727,-14.8570508956909,-29.1460514068604,-25.7749519348145,-7.53637504577637,-8.97558784484863,-9.31933784484863,9.6379508972168,25.6120510101318,24.0030002593994,21.335599899292,23.6629257202148,24.7513751983643,23.8035869598389,23.6626491546631,22.0325870513916,-9.98805046081543,-2.02005004882813,1.77105009555817,21.7639503479004,14.4090003967285,3.64395022392273,-4.50395011901855,-2.15778756141663,-3.5755500793457,10.5570001602173,7.03305053710938,4.31295013427734,7.66370010375977,6.36033725738525,5.53726243972778,22.7467632293701,20.4693508148193,17.122875213623,-0.37305000424385,-0.25800001621246,-0.02805000171065,7.89705038070679,7.81995058059692,8.70105075836182,-4.76726245880127,-5.16669988632202,-3.17459988594055,-0.89505004882813,-0.62700003385544,-0.01395000051707,SWING_LEFT
0.35859999060631,0.6208124756813,1.25606250762939,0.57200002670288,0.66261249780655,0.83448749780655,5.37195014953613,5.21895027160645,5.02695035934448,6.55605030059814,6.90105009078979,7.4370002746582,-4.82184982299805,-4.61298751831055,-4.17876243591309,-0.05295000225306,0.40605002641678,1.8229501247406,2.08807492256165,1.79341244697571,1.35286247730255,0.2088624984026,-0.23870000243187,-0.7345250248909,4.60605001449585,4.1850004196167,3.8779501914978,9.96495056152344,10.8460502624512,10.9230003356934,-0.00302499998361,1.1834625005722,1.42229998111725,4.73505020141602,-26.7150020599365,-45.4849510192871,-1.32577502727509,-1.72864997386932,-2.10292506217957,-1.88388752937317,-1.35506248474121,3.26218748092651,-4.77795028686523,-11.2519502639771,-39.9439506530762,5.90505027770996,-11.0650501251221,-28.3789520263672,-3.11327505111694,-4.06903743743896,-4.36356258392334,20.6700000762939,17.5290012359619,23.0839519500732,-14.7707996368408,-14.4005126953125,-13.4422750473022,10.3321628570557,11.2943878173828,11.6242504119873,-6.54000043869019,1.92495012283325,4.98900032043457,30.3829517364502,8.28000068664551,-6.62100028991699,-6.39663743972778,-4.10795021057129,-4.5667872428894,5.53905010223389,4.54305028915405,2.70405006408691,-0.99907499551773,-0.00357499998063,-0.60101246833801,23.5023250579834,22.263313293457,15.9301996231079,0.58395004272461,0.39195001125336,0.58395004272461,10.0420503616333,14.1409502029419,13.1830501556396,-7.57047510147095,-7.26316261291504,-5.78998756408691,0.78900003433228,0.71205002069473,1.05705010890961,SWING_LEFT
-0.21161249279976,-0.48468750715256,-0.64184999465942,0.00632499996573,-0.29370000958443,-0.6434999704361,1.12005007266998,1.35000002384186,1.31205010414124,10.5010509490967,10.5010509490967,10.5010509490967,-0.72036248445511,-0.43477499485016,-0.35653749108315,0.78900003433228,3.24105024337769,5.8840503692627,-0.27211248874664,-0.00604999996722,0.00467499997467,-1.03468751907349,-1.03592503070831,-1.53890001773834,1.81005012989044,1.61805009841919,-3.28395009040833,10.8460502624512,10.9230003356934,12.3019504547119,-0.512600004673,-0.61201250553131,-0.76092499494553,1.86195003986359,-22.3090515136719,-49.737003326416,-1.33801245689392,-2.35537505149841,-2.97673749923706,-3.28418755531311,-1.59885001182556,1.93435001373291,-20.1390018463135,-42.7410011291504,-61.8940544128418,-12.7120504379272,-22.0200004577637,-27.6130504608154,-4.28587484359741,-2.92531251907349,-3.24032497406006,27.0289516448975,22.969051361084,9.56100082397461,-12.8359003067017,-12.3763751983643,-11.3540620803833,11.0236501693726,11.596887588501,11.3536500930786,3.61005020141602,8.35995006561279,2.69100022315979,0.08205000311136,-6.62100028991699,-9.11100006103516,-0.63580000400543,-2.20536255836487,-3.74261236190796,11.1700506210327,5.84595012664795,1.47900009155273,-4.45623731613159,-4.63141250610352,-4.72876262664795,20.4113254547119,18.7379493713379,16.7384243011475,-0.29595002532005,-0.56400001049042,0.43095001578331,17.1289501190186,17.1289501190186,9.58200073242188,-5.97203731536865,-5.07801246643066,-3.26259994506836,0.29100000858307,1.51695013046265,2.43600010871887,SWING_LEFT
0.3106124997139,0.18975000083447,-0.00453749997541,-0.32284998893738,-0.3286249935627,-0.36217498779297,1.1580001115799,1.31205010414124,1.57995009422302,10.3870506286621,10.3870506286621,10.5780000686646,-0.18424999713898,-0.23375000059605,-0.3119874894619,1.63200008869171,2.35995006561279,4.39005041122437,-0.21188749372959,-0.00673749996349,-0.00302499998361,-0.45925000309944,-0.50104999542236,-0.66756248474121,1.08195006847382,-0.7180500626564,-3.43695020675659,9.8500509262085,9.8500509262085,11.19105052948,-0.88274997472763,-0.88852500915527,-0.75597500801086,14.1199502944946,-21.3900012969971,-43.1479530334473,-1.59060001373291,-2.88447499275208,-5.25717496871948,-2.97274994850159,-2.34698748588562,4.3058123588562,-10.2180004119873,-8.99205017089844,-49.828052520752,7.16895055770874,-14.6650505065918,-42.4000511169434,-3.33189988136292,-3.57403755187988,-4.3396372795105,15.5760011672974,32.6220016479492,20.2870502471924,16.9868869781494,19.5228004455566,21.3846874237061,24.984712600708,25.9997367858887,24.8506507873535,-18.7600517272949,-6.96195030212402,4.03095006942749,37.2400512695313,16.0180511474609,-0.18495000898838,-2.84088754653931,2.79276251792908,3.34757494926453,6.72705030441284,9.29295063018799,8.48895072937012,2.55653738975525,2.05851244926453,1.89695000648499,26.577787399292,25.4419002532959,21.2271118164063,-0.41100001335144,1.19700002670288,-0.90900003910065,1.99695014953613,11.3059501647949,13.6039505004883,-1.43013751506805,-5.20121240615845,-6.25721263885498,-0.47400003671646,0.21405000984669,0.29100000858307,SWING_LEFT
-0.53460001945496,-0.57241249084473,-0.5819000005722,-0.31968748569489,-0.1733874976635,-0.00453749997541,2.23095011711121,2.46105003356934,2.84400010108948,9.58200073242188,9.50505065917969,9.46695041656494,-0.97171247005463,-1.25207495689392,-1.55622494220734,6.49695014953613,6.84195041656494,7.14795017242432,-0.37372499704361,-0.48166251182556,-0.67306250333786,-0.51603752374649,-1.3503874540329,-1.8133499622345,-0.14295001327991,-2.67105007171631,-3.93495011329651,8.47095012664795,8.58600044250488,8.20305061340332,-1.97738754749298,-1.93819999694824,-2.66392493247986,-4.80300045013428,-15.6049509048462,-58.2799530029297,-5.81611251831055,-7.47284984588623,-7.68900012969971,-0.8401250243187,2.30367493629456,7.02404975891113,-9.29805088043213,-22.5139503479004,-41.6680526733398,-9.30195045471191,-22.0200004577637,-24.0510005950928,-9.01395034790039,-9.4829626083374,-9.41146278381348,5.46300029754639,12.6640510559082,20.2870502471924,11.3315124511719,19.597599029541,20.0121631622314,23.1954250335693,24.2716369628906,21.9209365844727,-21.211950302124,-5.08500003814697,3.61005020141602,42.6030006408691,25.5180015563965,9.31395053863525,-2.44090008735657,2.33144998550415,2.92228746414185,4.27500009536743,5.5770001411438,7.53105020523071,5.4733247756958,4.71941232681274,5.31121253967285,28.0046253204346,25.7515506744385,24.18088722229,-1.25400006771088,-0.75600004196167,-1.21605002880096,10.1569509506226,10.2330007553101,10.2330007553101,-0.50297498703003,-4.45816230773926,-3.60992503166199,-0.81900006532669,-0.35895001888275,-0.24405001103878,SWING_LEFT
0.17929999530315,0.22041249275208,0.25038748979568,0.39531248807907,0.23773749172688,0.00371249997988,0.16200000047684,-0.25800001621246,-0.33495002985001,9.8500509262085,9.92700004577637,9.92700004577637,-0.22261250019073,-0.23127499222755,-0.24502499401569,1.36395001411438,1.78500008583069,2.97300004959106,0.00219999998808,-0.00261249998584,-0.00343749998137,-0.35901248455048,-0.27403751015663,-0.30456250905991,0.81405001878738,-1.90500009059906,-3.55200028419495,10.8460502624512,11.6509504318237,11.7660007476807,-0.36781248450279,-0.51314997673035,-0.68557500839233,12.5880002975464,11.5150508880615,1.28700006008148,-1.03839993476868,-1.52294993400574,-2.06841254234314,-3.04493737220764,-3.41948747634888,-3.4461624622345,-9.75795078277588,-12.5929508209229,-11.2900505065918,11.1529502868652,9.92700004577637,4.2960000038147,0.00673749996349,-0.84878748655319,-3.50817489624023,-59.9269523620605,-43.9909515380859,-32.4990005493164,-5.14965009689331,-0.3301374912262,11.571174621582,12.5406875610352,20.8278121948242,27.7976875305176,-50.1720008850098,-46.2270011901855,-22.0930519104004,-25.3909511566162,-17.5380001068115,9.16095066070557,-1.99924993515015,-0.74868750572205,3.15892505645752,25.7650508880615,22.0500011444092,14.7709503173828,26.1923751831055,24.6516876220703,14.6207876205444,28.2649116516113,36.4527626037598,32.8899993896484,-0.18105000257492,-0.52605003118515,-0.98595005273819,-1.83195006847382,-1.83195006847382,3.682950258255,-0.00068749999627,-1.40758752822876,-1.8321875333786,-0.51195001602173,-2.16000008583069,-2.12100005149841,SWING_LEFT
0.21147499978542,0.32106250524521,0.31514999270439,0.00632499996573,0.50627499818802,0.53473746776581,1.42695009708405,1.1580001115799,1.12005007266998,8.96895027160645,9.96495056152344,10.9230003356934,-2.12547492980957,-2.3116500377655,-2.46262502670288,3.8539502620697,4.00695037841797,8.10599994659424,-0.00467499997467,-0.25712499022484,-0.47176250815392,-0.64074999094009,-0.92111247777939,-1.19817495346069,-1.59900009632111,-1.56000006198883,-0.14295001327991,10.8079509735107,10.5780000686646,7.9350004196167,-2.63078737258911,-2.88557505607605,-3.49744987487793,-3.6540002822876,-23.6500511169434,-57.1690521240234,-3.13651251792908,-4.88358736038208,-4.52045011520386,-1.38297498226166,2.35867500305176,6.95956230163574,-3.43695020675659,-37.9909515380859,-59.3280029296875,-2.79000020027161,-27.2299518585205,-35.2360534667969,-9.54648780822754,-10.4024248123169,-8.87493705749512,12.3199510574341,17.4910507202148,30.1320018768311,18.2766380310059,20.1863746643066,21.0395622253418,24.0072250366211,24.5993003845215,22.3647880554199,-15.1590003967285,-3.78195023536682,5.02695035934448,36.435001373291,23.871000289917,9.16095066070557,-9.91993713378906,-10.2654752731323,-11.1249876022339,9.17805004119873,5.8840503692627,2.58900022506714,6.72993755340576,6.6279125213623,6.85960006713867,-2.12781238555908,-5.60958766937256,-6.95873737335205,-1.36905002593994,-1.52205002307892,-1.94295012950897,5.56005048751831,12.6469507217407,12.6469507217407,-10.8083248138428,-6.14226245880127,-2.27686238288879,-0.89505004882813,-0.85695004463196,-0.89505004882813,SWING_LEFT
-0.00192499998957,-0.00302499998361,-0.00453749997541,-0.0054999999702,-0.18782499432564,-0.30634999275208,-1.63695013523102,-1.63695013523102,-1.36905002593994,10.5400505065918,11.0380506515503,11.8039503097534,-0.6014249920845,-0.71527498960495,-0.85978752374649,10.7110500335693,13.8130502700806,14.7709503173828,-0.60060000419617,-1.24877500534058,-1.68904995918274,-1.68148744106293,-2.31976246833801,-2.41656255722046,-10.0260000228882,-6.73200035095215,-6.50205039978027,12.07200050354,9.19905090332031,8.62395000457764,-1.23584997653961,-1.22443747520447,-2.1117250919342,-7.29300022125244,-15.6439504623413,-66.6310501098633,-6.67947483062744,-7.52180004119873,-7.24130010604858,4.24503755569458,8.92966270446777,13.3524875640869,-22.9360504150391,-39.5230522155762,-55.5739517211914,-35.7730522155762,-35.7730522155762,-32.1340522766113,-5.2332501411438,-4.80438756942749,-3.92961239814758,29.5960521697998,29.9790019989014,21.552001953125,17.1223239898682,22.1027126312256,22.4555377960205,30.7954616546631,27.9316120147705,26.7541999816895,-14.9680509567261,2.38394999504089,2.15400004386902,35.2099533081055,9.58200073242188,1.61400008201599,5.20368766784668,5.73925018310547,2.9114248752594,10.0980005264282,6.95595026016235,-0.24405001103878,2.58046245574951,2.45519995689392,2.33227491378784,25.7378005981445,23.6861629486084,21.2522754669189,-0.87105005979538,-0.02805000171065,-0.75600004196167,3.18495011329651,8.54805088043213,13.8720006942749,-7.13556241989136,-6.41904973983765,-4.39010000228882,-0.16800001263618,-0.12900000810623,1.24905002117157,SWING_LEFT
0.00261249998584,0.00343749998137,0.00453749997541,0.19483749568462,0.00247499998659,-0.00096249999478,1.42695009708405,2.11605000495911,2.80605006217957,11.3059501647949,8.8540506362915,8.778000831604,-2.32993745803833,-2.44268751144409,-2.55997490882874,3.50895023345947,3.47100019454956,1.66995012760162,0.22591249644756,0.26785001158714,0.30360001325607,-0.88123750686646,-1.04843747615814,-1.20945000648499,2.92095017433167,3.34200024604797,3.26505017280579,8.24100017547607,8.24100017547607,8.28000068664551,-3.16799998283386,-3.26947498321533,-3.35293745994568,-2.12100005149841,-11.0470504760742,-19.7809505462646,0.14561249315739,-0.14396250247955,-0.47657498717308,-0.59193748235703,1.13300001621246,3.20814990997314,-3.43695020675659,-18.79905128479,-33.8920516967773,12.9150009155273,1.92105007171631,-9.45600032806396,-3.59301257133484,-3.30054998397827,-2.79386258125305,4.19805002212524,26.377950668335,25.8799514770508,-7.39268732070923,-8.42393779754639,-8.86201286315918,9.22267532348633,8.77167510986328,7.85234975814819,-5.96595048904419,-1.82895004749298,0.50700002908707,20.4610500335693,-2.13900017738342,-2.29200005531311,-6.80088758468628,-8.86765003204346,-10.4018745422363,5.65395021438599,2.32095003128052,-1.24005007743835,-3.60813736915588,-1.47399997711182,-1.0147500038147,20.2793254852295,20.1304130554199,19.2820377349854,-0.67905002832413,-1.82895004749298,-0.44895002245903,7.28400039672852,13.1830501556396,13.1830501556396,-8.49777507781982,-6.33792495727539,-1.37706243991852,2.13000011444092,2.85795021057129,2.93400025367737,SWING_LEFT
0.00192499998957,0.00123749999329,-0.00027499999851,-1.26142501831055,-1.30253744125366,-1.2225124835968,1.46505010128021,1.84800004959106,1.42695009708405,8.16495037078857,8.08800029754639,8.16495037078857,-1.02341246604919,-1.12241244316101,-1.12131249904633,3.96900010108948,8.41200065612793,6.84195041656494,-0.00316249998286,-0.14135000109673,-0.63868749141693,-0.00412499997765,0.00041249999776,0.00068749999627,-2.02005004882813,-1.78995013237,-1.29195010662079,12.3400506973267,13.3360509872437,11.6119508743286,-0.61902499198914,-0.56636250019073,-0.69629997014999,-3.27105021476746,-18.3250503540039,-34.4140510559082,-2.37173748016357,-2.43883752822876,-1.98838746547699,2.86701250076294,4.99784994125366,7.86390018463135,-12.9760503768921,-35.9599533081055,-64.5370559692383,-3.93900012969971,-38.9520034790039,-38.9520034790039,-5.0685248374939,-5.04996252059937,-5.39962482452393,28.3320007324219,16.4950504302979,17.6830501556396,-9.03443717956543,-9.13714981079102,-8.05516242980957,10.380012512207,10.2697372436523,10.8450374603271,-10.1029500961304,-1.48395001888275,0.46905001997948,49.9960517883301,10.3870506286621,-4.09305000305176,0.31253749132156,1.07511246204376,0.61764997243881,13.5450010299683,9.67605018615723,5.80695009231567,1.4276624917984,1.48101246356964,0.66893750429153,21.1303119659424,19.3913497924805,16.4359245300293,-0.06599999964237,-1.94295012950897,-2.59500002861023,3.52995014190674,12.3400506973267,14.9830503463745,-3.42691254615784,-5.24342489242554,-3.16910004615784,0.71205002069473,0.40605002641678,0.82695001363754,SWING_LEFT
-0.1885125041008,-0.23704999685287,-0.28751251101494,-0.49169999361038,-0.53294998407364,-0.56443750858307,-0.10500000417233,-0.02805000171065,0.43095001578331,10.2720003128052,10.5780000686646,10.7310009002686,-1.08611249923706,-1.15486252307892,-1.27077496051788,9.21705055236816,8.87205028533936,5.15595006942749,-0.60885000228882,-0.9150624871254,-1.12915003299713,-0.59757500886917,-0.7068874835968,-0.71142500638962,0.8520000576973,-0.22005000710487,-1.78995013237,9.35205078125,11.0380506515503,11.0380506515503,-2.29955005645752,-2.93039989471436,-5.89613723754883,-8.71005058288574,-15.3370504379272,-50.5420532226563,-3.84876251220703,-3.64773750305176,-2.50071239471436,2.96271252632141,5.64244985580444,9.09576225280762,-6.00405025482178,-20.8290004730225,-44.5410003662109,-9.11100006103516,-23.1310520172119,-28.2640514373779,-12.8191251754761,-12.451587677002,-11.2751379013062,19.0999507904053,10.7869501113892,24.7309513092041,14.7182750701904,20.0846252441406,19.6183624267578,18.000675201416,18.9454364776611,17.7630748748779,-20.3689517974854,-1.33095002174377,4.06995010375977,34.1749534606934,8.93100070953369,-4.16895008087158,-2.39098739624023,1.60641252994537,0.61448746919632,0.75105005502701,2.62800002098084,4.84995031356812,6.20001268386841,4.57613754272461,4.0479998588562,23.284387588501,20.333911895752,18.109712600708,-1.48395001888275,-1.17705011367798,-1.56000006198883,12.6469507217407,16.47705078125,16.47705078125,-6.09853744506836,-5.74475002288818,-4.2523250579834,-0.28305000066757,-0.62700003385544,-0.70395004749298,SWING_LEFT
0.007012499962,0.00591249996796,0.00522499997169,-0.27939999103546,-0.40961250662804,-0.47740000486374,1.00499999523163,0.73695003986359,1.42695009708405,10.2330007553101,10.2330007553101,10.0800008773804,-0.65477502346039,-0.74277502298355,-0.86185002326965,1.55505001544952,3.39405012130737,5.5009503364563,0.25616249442101,0.38170000910759,0.40177500247955,0.21573749184608,0.27967500686646,-0.0015124999918,1.19700002670288,-1.6750500202179,-0.7180500626564,9.46695041656494,9.65895080566406,11.0380506515503,-1.26197504997253,-1.22512495517731,-0.9620875120163,-2.27505016326904,-4.99395036697388,-26.9059505462646,-0.59331250190735,-1.1418000459671,-1.68822503089905,-1.80372500419617,-0.99178749322891,0.865149974823,-2.40300011634827,-9.06900024414062,-22.7059516906738,4.75500011444092,-6.27600049972534,-19.3770008087158,-3.68073749542236,-3.82882499694824,-3.96563744544983,13.8900003433228,30.4770011901855,21.5130004882813,-6.00586223602295,-7.49017477035522,-6.89314985275269,12.9031372070313,12.6707620620728,12.0510501861572,-16.8070507049561,-0.98595005273819,2.03895020484924,44.7859535217285,18.7369518280029,-0.64500004053116,-6.04876232147217,-2.85876250267029,-3.54158759117126,7.18605041503906,5.04105043411255,0.44400003552437,-1.20958745479584,0.16335000097752,0.44866248965263,21.3716239929199,21.3369750976563,20.2861995697021,-1.52205002307892,-3.24600005149841,-3.51405024528503,8.16495037078857,13.9489507675171,13.9489507675171,-3.85343742370605,-4.75969982147217,-2.86522507667542,1.51695013046265,1.66995012760162,1.8229501247406,SWING_LEFT
-0.00178749999031,0.00068749999627,0.00137499999255,0.16238750517368,0.40590000152588,0.49651250243187,0.3160500228405,0.54495000839233,0.23895001411438,9.35205078125,9.58200073242188,9.58200073242188,-0.78168749809265,-0.78581249713898,-0.81372499465942,2.28299999237061,0.67395001649857,1.32495009899139,0.00467499997467,0.0054999999702,0.00577499996871,0.44110000133514,0.25052499771118,0.00013749999925,0.58395004272461,0.58395004272461,0.50700002908707,10.6930503845215,10.5010509490967,10.5010509490967,-1.31037497520447,-1.43371248245239,-1.58784997463226,1.40205001831055,-4.87905025482178,-14.953950881958,-0.00302499998361,-0.17710000276566,-0.1733874976635,-1.13258755207062,-0.56306248903275,0.75157499313354,4.91295003890991,-9.91095066070557,-32.742000579834,14.8680009841919,-18.2280006408691,-19.1089515686035,-2.74876236915588,-2.7560498714447,-2.68207502365112,-4.49595022201538,14.1199502944946,14.8090505599976,-4.35242509841919,-5.58745002746582,-6.33297491073608,8.94396209716797,8.93928718566895,7.57061243057251,-7.26795053482056,2.95905017852783,0.50700002908707,25.1350517272949,12.9910507202148,-7.19505023956299,-7.38512516021729,-8.47000026702881,-9.61839962005615,6.26700019836426,0.55905002355576,-5.22405004501343,-0.36286249756813,1.92059993743896,1.78117501735687,-17.2382373809814,-19.1261119842529,-19.1721744537354,-0.60300004482269,-2.05800008773804,-0.56400001049042,3.64395022392273,18.4309501647949,13.2979507446289,-6.7106876373291,-5.86299991607666,-1.11732494831085,2.43600010871887,2.24505019187927,1.32495009899139,SWING_LEFT
-0.66687500476837,-0.5879499912262,-0.49555000662804,0.78925001621246,0.59537500143051,0.41717499494553,-0.18105000257492,-0.29595002532005,-0.33495002985001,10.0030508041382,9.00705051422119,8.89305019378662,0.35956248641014,0.22838750481606,-0.00013749999925,2.97300004959106,2.74305009841919,6.49695014953613,-0.00041249999776,0.0015124999918,0.00329999998212,-0.89099997282028,-1.0922999382019,-1.23488748073578,0.16200000047684,0.04800000041723,0.12405000627041,8.54805088043213,9.27600002288818,10.8079509735107,-0.21670000255108,-0.25203749537468,-0.3436124920845,0.13800001144409,-2.0830500125885,-9.13199996948242,-0.00027499999851,-0.21051250398159,-0.30579999089241,-0.5986750125885,0.76711249351501,1.94988751411438,2.23095011711121,-3.13095021247864,-21.1740016937256,12.6079502105713,-0.18495000898838,-20.6800518035889,-1.70857501029968,-1.78103744983673,-1.61273753643036,-18.2869510650635,21.8200511932373,20.5170001983643,-3.0214250087738,-4.19539976119995,-5.33376264572144,9.59598731994629,9.34945011138916,8.32988739013672,-6.92295026779175,4.10805034637451,1.35000002384186,12.8760004043579,2.72505021095276,-3.25005006790161,-6.10211229324341,-8.52802467346191,-10.9312496185303,13.5840005874634,3.24105024337769,-0.20595000684261,-6.03762483596802,-2.97714996337891,-0.70345002412796,-15.8262500762939,-16.3773498535156,-15.3518753051758,0.12405000627041,0.20100000500679,0.46905001997948,9.12195014953613,9.46695041656494,10.3870506286621,-9.60052490234375,-6.90071249008179,-1.14289999008179,-0.74205005168915,0.25304999947548,1.59300005435944,SWING_LEFT
-0.2788499891758,-0.19744999706745,-0.15895000100136,0.30401250720024,0.26537498831749,0.17201249301434,2.6140501499176,2.49900007247925,2.42295002937317,10.0420503616333,10.0420503616333,10.3480501174927,-1.15073752403259,-1.08501243591309,-1.05709993839264,3.31695008277893,3.54705023765564,4.81095027923584,-0.52552497386932,-0.63731247186661,-0.78911250829697,-0.39022499322891,-0.4822124838829,-0.81124997138977,1.77105009555817,1.69500005245209,1.69500005245209,9.8500509262085,9.23700046539307,9.69705009460449,-1.09711253643036,-1.11856245994568,-1.14619994163513,0.21405000984669,-6.56505012512207,-20.7390003204346,-1.06149995326996,-1.1394624710083,-1.05709993839264,-1.34021246433258,-0.41387498378754,2.11199998855591,-10.0260000228882,-35.8840522766113,-63.7710037231445,-13.8610506057739,-22.8250503540039,-22.8250503540039,-3.43832492828369,-2.70764994621277,-3.28776240348816,40.8199501037598,22.5859508514404,9.48495006561279,-10.8861503601074,-10.6554250717163,-8.1413745880127,13.4171123504639,14.0927877426147,18.2349758148193,-0.79395002126694,-2.28795003890991,0.12405000627041,3.14595007896423,1.92105007171631,2.57205009460449,-2.66763758659363,-5.2007999420166,-6.37697505950928,5.30895042419434,1.05705010890961,-1.39305007457733,4.62921237945557,5.06220006942749,4.94958734512329,22.7279243469238,21.6981868743896,19.2880878448486,0.35400000214577,1.00499999523163,1.732950091362,11.3440504074097,11.9569501876831,11.9569501876831,-6.44490003585815,-1.88801252841949,-0.67402499914169,1.78500008583069,3.93000030517578,4.46700000762939,SWING_LEFT
-0.2389750033617,-0.16156250238419,-0.00494999997318,-0.20102499425411,-0.1544124931097,-0.00563749996945,2.95905017852783,3.37995004653931,3.26505017280579,9.00705051422119,9.39105033874512,8.96895027160645,-0.91423749923706,-0.98175001144409,-0.97803747653961,4.04505014419556,5.46300029754639,8.91000080108643,0.00068749999627,-0.00412499997765,-0.24378749728203,-0.65532499551773,-1.10934996604919,-1.66471254825592,0.04800000041723,-0.87105005979538,-1.02404999732971,10.2720003128052,10.8079509735107,14.1790504455566,-0.20047499239445,-0.00096249999478,-0.00123749999329,1.63200008869171,-4.95600032806396,-9.89805030822754,-2.37132501602173,-3.79018759727478,-4.30237483978271,-2.60741257667542,-0.41414999961853,1.50933754444122,-3.51405024528503,-2.55600023269653,-25.3110008239746,9.5440502166748,-7.65495014190674,-29.2219505310059,-5.66225004196167,-6.50168752670288,-6.68387508392334,-41.5390510559082,-4.84095001220703,24.3480014801025,-8.87411212921143,-10.7035503387451,-10.5155878067017,12.107837677002,11.0622873306274,10.2573623657227,-11.4439506530762,-8.07299995422363,-2.82495021820068,20.5000514984131,20.5000514984131,9.50505065917969,-5.49009990692139,-3.56317496299744,-4.76368761062622,16.8780002593994,12.4729509353638,7.95195055007935,-1.88966250419617,3.79128742218018,4.44496250152588,18.774112701416,20.3230495452881,19.9560623168945,3.30405020713806,2.30805015563965,2.03895020484924,-0.87495005130768,2.03595018386841,7.70505046844482,-8.69371223449707,-8.96458721160889,-9.11899948120117,-0.09105000644922,-0.70395004749298,0.32895001769066,SWING_LEFT
0.2268749922514,0.27678748965263,0.25451248884201,-0.35859999060631,-0.36849999427795,-0.36396250128746,2.57595014572144,2.72895002365112,2.6140501499176,9.50505065917969,10.0420503616333,10.1179504394531,-0.85469996929169,-0.85703748464584,-0.81551247835159,2.39805006980896,2.7810001373291,4.65795040130615,-0.26510000228882,-0.36808750033379,-0.44893750548363,-0.47547498345375,-0.59936249256134,-0.83104997873306,2.15400004386902,2.30805015563965,1.81005012989044,10.0420503616333,10.3870506286621,11.3830509185791,-0.89980000257492,-0.98395001888275,-1.21632504463196,1.09500002861023,-5.7610502243042,-19.8190517425537,-1.08844995498657,-1.79726254940033,-1.96061253547668,-1.96130001544952,-0.98642498254776,1.1727374792099,0.16200000047684,-44.1960029602051,-78.3660049438477,11.6509504318237,-39.4500007629395,-58.2589530944824,-6.19574975967407,-7.38581228256226,-8.69357490539551,45.7230033874512,49.7070007324219,-0.51195001602173,-1.0480250120163,0.52758747339249,2.08917498588562,14.1370620727539,15.5753126144409,16.3532867431641,2.07795000076294,3.91695022583008,0.69900006055832,1.4230500459671,-7.65495014190674,-7.65495014190674,-0.83008748292923,1.60214996337891,2.90867495536804,12.01305103302,9.9060001373291,4.8880500793457,5.5280499458313,4.21918725967407,4.38336229324341,17.9624500274658,18.4496116638184,17.660774230957,3.64800024032593,2.26905012130737,2.53695011138916,10.2720003128052,10.1569509506226,9.58200073242188,-3.54777503013611,-4.68489980697632,-5.13837480545044,1.66995012760162,1.63200008869171,0.94200003147125,SWING_LEFT
-0.33109998703003,-0.38596248626709,-0.39036250114441,-0.18218749761581,-0.28256249427795,-0.30360001325607,2.26905012130737,2.76705002784729,2.76705002784729,9.5440502166748,9.61995029449463,9.50505065917969,-0.98931246995926,-1.12653744220734,-1.40002501010895,1.40205001831055,1.05705010890961,2.70405006408691,-0.0042624999769,-0.00013749999925,0.00329999998212,-0.00096249999478,-0.00041249999776,-0.00206249998882,2.46105003356934,2.19300007820129,1.12005007266998,9.27600002288818,9.31395053863525,9.58200073242188,-1.92981243133545,-1.82091248035431,-1.70500004291534,-0.24405001103878,-8.02095031738281,-17.67405128479,-0.80286252498627,-2.21154999732971,-2.79386258125305,-2.20783758163452,-1.65412497520447,0.26977500319481,1.81005012989044,-17.1130504608154,-64.6519546508789,1.57605004310608,-33.5890502929688,-36.3859519958496,-4.38075017929077,-4.85938739776611,-5.38119983673096,19.981050491333,61.3530044555664,15.7669506072998,-14.7900495529175,-14.0911378860474,-12.7126998901367,11.6714124679565,12.9013500213623,13.6782245635986,-3.93495011329651,8.09205055236816,6.13800048828125,1.49895012378693,-2.86695003509521,-5.16495037078857,-2.37888741493225,-0.25011250376701,-0.29067498445511,9.52305030822754,8.6419506072998,7.87605047225952,1.26692497730255,1.73195004463196,1.67612504959106,20.322774887085,19.7308368682861,19.3102245330811,-1.94295012950897,0.88995003700256,1.35000002384186,13.6810503005981,9.88905048370361,7.4370002746582,-2.50387501716614,-4.06766271591187,-3.76530003547669,1.93800008296967,1.90005004405975,2.55105018615723,SWING_LEFT
0.00027499999851,-0.00082499999553,-0.00041249999776,0.00384999997914,0.00563749996945,0.00673749996349,2.07795000076294,2.11605000495911,2.07795000076294,9.19905090332031,9.00705051422119,9.46695041656494,-0.29603749513626,-0.31171250343323,-0.30112498998642,2.62800002098084,2.62800002098084,7.87605047225952,0.00357499998063,0.00288749998435,0.00027499999851,0.00453749997541,0.00109999999404,-0.15083749592304,0.27705001831055,-1.17705011367798,-3.09300017356873,10.8460502624512,11.3440504074097,12.7620010375977,0.00288749998435,0.29191249608994,0.45141249895096,3.27900004386902,-5.30100011825562,-14.8780508041382,-1.5856499671936,-3.46912503242493,-5.06673765182495,-2.90001249313354,-2.11626243591309,-0.00563749996945,-0.29595002532005,-9.60495090484619,-45.1159515380859,3.49095010757446,-26.7319507598877,-47.4949531555176,-4.82542514801025,-4.89761257171631,-4.84536266326904,-10.0129508972168,54.5719528198242,24.7309513092041,7.3136248588562,10.1543750762939,13.0653877258301,21.210750579834,22.8699626922607,23.640100479126,-4.20405006408691,5.83200025558472,6.36795043945313,13.9870510101318,7.97295045852661,6.90105009078979,1.57739996910095,4.16006231307983,3.27579998970032,10.6339502334595,8.56500053405762,5.80695009231567,9.613450050354,9.05038738250732,8.67638778686523,26.2677249908447,25.029125213623,23.6697998046875,-1.25400006771088,-0.41100001335144,1.38795006275177,11.8810501098633,9.8500509262085,8.5090503692627,-2.76581239700317,-4.40137481689453,-3.56372499465942,-0.97200006246567,0.483000010252,2.206050157547,SWING_LEFT
-0.0054999999702,-0.0042624999769,-0.00178749999031,1.46066248416901,1.52281248569489,1.43962502479553,2.30805015563965,2.26905012130737,2.30805015563965,9.27600002288818,9.61995029449463,9.8500509262085,-0.91066247224808,-0.81427496671677,-0.70358747243881,2.66595005989075,4.77300024032593,5.96100044250488,0.00467499997467,0.00054999999702,-0.25437501072884,-0.59166252613068,-1.06507503986359,-1.85721254348755,1.69500005245209,1.92495012283325,-1.59900009632111,12.3400506973267,12.5320501327515,12.1489505767822,-0.00632499996573,-0.00522499997169,-0.00577499996871,4.04505014419556,-3.19395017623901,-10.0129508972168,-1.20491254329681,-1.67213749885559,-2.36266255378723,-1.82448744773865,-1.05764997005463,0.27788749337196,0.50700002908707,-9.25995063781738,-40.7100028991699,0.8479500412941,-14.4739503860474,-50.4829521179199,-6.75743722915649,-10.7250003814697,-11.8688621520996,-48.9330024719238,47.6389541625977,44.1910514831543,14.5440626144409,19.2908382415771,24.7574253082275,18.6594371795654,21.4670505523682,24.2710876464844,-16.8070507049561,-1.98195004463196,0.73695003986359,16.8220500946045,16.8220500946045,12.5700006484985,2.80885004997253,6.88462495803833,10.171012878418,14.7709503173828,13.9669504165649,9.06300067901611,13.1851501464844,12.7983627319336,12.6524753570557,23.9204616546631,23.2362632751465,21.2409992218018,0.35400000214577,-0.14295001327991,0.3160500228405,4.52595043182373,6.01905012130737,7.4370002746582,-0.39544999599457,-4.5159125328064,-4.76506233215332,-1.125,1.32495009899139,1.55505001544952,SWING_LEFT
-0.00439999997616,-0.0054999999702,-0.00673749996349,-0.00563749996945,-0.007012499962,-0.17833749949932,2.99700021743774,2.99700021743774,3.18900012969971,9.58200073242188,9.5440502166748,9.39105033874512,-0.21697500348091,-0.27348750829697,-0.31803750991821,4.00695037841797,5.19405031204224,6.88005018234253,-0.20363749563694,-0.21601249277592,-0.28902500867844,-0.64831250905991,-0.81386250257492,-1.2615624666214,1.27305006980896,1.1580001115799,-0.64095002412796,9.08400058746338,11.5360507965088,12.2250003814697,-0.43573749065399,-0.41841250658035,-0.46942499279976,0.6360000371933,-9.43800067901611,-28.2090015411377,-2.27438759803772,-3.31031250953674,-4.01733732223511,-1.57863748073578,-0.59441250562668,2.06112504005432,-3.36105012893677,-32.4739532470703,-72.3139572143555,-7.57905054092407,-51.5170516967773,-51.5170516967773,-6.85547494888306,-8.53737449645996,-11.0694370269775,54.2280044555664,27.9870014190674,9.98295021057129,-15.4812622070313,-13.6401376724243,-9.61771202087402,14.2186002731323,15.7767496109009,16.5636615753174,1.31205010414124,8.89605045318604,1.1580001115799,10.6549501419067,2.26500010490417,-3.13500022888184,0.18177500367165,1.51951253414154,3.00698757171631,7.30095052719116,5.04105043411255,3.62400007247925,5.63516235351563,5.97520017623901,5.75519990921021,20.4370365142822,19.6337623596191,18.3082618713379,-1.06200003623962,0.12405000627041,1.1580001115799,12.3019504547119,10.5400505065918,9.39105033874512,-2.95336246490479,-3.65997505187988,-2.64385008811951,1.63200008869171,3.47100019454956,3.16395020484924,SWING_LEFT
0.14836250245571,0.20363749563694,0.22866250574589,-0.49224999547005,-0.45168748497963,-0.38912498950958,3.95505023002625,3.7630500793457,3.84000015258789,8.5090503692627,8.5090503692627,8.5090503692627,0.0015124999918,0.00109999999404,0.00123749999329,3.08700013160706,4.27500009536743,7.18605041503906,0.00123749999329,-0.00178749999031,-0.14272500574589,-0.0015124999918,-0.00164999999106,-0.40053749084473,3.34200024604797,2.11605000495911,-0.10500000417233,9.00705051422119,9.04605007171631,12.2640008926392,0.2909500002861,0.53198748826981,0.80822497606277,10.7869501113892,4.65795040130615,-13.6900510787964,-1.3527250289917,-2.04710006713867,-3.46994996070862,-2.59599995613098,-2.37448740005493,-1.1504625082016,8.78205013275146,-14.4319505691528,-57.6040534973145,-11.7919502258301,-32.5549507141113,-55.6920013427734,-3.28157496452332,-6.41025018692017,-6.33833742141724,-14.9929504394531,37.909049987793,21.2830505371094,12.075249671936,14.467474937439,21.7258243560791,22.2919120788574,24.8859882354736,30.1676368713379,-3.51405024528503,10.3140001296997,2.57595014572144,7.81995058059692,2.03595018386841,0.73305004835129,7.71223735809326,9.2024621963501,9.27561283111572,4.58100032806396,2.81895017623901,2.206050157547,8.39437484741211,8.07702541351318,7.7962498664856,21.8312873840332,20.7073631286621,19.1438503265381,0.00900000054389,1.19700002670288,1.88595008850098,11.4210004806519,9.42900085449219,7.59000015258789,-2.17195010185242,-3.02843737602234,-2.44420003890991,-1.62300002574921,2.47500014305115,2.58900022506714,SWING_LEFT
-0.14300000667572,-0.00123749999329,0.00123749999329,-0.22769999504089,-0.34911251068115,-0.37138751149178,1.50300002098084,1.46505010128021,1.35000002384186,9.69705009460449,9.58200073242188,9.69705009460449,0.00054999999702,0.00027499999851,-0.00041249999776,2.09100008010864,2.62800002098084,6.03705024719238,0.00164999999106,-0.00013749999925,-0.00371249997988,-0.29452499747276,-0.31913748383522,-0.49279999732971,0.23895001411438,-0.18105000257492,-1.48395001888275,10.8850507736206,11.6890506744385,12.2250003814697,-0.0054999999702,-0.00659999996424,-0.19525000452995,13.0090503692627,7.64595031738281,-3.96000027656555,-1.22210001945496,-2.15517497062683,-2.88681244850159,-2.16094994544983,-2.11021256446838,-1.04719996452332,-0.98595005273819,4.68300008773804,-25.9999504089355,13.4130010604858,9.58200073242188,-54.8500518798828,-3.70947504043579,-5.51924991607666,-6.20963764190674,-40.5820503234863,4.65795040130615,42.5059509277344,-14.0842628479004,-16.3943996429443,-15.3247871398926,12.5658502578735,13.7048997879028,15.3330373764038,-20.2930507659912,1.57995009422302,9.81600093841553,31.2259521484375,16.1329498291016,0.88605004549026,0.00206249998882,4.75365018844604,7.02734994888306,6.84195041656494,7.99095058441162,6.57300043106079,-4.73206233978271,7.50612497329712,7.78813743591309,16.7230243682861,20.3533000946045,19.7511882781982,-1.82895004749298,-1.82895004749298,-0.29595002532005,12.5320501327515,14.026050567627,12.9529504776001,1.72259998321533,-1.11594998836517,-4.00400018692017,-1.47000002861023,-0.58905005455017,2.13000011444092,SWING_LEFT
-0.00178749999031,-0.00288749998435,0.00096249999478,-0.40411248803139,-0.35021248459816,-0.20198750495911,4.52895021438599,4.33800029754639,4.1850004196167,8.20305061340332,8.16495037078857,8.20305061340332,-0.19511249661446,-0.30634999275208,-0.37509998679161,2.05305004119873,2.206050157547,2.43600010871887,0.26166251301765,0.22068749368191,0.15125000476837,-0.15413749217987,-0.20198750495911,-0.26798748970032,4.1850004196167,4.1850004196167,2.69100022315979,8.66295051574707,10.3480501174927,10.6930503845215,-0.00357499998063,0.48001250624657,0.81633746623993,15.9970502853394,-7.33095026016235,-22.8840007781982,-1.00072503089905,-1.82311248779297,-4.04112482070923,-2.37503743171692,-2.6637876033783,-0.38912498950958,3.6870002746582,3.26505017280579,-78.3660049438477,9.88905048370361,-15.0480003356934,-52.8190536499023,-2.62514996528625,-3.90376257896423,-6.24428749084473,54.3040542602539,60.3949546813965,41.8159523010254,14.4519376754761,16.402099609375,18.5465507507324,21.9513244628906,24.0924739837646,25.2675495147705,0.43095001578331,9.77805042266846,8.09205055236816,-0.7219500541687,-4.01595020294189,-4.01595020294189,-0.95947498083115,5.30983734130859,7.56263732910156,10.9399509429932,6.95595026016235,5.46300029754639,2.64109992980957,0.83558750152588,-1.19872498512268,18.0624122619629,17.9871997833252,16.8205127716064,-0.25800001621246,-0.02805000171065,0.43095001578331,7.09200048446655,6.67095041275024,7.09200048446655,-1.25785005092621,-2.85271239280701,-3.79830002784729,1.1340000629425,2.89605021476746,3.81495022773743,SWING_LEFT
-0.00027499999851,0.00453749997541,0.21257500350475,-0.56663751602173,-0.5823125243187,-0.58382499217987,4.10805034637451,4.14600038528442,4.22294998168945,8.93100070953369,9.16095066070557,8.93100070953369,-0.79392498731613,-0.7595499753952,-0.71898752450943,2.24505019187927,2.43600010871887,3.08700013160706,0.30992498993874,0.2411749958992,0.00632499996573,-0.40356248617172,-0.36698749661446,-0.45966249704361,4.41495037078857,4.33800029754639,2.19300007820129,8.16495037078857,8.16495037078857,9.96495056152344,-0.29878750443459,-0.00687499996275,0.00618749996647,15.4990510940552,12.5110502243042,0.98100006580353,-0.48179998993874,-1.08583748340607,-2.10278749465942,-2.38218760490417,-2.63161253929138,-2.41477489471436,7.05795049667358,-4.8550500869751,-42.3580513000488,12.9910507202148,-10.2600002288818,-36.3090019226074,-1.50658750534058,-4.14713764190674,-4.26098728179932,-34.3380012512207,46.4899520874023,29.5579509735107,-17.9757881164551,-16.7938365936279,-12.941499710083,12.0206623077393,14.3070125579834,17.9346752166748,-14.8530006408691,3.95505023002625,2.69100022315979,30.306001663208,13.2600002288818,-10.3750505447388,-0.16554999351501,3.15301251411438,5.25208759307861,12.5880002975464,13.4299507141113,11.3620510101318,4.73921251296997,4.1739501953125,3.80765008926392,17.4024124145508,17.9792251586914,18.3414001464844,-1.33095002174377,-1.13895010948181,-0.75600004196167,9.42900085449219,8.05005073547363,7.16895055770874,1.31051254272461,-2.37833738327026,-3.14806246757507,0.90405005216599,2.70405006408691,3.04905009269714,SWING_LEFT
0.20899999141693,0.18521249294281,0.00591249996796,-0.75625002384186,-0.71609997749329,-0.66769999265671,-0.64095002412796,-0.83295005559921,-0.87105005979538,9.96495056152344,10.8460502624512,10.8460502624512,-0.59936249256134,-0.81853747367859,-0.95988750457764,4.42799997329712,4.73505020141602,5.5770001411438,-0.62507498264313,-0.82857501506805,-1.38503754138947,-0.61489999294281,-0.6681125164032,-0.71541249752045,-3.51405024528503,-4.9699501991272,-5.96595048904419,12.3400506973267,12.7999505996704,11.9950504302979,-2.68523740768433,-3.13197493553162,-3.48892498016357,2.39805006980896,-4.07505035400391,-14.8390502929688,-3.45908737182617,-3.66753745079041,-3.74440002441406,0.29809999465942,1.05228745937347,2.52766251564026,9.54795074462891,-1.29195010662079,-40.5570030212402,6.70905017852783,-9.83895015716553,-46.8430519104004,-1.67365002632141,3.84876251220703,4.44840002059937,-42.1909523010254,51.6229515075684,38.2150535583496,-9.41104984283447,-8.24408721923828,-5.57177495956421,11.6393747329712,13.0028247833252,14.3345127105713,-14.202000617981,-3.20805025100708,4.49100017547607,20.6149501800537,-3.09705018997192,-5.93100023269653,3.02060008049011,1.44773745536804,0.42762500047684,14.5410003662109,10.1740503311157,4.77300024032593,2.8804874420166,2.27438759803772,2.00530004501343,18.6938133239746,17.7768249511719,16.9417877197266,0.08595000207424,-0.18105000257492,-0.52605003118515,7.9350004196167,7.9350004196167,7.12995052337646,-3.67289996147156,-5.38766241073608,-5.40292501449585,-0.12900000810623,-0.20595000684261,0.36795002222061,SWING_LEFT
0.26537498831749,0.346774995327,0.36918750405312,-0.19359999895096,-0.00123749999329,0.00302499998361,0.73695003986359,0.69900006055832,0.50700002908707,9.35205078125,9.35205078125,9.35205078125,-0.41717499494553,-0.41029998660088,-0.40576249361038,2.32095003128052,3.39405012130737,4.77300024032593,0.0042624999769,-0.00481249997392,-0.1883749961853,-0.37207499146461,-0.68571251630783,-0.95933747291565,-0.79395002126694,-4.24200010299683,-6.84705018997192,11.2290000915527,13.03005027771,13.03005027771,-0.22577500343323,-0.00522499997169,0.34883749485016,12.9709510803223,2.24505019187927,-55.1389541625977,-1.58124995231628,-1.95318746566772,-2.40418744087219,-2.81311249732971,-2.48572492599487,-1.12323749065399,8.62800025939941,-15.7339506149292,-53.8879508972168,12.0340509414673,-9.64695072174072,-55.2709541320801,4.02971267700195,5.22321224212646,5.44747495651245,55.0320014953613,48.2130012512207,24.4249515533447,-6.67411231994629,-6.23108768463135,-5.37239980697632,12.7789745330811,15.4563751220703,15.2838125228882,-9.29805088043213,9.47100067138672,2.30805015563965,33.4470024108887,-9.41700077056885,-5.89305019378662,1.15816247463226,-0.16197499632835,-0.60390001535416,12.127950668335,10.4809503555298,2.74305009841919,2.31481242179871,2.52986240386963,2.18680000305176,12.6339120864868,12.9428749084473,14.7131872177124,-0.94695001840591,-1.36905002593994,-1.59900009632111,10.9990501403809,8.73900032043457,8.73900032043457,-5.05793762207031,-5.5280499458313,-5.95801258087158,1.36395001411438,1.59300005435944,1.74705004692078,SWING_LEFT
-0.0015124999918,-0.15125000476837,-0.23553749918938,-0.29039999842644,-0.21628749370575,-0.18741250038147,0.27705001831055,0.08595000207424,0.16200000047684,10.1569509506226,10.5780000686646,11.1139507293701,-0.4446749985218,-0.46667498350143,-0.48413750529289,3.8539502620697,5.99895048141479,14.3110504150391,-0.51727497577667,-0.52249997854233,-0.55398750305176,-0.20363749563694,-0.39861249923706,-0.87285000085831,-3.01605010032654,-4.39499998092651,-7.45995044708252,11.9569501876831,11.3440504074097,8.16495037078857,-0.20927499234676,-0.00013749999925,0.2041874974966,-4.53495025634766,-11.0470504760742,-16.9080009460449,-1.27283751964569,-2.64357495307922,-3.4935998916626,-3.56152486801147,-1.44883751869202,1.78447496891022,-5.65905046463013,0.88995003700256,-41.860050201416,9.19905090332031,-17.0400009155273,-46.7290534973145,-0.5517874956131,-0.2743124961853,-1.00045001506805,-40.8499526977539,17.7210006713867,42.6589508056641,-10.6768751144409,-11.9488878250122,-10.6616125106812,15.0196752548218,14.7635126113892,14.2663125991821,-25.195951461792,-9.68205070495606,0.39195001125336,5.40705013275146,-4.36094999313354,-4.36094999313354,-6.1047248840332,-6.55517482757568,-6.50705003738403,5.5770001411438,7.7989501953125,6.84195041656494,-7.6012749671936,0.55274999141693,-0.15867500007153,9.65139961242676,19.9175624847412,22.3623123168945,-0.18105000257492,0.23895001411438,-0.98595005273819,9.27600002288818,4.83195018768311,6.78600025177002,-4.27088737487793,-4.30567502975464,-3.76048755645752,1.09500002861023,1.8229501247406,2.32095003128052,SWING_LEFT
0.31501248478889,0.00659999996424,-0.00164999999106,0.96167498826981,0.90241247415543,0.78553748130798,0.62205004692078,0.50700002908707,0.50700002908707,9.77400016784668,9.92700004577637,9.8500509262085,1.77732503414154,1.17961251735687,0.90103751420975,0.94200003147125,1.01895010471344,1.63200008869171,-0.32133749127388,-0.262212485075,-0.007012499962,-0.24901250004768,-0.3647874891758,-0.47918748855591,0.50700002908707,0.20100000500679,-3.13095021247864,10.3099508285522,10.1569509506226,10.195050239563,0.00398749997839,-0.00508749997243,-0.32821249961853,16.0740013122559,8.41200065612793,-10.1659507751465,-1.00017499923706,-1.47839999198914,-2.12409996986389,-2.1038875579834,-2.36596250534058,-1.61122500896454,4.1850004196167,-11.7880506515503,-53.428050994873,3.03195023536682,-25.0849514007568,-32.1720008850098,-0.97707498073578,-0.81702500581741,-0.51521247625351,17.5290012359619,45.2250022888184,29.673002243042,-5.3802375793457,-5.66953754425049,-4.14974975585938,13.4535503387451,15.1621246337891,17.204137802124,-15.657000541687,-3.85905027389526,1.12005007266998,7.01505041122437,-5.54805040359497,-9.30195045471191,-2.24152493476868,-1.96748745441437,-1.9629499912262,10.021050453186,8.48895072937012,5.11800003051758,1.29236245155334,2.28882503509521,2.6148374080658,15.5101375579834,16.3160247802734,18.0098876953125,-0.90900003910065,-0.48795002698898,-0.75600004196167,9.65895080566406,6.21105051040649,6.21105051040649,-3.24142503738403,-4.72312498092651,-5.28343725204468,1.01895010471344,2.47500014305115,2.7810001373291,SWING_LEFT
0.00261249998584,0.0015124999918,0.00096249999478,-0.00618749996647,-0.00618749996647,-0.0054999999702,0.88995003700256,0.88995003700256,0.81405001878738,9.65895080566406,9.58200073242188,9.58200073242188,-0.00192499998957,-0.00206249998882,-0.00178749999031,1.78500008583069,1.78500008583069,2.7810001373291,-0.0015124999918,-0.00192499998957,-0.00233749998733,-0.00398749997839,-0.00453749997541,-0.00632499996573,0.69900006055832,0.04800000041723,-2.21205019950867,9.73500061035156,9.73500061035156,9.73500061035156,-0.00563749996945,-0.19332499802113,-0.00659999996424,9.86805057525635,-4.53495025634766,-31.92405128479,-0.69753748178482,-1.17507493495941,-1.48678743839264,-2.47926259040833,-2.3617000579834,0.00164999999106,8.32200050354004,-40.441951751709,-70.6669540405273,6.78600025177002,-43.7790031433105,-50.8270530700684,4.2759747505188,5.65111255645752,5.37817478179932,40.5520515441895,30.3240013122559,5.3860502243042,-4.96127510070801,-4.94642496109009,-4.53529977798462,14.7263870239258,16.6193504333496,17.3130378723145,-1.33095002174377,5.25705003738403,4.7590503692627,-11.3710508346558,-11.3710508346558,-9.95400047302246,-0.92400002479553,-0.80739998817444,-0.00082499999553,9.10200023651123,6.80295038223267,4.35195016860962,-2.21663737297058,-3.78014993667603,-3.88987493515015,13.4820127487183,10.9319372177124,10.6700000762939,-0.48795002698898,-0.75600004196167,-0.7180500626564,14.2560005187988,9.23700046539307,8.5090503692627,-2.54691243171692,-2.94538760185242,-4.58108758926392,0.21405000984669,0.82695001363754,1.97700011730194,SWING_LEFT
-0.23704999685287,-0.24310000240803,-0.20982499420643,-0.82733750343323,-1.09133744239807,-1.18937504291534,1.08195006847382,0.81405001878738,0.92895007133484,9.73500061035156,9.96495056152344,10.1179504394531,-0.3121249973774,-0.28049999475479,-0.26867499947548,3.62400007247925,6.88005018234253,7.14795017242432,-0.0015124999918,-0.00398749997839,-0.27307498455048,-0.52717500925064,-0.65477502346039,-1.33003747463226,-0.44895002245903,-3.62895011901855,-1.63695013523102,11.4970502853394,11.6890506744385,10.2720003128052,-0.00137499999255,0.00233749998733,0.00439999997616,-1.43205010890961,-8.63400077819824,-28.47705078125,-1.33677494525909,-1.64216244220734,-1.7384124994278,-1.68368744850159,-0.00563749996945,3.82978749275208,-10.6780500411987,-40.2120018005371,-73.7310028076172,-14.9719505310059,-35.8879508972168,-36.8449516296387,0.00494999997318,0.34292501211166,-0.80024999380112,19.5210018157959,33.4270515441895,20.7090015411377,-9.92763710021973,-9.19709968566894,-6.84392499923706,15.5529003143311,16.0653629302979,13.7405128479004,-3.24600005149841,2.11605000495911,-0.7180500626564,5.40705013275146,-5.85495042800903,-1.52595007419586,-3.1073625087738,-2.63903737068176,-2.11942505836487,2.70405006408691,5.19405031204224,4.08300018310547,5.73581266403198,6.68868732452393,7.23016262054443,22.3408622741699,23.2076625823975,22.3753757476807,0.12405000627041,0.00900000054389,0.04800000041723,5.79000043869019,5.79000043869019,6.55605030059814,-1.39878749847412,-3.08247494697571,-2.68441247940063,0.32895001769066,0.86595004796982,1.05705010890961,SWING_LEFT
0.0,0.00164999999106,0.0,-0.00233749998733,0.0015124999918,0.00453749997541,0.77505004405975,0.77505004405975,0.88995003700256,10.1569509506226,10.195050239563,10.4250001907349,-0.74566251039505,-0.77165001630783,-0.77838748693466,1.32495009899139,1.28700006008148,1.66995012760162,-0.26908749341965,-0.27266249060631,-0.24323749542236,0.0054999999702,0.00577499996871,0.00494999997318,-0.87105005979538,-2.02005004882813,-4.66305017471313,10.2330007553101,12.3019504547119,12.3019504547119,-0.44302499294281,-0.00206249998882,0.27321249246597,11.6680507659912,-12.3490505218506,-28.5529518127441,-0.98339998722076,-1.30226254463196,-2.01492500305176,-2.47224998474121,-2.48476243019104,1.12887501716614,9.43305015563965,-7.80405044555664,-66.6060028076172,9.31395053863525,-33.8569526672363,-43.7410507202149,4.27721261978149,5.9768500328064,6.20193767547607,40.8580513000488,37.9470024108887,22.6240501403809,-8.20215034484863,-8.02518749237061,-7.44438743591309,14.4167375564575,15.7502126693726,15.8772621154785,3.72495007514954,3.18900012969971,-1.06200003623962,7.20705032348633,1.69095003604889,2.87805008888245,0.48963749408722,-3.2357873916626,-3.4105498790741,10.4419507980347,0.82695001363754,4.39005041122437,-1.363450050354,-2.08683753013611,-3.25971245765686,18.5361003875732,19.3546371459961,17.9602508544922,2.42295002937317,2.00100016593933,3.34200024604797,3.64395022392273,3.64395022392273,8.96895027160645,-6.80350017547607,-7.14862489700317,-7.44150018692017,2.09100008010864,3.96900010108948,5.23305034637451,SWING_LEFT
0.17366249859333,-0.00563749996945,-0.46076250076294,-0.65106248855591,-1.1006875038147,-1.32687497138977,3.95505023002625,4.10805034637451,4.72095012664795,9.58200073242188,9.92700004577637,9.00705051422119,0.20790000259876,0.00591249996796,0.00109999999404,0.78900003433228,0.78900003433228,1.24905002117157,0.0015124999918,0.16417500376701,0.27802500128746,-0.49706250429153,-0.39187499880791,-0.30373749136925,4.30005025863647,4.03095006942749,3.49500012397766,8.31795024871826,8.8540506362915,9.58200073242188,-0.28036248683929,-0.00206249998882,0.26633748412132,12.8179502487183,2.55105018615723,-7.06305027008057,-0.00096249999478,-0.36602500081062,-1.19721245765686,-1.30377495288849,-1.64257502555847,-1.01406252384186,9.24105072021484,10.5049505233765,-53.4670524597168,10.4629507064819,5.63595008850098,-37.995002746582,0.25740000605583,-0.5847874879837,-0.54656249284744,28.7920513153076,52.9630508422851,30.7840518951416,-14.7402753829956,-14.8993625640869,-14.2625999450684,14.1037874221802,15.9802503585815,17.6129245758057,-6.50205039978027,6.02295017242432,5.60205030441284,5.98095035552979,-13.7080507278442,-13.7080507278442,-3.74467492103577,-2.41711258888245,-3.27263736724854,12.8940010070801,5.46300029754639,2.206050157547,-1.21371245384216,-0.88508749008179,-2.82782506942749,13.578125,12.7985000610352,10.1766500473022,-1.82895004749298,-1.94295012950897,-0.41100001335144,16.1710510253906,16.1710510253906,12.7230005264282,-2.05012488365173,-2.0124499797821,-2.32952499389648,1.32495009899139,1.78500008583069,1.97700011730194,SWING_LEFT
-0.00453749997541,-0.00632499996573,-0.00646249996498,-0.0054999999702,-0.00261249998584,-0.00123749999329,0.92895007133484,0.77505004405975,0.69900006055832,9.42900085449219,9.61995029449463,9.77400016784668,-0.28435000777245,-0.31886249780655,-0.3255999982357,3.7390501499176,5.84595012664795,12.2809505462646,-0.15922500193119,-0.20336249470711,-0.24846249818802,-0.21766249835491,-0.45086249709129,-0.84920001029968,-3.39900016784668,-8.72399997711182,-12.8989505767822,11.4970502853394,11.4970502853394,11.2680006027222,0.38541248440742,0.64927500486374,0.7735750079155,-6.41205024719238,-17.1379508972168,-33.1879501342773,-2.62748742103577,-6.00215005874634,-6.714674949646,-2.66818737983704,1.55636250972748,5.67338752746582,6.9810004234314,-20.521951675415,-50.5939521789551,-0.99000006914139,-39.8719520568848,-41.9779510498047,-1.68410003185272,-0.5682874917984,-0.29782500863075,17.2230014801025,49.2090034484863,9.10200023651123,-11.4614496231079,-10.3191003799438,-8.55882453918457,15.7107496261597,15.09255027771,13.6795997619629,-4.89300012588501,2.76705002784729,2.30805015563965,9.23700046539307,-1.83195006847382,-1.83195006847382,-0.1913999915123,-0.26042500138283,-1.04142498970032,8.25900077819824,4.54305028915405,2.85795021057129,0.15784999728203,6.12947511672974,7.98861265182495,17.9264240264893,16.2152366638184,15.2165746688843,0.3160500228405,0.00900000054389,0.46905001997948,7.9350004196167,11.4589509963989,11.4589509963989,-3.92727494239807,-5.72783756256104,-5.15157508850098,0.86595004796982,0.98100006580353,1.66995012760162,SWING_LEFT
-0.1560624986887,-0.14382499456406,-0.00646249996498,0.0,-0.00027499999851,-0.00082499999553,0.8520000576973,0.88995003700256,0.88995003700256,9.50505065917969,10.1569509506226,10.195050239563,-0.53391247987747,-0.55879998207092,-0.61696249246597,6.88005018234253,7.87605047225952,9.17805004119873,-0.21944999694824,-0.46915000677109,-0.78154999017715,-0.29026249051094,-1.0978000164032,-1.66306245326996,-2.13495016098022,-14.2780504226685,-13.8570003509521,10.8079509735107,9.58200073242188,7.59000015258789,-1.93792498111725,-2.76347494125366,-4.08979988098145,-4.42005014419556,-10.9699506759644,-23.6119518280029,-7.26536226272583,-8.16007518768311,-8.5229377746582,-1.86078751087189,-0.00206249998882,2.44021248817444,-0.56400001049042,4.91295003890991,-10.6780500411987,10.7310009002686,3.30000019073486,-35.8489532470703,13.2508745193481,15.907787322998,17.2702751159668,-22.6920013427734,22.2030010223389,30.2089519500732,-8.66291236877441,-3.44712495803833,-1.06383752822876,3.71016240119934,4.89004993438721,5.73017501831055,-22.0549507141113,0.12405000627041,3.57195019721985,28.0459518432617,11.19105052948,-7.80795049667358,4.302649974823,-6.9921498298645,-13.2633876800537,9.06300067901611,8.83395004272461,6.19005012512207,5.81734991073608,6.65555000305176,6.98871231079102,2.70036244392395,1.41171252727509,-1.09340000152588,1.12005007266998,0.50700002908707,-0.33495002985001,7.9350004196167,6.28800010681152,6.28800010681152,-13.6892251968384,-5.90947484970093,-3.76323747634888,1.36395001411438,1.97700011730194,1.97700011730194,SWING_LEFT
0.43450000882149,0.48014998435974,0.45347499847412,-0.00453749997541,-0.31611248850822,-0.61421251296997,2.49900007247925,2.80605006217957,2.69100022315979,9.69705009460449,10.5010509490967,10.5010509490967,-5.87303733825684,-4.44180011749268,-4.04373741149902,1.86195003986359,3.24105024337769,4.15995025634766,-0.24708749353886,-0.3091000020504,-0.29273748397827,-2.03362488746643,-2.19367504119873,-2.50690007209778,2.92095017433167,2.72895002365112,3.18900012969971,9.00705051422119,9.00705051422119,9.77400016784668,-3.44506239891052,-3.22341251373291,-2.88956236839294,11.6299505233765,12.7030506134033,6.88005018234253,-0.55494999885559,-0.76931250095367,-0.95754998922348,-3.48053741455078,-3.46197509765625,-3.06611251831055,5.94705009460449,5.48700046539307,-16.3470001220703,10.3480501174927,10.3480501174927,-15.2020511627197,0.26647499203682,12.9392995834351,13.3640375137329,-37.2490501403809,36.2230529785156,35.6869506835938,-6.67259979248047,-6.01823759078979,-4.92593765258789,13.7660875320435,15.4446878433228,17.3468627929688,-5.00805044174194,-2.59500002861023,0.96705007553101,23.4490509033203,8.58600044250488,-3.36495018005371,1.58235001564026,-9.50069999694824,-16.6772365570068,7.26300048828125,2.16795015335083,-2.31300020217896,-2.0344500541687,-0.00632499996573,2.22997498512268,-4.84165000915527,-6.17058753967285,-6.72127485275269,0.00900000054389,0.00900000054389,0.43095001578331,9.39105033874512,9.39105033874512,9.69705009460449,-14.6954498291016,-4.61463737487793,-1.72576248645782,2.206050157547,2.47500014305115,1.97700011730194,SWING_LEFT
0.00288749998435,0.00054999999702,-0.00206249998882,-0.00357499998063,0.00013749999925,0.00481249997392,0.43095001578331,0.3160500228405,0.27705001831055,9.69705009460449,9.77400016784668,10.1179504394531,0.1870000064373,0.48881250619888,0.59839999675751,1.59300005435944,1.93800008296967,2.47500014305115,-0.00577499996871,-0.0054999999702,-0.00632499996573,0.47313749790192,0.40672498941422,0.00109999999404,0.46905001997948,0.58395004272461,1.6560001373291,10.1569509506226,10.7700004577637,10.2330007553101,-0.42528748512268,-0.98106247186661,-1.43715000152588,2.74305009841919,-8.28900051116943,-32.077953338623,-0.20611250400543,0.36739999055862,0.43807500600815,-1.60737502574921,-0.51150000095367,1.82159996032715,-17.074951171875,-21.0589504241943,-8.95395088195801,0.88605004549026,-1.94700014591217,-1.94700014591217,5.35906267166138,5.72769975662231,5.0315375328064,45.9150009155273,15.3070507049561,-0.89505004882813,-4.93130016326904,-7.69945001602173,-7.574049949646,7.87435007095337,3.72446250915527,-5.96048736572266,1.04295003414154,2.26905012130737,2.57595014572144,7.32195043563843,7.9350004196167,7.9350004196167,-8.88717460632324,-8.85403728485107,-7.69175004959106,5.84595012664795,7.56900024414063,7.7989501953125,9.95059967041016,12.047887802124,11.956862449646,-5.82367515563965,-1.33966255187988,0.71321249008179,0.3160500228405,0.8520000576973,1.88595008850098,10.3480501174927,13.4130010604858,12.7620010375977,-0.00206249998882,0.57749998569489,0.00371249997988,0.78900003433228,2.62800002098084,2.55105018615723,SWING_LEFT
1.10137498378754,0.93940001726151,0.53116250038147,0.51094996929169,0.38238748908043,0.00591249996796,2.30805015563965,2.26905012130737,2.03895020484924,10.4250001907349,9.77400016784668,9.69705009460449,0.51631247997284,0.21312500536442,-0.00247499998659,2.51295018196106,2.51295018196106,2.39805006980896,-0.19923749566078,-0.29053750634193,-0.36011248826981,-0.55742502212524,-0.70881247520447,-0.81771248579025,1.6560001373291,1.57995009422302,1.54095005989075,9.88905048370361,9.65895080566406,9.65895080566406,-1.04926252365112,-1.42518746852875,-1.65769994258881,3.12600016593933,7.18605041503906,12.3580503463745,-0.76587498188019,-0.91960000991821,-1.7048624753952,-0.86377501487732,-1.01942503452301,-1.99196243286133,-2.17305016517639,-4.70205020904541,-7.91895055770874,9.81195068359375,10.7700004577637,14.7919502258301,-4.31612491607666,-5.74296236038208,-8.99552536010742,-78.3139572143555,-69.4270553588867,-32.920051574707,-8.55786228179932,-7.66232490539551,1.11485004425049,4.63141250610352,9.29211235046387,16.546199798584,-30.2140522003174,-22.5139503479004,-14.8150510787964,-49.678050994873,21.7639503479004,28.888952255249,-17.4191875457764,-15.8888120651245,-13.8733377456665,1.32495009899139,17.8360500335693,17.7589511871338,13.3262252807617,14.6134996414185,3.45015001296997,17.1179256439209,8.67776203155518,-2.70118737220764,-1.02404999732971,-0.37305000424385,-0.94695001840591,8.39505004882813,8.96895027160645,9.5440502166748,-18.8386001586914,-18.4958114624023,-16.0484504699707,2.7810001373291,2.01495003700256,2.51295018196106,SWING_LEFT
0.00618749996647,0.15867500007153,0.18383750319481,-0.0042624999769,-0.00041249999776,0.00164999999106,0.43095001578331,0.3160500228405,0.3160500228405,9.19905090332031,9.92700004577637,9.92700004577637,-1.17149996757507,-0.83599996566772,-0.59963750839233,0.55905002355576,0.09900000691414,0.09900000691414,0.14973749220371,0.00618749996647,0.00398749997839,-0.3075875043869,-0.43614998459816,-0.65312498807907,0.58395004272461,0.39195001125336,0.16200000047684,9.92700004577637,10.0030508041382,10.3870506286621,0.55013751983643,0.6154500246048,0.6289250254631,6.03705024719238,4.77300024032593,-8.13600063323975,-0.00604999996722,-0.36753749847412,-0.83297497034073,-1.03097498416901,-1.08446252346039,-0.44976249337196,-1.13895010948181,-18.492000579834,-37.2240028381348,16.8600006103516,-1.02795004844666,-11.7540006637573,-0.50036251544952,-2.87704992294312,-3.42650008201599,3.54705023765564,37.2580528259277,13.5840005874634,-2.93892502784729,-4.9919376373291,-12.4151496887207,9.2470121383667,8.52926254272461,-2.21732497215271,-1.44495010375977,-0.75600004196167,-0.94695001840591,-8.30595016479492,-8.30595016479492,1.95900011062622,-8.8662748336792,-10.2107496261597,-11.2356748580933,5.53905010223389,0.94200003147125,-1.27905011177063,-8.47371292114258,-0.75707501173019,8.48773765563965,-10.8612623214722,-9.01752471923828,-1.74198746681213,-0.02805000171065,-0.14295001327991,-0.06599999964237,6.28800010681152,9.04605007171631,10.2720003128052,-7.66865015029907,-2.95377492904663,-1.76797497272491,0.86595004796982,-0.89505004882813,-0.51195001602173,SWING_LEFT
1.19900000095367,0.63016247749329,0.31817498803139,2.0153374671936,1.54013752937317,1.04431247711182,0.27705001831055,0.08595000207424,0.16200000047684,9.61995029449463,9.73500061035156,10.3099508285522,-0.169537499547,-0.55330002307892,-0.80396246910095,-0.66600000858307,-0.47400003671646,-0.24405001103878,-0.46708750724792,-0.42239999771118,-0.35942500829697,-0.87683749198914,-0.74401247501373,-0.53322499990463,0.16200000047684,0.12405000627041,0.12405000627041,10.195050239563,9.96495056152344,9.92700004577637,-0.22495000064373,-0.18906250596046,-0.23732499778271,10.9789505004883,18.6400508880615,8.37405014038086,-0.00453749997541,-0.55261248350143,-1.0755250453949,-0.62548750638962,-1.61150002479553,-1.74473750591278,-10.6009502410889,0.73695003986359,-25.3110008239746,17.6650505065918,20.9209518432617,-39.5650520324707,-0.93596249818802,-0.85208749771118,-1.4276624917984,-30.5839519500732,2.97300004959106,34.6140022277832,-3.71648740768433,-6.62048768997192,-8.51633739471436,9.73995018005371,9.70736217498779,9.5772876739502,-5.85105037689209,1.54095005989075,-4.39499998092651,16.5540008544922,4.06605005264282,-5.01195001602173,-7.55796241760254,-10.4245624542236,-13.1528377532959,4.12200021743774,-0.550950050354,-3.11700010299683,-15.404125213623,-6.6070122718811,2.04572510719299,-4.64268732070923,-3.38085007667542,-1.92747497558594,2.30805015563965,0.43095001578331,0.39195001125336,5.713050365448,7.12995052337646,9.58200073242188,-12.7213621139526,-9.51293754577637,-3.90582489967346,0.55905002355576,0.75105005502701,0.94200003147125,SWING_LEFT
-0.00591249996796,-0.18713749945164,-0.23856249451637,-0.32917499542236,-0.32890000939369,-0.31446251273155,1.732950091362,1.6560001373291,1.42695009708405,9.08400058746338,9.12195014953613,9.27600002288818,-1.3142249584198,-1.34763753414154,-1.47179996967316,4.15995025634766,3.7390501499176,3.89205026626587,-0.45443749427795,-0.70867496728897,-0.8595125079155,-0.64143747091293,-1.08790004253387,-1.32192504405975,1.04295003414154,-0.79395002126694,-2.02005004882813,10.1179504394531,9.96495056152344,9.96495056152344,-2.2922625541687,-2.36788749694824,-1.810462474823,7.37805032730103,3.12600016593933,-17.7510013580322,-1.73758745193481,-1.78419995307922,-1.707200050354,-2.21320009231567,-1.99567496776581,-1.19611251354218,9.08805084228516,9.43305015563965,-13.6270503997803,9.31395053863525,0.38805001974106,-14.8570508956909,5.66733741760254,12.7901124954224,13.766224861145,14.7330007553101,28.10205078125,37.525951385498,-3.97663736343384,-0.86006247997284,-1.58317494392395,11.9040622711182,15.2790002822876,14.6738624572754,-19.066951751709,0.23895001411438,4.2610502243042,22.5679512023926,-9.45600032806396,-9.45600032806396,0.607337474823,-9.27437496185303,-16.6018867492676,5.30895042419434,8.56500053405762,7.72305059432983,-3.10777497291565,-4.40921258926392,-4.27363729476929,-8.31132507324219,-9.92942523956299,-10.2062120437622,1.732950091362,1.42695009708405,1.27305006980896,4.60200023651123,4.60200023651123,4.90905046463013,-12.3696374893188,-9.24783706665039,-7.66548728942871,1.32495009899139,1.70805013179779,1.40205001831055,SWING_LEFT
-0.30195000767708,-0.25451248884201,-0.14121249318123,-0.40466248989105,-0.38156250119209,-0.34897500276566,1.46505010128021,1.27305006980896,1.04295003414154,8.89305019378662,8.89305019378662,9.61995029449463,-0.49829998612404,-0.35543748736382,-0.18356250226498,4.31295013427734,4.62000036239624,5.19405031204224,-0.0015124999918,-0.14354999363422,-0.3091000020504,-0.35021248459816,-0.47602498531342,-0.61118751764297,-2.47995018959045,-3.1690502166748,-2.97795009613037,11.076000213623,11.3059501647949,11.2290000915527,0.70015001296997,1.39342498779297,1.97436249256134,-7.21605014801025,-67.5499496459961,-48.4729537963867,-1.09408748149872,-1.26376247406006,-2.90633749961853,0.6710000038147,2.90441250801086,7.55768728256226,-33.7380027770996,-53.1220512390137,-15.3130502700806,-20.5650005340576,-36.5770530700684,-6.69795036315918,6.43004989624023,5.14786243438721,3.32474994659424,24.1560020446777,13.4689502716064,4.23705005645752,-7.76008749008179,-8.00524997711182,-6.71976232528687,4.5043625831604,-1.9765625,-4.54643726348877,3.84000015258789,1.38795006275177,0.43095001578331,-10.9500007629395,-4.13100004196167,5.2150502204895,-16.1060619354248,-16.8587379455566,-16.4082870483398,6.07500028610229,2.89605021476746,1.05705010890961,5.94206237792969,12.0895500183105,12.08899974823,-8.76067447662354,-0.59798747301102,3.2876250743866,0.27705001831055,0.23895001411438,0.39195001125336,5.75100040435791,7.16895055770874,11.9569501876831,-3.76309990882874,-2.76663756370544,-1.91193747520447,2.97300004959106,2.51295018196106,1.66995012760162,SWING_LEFT
0.4853749871254,0.66962498426437,0.80808746814728,2.0460000038147,2.32952499389648,2.64371252059937,2.19300007820129,2.49900007247925,2.11605000495911,8.89305019378662,8.778000831604,8.4330005645752,2.99323749542236,2.77997493743896,2.45519995689392,0.71205002069473,0.94200003147125,0.483000010252,0.5489000082016,0.50462502241135,0.44110000133514,1.52886247634888,0.97666251659393,0.33618751168251,1.61805009841919,1.57995009422302,1.61805009841919,10.1569509506226,10.4250001907349,10.6159505844116,-0.29617500305176,-1.1756249666214,-1.41968750953674,1.40205001831055,4.8880500793457,8.79495048522949,-0.27953749895096,-0.40700000524521,-0.93912500143051,-1.87536251544952,-1.90629994869232,-1.75587499141693,-2.9389500617981,-2.86305022239685,-3.66705012321472,13.4890508651733,15.5200510025024,12.3019504547119,-1.96102499961853,-2.73528742790222,-4.99620008468628,-67.7800521850586,-46.8640518188477,-27.5569515228271,-0.4144249856472,1.79547500610352,9.85861206054688,5.82078742980957,9.32744979858398,15.0273752212524,-49.9039535522461,-26.4600009918213,-21.8250007629395,-28.1880016326904,44.6710510253906,44.6710510253906,-23.365650177002,-24.661449432373,-24.7909755706787,7.99095058441162,9.29295063018799,10.3660507202148,13.1921625137329,11.8999376296997,0.27857500314713,6.69116258621216,2.92008757591248,-6.8954873085022,0.96705007553101,0.54495000839233,0.04800000041723,-1.37295007705688,4.90905046463013,13.3740005493164,-16.4293251037598,-16.2562122344971,-14.0921001434326,-1.69995009899139,-2.0830500125885,-0.66600000858307,SWING_LEFT
0.34759998321533,0.28971248865128,0.22508749365807,0.1553750038147,0.00481249997392,0.00233749998733,1.00499999523163,1.00499999523163,1.04295003414154,10.0420503616333,9.92700004577637,9.77400016784668,0.67650002241135,0.5020124912262,0.29975000023842,4.69605016708374,5.8840503692627,6.88005018234253,-0.00673749996349,-0.35763749480247,-0.53460001945496,-0.38719999790192,-0.94586247205734,-1.36125004291534,0.50700002908707,-8.22600078582764,-13.7040004730225,8.66295051574707,7.9350004196167,8.39505004882813,-1.87687504291534,-2.27521252632141,-1.61246252059937,7.1100001335144,-15.949951171875,-49.4689521789551,-3.28996253013611,-3.84587502479553,-4.55235004425049,-3.57073736190796,-2.42330002784729,0.61641252040863,3.18900012969971,-10.8690004348755,-41.5150527954102,11.3059501647949,-10.8349504470825,-41.2890014648438,4.12335014343262,4.28917503356934,3.99918746948242,30.2470512390137,19.4830513000488,16.7629508972168,5.09781265258789,9.45615005493164,10.2570877075195,18.1267623901367,21.3490753173828,19.2592124938965,-11.0610008239746,1.42695009708405,0.12405000627041,48.6940536499023,-4.05404996871948,-6.39105033874512,-8.73303699493408,-12.9597873687744,-16.2112503051758,6.91800022125244,5.80695009231567,4.42799997329712,8.84647464752197,10.2343997955322,11.8014869689941,3.19632506370544,0.25822499394417,-1.80372500419617,0.12405000627041,-0.06599999964237,0.54495000839233,15.1750507354736,9.39105033874512,7.9350004196167,-3.65406250953674,-0.99852502346039,0.55825001001358,0.94200003147125,2.16795015335083,2.16795015335083,SWING_LEFT
0.00178749999031,0.00164999999106,0.00192499998957,0.00137499999255,-0.00219999998808,-0.00508749997243,0.46905001997948,0.54495000839233,0.43095001578331,10.1179504394531,9.5440502166748,9.5440502166748,0.35791251063347,0.28036248683929,0.23801249265671,1.70805013179779,2.51295018196106,4.50495004653931,0.00316249998286,0.00247499998659,-0.0042624999769,-0.2230249941349,-0.24474999308586,-0.5684249997139,-0.90900003910065,-2.40300011634827,-5.65905046463013,10.8079509735107,12.187050819397,12.3780002593994,-0.66934996843338,-1.05668747425079,-1.22223746776581,5.76900005340576,-3.53895020484924,-15.1459503173828,-1.6608624458313,-1.65769994258881,-1.46272504329681,-2.57633757591248,-2.20962500572205,-0.82527500391006,7.78605031967163,-10.6009502410889,-30.7510509490967,6.47895050048828,-14.0910005569458,-21.7140007019043,3.70273756980896,7.12277507781982,7.11012506484985,-0.70395004749298,13.1620502471924,15.5370006561279,-2.8775999546051,-2.88695001602173,-6.2435998916626,12.1258497238159,13.1789627075195,7.50694990158081,-3.78195023536682,1.08195006847382,1.27305006980896,42.2200508117676,-2.40705013275146,-6.69795036315918,-8.97503757476807,-13.3145370483398,-15.8988494873047,7.41600036621094,6.88005018234253,6.38205051422119,0.92991250753403,3.30769991874695,8.80935001373291,-9.65538787841797,-11.0752124786377,-10.3387622833252,1.23495006561279,0.77505004405975,0.96705007553101,10.3480501174927,10.3480501174927,9.00705051422119,-10.8146495819092,-5.28591251373291,-3.80806255340576,0.78900003433228,0.86595004796982,0.36795002222061,SWING_LEFT
-0.33825001120567,-0.25905001163483,-0.20184999704361,-1.1530749797821,-1.16242504119873,-1.14496254920959,3.61005020141602,3.6870002746582,3.07395005226135,9.96495056152344,8.54805088043213,7.55205059051514,-1.40511250495911,-1.40167498588562,-1.43330001831055,2.13000011444092,3.24105024337769,3.54705023765564,0.00288749998435,0.00522499997169,0.00591249996796,-0.51644998788834,-0.69478750228882,-0.86941248178482,3.30405020713806,4.30005025863647,3.57195019721985,8.4330005645752,8.4330005645752,9.58200073242188,-1.91193747520447,-1.83328747749329,-1.47647500038147,5.5009503364563,11.7450008392334,5.96100044250488,-0.25368750095367,-0.50462502241135,-0.88054996728897,-1.50919997692108,-1.80262494087219,-2.17634987831116,-0.10500000417233,-3.09300017356873,-8.37900066375732,7.20705032348633,11.4589509963989,11.4589509963989,-1.79492497444153,-1.58922493457794,-0.31652501225471,-46.0600509643555,-4.61100006103516,20.7850513458252,-5.93931245803833,-9.52242469787598,-10.3250122070313,6.08808755874634,9.00102519989014,9.87717533111572,-23.203950881958,0.96705007553101,-4.9699501991272,-19.9900512695313,16.2480010986328,16.2480010986328,-1.38985002040863,-5.15845012664795,-12.8199501037598,20.2870502471924,7.6080002784729,-2.00595021247864,-10.5285120010376,-7.70082473754883,-4.87685012817383,-10.7431497573853,-11.2210998535156,-11.2649621963501,0.50700002908707,-0.14295001327991,-0.37305000424385,8.89305019378662,9.19905090332031,8.39505004882813,-11.9158878326416,-7.60746240615845,-4.48593759536743,-2.38905000686646,-0.20595000684261,1.24905002117157,SWING_LEFT
-0.23182499408722,-0.20184999704361,-0.18466250598431,-0.84411251544952,-0.76656252145767,-0.66288751363754,3.18900012969971,2.84400010108948,2.80605006217957,8.89305019378662,8.81595039367676,9.12195014953613,-0.84493750333786,-0.76628750562668,-0.51191252470016,1.90005004405975,2.39805006980896,5.42400026321411,-0.00673749996349,-0.169537499547,-0.2404875010252,0.007012499962,0.21023750305176,0.0054999999702,2.07795000076294,1.42695009708405,-0.79395002126694,9.00705051422119,8.58600044250488,6.82395029067993,-0.57516247034073,-0.7540500164032,-0.69946247339249,2.85795021057129,-4.07505035400391,-10.5490503311157,-1.6938624382019,-2.17868757247925,-2.08078742027283,-2.95239996910095,-2.68070006370544,-1.20711255073547,-0.29595002532005,-0.37305000424385,-15.3510007858276,20.8440017700195,10.9230003356934,-38.109001159668,4.50010013580322,7.33218765258789,11.5681495666504,-18.8230514526367,8.37405014038086,40.7430000305176,-8.60268783569336,-8.09778785705566,-7.99507474899292,11.373724937439,13.0515003204346,14.0256872177124,-7.91895055770874,-5.20005035400391,-1.36905002593994,40.150951385498,-0.52995002269745,-11.4859504699707,-7.07052516937256,-11.8518123626709,-15.633337020874,9.79095077514648,8.68005084991455,5.0029501914978,-6.98444986343384,-2.308762550354,4.6157374382019,2.56905007362366,1.2502875328064,0.15826250612736,-0.14295001327991,-0.14295001327991,-0.06599999964237,9.8500509262085,7.4370002746582,8.8540506362915,-11.1842498779297,-5.73718738555908,-2.88667488098145,0.78900003433228,0.86595004796982,1.05705010890961,SWING_LEFT
-0.30524998903275,-0.29356250166893,-0.27706250548363,-0.00178749999031,-0.0042624999769,-0.00577499996871,0.43095001578331,0.43095001578331,0.46905001997948,9.39105033874512,9.46695041656494,9.65895080566406,-0.89429998397827,-0.83641248941422,-0.81510001420975,2.89605021476746,6.30495023727417,7.30095052719116,-0.21161249279976,-0.24474999308586,-0.40686249732971,-0.19703750312328,-0.37729999423027,-1.08652496337891,-1.52205002307892,-5.77395009994507,-19.525951385498,10.5010509490967,10.1179504394531,12.5320501327515,-0.83118748664856,-0.51053750514984,0.00068749999627,-7.25400018692017,-14.6860504150391,-32.0389518737793,-2.17868757247925,-2.18996238708496,-1.98605000972748,-2.55928754806519,-1.30968749523163,1.05187499523163,5.41095018386841,-12.4399509429932,-51.3600006103516,-10.5670509338379,-41.2120513916016,-51.0960006713867,7.69463729858398,12.2187995910645,11.9480628967285,13.1620502471924,34.4610023498535,10.0980005264282,-9.2709379196167,-7.91725015640259,-7.36903762817383,10.6228370666504,11.7134876251221,10.7478246688843,-2.21205019950867,0.04800000041723,-1.36905002593994,12.9910507202148,-8.42100048065186,13.6429510116577,-9.97218704223633,-14.6856870651245,-17.2094993591309,9.67605018615723,5.96100044250488,2.55105018615723,5.01916265487671,6.57566261291504,7.4485125541687,1.66938745975494,0.60939997434616,-0.44563749432564,0.27705001831055,0.27705001831055,0.08595000207424,5.713050365448,11.3830509185791,11.3830509185791,-8.15237522125244,-1.22924995422363,0.29933750629425,1.17195010185242,1.01895010471344,1.63200008869171,SWING_LEFT
-0.00261249998584,-0.0042624999769,-0.00632499996573,0.00054999999702,0.00041249999776,0.0,-0.29595002532005,-0.37305000424385,-0.29595002532005,10.1179504394531,10.1179504394531,10.1569509506226,-0.88013750314713,-0.82142502069473,-0.75253748893738,3.08700013160706,3.7390501499176,3.54705023765564,-0.24062499403954,-0.22605000436306,-0.23141250014305,-0.15331250429153,-0.42432498931885,-0.58396250009537,-1.44495010375977,-4.20405006408691,-7.65105056762695,12.1099510192871,12.9529504776001,13.3360509872437,-0.25959998369217,-0.00384999997914,0.66123747825623,13.6219511032104,3.16395020484924,-21.4279518127441,-0.98903751373291,-1.13258755207062,-1.14509999752045,-2.16081237792969,-2.02784991264343,-1.34873747825623,8.24505043029785,11.5009508132935,-9.41295051574707,8.66295051574707,-5.16495037078857,-46.8430519104004,6.7293872833252,9.31356239318848,10.0010623931885,-10.9699506759644,39.0960006713867,42.0079536437988,-3.62697505950928,-3.02596259117126,-2.55145001411438,9.95293712615967,13.0114870071411,13.8331871032715,-9.375,-1.52205002307892,1.12005007266998,22.185001373291,-11.5630502700806,2.91705012321472,3.86897492408752,8.90450000762939,4.65616226196289,16.7250003814697,8.83395004272461,1.17195010185242,8.48677539825439,9.99803733825684,14.2432126998901,22.7624378204346,22.2825622558594,21.0820503234863,-1.25400006771088,-0.90900003910065,-0.56400001049042,5.25300025939941,6.86205053329468,10.5780000686646,-2.47114992141724,-4.70690011978149,-3.30068755149841,-1.39305007457733,-1.16400003433228,-0.12900000810623,SWING_LEFT
-0.00054999999702,0.00591249996796,0.40672498941422,-0.34842500090599,-0.3603875041008,-0.28600001335144,-0.37305000424385,-0.25800001621246,-0.44895002245903,9.81195068359375,9.81195068359375,9.8500509262085,3.07202506065369,3.7621374130249,4.22317504882813,1.09500002861023,1.63200008869171,1.93800008296967,0.66618752479553,0.56347501277924,0.42102500796318,0.00412499997765,0.00398749997839,0.00054999999702,-1.21605002880096,-2.09700012207031,-9.03000068664551,10.2330007553101,10.4250001907349,10.4250001907349,2.26874995231628,0.20968750119209,-0.48262500762939,25.8040504455566,-15.8740510940552,-48.2430038452149,-1.73497498035431,-2.26682496070862,-2.68826246261597,-2.25692510604858,-2.43058753013611,0.779212474823,3.80205011367798,4.03095006942749,-57.1819534301758,14.9830503463745,-33.9340515136719,-46.1160011291504,3.37603759765625,5.33720016479492,6.4835376739502,6.07500028610229,39.5940017700195,40.1689529418945,-6.43884992599487,-5.95113754272461,-5.31080007553101,12.2700872421265,13.6984376907349,13.905237197876,-4.51005029678345,-1.29195010662079,-3.62895011901855,6.36405038833618,-11.907000541687,-6.39105033874512,3.26466250419617,10.363374710083,9.90343761444092,10.5570001602173,9.29295063018799,4.84995031356812,6.85148763656616,9.82753753662109,14.2577877044678,21.6528129577637,21.5118751525879,19.207649230957,0.27705001831055,0.46905001997948,0.20100000500679,5.17695045471191,5.17695045471191,9.42900085449219,6.12534999847412,-1.0925749540329,-1.83246254920959,2.16795015335083,1.32495009899139,0.44400003552437,SWING_LEFT
-0.23003749549389,-0.0054999999702,-0.00206249998882,-0.26977500319481,-0.00604999996722,0.00192499998957,0.62205004692078,0.3160500228405,0.12405000627041,8.81595039367676,9.23700046539307,9.61995029449463,-1.37046253681183,-1.57245004177094,-1.93641245365143,2.93400025367737,3.47100019454956,7.87605047225952,-0.00123749999329,-0.19098749756813,-0.41552498936653,0.37468749284744,0.00219999998808,-0.43834999203682,-3.20805025100708,-3.28395009040833,-3.05400013923645,10.9990501403809,13.2210006713867,13.3360509872437,-3.49813747406006,-3.72583746910095,-3.86058759689331,11.017050743103,6.45795011520386,-4.84095001220703,-2.51047492027283,-2.72868752479553,-2.51528739929199,-2.51831245422363,-1.91688752174377,-0.9256500005722,2.34600019454956,-15.9640502929688,-58.675952911377,13.3360509872437,-1.71795010566711,-46.957950592041,1.29470002651215,4.57902479171753,6.13566255569458,-15.796950340271,31.9330520629883,27.106050491333,-1.92623746395111,0.83146250247955,6.41011238098145,11.1528997421265,13.459324836731,18.5619506835938,-8.30205059051514,-3.47595024108887,1.04295003414154,-8.65095043182373,-8.65095043182373,-0.52995002269745,-2.75233745574951,-6.89108753204346,-9.61042499542236,8.83395004272461,2.74305009841919,-1.58505010604858,13.6214370727539,13.0277128219604,9.10772514343262,15.2282619476318,8.84358787536621,3.93470001220703,-0.14295001327991,-0.06599999964237,0.04800000041723,7.47495031356812,7.89705038070679,11.5740003585815,-12.0469245910645,-10.5612373352051,-5.7253623008728,-0.05295000225306,-0.16800001263618,0.09900000691414,SWING_LEFT
-0.00646249996498,-0.17586250603199,-0.2245374917984,0.20061250030994,0.1522125005722,0.00439999997616,0.92895007133484,0.96705007553101,0.92895007133484,9.23700046539307,9.23700046539307,9.46695041656494,-2.21141242980957,-2.61071252822876,-3.16263747215271,1.93800008296967,2.47500014305115,2.01495003700256,-0.69286251068115,-1.00361251831055,-1.15197503566742,-0.35681250691414,-0.48716250061989,-0.55261248350143,1.46505010128021,1.42695009708405,1.42695009708405,8.58600044250488,8.4330005645752,9.08400058746338,-6.66242504119873,-7.12648725509644,-6.91157484054565,1.70805013179779,2.47500014305115,4.69605016708374,-1.10220003128052,-0.94971251487732,-0.75501251220703,-0.71802496910095,-0.71953749656677,-0.75295001268387,1.732950091362,0.81405001878738,1.23495006561279,9.61995029449463,9.65895080566406,10.2720003128052,-1.81527495384216,-0.76120001077652,-0.93293750286102,-34.6060523986816,-34.7209510803223,-26.2930507659912,-0.81963747739792,-1.24382495880127,-1.9736750125885,0.42762500047684,5.47690010070801,7.42334985733032,-27.8770503997803,-20.1390018463135,-10.6009502410889,-7.50195026397705,11.7270002365112,11.7270002365112,-6.691575050354,-7.82897472381592,-10.4252500534058,27.7960510253906,24.4630508422852,12.3960008621216,-0.98353749513626,-1.04073750972748,0.00577499996871,9.90426254272461,7.07712507247925,3.57170009613037,-0.64095002412796,0.04800000041723,0.77505004405975,5.48295021057129,7.66695022583008,8.58600044250488,-15.8906002044678,-15.1898994445801,-13.371187210083,-3.96000027656555,-2.1979501247406,-0.32100000977516,SWING_LEFT
0.46048748493195,0.35956248641014,0.22714999318123,0.62589997053146,0.60018748044968,0.56457501649857,0.73695003986359,0.81405001878738,0.81405001878738,10.0800008773804,10.5010509490967,10.5780000686646,0.00123749999329,0.00041249999776,0.00398749997839,1.63200008869171,1.66995012760162,2.51295018196106,-0.40246251225471,-0.41580000519753,-0.34127500653267,0.26207500696182,0.00494999997318,-0.00054999999702,1.19700002670288,1.46505010128021,1.23495006561279,9.19905090332031,9.19905090332031,9.12195014953613,-0.00068749999627,-0.21862499415874,-0.68956249952316,2.7810001373291,1.70805013179779,-0.39705002307892,0.00206249998882,-0.00247499998659,-0.2223374992609,-0.6599999666214,-0.68626248836517,-0.63896250724792,0.62205004692078,-0.7180500626564,-1.25400006771088,9.31395053863525,9.19905090332031,9.31395053863525,-2.65911245346069,-4.17628765106201,-7.5237250328064,-52.0360527038574,-48.1669540405273,-41.9230537414551,-2.33447504043579,-2.38590002059937,-2.84831237792969,2.24413752555847,7.75101232528687,9.50248718261719,-37.9909515380859,-38.2590026855469,-29.2570514678955,-20.1820507049561,-8.99595069885254,13.068000793457,-12.7853002548218,-12.4936628341675,-9.34422492980957,27.1830005645752,46.0300521850586,6.19005012512207,-4.32107496261597,-4.21396255493164,-3.7705249786377,8.86985015869141,7.98366260528564,6.65527486801147,-1.75200009346008,-0.37305000424385,0.12405000627041,-5.66295003890991,-1.52595007419586,15.5959510803223,-13.484899520874,-13.0208377838135,-11.7140378952026,-2.04495000839233,-0.89505004882813,1.21005010604858,SWING_LEFT
0.27637499570847,0.24557499587536,0.21656249463558,0.32202500104904,0.23154999315739,0.00563749996945,0.69900006055832,0.39195001125336,0.27705001831055,9.88905048370361,9.88905048370361,10.8460502624512,1.17452502250671,0.99494999647141,0.94655001163483,4.23705005645752,1.1340000629425,0.59700000286102,0.00384999997914,0.00384999997914,0.00604999996722,-0.69190001487732,-0.73205000162125,-0.44371250271797,1.42695009708405,1.57995009422302,1.50300002098084,8.89305019378662,9.00705051422119,10.2330007553101,0.16224999725819,-0.49678748846054,-1.49819993972778,3.20205020904541,5.3860502243042,8.06700038909912,-0.00343749998137,-0.31281250715256,-0.75129997730255,0.38444998860359,0.00247499998659,-0.46323749423027,2.19300007820129,-1.82895004749298,-11.2519502639771,15.6349506378174,15.6349506378174,15.2899503707886,-10.8897247314453,-14.0298128128052,-13.6970624923706,-29.0899505615234,21.2449512481689,49.8990020751953,-3.73051238059998,-5.98083734512329,-10.1322374343872,6.69006252288818,7.46624994277954,6.84722518920898,-16.6150512695313,-9.33705043792725,-2.59500002861023,11.3059501647949,-12.0220508575439,-0.91305005550385,-9.38341236114502,-9.59736251831055,-10.661337852478,10.3660507202148,6.72705030441284,3.31695008277893,-5.32784986495972,-0.73933750391006,2.58733749389648,-2.26270008087158,-2.69266247749329,-0.88852500915527,0.43095001578331,0.96705007553101,0.62205004692078,5.98095035552979,7.36005020141602,7.6279501914978,-11.1182498931885,-7.6591625213623,-5.31300020217896,2.39805006980896,2.13000011444092,2.09100008010864,SWING_LEFT
0.16554999351501,0.00481249997392,0.00329999998212,-0.00316249998286,-0.37564998865128,-0.52181249856949,1.23495006561279,1.31205010414124,1.31205010414124,9.31395053863525,9.31395053863525,9.00705051422119,-0.61297500133514,-0.51631247997284,-0.32120001316071,4.84995031356812,5.19405031204224,4.23705005645752,0.15276250243187,0.18878750503063,0.21931250393391,-0.77137500047684,-0.75611251592636,-0.73232501745224,0.81405001878738,0.39195001125336,-1.02404999732971,9.5440502166748,9.19905090332031,9.12195014953613,0.66027498245239,0.97184997797012,1.40470004081726,15.8440504074097,8.18205070495605,-20.086950302124,0.174899995327,-0.22673749923706,-0.60747498273849,-1.09271252155304,-1.32481253147125,0.40741249918938,4.60605001449585,-26.7280521392822,-60.8220024108887,14.7919502258301,-17.1169509887695,-40.2160530090332,8.04278755187988,10.191499710083,10.0563373565674,12.1660509109497,52.6950035095215,16.57200050354,-6.3428750038147,-6.47294998168945,-6.64331245422363,10.1715621948242,11.3339872360229,12.0217628479004,-5.31495046615601,-0.90900003910065,-0.60300004482269,-17.730001449585,-17.730001449585,-6.19995021820068,-4.54533767700195,-7.91284990310669,-9.37804985046387,7.49295043945313,4.50495004653931,1.78500008583069,-1.55608749389648,0.00412499997765,0.00508749997243,7.08358764648438,7.83076238632202,9.35935020446777,-0.29595002532005,0.20100000500679,0.16200000047684,6.40305042266846,8.89305019378662,9.5440502166748,-9.41765022277832,-8.02890014648438,-5.1950249671936,0.52095001935959,0.71205002069473,1.51695013046265,SWING_LEFT
0.00439999997616,0.00329999998212,0.00219999998808,-0.35502499341965,-0.42033749818802,-0.38527500629425,0.23895001411438,0.04800000041723,0.04800000041723,9.92700004577637,9.88905048370361,10.3480501174927,0.57805001735687,0.55123752355576,0.53941249847412,1.59300005435944,1.63200008869171,1.47900009155273,-0.0015124999918,-0.00192499998957,-0.00137499999255,-0.22563749551773,-0.21106250584126,-0.17655000090599,0.46905001997948,0.50700002908707,0.39195001125336,9.8500509262085,9.16095066070557,9.16095066070557,0.47107499837875,0.46529999375343,0.46598750352859,2.206050157547,4.50495004653931,11.2470006942749,0.14313749969006,0.15344999730587,-0.14959999918938,-0.00563749996945,-0.23196250200272,-1.23529994487762,-2.47995018959045,-6.46395015716553,-1.78995013237,8.93100070953369,8.93100070953369,23.6029510498047,-0.44027498364449,-0.77756249904633,-1.03056252002716,-54.5640029907227,-56.7859535217285,-42.8800506591797,-2.07831239700317,-2.98787498474121,-3.52880001068115,3.39047503471375,7.05773735046387,9.47869968414307,-50.4019508361816,-36.8800506591797,-22.0549507141113,-14.8570508956909,5.3299503326416,5.3299503326416,2.3205873966217,1.3388375043869,-0.57598751783371,28.2169513702393,27.8719520568848,11.4000005722046,-4.78334999084473,-3.97787499427795,-3.39336252212524,8.87466239929199,4.66097497940063,1.63996243476868,0.35400000214577,-0.06599999964237,0.39195001125336,-2.48400020599365,1.84395003318787,10.2720003128052,-14.9712753295898,-15.0723371505737,-14.2624626159668,-4.87905025482178,-2.65800023078919,-0.81900006532669,SWING_LEFT
0.38252499699593,0.34966251254082,0.33398750424385,-0.26565000414848,-0.31363749504089,-0.24158750474453,2.15400004386902,2.11605000495911,2.84400010108948,9.69705009460449,9.16095066070557,8.81595039367676,1.28988754749298,1.37046253681183,1.34832501411438,0.86595004796982,1.28700006008148,5.0029501914978,0.80134999752045,1.14400005340576,1.1617374420166,0.89924997091293,0.8788999915123,0.41359999775887,1.38795006275177,-6.54000043869019,-3.55200028419495,9.35205078125,8.16495037078857,12.2250003814697,-0.00192499998957,-0.0027499999851,-0.18479999899864,-4.87905025482178,-9.63000011444092,-31.7329521179199,-2.67451238632202,-3.85178756713867,-4.49226236343384,-1.19267499446869,0.2230249941349,2.36568737030029,-4.93095016479492,-12.2860507965088,-37.5310516357422,13.7959508895874,-12.4050006866455,-38.9899520874023,-2.61634993553162,-3.17803740501404,-3.7280375957489,11.017050743103,34.498950958252,32.4690017700195,0.25038748979568,2.83511257171631,3.35362505912781,14.8135623931885,14.5996122360229,13.7544002532959,-7.61295032501221,0.62205004692078,-0.48795002698898,21.3810005187988,5.29200029373169,5.36805009841919,-5.53258752822876,-7.37604999542236,-11.2585000991821,12.7410001754761,6.76500034332275,-0.47400003671646,2.95405006408691,2.02248740196228,1.70568752288818,10.2708377838135,9.67064952850342,8.88731288909912,1.12005007266998,1.31205010414124,1.42695009708405,10.8079509735107,10.8079509735107,10.6549501419067,-10.7673501968384,-7.89882516860962,-3.85453748703003,-1.89105010032654,-1.27905011177063,-0.20595000684261,SWING_LEFT
-0.28421249985695,-0.18095000088215,-0.00261249998584,-0.33151251077652,-0.37358748912811,-0.4476999938488,2.38394999504089,2.38394999504089,2.57595014572144,8.89305019378662,9.8500509262085,10.7310009002686,-1.92761254310608,-1.78983747959137,-1.70912504196167,3.01095008850098,3.04905009269714,3.54705023765564,-0.00054999999702,-0.21793749928474,-0.6154500246048,-1.02121245861053,-1.01488745212555,-0.89869999885559,1.92495012283325,1.84800004959106,0.96705007553101,9.35205078125,10.3870506286621,11.2290000915527,-1.17713749408722,-0.96676248311996,-0.70620000362396,4.46700000762939,-0.58905005455017,-7.90605020523071,-0.84383749961853,-0.82266247272491,-0.79901248216629,-0.68612498044968,-0.41181248426437,0.42886251211166,2.42295002937317,-7.11495018005371,-29.332950592041,12.9150009155273,-26.8849506378174,-26.8849506378174,-0.34567499160767,-3.01798748970032,-5.15652513504028,-37.2490501403809,35.802001953125,36.4909515380859,4.98629999160767,8.80811214447021,19.0458126068115,13.95006275177,16.8130874633789,24.9690380096436,-4.39499998092651,-4.81695032119751,-2.40300011634827,12.9529504776001,10.2720003128052,6.21105051040649,-4.88317489624023,-3.65420007705688,-3.0832998752594,19.5979499816895,16.1500511169434,10.4040002822876,18.6648006439209,14.6462249755859,9.97837448120117,28.5938129425049,24.7607250213623,19.4771499633789,-0.22005000710487,-0.18105000257492,-0.44895002245903,9.46695041656494,9.46695041656494,9.08400058746338,-8.68037509918213,-8.40592479705811,-6.31702518463135,-0.58905005455017,0.09900000691414,0.67395001649857,SWING_LEFT
-0.14011250436306,-0.00536249997094,-0.00371249997988,-0.20679999887943,-0.22714999318123,-0.28187498450279,1.38795006275177,1.35000002384186,1.46505010128021,9.12195014953613,9.8500509262085,10.2720003128052,-1.42174994945526,-1.45983743667603,-1.45928752422333,4.58100032806396,4.42799997329712,3.77700018882751,-0.00013749999925,-0.00316249998286,-0.00522499997169,-1.04499995708466,-1.19281244277954,-1.2112375497818,1.96305012702942,0.46905001997948,-2.55600023269653,9.27600002288818,10.2720003128052,11.2680006027222,-1.08831250667572,-0.87669998407364,0.00137499999255,14.7709503173828,9.1399507522583,-6.18195009231567,-0.44604998826981,-1.23447501659393,-4.68476247787476,-1.70761251449585,-1.61672496795654,-0.9178124666214,2.26905012130737,8.78205013275146,-1.82895004749298,13.1449508666992,1.53795003890991,-20.5260009765625,-8.54933738708496,-8.3804874420166,-8.91536235809326,-55.2529525756836,-25.9099521636963,29.7109508514404,-7.4377875328064,-11.2125749588013,-9.39482498168945,14.4487752914429,14.4853496551514,12.8994245529175,-14.2780504226685,-2.40300011634827,-3.01605010032654,18.3160514831543,2.68695020675659,2.68695020675659,-4.36287498474121,-5.63777494430542,-7.94021224975586,20.5170001983643,17.0700016021729,3.8539502620697,-3.81356239318848,0.2910875082016,5.8393497467041,11.6305751800537,12.8488245010376,14.284049987793,-0.41100001335144,-0.94695001840591,-0.75600004196167,7.4370002746582,10.1569509506226,11.8039503097534,-10.5737495422363,-9.56064987182617,-8.398362159729,-2.31300020217896,-1.77705013751984,0.09900000691414,SWING_LEFT
0.00123749999329,-0.00178749999031,-0.00467499997467,-0.71665000915527,-0.60238748788834,-0.45498749613762,1.38795006275177,1.27305006980896,1.54095005989075,9.27600002288818,9.27600002288818,9.35205078125,-1.86092495918274,-2.23959994316101,-2.4400749206543,0.40605002641678,0.55905002355576,0.67395001649857,-0.00508749997243,-0.00522499997169,-0.00618749996647,0.15895000100136,0.26482498645782,0.41084998846054,1.35000002384186,0.88995003700256,-1.94295012950897,9.88905048370361,10.2720003128052,11.6509504318237,-3.42182493209839,-3.18889999389648,-2.59338760375977,8.48895072937012,2.62800002098084,-6.94800043106079,-0.84906250238419,-1.32330000400543,-2.76484990119934,-1.638587474823,-1.80248749256134,-1.17548751831055,1.35000002384186,4.56795024871826,-19.0290012359619,17.4349498748779,-2.79000020027161,-46.8430519104004,-6.55049991607666,-7.57954978942871,-8.26058769226074,-47.7070541381836,37.1430015563965,38.1769523620605,-4.98657512664795,-6.66943740844727,-5.96131229400635,13.508412361145,14.4564752578735,14.075325012207,-10.1800508499146,-5.08500003814697,-1.94295012950897,21.151050567627,16.47705078125,1.00095009803772,-4.89610004425049,-4.75598764419556,-5.42533731460571,14.8860006332397,9.56100082397461,3.20205020904541,2.51968741416931,6.40846252441406,8.63307476043701,13.1621875762939,13.6855125427246,13.9442873001099,-1.36905002593994,-1.1010000705719,-0.87105005979538,9.12195014953613,9.42900085449219,10.3870506286621,-7.61392498016357,-6.60440015792847,-4.99743747711182,-0.85695004463196,-0.74205005168915,-0.20595000684261,SWING_LEFT
-0.00206249998882,0.00673749996349,0.20184999704361,0.7262749671936,0.49169999361038,0.36203750967979,1.31205010414124,1.04295003414154,0.88995003700256,9.12195014953613,10.3480501174927,10.3480501174927,-1.52625000476837,-1.40855002403259,-1.09615004062653,2.16795015335083,4.00695037841797,7.49295043945313,0.16719999909401,0.00467499997467,0.0015124999918,-0.39971250295639,-0.7235249876976,-1.21109998226166,-1.6750500202179,-3.13095021247864,-2.59500002861023,10.195050239563,11.1139507293701,15.8640003204346,0.53776252269745,1.17892503738403,1.77154994010925,2.206050157547,-5.7610502243042,-14.3800506591797,-0.53130000829697,-3.21035003662109,-4.79352474212646,-2.62473750114441,0.33371248841286,3.60332489013672,-5.23800039291382,-2.82495021820068,-25.6560020446777,19.5420017242432,-22.4800510406494,-44.1619529724121,-11.2084503173828,-11.6649503707886,-12.9138622283936,-44.0680503845215,-16.945951461792,23.4670505523682,-4.25425004959106,-5.17770004272461,-5.2421875,16.7289371490479,16.1375503540039,12.6934499740601,-6.80805015563965,-4.4719500541687,-4.70205020904541,14.907000541687,11.8039503097534,6.32595014572144,-6.06003761291504,-7.72736263275146,-10.2805995941162,17.4529514312744,13.8130502700806,7.03305053710938,-0.50146251916885,5.0106372833252,7.46446228027344,10.1806373596191,10.217212677002,10.6845750808716,0.73695003986359,-0.18105000257492,0.20100000500679,5.98095035552979,9.81195068359375,11.19105052948,-13.3022994995117,-12.0630121231079,-6.72512483596802,2.89605021476746,1.36395001411438,0.67395001649857,SWING_LEFT
0.00219999998808,0.00371249997988,0.00494999997318,-0.47850000858307,-0.5489000082016,-0.5741999745369,2.72895002365112,2.65200018882751,2.57595014572144,8.39505004882813,8.54805088043213,8.73900032043457,-1.48252499103546,-1.62909996509552,-1.69784998893738,1.93800008296967,1.90005004405975,2.01495003700256,0.00508749997243,0.00206249998882,-0.14258749783039,-0.27912500500679,-0.21615000069141,-0.14478750526905,2.80605006217957,2.99700021743774,2.80605006217957,8.73900032043457,9.27600002288818,9.88905048370361,-1.90767502784729,-1.91056251525879,-1.81843745708466,8.91000080108643,11.7070503234863,8.33595085144043,-0.43876248598099,-0.47176250815392,-0.55577498674393,-0.91341251134872,-1.25179994106293,-1.54082500934601,4.64400005340576,6.4830002784729,8.78205013275146,15.2899503707886,5.10000038146973,-17.6149501800537,-0.66068750619888,-6.02882480621338,-7.32943725585938,-50.1199531555176,5.23305034637451,40.1689529418945,-2.41120004653931,-3.73449993133545,-4.99977493286133,9.56683731079102,11.2597370147705,12.6266250610352,-14.0100002288818,-7.49805021286011,2.69100022315979,17.0520000457764,15.9409503936768,-1.71795010566711,-10.9719495773315,-8.5626745223999,-7.96798753738403,14.5410003662109,8.37405014038086,5.34795045852661,5.03717517852783,8.09214973449707,10.5987749099731,12.0469245910645,11.2925996780396,11.1634874343872,0.39195001125336,0.39195001125336,0.27705001831055,10.5780000686646,6.86205053329468,6.86205053329468,-11.8146877288818,-9.75837516784668,-7.89593744277954,-4.61100006103516,-1.47000002861023,-0.01395000051707,SWING_LEFT
0.00522499997169,0.00632499996573,0.00646249996498,-0.29026249051094,-0.30236250162125,-0.3119874894619,2.92095017433167,2.99700021743774,2.92095017433167,9.23700046539307,9.31395053863525,9.31395053863525,-0.72228747606277,-0.66123747825623,-0.64363747835159,2.206050157547,2.24505019187927,2.01495003700256,-0.0015124999918,-0.00508749997243,-0.23759999871254,-0.25561249256134,-0.2576749920845,-0.28627499938011,2.95905017852783,2.92095017433167,1.57995009422302,10.1179504394531,9.96495056152344,9.08400058746338,-0.64789998531342,-0.53597497940063,-0.23952500522137,9.79095077514648,5.34795045852661,-3.61500024795532,-0.38513749837875,-0.51878750324249,-1.14674997329712,-1.20449995994568,-1.30460000038147,-1.02795004844666,0.8520000576973,9.31800079345703,-12.2860507965088,15.9409503936768,-28.8769512176514,-50.1000022888184,-3.62683749198914,-8.74664974212646,-10.0042247772217,-47.5540504455566,21.3979511260986,46.1449508666992,-2.71865010261536,-4.22702503204346,-4.77303743362427,12.2502870559692,13.3571624755859,13.7783250808716,-12.0949506759644,-7.76595020294189,0.8520000576973,15.2130002975464,15.2130002975464,1.00095009803772,-8.88758754730225,-7.24405002593994,-7.12139987945557,13.2769508361816,11.7070503234863,8.33595085144043,3.33891248703003,7.06818723678589,9.7021369934082,10.6889753341675,10.6464872360229,10.5499620437622,0.39195001125336,0.27705001831055,0.27705001831055,10.1179504394531,9.16095066070557,9.16095066070557,-9.51293754577637,-8.64737510681152,-7.42458724975586,-1.62300002574921,1.21005010604858,2.58900022506714,SWING_LEFT
0.00453749997541,-0.00109999999404,-0.15895000100136,-0.0027499999851,-0.00508749997243,-0.00687499996275,2.53695011138916,2.53695011138916,2.57595014572144,9.50505065917969,9.50505065917969,9.58200073242188,-0.94489997625351,-0.54766249656677,-0.47616249322891,1.90005004405975,2.70405006408691,3.35595011711121,-0.4643374979496,-0.40424999594688,-0.29961249232292,-0.15413749217987,-0.19167499244213,-0.34553748369217,1.84800004959106,1.04295003414154,0.04800000041723,11.1139507293701,11.1139507293701,11.8810501098633,-0.26881250739098,0.00233749998733,0.40397500991821,4.8880500793457,1.24905002117157,-3.7300500869751,-0.65944999456406,-1.06067502498627,-2.13606238365173,-1.33416247367859,-1.21714997291565,-0.7957124710083,3.84000015258789,9.12600040435791,-11.9029502868652,7.47495031356812,7.47495031356812,-26.6940021514893,-7.02913761138916,-10.5957498550415,-11.8688621520996,-45.1020011901855,14.8090505599976,39.0580520629883,-0.61036247014999,-1.68148744106293,-5.4625997543335,12.2882375717163,13.3142623901367,12.3331995010376,-12.1330509185791,-2.82495021820068,-1.40700006484985,19.465051651001,11.5740003585815,1.53795003890991,-10.4340496063232,-10.1385622024536,-10.3914251327515,24.8460006713867,13.6990509033203,5.46300029754639,-4.16583728790283,-0.49678748846054,3.99382495880127,11.2672996520996,11.7728872299194,12.7947874069214,-0.83295005559921,-0.18105000257492,0.73695003986359,10.8850507736206,11.6119508743286,11.6119508743286,-9.51046276092529,-7.14656257629395,-5.74406242370605,-0.74205005168915,0.32895001769066,2.32095003128052,SWING_LEFT
0.00481249997392,0.26482498645782,0.28764998912811,0.19758750498295,0.00508749997243,0.0015124999918,2.07795000076294,1.92495012283325,1.92495012283325,9.61995029449463,10.4629507064819,10.5010509490967,-1.56832504272461,-1.38998746871948,-0.87766247987747,3.70005011558533,3.89205026626587,5.27100038528442,-0.23622499406338,-0.33550000190735,-0.40246251225471,-0.43821248412132,-0.59317499399185,-0.74772500991821,2.07795000076294,1.92495012283325,1.42695009708405,10.8079509735107,10.8460502624512,10.8460502624512,0.17503750324249,0.28393748402596,0.31913748383522,8.6419506072998,3.8539502620697,-4.99395036697388,-0.25822499394417,-0.5295125246048,-1.37747502326965,-1.63666248321533,-1.49118745326996,-0.88041251897812,6.7900505065918,-1.17705011367798,-35.347053527832,9.58200073242188,-31.6740016937256,-34.2019500732422,-6.43142509460449,-8.64490032196045,-11.0958375930786,-30.9670505523682,-5.45400047302246,30.5149517059326,-3.36998748779297,-4.77317476272583,-4.50944995880127,12.8418121337891,13.4945249557495,13.9123878479004,-7.76595020294189,-0.60300004482269,-3.93495011329651,23.871000289917,11.8810501098633,-1.18095004558563,-9.10071277618408,-8.71021270751953,-9.51733779907227,6.76500034332275,3.66195011138916,-2.92605018615723,1.8156875371933,7.60979986190796,8.63142490386963,12.2440996170044,12.3704624176025,12.593074798584,-0.48795002698898,0.66000002622604,1.42695009708405,10.195050239563,10.9230003356934,10.6159505844116,-7.59783744812012,-7.00136232376099,-4.27239990234375,-1.89105010032654,-0.51195001602173,3.39405012130737,SWING_LEFT
-0.22591249644756,-0.21119999885559,-0.18122500181198,-0.17063750326633,-0.00646249996498,-0.00494999997318,2.49900007247925,2.53695011138916,2.84400010108948,8.39505004882813,8.81595039367676,9.12195014953613,-2.13963747024536,-2.31288743019104,-2.52436256408691,0.86595004796982,1.1340000629425,1.63200008869171,-0.00384999997914,-0.00591249996796,-0.00673749996349,0.22123749554157,0.28558748960495,0.19951249659061,3.15000009536743,2.84400010108948,2.69100022315979,9.8500509262085,10.4250001907349,11.6119508743286,-3.17790007591248,-2.93645000457764,-1.67626249790192,13.4299507141113,14.1199502944946,-7.48395013809204,-0.33838748931885,-0.52029997110367,-0.99879997968674,-1.7824125289917,-2.2016499042511,-2.46193742752075,1.38795006275177,1.6560001373291,10.0840501785278,14.3700008392334,14.3700008392334,-2.90505003929138,-6.32224988937378,-8.22318744659424,-9.41036224365234,-40.3900527954102,-23.2669506072998,23.3140506744385,-2.84294986724854,-5.75794982910156,-8.68573760986328,10.1971378326416,13.8417119979858,13.5145998001099,-22.9360504150391,-5.54400014877319,0.20100000500679,13.1059503555298,-1.2960000038147,-1.6030501127243,-13.0019998550415,-10.3504495620728,-8.30431270599365,10.7110500335693,5.73105049133301,3.16395020484924,-4.92208766937256,-2.24991250038147,3.59383749961853,10.8107995986938,11.2854499816895,12.7664623260498,-0.52605003118515,-0.75600004196167,-0.75600004196167,12.2250003814697,12.1489505767822,12.2250003814697,-6.17828750610352,-6.28044986724854,-6.60508728027344,-1.66200006008148,0.09900000691414,3.70005011558533,SWING_LEFT
