gyro_x_0,gyro_y_0,gyro_z_0,acc_x_0,acc_y_0,acc_z_0,gyro_x_1,gyro_y_1,gyro_z_1,acc_x_1,acc_y_1,acc_z_1,gyro_x_2,gyro_y_2,gyro_z_2,acc_x_2,acc_y_2,acc_z_2,gyro_x_3,gyro_y_3,gyro_z_3,acc_x_3,acc_y_3,acc_z_3,gyro_x_4,gyro_y_4,gyro_z_4,acc_x_4,acc_y_4,acc_z_4,gyro_x_5,gyro_y_5,gyro_z_5,acc_x_5,acc_y_5,acc_z_5,gyro_x_6,gyro_y_6,gyro_z_6,acc_x_6,acc_y_6,acc_z_6,gyro_x_7,gyro_y_7,gyro_z_7,acc_x_7,acc_y_7,acc_z_7,gyro_x_8,gyro_y_8,gyro_z_8,acc_x_8,acc_y_8,acc_z_8,gyro_x_9,gyro_y_9,gyro_z_9,acc_x_9,acc_y_9,acc_z_9,gyro_x_10,gyro_y_10,gyro_z_10,acc_x_10,acc_y_10,acc_z_10,gyro_x_11,gyro_y_11,gyro_z_11,acc_x_11,acc_y_11,acc_z_11,gyro_x_12,gyro_y_12,gyro_z_12,acc_x_12,acc_y_12,acc_z_12,gyro_x_13,gyro_y_13,gyro_z_13,acc_x_13,acc_y_13,acc_z_13,gyro_x_14,gyro_y_14,gyro_z_14,acc_x_14,acc_y_14,acc_z_14,motion_type
-0.52923840284348,-0.33925929665565,-0.24029912054539,-3.08133769035339,-2.84910011291504,-2.80600428581238,-0.03543018549681,-0.01404990069568,-0.00794124789536,-0.10125091671944,-0.07987063378096,0.02397646009922,0.16519992053509,0.29448682069778,0.38786068558693,9.86441040039062,9.89314079284668,9.59386539459228,-0.05703954398632,-0.07414376735687,-0.15477798879147,-2.67192912101746,-2.80600428581238,-3.12203907966614,0.02321287989616,0.08979719132185,0.19853121042252,0.03985895588994,-0.08842274546623,-0.39935314655304,-0.39264908432961,-0.39264908432961,-4.05338335037231,8.5811185836792,8.5811185836792,9.21079349517822,0.61979913711548,4.0290379524231,9.59707450866699,-19.3122291564941,-30.4886627197266,-25.8726406097412,-1.56625843048096,-3.82279467582703,-3.24858140945435,3.89014267921448,6.22486972808838,2.38374900817871,-37.5734062194824,-37.7721214294434,-31.6522445678711,15.6514949798584,15.6371297836304,9.78300762176514,15.9567928314209,13.3984889984131,9.78094482421875,20.7295970916748,25.1519870758057,25.2309951782227,-1.87413454055786,-0.94684112071991,-0.41966441273689,-0.55390208959579,-1.52151262760162,-0.7994698882103,-2.72938990592957,-0.11013327538967,0.13407529890537,12.7039337158203,12.9170169830322,11.4661312103271,-0.07292203605175,-1.24150729179382,-1.93361759185791,9.85483360290527,5.80384397506714,2.39420175552368,-0.11789698898792,-0.18814650177956,-0.1795943826437,0.43936482071877,0.49739703536034,0.48151454329491,-0.07422025501728,0.17477671802044,0.50996494293213,9.29458999633789,9.61301898956299,9.72315216064453,SWING_LEFT
-2.6067910194397,-2.12848353385925,-2.0368537902832,-2.80839848518372,-1.59214413166046,-1.28568625450134,-0.14355333149433,-0.05925392732024,0.05681046843529,0.37644571065903,0.51389038562775,0.53588151931763,-0.03830722719431,-0.6224924325943,-1.33835875988007,10.065523147583,10.2474822998047,9.94102478027344,-1.96049559116364,-1.61291337013245,-1.16575992107391,-4.30477476119995,-5.35852289199829,-6.50295114517212,0.41172316670418,0.47403141856194,0.45326200127602,0.30619621276855,0.10522153973579,-0.31688633561134,-4.25689077377319,-7.13502025604248,-12.7326641082764,9.04559326171875,8.99052619934082,10.3169145584106,5.2770357131958,10.2800216674805,14.5090417861938,-26.7082176208496,-20.5715789794922,-6.63702630996704,-1.33535146713257,-2.88878178596497,-2.24370813369751,3.4081699848175,3.15099573135376,0.84253591299057,-38.9141578674316,-27.426477432251,-17.5596733093262,11.1453084945679,10.9346179962158,10.0583410263062,12.3563528060913,9.0381326675415,6.09987115859985,23.4206790924072,22.1182346343994,19.5971393585205,-0.68172562122345,-0.41599923372269,-0.21502456068993,-1.30587720870972,-0.85689121484756,-0.73655074834824,-1.81001651287079,-1.09654438495636,-0.84275901317596,12.3663511276245,11.3009309768677,10.7670240402222,-0.52923840284348,-1.11933422088623,-1.38872575759888,6.32817459106445,3.94564437866211,1.77649760246277,0.12278391420841,0.11789698898792,0.0421497002244,0.33124166727066,0.32879820466042,0.40698897838593,-0.53390699625015,-0.55784898996353,-0.40701428055763,9.30656147003174,9.12939071655273,8.98813247680664,SWING_LEFT
-4.14739322662354,-4.07470035552979,-4.18160152435303,-1.41976165771484,-0.6224924325943,-1.83395850658417,0.08796459436417,-0.19181168079376,-0.35369098186493,-0.20509800314903,-0.6094908118248,-0.45799621939659,-2.58813214302063,-2.66953492164612,-2.74614930152893,7.66892719268799,8.8756046295166,10.1469259262085,-1.74302756786346,-0.87376636266708,-0.25007295608521,-5.82539224624634,-5.27472543716431,-4.86262369155884,-0.10384709388018,-0.15332718193531,-0.27916541695595,-0.24846944212914,-0.20998492836952,-0.12018773704767,-3.74453139305115,-5.68413400650024,-8.46140766143799,10.036792755127,10.391134262085,11.9425773620605,3.47070717811584,6.70340633392334,10.7980356216431,-16.4176387786865,-17.6506538391113,-12.5578870773315,-0.14660765230656,-0.4416555762291,-0.59681534767151,3.8437168598175,4.47351884841919,2.98606204986572,-32.3561401367188,-27.8909530639648,-26.5669593811035,15.2971534729004,13.7238636016846,7.20445203781128,14.9946804046631,12.5115127563477,8.95139026641846,18.019359588623,22.4582099914551,22.4270858764648,-1.20157194137573,-1.0256427526474,-1.16919612884521,-1.72004377841949,-1.60092508792877,-1.01082921028137,-1.31681096553802,-0.83557641506195,-0.91697925329208,11.2147397994995,10.4102878570557,10.1948099136353,-0.10713049024343,-0.89148145914078,-1.62207627296448,10.1086187362671,7.23797082901001,4.31195735931396,-0.28405234217644,0.03054326213896,0.17165313661098,0.15836681425571,0.37644571065903,0.53221637010574,-0.59855043888092,-0.63685762882233,-0.5434837937355,11.0974245071411,10.25705909729,9.40951156616211,SWING_LEFT
-2.43086194992065,-1.07901704311371,-0.73571085929871,-4.46279191970825,-3.30639243125916,-2.90177249908447,-0.3072652220726,-0.30237829685211,-0.22113321721554,0.26771169900894,0.20601430535316,0.10644327104092,-1.39821374416351,-0.88824880123138,-0.91219085454941,9.68245124816894,10.0032739639282,10.312126159668,-0.32582023739815,-0.14439326524734,-0.01916589774191,-3.52187061309814,-3.73734879493713,-4.18985319137573,0.45387288928032,0.51373767852783,0.60842180252075,-0.62964934110641,-0.7683157324791,-0.85261517763138,-2.84191751480103,-4.5418004989624,-7.72159957885742,9.30177307128906,9.63935565948486,11.6600618362427,3.09074902534485,6.58673095703125,10.9904584884644,-17.4016571044922,-19.6857242584229,-13.1995334625244,1.01159286499023,0.46425759792328,0.22785273194313,2.49553728103638,4.63234376907349,3.03615307807922,-33.7136535644531,-30.9627151489258,-28.5685119628906,15.8502140045166,13.3647327423096,5.98819780349731,14.8578462600708,11.8389501571655,8.34296798706055,23.0423965454102,25.5877323150635,23.7582626342773,-0.36468654870987,-0.17470745742321,-0.05131268128753,-1.66384422779083,-1.1745411157608,-0.39324450492859,-3.03584766387939,-1.53707754611969,-0.06464344263077,10.9944734573364,11.2291049957275,11.2075576782227,-0.70028066635132,-1.62635231018066,-2.15108561515808,9.63696098327637,6.19409894943237,3.23935484886169,0.40133845806122,0.26572638750076,0.07024950534105,0.50106221437454,0.51755559444427,0.46318855881691,0.47405192255974,0.63206923007965,1.07020819187164,8.46619606018066,8.1022777557373,8.40394687652588,SWING_LEFT
-3.75888299942017,-3.19383263587952,-2.40887069702148,-4.24970817565918,-5.08079528808594,-4.97305631637573,0.06719517707825,-0.17287486791611,-0.32192599773407,-0.75182241201401,-0.1745547503233,0.24022275209427,-2.26970314979553,-1.72382521629334,-1.58256733417511,10.1110134124756,9.90989971160889,9.48852062225342,-0.91347259283066,-0.54695343971252,-0.20242546498775,-3.92170238494873,-4.07732534408569,-3.87860679626465,0.02626720629632,0.00305432616733,0.06047565862536,0.05268712714314,-0.01817324012518,-0.11591167747974,-2.23857855796814,-3.04063606262207,-5.75595998764038,9.30656147003174,9.45979022979736,9.52203941345215,1.98813724517822,3.76453351974487,7.38085556030273,-13.3407907485962,-19.4319400787354,-19.42236328125,0.46425759792328,-0.00244346098043,0.55466562509537,0.0044287731871,1.60367393493652,2.0789270401001,-29.2197360992432,-30.2181167602539,-28.494291305542,13.175591468811,15.4886894226074,11.8061075210571,15.8040761947632,14.3569364547729,11.6031560897827,16.0824508666992,21.440673828125,25.1041030883789,-1.0867292881012,-1.00548422336578,-0.89491760730743,-1.26800358295441,-1.3645201921463,-1.44698703289032,-2.89458990097046,-1.26892685890198,-1.10372698307037,10.1277723312378,10.0224275588989,10.7335052490234,0.17020232975483,-0.93851810693741,-1.57198536396027,10.9226474761963,7.41993045806885,4.1659107208252,-0.11667526513338,-0.02565634064376,0.02321287989616,0.18768835067749,0.37766742706299,0.37522396445274,-1.17076468467712,-0.78769236803055,-0.36631286144257,9.8668041229248,9.56752967834473,9.41429996490478,SWING_LEFT
-2.16513562202454,-2.07778167724609,-1.92140030860901,-2.50194072723389,-2.67432332038879,-2.95444488525391,-0.33658674359322,-0.44837507605553,-0.49907690286636,0.4772384762764,0.32391130924225,0.37888917326927,-2.03746557235718,-1.97521638870239,-1.72621941566467,8.84926891326904,9.43345355987549,9.93863010406494,-0.89025974273682,-0.69966977834702,-0.54206657409668,-3.68228220939636,-3.96240377426147,-4.40054273605347,0.1490511149168,0.35185837745667,0.583376288414,-0.23564127087593,-0.43295073509216,-1.01571619510651,-3.05978965759277,-4.79798030853271,-9.18206310272217,9.65372085571289,9.37599277496338,9.68245124816894,2.84273767471313,5.88057041168213,8.75346946716309,-16.8509902954102,-19.1230869293213,-15.500659942627,1.12887895107269,0.04581489413977,-1.34573614597321,1.03129327297211,3.8314995765686,4.85103368759155,-28.9491901397705,-25.1256504058838,-22.4486331939697,11.8204727172852,10.858003616333,8.15255641937256,14.0368432998657,12.0704679489136,9.9361047744751,15.3187007904053,16.9395751953125,17.8900737762451,-1.79288947582245,-1.38971841335297,-1.11299645900726,-1.61497497558594,-1.74814367294312,-1.8868100643158,-4.93235492706299,-2.69108271598816,-1.21625447273254,12.1987571716309,11.7654066085815,12.4932441711426,0.98143136501312,-0.44616070389748,-1.40583002567291,11.1093950271606,8.39676475524902,5.11431407928467,0.42149701714516,0.61514127254486,0.6450737118721,0.0093156946823,0.34468072652817,0.49678614735603,-0.62488663196564,-0.55784898996353,-0.35434186458588,10.8915224075317,9.68245124816894,8.81575012207031,SWING_LEFT
-3.1358003616333,-2.84747195243835,-2.3978750705719,-3.3231520652771,-3.6152446269989,-3.50271701812744,-0.51434850692749,-0.24740041792393,-0.23457226157188,0.31597003340721,-0.10613783448935,0.15531249344349,-2.49236392974854,-1.92254400253296,-2.06619596481323,9.81413173675537,10.2857894897461,10.587459564209,-0.95928752422333,-0.53351444005966,0.04069889709353,-4.84586429595947,-5.57878923416138,-6.16776275634766,0.1148426681757,0.16493362188339,0.35185837745667,-0.02794708497822,-0.26618453860283,-0.92714071273804,-4.58729028701782,-6.23240613937378,-9.22515869140625,9.38556957244873,9.38556957244873,10.5515460968018,4.12066793441772,6.87872457504272,11.0869750976563,-15.366584777832,-19.2380084991455,-14.7680349349976,1.54976511001587,-0.17654006183147,-1.3011429309845,1.3434454202652,4.0281982421875,3.35563540458679,-33.3856468200684,-29.6195678710938,-23.114221572876,9.1940336227417,9.69921016693115,8.49492645263672,14.3434972763062,10.822470664978,6.99967575073242,21.5412311553955,24.5124359130859,22.0847148895264,-0.53267449140549,-0.35246923565865,-0.23640485107899,-1.0877982378006,-0.74937891960144,-0.48976120352745,-2.65995812416077,-2.5091233253479,-2.37983655929565,13.0343332290649,12.0335569381714,11.5523223876953,-1.08573663234711,-1.40521919727325,-1.58542442321777,5.83496904373169,3.07415509223938,1.00556468963623,0.48197266459465,0.41172316670418,0.27488934993744,0.13515393435955,0.22006420791149,0.39660426974297,-1.06781399250031,-0.76135611534119,0.1268926858902,8.96419048309326,8.73434734344482,8.33690929412842,SWING_LEFT
-1.89330041408539,-1.55915713310242,-1.43637323379517,-4.45082092285156,-3.56017804145813,-3.06218385696411,-0.5412266254425,-0.53817230463028,-0.31093040108681,0.58475077152252,0.42042800784111,-0.09025534242392,-1.93930339813232,-1.92972660064697,-1.92972660064697,9.02643966674805,9.18206310272217,9.18206310272217,-0.65813094377518,-0.37163513898849,0.00832303892821,-4.73812532424927,-5.3058500289917,-6.32338619232178,-0.0274889357388,0.00977384392172,0.2315179258585,-0.50075680017471,-1.00960755348206,-1.49585628509521,-6.21085834503174,-8.83250904083252,-13.4221935272217,8.59308910369873,9.3712043762207,10.4701433181763,6.22815275192261,10.3588237762451,13.5353231430054,-20.0376720428467,-14.5809879302979,-14.5809879302979,-3.28034639358521,-1.59619092941284,-0.17837265133858,2.90726041793823,0.16386459767818,-1.30404460430145,-28.8127212524414,-21.6226348876953,-18.8142356872559,14.8159189224243,13.3336086273193,10.3504333496094,12.8187780380249,10.4736661911011,7.63986253738403,16.4583415985107,18.9674644470215,19.7503681182861,-0.33108896017075,-0.48319441080093,-0.49235737323761,-2.27898550033569,-1.71149170398712,-1.50074315071106,1.24019646644592,1.41736745834351,0.77572137117386,11.4972562789917,10.3743753433228,10.2067813873291,-0.52068626880646,-0.90125530958176,-1.03686738014221,5.44471406936646,3.19147086143494,1.62566292285919,-0.03115412779152,-0.06352998316288,-0.21930062770844,0.11133018881083,0.13026700913906,0.05207626149058,0.62488663196564,0.8451532125473,0.94092124700546,8.64815616607666,8.15255641937256,8.46380233764648,SWING_LEFT
-3.48888039588928,-3.04050540924072,-2.78394198417664,-3.51468801498413,-3.25611424446106,-3.11725068092346,-0.08124507963657,-0.16982053220272,-0.06780604273081,0.3300199508667,0.15836681425571,0.39660426974297,-1.84353530406952,-1.79325711727142,-1.79325711727142,7.85328102111816,9.45500183105469,9.45500183105469,-1.37956285476685,-0.85971647500992,-0.47487136721611,-6.18452215194702,-6.26831912994385,-6.65139150619507,-0.22418753802776,0.12095131725073,0.27916541695595,0.09239336848259,-0.47571131587029,-1.24723410606384,-3.77565598487854,-6.52928733825684,-10.228328704834,8.67209815979004,8.54281139373779,8.46380233764648,4.32042074203491,8.16887187957764,11.0405492782593,-23.9665584564209,-23.7199554443359,-16.2284984588623,-2.87351012229919,-3.95657420158386,-4.03293228149414,1.22127234935761,1.80587041378021,2.40268564224243,-33.7447776794434,-30.5724601745605,-21.2395610809326,8.29141998291016,13.8387851715088,17.473482131958,12.935453414917,10.0704956054688,7.24157857894897,20.1741428375244,19.6546001434326,17.0975933074951,-1.08978354930878,-0.96211278438568,-0.9950994849205,-1.50990617275238,-1.71943295001984,-1.73592627048492,-4.75009632110596,-3.49792861938477,-2.62883353233337,11.6816091537476,11.0112333297729,11.3607864379883,0.65217500925064,0.26183211803436,0.00893390458077,5.08797788619995,3.19625926017761,2.44447994232178,0.12034045159817,0.16065755486488,0.13683381676674,0.19624045491219,0.3208569586277,0.26954430341721,0.24181437492371,0.42616790533066,0.49799394607544,10.0966482162476,9.36162757873535,9.01446914672852,SWING_LEFT
-1.05946946144104,-0.8817076086998,-0.73326736688614,-4.73333692550659,-4.56334829330444,-4.64953947067261,-0.0226020142436,-0.01588249579072,0.06414084881544,-0.12935072183609,-0.22892175614834,-0.31016683578491,-0.4955997467041,-0.5746083855629,-0.94810384511948,9.095871925354,9.31613826751709,9.31374359130859,-0.2806162238121,0.02115120925009,0.5238932967186,-6.84292793273926,-8.28902530670166,-9.90032291412354,-0.54550266265869,-0.83138757944107,-1.12948977947235,-0.1782199293375,-0.39874228835106,-0.85200428962708,-5.89482402801514,-9.91708278656006,-15.0673093795776,7.42232465744019,7.67850399017334,6.73518848419189,8.63984870910645,12.0808525085449,14.0490608215332,-19.7168502807617,-11.9306058883667,-2.6240451335907,-3.33960032463074,-2.49782800674438,-1.18141341209412,1.37704300880432,1.23715484142303,0.1394299864769,-27.3690166473389,-21.9410629272461,-14.849437713623,15.1175880432129,16.2452564239502,15.0146369934082,10.659369468689,7.35703182220459,4.37417697906494,21.4430694580078,19.8197994232178,17.2220916748047,-0.15332718193531,-0.10262536257505,0.0274889357388,-1.39200913906097,-1.07863533496857,-0.91919946670532,-0.66319388151169,-0.69671267271042,-0.73980832099915,12.4429655075073,11.3966989517212,10.927435874939,-1.30809152126312,-1.40460824966431,-1.40949523448944,2.20266556739807,0.78290396928787,0.05985504388809,0.20463985204697,-0.01527163106948,-0.30787608027458,0.3428481221199,0.25121831893921,0.07651086896658,1.07739078998566,1.1180921792984,1.03190088272095,7.62583160400391,7.30022048950195,7.53006362915039,SWING_LEFT
-2.99285793304443,-2.75400948524475,-2.55486750602722,-3.51947641372681,-3.87142419815064,-3.96240377426147,-0.3897320330143,-0.5155702829361,-0.57360243797302,0.47051894664764,0.62201350927353,0.81260347366333,-1.62805712223053,-1.93212080001831,-2.07577276229858,8.95940208435059,9.06235313415527,8.97137260437012,-1.74852538108826,-1.69049322605133,-1.28304612636566,-4.60644388198853,-5.93791961669922,-8.00411510467529,-0.30665436387062,-0.30237829685211,-0.05925392732024,-0.3798054754734,-0.92286467552185,-1.83855164051056,-6.8141975402832,-8.76307773590088,-11.8061075210571,8.15734481811523,8.53802299499512,9.61301898956299,8.00577068328857,11.9458513259888,15.4100685119629,-18.1414642333984,-13.1731967926025,-1.93451499938965,-1.90162348747253,-2.40864157676697,-1.77028751373291,3.5547776222229,3.26339483261108,1.41491663455963,-35.3946800231934,-27.2277603149414,-16.3745441436768,12.3184671401978,13.3264255523682,12.7542114257813,11.7118902206421,8.14382648468018,4.99542713165283,21.7926216125488,20.3153991699219,17.8757076263428,-1.06962502002716,-1.09833574295044,-0.93767815828323,-1.76891303062439,-1.6155858039856,-1.4811954498291,-1.77410340309143,-1.92733240127563,-1.62805712223053,11.2338933944702,11.0639057159424,11.7749834060669,-0.82734060287476,-1.07535195350647,-1.09489953517914,3.96479797363281,2.18830037117004,1.18991827964783,-0.01954768784344,-0.07635815441608,-0.16554448008537,0.08506298810244,0.09422596544027,0.03436116874218,-0.17717093229294,0.23223756253719,0.29448682069778,8.9163064956665,8.6984338760376,8.61463737487793,SWING_LEFT
-3.33677506446838,-3.52736496925354,-3.62021660804749,-0.24420857429504,-0.6703764796257,-1.02471828460693,-0.88758718967438,-0.9089674949646,-0.88941979408264,0.25366178154945,1.15468800067902,1.90910661220551,-1.27850365638733,-2.06380176544189,-2.54982471466064,10.7550535202026,10.5467576980591,9.83568000793457,-2.91833233833313,-2.62633872032166,-2.13398146629334,-3.5769374370575,-5.12389087677002,-7.01052188873291,-0.60353487730026,-0.37018433213234,0.07941248267889,0.91278541088104,-0.3755294084549,-1.86420798301697,-7.71920537948608,-11.2386817932129,-14.5714111328125,8.51647472381592,9.5531644821167,11.5475339889526,5.78283214569092,9.18412971496582,11.8774347305298,-21.0552082061768,-18.6514301300049,-12.6129541397095,-0.96577793359756,-2.23271250724792,-2.66520500183105,2.44788980484009,2.55051517486572,1.04473233222961,-34.6213531494141,-32.5907707214355,-24.527099609375,6.84771633148193,8.21001720428467,11.6792154312134,14.1186990737915,11.0668163299561,7.46271181106567,20.6194629669189,22.7335433959961,20.4686279296875,-0.45692721009254,-0.46242499351501,-0.52167892456055,-1.83305382728577,-1.6656768321991,-1.15865862369537,-3.21541285514832,-1.5179238319397,-0.73262572288513,11.571475982666,11.3823337554932,11.2769889831543,-1.36306941509247,-2.08205771446228,-2.27203702926636,6.85968732833862,3.16513466835022,0.67277067899704,-0.1777617931366,-0.1814269721508,-0.15332718193531,0.04963280260563,0.22372940182686,0.27992901206017,-0.76614451408386,-0.40222588181496,-0.13886369764805,9.3927526473999,9.30656147003174,9.14614963531494,SWING_LEFT
-4.62692260742188,-4.44183015823364,-4.14678239822388,-2.9664158821106,-3.49314022064209,-3.91691398620605,-0.80939644575119,-0.8045095205307,-0.72754049301147,1.02335202693939,1.04534316062927,0.75945824384689,-4.52982950210571,-4.92277812957764,-4.95390272140503,8.73195266723633,8.87321090698242,9.43824195861816,-1.54144203662872,-0.73143476247787,0.20257818698883,-7.81976222991943,-9.24670600891113,-9.73512363433838,0.24801129102707,0.18081611394882,0.13500121235847,-0.76526141166687,-1.13666749000549,-1.80434322357178,-6.93869590759277,-6.93869590759277,-11.7366762161255,9.0360164642334,9.0360164642334,9.59626007080078,5.50061225891113,8.90496444702148,13.1284866333008,-17.753604888916,-18.0433025360107,-10.5371809005737,-1.23272609710693,-3.19971203804016,-3.40068674087524,2.01478624343872,1.47539234161377,0.70936727523804,-36.9341506958008,-30.6586513519287,-30.6586513519287,3.24893164634705,7.42711305618286,7.42711305618286,13.6672697067261,10.826135635376,8.00088405609131,17.5764331817627,18.2013206481934,17.3465900421143,-0.91324353218079,-0.78068578243256,-0.78190749883652,-1.28632950782776,-0.86177814006805,-0.58749967813492,-3.28245043754578,-1.96085119247437,-2.03746557235718,12.2610063552856,11.6720323562622,10.3240966796875,0.35101842880249,-0.42478042840958,-0.94035071134567,7.0727710723877,5.23162984848022,3.45483303070068,-0.28099802136421,0.07757988572121,0.22418753802776,-0.09636399149895,0.27870726585388,0.47418415546417,-0.29448682069778,-0.35434186458588,-0.45968672633171,11.6456966400146,10.6521024703979,9.37599277496338,SWING_LEFT
-3.05089020729065,-2.51271772384644,-2.09122085571289,-3.91212558746338,-3.8379054069519,-3.59369683265686,-0.24495697021484,-0.40683624148369,-0.47219884395599,0.86635965108871,0.98059141635895,0.97570449113846,-1.76692080497742,-1.79325711727142,-2.00155258178711,8.47577285766602,8.43746566772461,8.43507194519043,-1.13827097415924,-0.84688830375671,-0.41195225715637,-4.96587371826172,-6.06002378463745,-7.90834760665894,-0.53450709581375,-0.50029861927032,-0.59925878047943,0.31902438402176,-0.80252420902252,-1.99982011318207,-7.38401746749878,-11.5403518676758,-16.3362369537354,7.78384876251221,7.36725807189941,9.70639324188232,8.63435077667236,12.1541566848755,14.8193616867065,-19.3457489013672,-13.8603324890137,-5.03051710128784,-3.17955350875854,-4.25223302841187,-3.46299505233765,1.11376011371613,1.36421477794647,-0.0792597681284,-36.1273078918457,-29.5357704162598,-19.7455806732178,5.25317764282227,11.6863975524902,14.6791496276855,12.5768756866455,9.46757125854492,6.27824401855469,19.3864498138428,19.8844432830811,18.019359588623,-1.20584797859192,-1.24860858917236,-0.93279123306274,-2.61557221412659,-2.22339677810669,-1.82938873767853,-2.827552318573,-2.27449154853821,-1.68312382698059,11.1405200958252,12.0718641281128,13.161226272583,-0.89331406354904,-1.10772776603699,-1.18347501754761,4.02944135665894,2.50194072723389,1.27371525764465,0.28955012559891,0.19608774781227,0.04642575979233,0.37400224804878,0.30192014575005,0.20601430535316,-0.63685762882233,-0.50757074356079,-0.31124621629715,8.56675338745117,8.13100814819336,7.79103183746338,SWING_LEFT
-2.71185994148254,-2.74179220199585,-2.6935338973999,-3.6846764087677,-3.58651423454285,-4.06296014785767,0.45326200127602,0.31520646810532,0.14599679410458,-0.28634309768677,-0.52885657548904,-0.37797287106514,-3.48356342315674,-3.76129078865051,-4.42687892913818,7.86046361923218,8.37282276153564,8.13100814819336,-1.36306941509247,-0.64224845170975,0.25694519281387,-6.85011053085327,-7.91553020477295,-9.02883434295654,-0.39522981643677,-0.32314771413803,-0.1472185254097,-0.53252178430557,-0.93752545118332,-1.62291622161865,-7.94186639785767,-9.79737281799316,-13.0750350952148,8.62421417236328,8.53323459625244,8.37282276153564,6.7284517288208,10.1034822463989,14.0111865997314,-15.8286657333374,-15.1056175231934,-5.69849920272827,-2.25164937973022,-2.91443800926209,-0.85032439231873,-0.54046303033829,0.46074512600899,-0.36209037899971,-41.7991714477539,-27.8215217590332,-10.9801082611084,6.16058015823364,15.2612400054932,13.762170791626,9.2855339050293,6.4896035194397,4.07668542861938,18.6418533325195,16.2955360412598,12.9529304504395,-0.95539325475693,-0.91385442018509,-0.65423667430878,-1.76769125461578,-1.89414036273956,-1.67361807823181,-2.9352912902832,-1.79086291790009,-1.10372698307037,10.0272159576416,10.9346179962158,11.2123460769653,0.04436408728361,-0.3019964993,-0.54328829050064,3.76607918739319,2.60249733924866,1.59693253040314,0.02076941914856,-0.07086037099361,-0.17837265133858,-0.05971207842231,0.07101308554411,0.06734789162874,-0.57221418619156,-0.6033388376236,-0.54108959436417,8.88757610321045,8.62181949615479,8.56435871124268,SWING_LEFT
-3.26469302177429,-2.97086668014526,-2.96170377731323,-2.75333189964294,-2.43490314483643,-4.0462007522583,0.06719517707825,0.1472185254097,0.15332718193531,0.77350813150406,0.62384611368179,0.44058656692505,-2.99754047393799,-3.88578939437866,-4.02225875854492,9.36641597747803,9.21079349517822,9.07192993164062,-1.15048837661743,-0.59765529632568,-0.23602305352688,-5.38725328445435,-5.35612869262695,-5.61470222473145,0.20891591906548,0.17348572611809,-0.26450464129448,-0.12935072183609,-0.05787948146462,-0.63697975873947,-4.04141235351563,-5.25796604156494,-11.6193599700928,8.94024848937988,7.9945387840271,6.79504346847534,4.8103346824646,8.85243034362793,13.0900020599365,-20.3656787872314,-20.2627277374268,-13.2306575775146,-0.51068335771561,-1.66399693489075,-1.98347949981689,1.72767961025238,3.37945914268494,1.68308651447296,-37.9468994140625,-35.8783111572266,-28.4440135955811,12.0311632156372,10.0056686401367,8.77983665466309,16.1162281036377,13.6122922897339,10.5646848678589,22.0942916870117,23.9521923065186,22.7335433959961,-0.66706484556198,-0.76785761117935,-0.7305948138237,-2.25455093383789,-2.27532029151917,-1.70843732357025,-8.37282276153564,-3.83311700820923,-0.90740245580673,9.95299530029297,11.0136270523071,11.7510414123535,0.1011745557189,-1.18958365917206,-1.89146792888641,12.0622873306274,8.31536197662354,3.22259545326233,0.18692477047443,0.12095131725073,-0.05681046843529,0.71425420045853,0.81382524967194,0.59941154718399,0.23702596127987,0.43574470281601,0.38786068558693,8.53802299499512,7.73117637634277,7.4678144454956,SWING_LEFT
-3.65564680099487,-3.26469302177429,-3.05455541610718,-3.004723072052,-3.00711727142334,-4.03662395477295,-0.9211847782135,-0.68233644962311,-0.26206117868423,2.68612718582153,2.35259485244751,1.68980598449707,-2.48278713226318,-2.559401512146,-2.827552318573,8.72955894470215,9.06474685668945,9.17966842651367,-2.25187826156616,-2.02585816383362,-1.66972374916077,-6.49576854705811,-7.40795946121216,-8.07354736328125,0.14294247329235,-0.23701570928097,-0.463035851717,0.41798454523087,-0.36209037899971,-0.8733845949173,-6.06002378463745,-10.9298295974731,-13.9417362213135,6.40000057220459,6.3377513885498,5.86848783493042,6.21471405029297,9.97581100463867,13.3813848495483,-23.9186744689941,-18.6466407775879,-8.22917079925537,-4.02560186386108,-4.53506374359131,-3.52469253540039,-0.13851369917393,-0.0517708286643,-0.74632459878922,-38.9309158325195,-29.8326511383057,-20.9809875488281,5.98580360412598,13.2115039825439,15.529390335083,12.6165819168091,9.77361488342285,6.87444829940796,19.6306591033936,19.1853370666504,17.3753204345703,-1.29992127418518,-1.12704634666443,-1.02686452865601,-2.68460011482239,-2.25943779945374,-1.61925101280212,-4.40054273605347,-2.50194072723389,-1.78128612041473,11.7941370010376,11.5930242538452,11.640908241272,0.02664899639785,-0.61964643001556,-0.88964885473251,6.20367574691772,3.83551120758057,2.05183076858521,-0.0842994004488,-0.13500121235847,-0.17715092003345,-0.09086620807648,0.14126259088516,0.20906862616539,-1.11090958118439,-0.64404028654099,-0.11252748221159,9.38556957244873,9.26107120513916,9.20361042022705,SWING_LEFT
-3.25797343254089,-2.71185994148254,-2.20728516578674,-4.92277812957764,-5.59076023101807,-6.44309616088867,-0.57971113920212,-0.53572881221771,-0.34269541501999,2.79547214508057,2.39535522460938,1.49616169929504,-4.80037450790405,-5.16219806671143,-5.67216300964355,7.92750120162964,7.32655668258667,6.90038871765137,0.44081562757492,1.37666118144989,2.25325274467468,-10.9633483886719,-11.1788272857666,-11.4613428115845,0.22907446324825,0.0250454749912,-0.26022860407829,-1.2789990901947,-1.770134806633,-2.42070627212524,-7.80060863494873,-11.3727569580078,-16.0944232940674,7.27148962020874,6.2587423324585,6.99376249313354,8.80172824859619,11.8578872680664,14.6886367797852,-16.7336750030518,-13.161226272583,-2.93768548965454,-2.37321138381958,-3.50514483451843,-3.12213230133057,1.33916938304901,2.11374640464783,1.35932791233063,-37.8990173339844,-25.5781555175781,-19.2140674591064,7.55400562286377,14.3032598495483,14.1404542922974,12.2897691726685,9.6459436416626,7.58732795715332,19.0081653594971,18.7591686248779,18.457498550415,-0.66156703233719,-0.57971113920212,-0.44776421785355,-2.22767281532288,-1.89169692993164,-1.51173877716064,-5.06882429122925,-1.9632453918457,-0.30645781755447,11.20276927948,11.5738706588745,11.7079458236694,-0.25129470229149,-1.2201269865036,-1.78823161125183,8.84208583831787,6.09593677520752,3.58412003517151,0.20036379992962,0.02871066704392,-0.24678955972195,0.18646661937237,0.00870482996106,0.04474587738514,0.71347212791443,0.25857377052307,-0.0454898327589,8.07115364074707,7.75511837005615,7.90834760665894,SWING_LEFT
-0.23846651613712,-0.06681338697672,0.00710130855441,-4.72854852676392,-4.05577754974365,-3.60806202888489,-0.00488692196086,0.07147123664618,0.1246165111661,0.57986384630203,0.46685376763344,0.41981714963913,-1.36230075359344,-0.97444009780884,-0.96725749969482,8.87081623077393,8.66012668609619,8.13100814819336,-0.37652206420898,-0.47548222541809,-0.61598122119904,-3.53623580932617,-4.10126733779907,-6.09833097457886,0.01832595653832,0.13316862285137,0.14782938361168,0.60979622602463,0.22006420791149,-1.2912163734436,-5.94749641418457,-10.8101196289063,-15.6826200485229,8.0448169708252,7.19726943969727,6.38563537597656,6.29595899581909,10.9806842803955,14.6464872360229,-26.7034301757813,-18.625093460083,-7.64259099960327,-2.66092896461487,-3.64197850227356,-3.10869312286377,2.34282088279724,0.77961677312851,-1.20997130870819,-38.1432228088379,-28.6834335327148,-21.0169010162354,5.88045883178711,8.34409236907959,12.1197481155396,13.1132154464722,10.2965154647827,7.66307544708252,19.5755920410156,19.4127864837646,17.9618988037109,-1.29503428936005,-1.27487576007843,-1.25960409641266,-3.00408244132996,-2.38771963119507,-1.79518020153046,-5.94749641418457,-3.19386506080627,-0.61291563510895,9.69681644439697,10.5323925018311,10.9489831924438,0.62407523393631,-0.60254222154617,-1.25189197063446,9.62499046325684,6.71842908859253,4.28562116622925,-0.48624873161316,-0.4972442984581,-0.42699480056763,-0.04382958263159,0.48456886410713,0.47540587186813,-0.56742578744888,-0.35913026332855,-0.07661445438862,10.2067813873291,9.85962200164795,9.67766284942627,SWING_LEFT
0.15981762111187,0.09995282441378,0.03336851298809,-3.07654929161072,-2.94247388839722,-3.09330868721008,-0.09407325088978,-0.09407325088978,-0.064751714468,-0.13973543047905,-0.04016438871622,0.08811730891466,-1.66397023200989,-1.58974993228912,-1.3718775510788,9.67526817321777,9.711181640625,9.59386539459228,-0.05154175683856,-0.11812606453896,-0.21219931542873,-3.17231726646423,-3.57454323768616,-3.9384617805481,-0.16187928617001,-0.11362093687057,0.00733038317412,-0.0468839071691,-0.46777006983757,-0.87949323654175,-2.45405673980713,-4.2449197769165,-7.36246967315674,7.98975038528442,8.33212089538574,8.50689792633057,1.66071355342865,4.18603038787842,7.86343908309937,-17.3513774871826,-22.9945125579834,-21.5867214202881,0.1814269721508,-0.76480329036713,-1.47890472412109,-1.08107876777649,1.81808769702911,2.71361613273621,-28.9084892272949,-31.0536937713623,-29.758430480957,10.5563344955444,10.4940853118896,7.12544345855713,15.724663734436,13.94215965271,11.0723142623901,15.1463184356689,19.8628959655762,20.9211330413818,-1.28464961051941,-1.15697872638702,-1.13926362991333,-1.99493312835693,-2.28631591796875,-2.07190227508545,-7.10628986358643,-3.99592256546021,-1.93212080001831,9.77103614807129,9.888352394104,9.89314079284668,0.80183696746826,-0.41195225715637,-1.1278862953186,10.9944734573364,7.50372743606567,4.87698888778687,-0.31276300549507,-0.13133603334427,-0.13133603334427,-0.04382958263159,0.37216964364052,0.39904773235321,0.25139117240906,0.26815059781075,0.36391866207123,10.8484268188477,9.90989971160889,9.3328971862793,SWING_LEFT
-2.20850682258606,-1.79067516326904,-1.37467586994171,-3.64397501945496,-3.83551120758057,-3.89297199249268,0.13377949595451,0.14966198801994,0.18692477047443,1.07038867473602,1.01968681812286,0.80282962322235,-2.42532634735107,-2.13323378562927,-1.80043971538544,10.0487642288208,9.8500452041626,9.89074611663818,-0.49136471748352,-0.39545887708664,-0.37774381041527,-3.3231520652771,-3.32554626464844,-3.47638082504272,0.4331034719944,0.56077426671982,0.59864795207977,0.99647390842438,0.97387194633484,0.4039346575737,-1.48440504074097,-2.39180755615234,-5.10713148117065,9.35683917999268,7.71202278137207,6.09833097457886,0.74441564083099,2.97285199165344,7.03082990646362,-17.2412452697754,-25.0322761535645,-25.8223628997803,-1.99630761146545,-2.26508831977844,-2.07083320617676,-0.63942319154739,1.35688447952271,1.18095529079437,-30.7783603668213,-32.7655487060547,-29.6028079986572,12.1029891967773,11.5499286651611,10.036792755127,15.8052978515625,14.1883382797241,10.8285789489746,14.4421243667603,22.2092132568359,23.6026382446289,-1.29869949817657,-0.99021255970001,-0.74586647748947,-2.31380486488342,-2.50928163528442,-1.60703372955322,-7.07755947113037,-4.24013137817383,-2.7629086971283,11.6145715713501,12.7589998245239,12.1412963867188,0.08651378750801,-0.90430963039398,-1.33435881137848,9.36402225494385,5.66976881027222,2.90177249908447,0.43615779280663,0.50152039527893,0.38117989897728,0.13271047174931,0.34956762194633,0.35934147238731,-0.45968672633171,0.04070143029094,0.45489832758904,9.62499046325684,8.78223133087158,7.9059534072876,SWING_LEFT
-2.45896172523499,-1.93972623348236,-1.49318373203278,-1.09654438495636,-1.29286897182465,-1.21146607398987,-0.43371433019638,-0.48258355259895,-0.51373767852783,2.96223831176758,3.15832614898682,2.91581249237061,-2.24097275733948,-2.08056116104126,-2.47799873352051,9.19163990020752,8.61463737487793,8.28423690795898,-0.34048101305962,0.08223773539066,0.34063372015953,-5.09037208557129,-5.47344446182251,-6.45267295837402,-0.91446524858475,-0.76358157396317,-0.81000733375549,1.30312824249268,0.28725937008858,-0.63331454992294,-4.90601873397827,-6.93630170822144,-11.6049947738647,7.7455415725708,8.04002857208252,7.2499418258667,4.61607980728149,7.46454429626465,12.0277080535889,-23.1597118377686,-25.9779853820801,-16.5876274108887,0.12339477986097,-0.15515977144241,-0.99143427610397,-0.45982882380486,0.6061310172081,1.10398626327515,-38.9213409423828,-31.9898262023926,-22.6617183685303,8.54759979248047,7.51569843292236,8.97855567932129,9.96542644500732,6.57390260696411,3.79813098907471,23.9545860290527,21.5939044952393,19.506160736084,-1.3445143699646,-0.99632120132446,-0.68355822563171,-1.33458781242371,-0.89781922101974,-0.50625455379486,-0.46447512507439,-0.82121115922928,-1.24259066581726,11.8061075210571,11.6959743499756,11.1907978057861,-2.01974964141846,-1.96843683719635,-1.64834356307983,2.0973207950592,-0.20829555392265,-1.38384854793549,-0.32803463935852,-0.27061331272125,-0.17837265133858,0.11682797968388,0.01420261710882,-0.0419969856739,-0.95528650283813,-0.2537853717804,-0.05027823522687,9.65372085571289,10.1804447174072,10.4174709320068,SWING_LEFT
0.17203491926193,0.12438743561506,0.05047274008393,-3.09091448783875,-2.65756392478943,-2.46842193603516,0.16920967400074,-0.00366519158706,-0.2425135076046,-0.25396722555161,-0.15806138515472,-0.02367102913558,-0.88346040248871,-1.03429508209229,-1.52750062942505,8.58830070495605,8.31536197662354,8.2435359954834,0.35895967483521,0.59536451101303,0.66805750131607,-3.43567943572998,-3.51468801498413,-3.80438661575317,-0.18814650177956,-0.02687807008624,-0.12644910812378,1.53708970546722,1.64765632152557,1.38559508323669,-1.56580793857574,-3.1890766620636,-6.32338619232178,9.21797561645508,8.05200004577637,6.36648178100586,1.75295412540436,4.84393215179443,9.78583240509033,-20.8277587890625,-29.2197360992432,-28.6020317077637,-1.36833810806274,-2.76721954345703,-2.93154239654541,-0.85078257322311,1.95553231239319,1.75577938556671,-39.6922721862793,-34.6692390441895,-24.0120468139648,7.45105504989624,11.0136270523071,11.99524974823,14.7674379348755,11.3667516708374,8.33747100830078,19.4367275238037,19.860502243042,19.7838878631592,-1.44469630718231,-1.55526292324066,-1.38544237613678,-3.39137101173401,-2.43109107017517,-1.93384659290314,-5.35373449325562,-3.44046783447266,-1.86508309841156,10.7742071151733,10.970531463623,11.3536033630371,0.21174116432667,-0.69111764431,-1.26594185829163,8.31536197662354,5.6937108039856,3.16513466835022,-0.44409903883934,-0.43188172578812,-0.41905355453491,-0.02244929783046,0.35262197256088,0.39782598614693,-1.05105459690094,-0.9241618514061,-0.67277067899704,10.1708679199219,9.52922248840332,8.99770927429199,SWING_LEFT
-2.58235645294189,-2.41497945785522,-2.38321447372437,-1.59214413166046,-1.71424841880798,-2.03746557235718,0.47891834378242,0.48136180639267,0.42455133795738,1.57923936843872,1.08810377120972,1.01052379608154,-2.88022470474243,-3.13161587715149,-3.46680402755737,8.40394687652588,8.84926891326904,9.24910068511963,-1.59153306484222,-1.03320217132568,-0.42905646562576,-6.38084697723389,-7.4678144454956,-9.2347354888916,0.00122173049022,-0.16493362188339,-0.19853121042252,0.49984049797058,-0.8556694984436,-2.44086480140686,-8.48534965515137,-12.1269311904907,-17.7296619415283,6.9722146987915,6.99136829376221,8.23874759674072,8.1804780960083,12.2916011810303,15.1919898986816,-22.6186218261719,-15.4695358276367,-5.12149667739868,-2.65848565101624,-2.517986536026,-1.76417887210846,0.87185740470886,0.62873303890228,-0.56550848484039,-40.6786842346191,-33.5364799499512,-25.5350589752197,10.2235403060913,11.8108959197998,10.4629602432251,13.0344133377075,9.10532855987549,5.85186004638672,27.5294284820557,24.8742599487305,21.9266967773438,-0.95539325475693,-1.01403629779816,-0.84971356391907,-1.88803172111511,-1.23684942722321,-0.99494677782059,-2.26012635231018,-0.27533319592476,-0.58179098367691,10.616189956665,10.9106760025024,10.6497087478638,-2.13886833190918,-2.53287649154663,-2.56525230407715,5.89721822738647,3.02866506576538,0.75896191596985,-0.32131510972977,-0.25106561183929,-0.22968533635139,0.58047467470169,0.48823404312134,0.25915959477425,-0.6224924325943,-0.56503158807755,-0.53151279687881,9.58907699584961,9.29219627380371,9.10544872283936,SWING_LEFT
-1.81755316257477,-1.72103643417358,-1.59336566925049,-1.55383694171906,-2.01112937927246,-2.47081613540649,0.2981022298336,0.18753562867641,0.13316862285137,0.97875881195068,0.80466222763062,0.71975195407867,-1.81480491161346,-1.70946002006531,-1.36948335170746,8.75350093841553,8.75589466094971,9.07911205291748,-1.12849712371826,-1.34657609462738,-1.67094552516937,-3.10527968406677,-3.75650238990784,-5.38725328445435,0.72143185138702,0.35979962348938,-0.24740041792393,1.02579545974731,0.59635716676712,-0.27779096364975,-6.37845277786255,-10.8556098937988,-15.3881330490112,6.70166969299316,6.00495719909668,6.31620359420776,5.08400249481201,10.1572380065918,14.575626373291,-31.431978225708,-25.6332206726074,-13.2737531661987,-3.01889610290527,-4.41961002349854,-3.54607272148132,2.00195813179016,2.54684996604919,-0.21731531620026,-42.6634788513184,-32.2460060119629,-24.4023017883301,6.76631307601929,11.4278240203857,12.5674638748169,12.9250688552856,9.83409023284912,6.64781761169434,23.3225173950195,23.6912250518799,21.9386692047119,-1.19485247135162,-0.9639453291893,-0.70188415050507,-2.59541368484497,-2.08045434951782,-1.9124664068222,-4.76446151733398,-3.05260705947876,-1.64002811908722,11.8611745834351,11.1931924819946,11.281777381897,-0.820621073246,-1.2011901140213,-1.33924567699432,5.19332265853882,2.81797528266907,1.31681096553802,0.02871066704392,-0.01404990069568,-0.10934487730265,0.19685132801533,0.19501872360706,0.11499538272619,0.17717093229294,0.16998831927776,-0.17477671802044,9.31134986877441,8.54759979248047,8.35606288909912,SWING_LEFT
-3.85295605659485,-3.06860518455505,-2.60251498222351,-3.97198057174683,-3.5314474105835,-3.46680402755737,0.23762658238411,0.3805690407753,0.51373767852783,1.90483057498932,1.275639295578,0.73502361774445,-2.06380176544189,-2.35350036621094,-2.63122773170471,7.79582023620605,7.96820259094238,7.83412742614746,-2.03807544708252,-1.69660186767578,-1.16759252548218,-6.73518848419189,-8.30339050292969,-11.133337020874,-0.33231070637703,-0.90285885334015,-0.85154616832733,1.47905743122101,0.3819434940815,-1.09635043144226,-9.46936702728272,-13.1564378738403,-13.1564378738403,4.60404968261719,5.63146162033081,5.63146162033081,9.06562232971191,13.5579252243042,16.3801231384277,-29.5573177337646,-22.0368309020996,-7.98496198654175,-3.67374348640442,-4.37807130813599,-3.96023941040039,0.5199990272522,-0.50014591217041,-2.53493809700012,-50.2103004455566,-38.2796936035156,-26.4376735687256,4.06774854660034,8.30339050292969,12.5794353485107,13.4552993774414,9.7284107208252,7.20309400558472,26.7106113433838,24.5055522918701,22.6425647735596,-0.03970624133945,0.31276300549507,0.63774329423904,-1.63146829605103,-0.6956228017807,-0.58200186491013,-5.75356578826904,-1.721431016922,-1.29286897182465,13.9752550125122,12.5123977661133,10.7837839126587,-1.77662515640259,-2.23171973228455,-2.48278546333313,6.24916553497314,3.43807363510132,0.76853877305984,0.18325957655907,-0.1148426681757,-0.4416555762291,0.70570206642151,0.22800545394421,-0.04932736977935,0.02873042039573,0.26815059781075,0.56503158807755,6.84292793273926,6.88841772079468,7.87243461608887,SWING_LEFT
-4.02766370773315,-3.98062705993652,-4.15044736862183,-1.50595283508301,-1.30483996868134,-1.60650932788849,-0.03054326213896,-0.37507125735283,-0.64140850305557,1.3556627035141,1.25609171390533,1.65743017196655,-3.71580100059509,-4.18027639389038,-3.42131423950195,7.13980865478516,7.676109790802,9.32332038879394,-2.94276690483093,-2.12298583984375,-1.39361274242401,-8.16452693939209,-8.64097309112549,-9.12460231781006,0.08491026610136,0.31215214729309,0.48624873161316,0.20173825323582,-0.80069160461426,-2.44758439064026,-7.1805100440979,-9.83568000793457,-13.7956895828247,7.34810447692871,6.50534534454346,6.51731634140015,4.35890531539917,8.93489646911621,13.9128379821777,-26.3682403564453,-25.0394592285156,-15.5102367401123,-0.96272361278534,-3.74643659591675,-4.45381832122803,3.30432271957397,4.38860845565796,1.61161518096924,-54.6183242797851,-47.5335845947266,-35.1073760986328,6.66815090179443,9.12460231781006,9.83568000793457,15.5035305023193,12.1993608474731,9.09433269500732,24.9197483062744,23.8444538116455,22.1685123443604,-1.50944805145264,-0.8045095205307,-0.25595253705978,-3.80065083503723,-2.86236190795898,-1.96438992023468,-9.36162757873535,-5.08797788619995,-2.05422496795654,14.4947967529297,13.8244199752808,12.6321077346802,0.90934926271439,-0.09124799817801,-0.783358335495,10.1517143249512,7.58034181594849,5.61230802536011,0.16615535318851,0.03420845419168,-0.24495697021484,-0.23197607696056,-0.02611448988318,0.0093156946823,0.84994161128998,0.60094463825226,0.35673606395721,8.93785381317139,7.74314737319946,7.53485202789307,SWING_LEFT
-5.10461902618408,-5.1748685836792,-5.38134098052979,-0.17477671802044,0.33758243918419,0.69431847333908,0.48136180639267,1.02381014823914,1.65544486045837,1.40331017971039,2.08075976371765,3.17176508903503,-3.03105926513672,-3.12922167778015,-4.02225875854492,11.1812210083008,10.6209783554077,6.87644672393799,-5.6617283821106,-5.68310832977295,-4.85844039916992,-2.81558108329773,-6.33296298980713,-12.4142351150513,-0.52106803655624,-0.76785761117935,-0.47280970215797,-1.3089314699173,-1.37429404258728,-1.87214922904968,-12.3424091339111,-13.9920139312744,-13.9920139312744,8.14297962188721,9.51964569091797,9.51964569091797,9.56836414337158,12.9061317443848,15.7936916351318,-19.8365592956543,-13.7166805267334,-3.92888498306274,-3.74277138710022,-4.29682636260986,-3.40374112129211,0.78328198194504,1.40514278411865,-0.41340306401253,-49.7290649414063,-38.7010726928711,-27.1726932525635,10.1277723312378,14.9691476821899,16.4080619812012,14.0637216567993,10.0173501968384,6.95019578933716,26.8590526580811,24.3352642059326,21.8165645599365,-0.22663100063801,-0.18081611394882,0.05681046843529,-2.80677318572998,-2.14642786979675,-1.75730657577515,-4.74770212173462,-2.43011474609375,-1.90817880630493,10.6712560653687,10.503662109375,9.67766284942627,-0.85971647500992,-1.20485532283783,-1.31420016288757,5.93073701858521,3.76847338676453,2.4899697303772,0.11239920556545,0.11667526513338,-0.03848451003432,0.03863722831011,0.14492778480053,0.23350323736668,1.36948335170746,1.4484920501709,1.23301386833191,8.90672969818115,8.59069538116455,7.99932718276978,SWING_LEFT
-6.33245801925659,-6.2426609992981,-6.02885818481445,-1.47961664199829,-1.96803379058838,-2.17632937431335,1.69515109062195,1.66827297210693,1.84786736965179,1.92376732826233,1.77471625804901,0.51572299003601,-3.40216064453125,-4.44603252410889,-6.00735139846802,7.66892719268799,6.67533349990845,6.83335113525391,-5.14982318878174,-3.6092209815979,-1.68804979324341,-10.6066131591797,-13.9273710250854,-16.5517158508301,0.54733526706696,0.28955012559891,0.16065755486488,-1.11406552791595,-2.15314722061157,-2.88740730285645,-8.39676475524902,-11.0232038497925,-16.7217025756836,7.54203462600708,7.75032997131348,9.60823059082031,8.39794635772705,12.3722352981567,16.5377254486084,-22.434268951416,-18.9866180419922,-4.81952810287476,-3.54729437828064,-4.80995273590088,-3.76781678199768,4.09783697128296,4.49978590011597,0.80771654844284,-52.3770523071289,-38.7920532226563,-30.0720710754395,12.33522605896,16.4631290435791,16.4487648010254,13.4785127639771,9.98558521270752,7.06503820419312,25.132833480835,23.8372707366943,22.0775318145752,-0.7177666425705,-0.50762903690338,0.13133603334427,-2.46407771110535,-2.10611057281494,-1.75547397136688,-7.2690954208374,-3.51468801498413,-1.87465989589691,12.1676321029663,12.8763160705566,12.773365020752,-0.71066534519196,-1.24150729179382,-1.570152759552,6.87644672393799,4.23055458068848,2.10450339317322,0.58215457201004,0.15393804013729,-0.26572638750076,0.36545014381409,0.20357084274292,-0.00717766676098,0.03830722719431,0.20111294090748,0.31364041566849,6.53407573699951,6.53886413574219,7.0919246673584,SWING_LEFT
-6.19134855270386,-5.47541427612305,-4.63364219665527,-3.34709405899048,-4.6303858757019,-5.70328760147095,0.98471474647522,0.70799279212952,0.50823986530304,1.97385835647583,1.91277182102203,1.38315165042877,-2.53067111968994,-2.18830037117004,-1.86268889904022,7.13502025604248,6.32099199295044,6.7543420791626,-2.45774006843567,-2.01608443260193,-1.24211812019348,-8.63139629364014,-10.7430820465088,-12.7709712982178,0.08796459436417,-0.22540926933289,-0.50029861927032,-0.88926708698273,-0.88254755735397,-0.75487673282623,-7.99214458465576,-9.74230575561523,-12.3280439376831,6.66815090179443,6.91235971450806,6.12706136703491,5.41631317138672,8.50851249694824,12.3447465896606,-20.3201885223389,-21.883602142334,-15.0337905883789,-5.51550245285034,-6.82764101028442,-6.21983003616333,3.28172087669373,3.04409432411194,1.18217694759369,-45.5056953430176,-39.8143768310547,-26.0713596343994,8.33212089538574,14.9739360809326,19.4870052337646,12.9293451309204,9.29714012145996,6.47555351257324,20.322582244873,18.6514301300049,17.5285491943359,-1.89429306983948,-1.72630512714386,-1.35856425762177,-3.45367932319641,-2.78722548484802,-2.34984588623047,-7.01291608810425,-5.27233123779297,-3.5003228187561,13.7478055953979,13.5083856582642,13.2186870574951,0.18364135921001,-0.27634015679359,-0.4058435857296,4.87220048904419,2.70065951347351,1.58974993228912,-0.42821654677391,-0.38423424959183,-0.28466320037842,-0.53863042593002,-0.20631973445415,-0.22342395782471,-0.91937345266342,-0.14604631066322,-0.09097966551781,10.1445322036743,10.1708679199219,9.711181640625,SWING_LEFT
-5.98426485061646,-4.5737771987915,-3.55057787895203,-5.31063842773438,-5.17416906356812,-3.65355181694031,1.11543989181519,0.69821900129318,0.32009339332581,2.69529008865356,1.92376732826233,1.01174557209015,-4.24731397628784,-4.27125597000122,-4.60644388198853,6.88602352142334,6.13424396514893,7.22360563278198,-2.10404896736145,-1.41316044330597,-0.49441906809807,-7.90116500854492,-9.73512363433838,-11.2674121856689,-0.24007004499435,-0.68905597925186,-1.21317839622498,0.36972618103027,-0.61498856544495,-2.11160850524902,-10.326491355896,-15.1151943206787,-19.3289890289307,6.42394256591797,5.11431407928467,7.65216779708862,7.88909578323364,11.8493347167969,15.3214931488037,-23.9809226989746,-18.9028205871582,-6.73758268356323,-2.2589795589447,-5.3780574798584,-5.94249725341797,2.05693602561951,2.87366271018982,1.32023251056671,-51.3427581787109,-41.0258445739746,-32.6673851013184,1.39342534542084,9.84046840667725,12.7182989120483,14.5047664642334,11.1254596710205,7.88115453720093,27.4169006347656,26.5071048736572,23.6792526245117,-1.42942464351654,-0.96699970960617,-0.45509460568428,-3.01385641098022,-2.27165508270264,-1.68400275707245,-8.04002857208252,-4.28322696685791,-2.92092609405518,13.2665710449219,13.5562696456909,13.0558815002441,-0.99716114997864,-1.40155398845673,-1.41499292850494,6.64181470870972,3.6846764087677,1.81001651287079,0.54305922985077,0.52962017059326,0.43066000938416,0.50289481878281,0.52122074365616,0.33551773428917,-1.92014980316162,-1.35032975673676,-0.92176765203476,8.78223133087158,8.34888076782227,8.09988403320313,SWING_LEFT
-6.62261915206909,-5.92745447158813,-4.97694826126099,-4.2951979637146,-5.54527044296265,-6.33535718917847,0.94745200872421,0.56749379634857,-0.23090706765652,-1.79151499271393,-2.34190464019775,-2.57892036437988,-0.64882868528366,-0.51714754104614,-0.52911859750748,5.97383260726929,5.58118343353271,6.11030197143555,-2.13275957107544,-1.72225821018219,-1.23662030696869,-3.36624765396118,-4.90601873397827,-5.86848783493042,-0.30054569244385,-0.2443460971117,-0.54244834184647,-2.23561406135559,-1.71149170398712,-1.0633636713028,-8.61942577362061,-12.0742588043213,-15.6179761886597,13.0941886901855,12.1173543930054,13.7286520004272,6.18172740936279,10.7589406967163,14.7375059127808,-21.170129776001,-17.2196979522705,-5.89961242675781,1.19729590415955,-0.15027284622192,-0.12889257073402,1.53403532505035,1.56702208518982,0.61223971843719,-43.4727172851563,-43.4727172851563,-31.8533573150635,5.43753147125244,5.43753147125244,9.12460231781006,16.009937286377,12.3685703277588,9.19268226623535,24.210765838623,23.3512477874756,22.4989128112793,-0.34697145223618,-0.66278880834579,-1.0256427526474,-2.82509899139404,-1.79640197753906,-1.37062895298004,-9.31853199005127,-5.95707321166992,-2.20505976676941,9.98172569274902,9.23712921142578,12.0718641281128,-1.12544286251068,-2.17857456207275,-2.24638056755066,10.7694187164307,5.52132844924927,2.63841032981873,0.65484756231308,0.7916813492775,0.69516462087631,1.0856602191925,0.91461801528931,0.60735279321671,-1.49398183822632,-1.16118776798248,-0.65601128339767,9.52443408966064,8.25550651550293,8.06636524200439,SWING_LEFT
-6.36116886138916,-6.02213859558105,-5.61896753311157,-2.6623523235321,-2.60249733924866,-2.93289709091187,-0.7367035150528,-0.7000515460968,-0.56688296794891,-0.72738778591156,-0.16355916857719,0.04902193695307,-2.51391172409058,-1.96085119247437,-3.56017804145813,8.97376728057861,8.88278770446777,8.64576148986816,-3.57684516906738,-2.60618019104004,-1.64284574985504,-7.35768127441406,-8.2411413192749,-9.46218395233154,-0.14416420459747,0.04642575979233,-0.15454891324043,-0.83551090955734,-1.38406789302826,-2.12382578849792,-6.12227296829224,-9.09826564788818,-14.5019788742065,9.50288581848144,7.91553020477295,7.7263879776001,11.402792930603,16.3691272735596,19.6415328979492,-22.8843784332275,-15.500659942627,0.07900865375996,-3.29806137084961,-1.85519778728485,-1.95354700088501,5.03551483154297,-2.24172282218933,-2.54471182823181,-56.2822952270508,-28.8701820373535,-24.0407772064209,10.9346179962158,12.1293249130249,10.2786073684692,9.93671607971191,6.80786418914795,3.95939946174622,25.2142353057861,22.0440139770508,17.9762649536133,-0.01343903504312,0.20280726253986,0.2443460971117,-1.34680509567261,-1.31076407432556,-0.88804537057877,-5.38964748382568,-4.24970817565918,-2.43011474609375,9.72075843811035,9.10784244537354,9.20361042022705,-1.29709601402283,-1.57687222957611,-1.65933907032013,4.58729028701782,2.70305371284485,1.43652105331421,0.07208210229874,-0.12095131725073,-0.43188172578812,0.14248432219028,0.06673702597618,-0.16294831037521,0.22505496442318,-0.15562310814857,-0.43095630407333,7.89158821105957,7.75032997131348,8.14058494567871,SWING_LEFT
-5.73564291000366,-5.09912109375,-4.58294010162354,-3.1196448802948,-3.13401007652283,-3.50750541687012,-0.68172562122345,-0.91996306180954,-0.89369583129883,0.63911777734756,0.53160548210144,0.24388794600964,-2.13323378562927,-2.04704236984253,-1.95366859436035,7.3097972869873,7.97777938842773,9.00728607177734,-2.16757893562317,-1.53472256660461,-0.68623071908951,-7.20924043655396,-8.14776802062988,-9.54598140716553,-1.4379768371582,-1.64383840560913,-1.50761544704437,-0.15989397466183,-0.1782199293375,0.02031126990914,-5.22444725036621,-6.36169338226318,-9.49809741973877,8.02087497711182,9.75906562805176,10.4557781219482,4.55316066741943,6.96913242340088,14.5744047164917,-18.3856735229492,-23.5978507995605,-15.2229328155518,-4.51124000549316,-4.93762397766113,-2.657874584198,0.03924809023738,0.23961189389229,-2.23011636734009,-57.0173149108887,-45.1369857788086,-30.1582622528076,8.66970348358154,16.0537204742432,16.3099002838135,14.3514385223389,10.3948650360107,7.23180437088013,26.1360034942627,23.4565925598145,20.7056541442871,-0.52595496177673,-0.48014008998871,0.03176499158144,-3.89716744422913,-2.25210738182068,-1.90941202640533,-10.1517143249512,-6.2276177406311,-3.88339519500732,11.5092267990112,12.0814409255981,10.5778827667236,0.29237538576126,-0.39545887708664,-0.93179857730865,7.90834760665894,5.93313121795654,4.10366153717041,0.39034289121628,0.11667526513338,-0.30176743865013,0.16203200817108,0.07040221989155,-0.0340557359159,0.07900865375996,-0.29209262132645,-0.36152446269989,7.3097972869873,6.792649269104,7.05361747741699,SWING_LEFT
0.12255483865738,0.76151990890503,0.73219835758209,-5.94270801544189,-4.12281513214111,-2.827552318573,-0.53756141662598,-0.38117989897728,-0.22113321721554,-0.33154711127281,-0.50930887460709,-0.16783522069454,-1.33357036113739,-1.3407529592514,-1.08936178684235,10.6066131591797,11.2889604568481,11.6073894500732,0.27893635630608,0.31925344467163,0.23923009634018,-3.64158082008362,-4.01747035980225,-5.91397762298584,0.14172074198723,0.16982053220272,0.81794857978821,0.87430089712143,0.30192014575005,-1.07741355895996,-4.74770212173462,-8.49492645263672,-18.2635688781738,9.03122806549072,8.96658420562744,7.1110782623291,11.8664388656616,15.3269910812378,17.0148105621338,-18.4431343078613,-8.76068305969238,0.79966336488724,-3.27607035636902,-4.36585378646851,-2.88694906234741,0.20662516355515,-0.95096445083618,-4.08836841583252,-40.779239654541,-36.9892196655273,-28.1040382385254,0.51235914230347,5.7128643989563,11.8994817733765,14.0154628753662,9.69847869873047,4.86958885192871,29.0689010620117,30.9866561889648,34.7195167541504,0.52351152896881,0.2138028293848,0.01221730466932,-0.98395121097565,-0.02061670273542,-0.90026265382767,-11.0854530334473,-5.75595998764038,-3.14598107337952,11.5810527801514,8.19804573059082,9.20600509643555,-3.26408219337463,-2.97819709777832,-2.53043293952942,1.22343707084656,-0.78290396928787,-1.9632453918457,0.16982053220272,0.19669860601425,0.09040805697441,0.70386946201324,0.53832501173019,0.32879820466042,-0.44532153010368,-0.84754741191864,-0.7182605266571,8.97137260437012,8.21241092681885,8.22677612304688,SWING_LEFT
-0.93851810693741,-0.15844316780567,0.68271827697754,-5.45189666748047,-5.3968300819397,-4.36223554611206,0.84482663869858,0.50152039527893,-0.22174409031868,-0.98700553178787,0.15347988903522,1.30740439891815,-0.02873042039573,-0.15322890877724,-1.12048637866974,10.2810010910034,9.24191761016846,7.35049867630005,1.05106997489929,1.10910224914551,1.80976462364197,-3.65355181694031,-6.61308431625366,-8.41352367401123,-0.66767573356628,-1.06168377399445,-1.70187056064606,-0.73410731554031,0.66171979904175,2.01784062385559,-6.44549036026001,-10.3576154708862,-17.3753204345703,10.213963508606,10.405499458313,11.1213665008545,9.54087543487549,13.4052085876465,16.6763916015625,-19.1206932067871,-9.09347724914551,7.48457384109497,2.36893534660339,3.11296939849854,1.49417638778687,-0.7383833527565,-0.40790528059006,-0.39019018411636,-33.7854766845703,-23.4302558898926,-13.7142868041992,13.0941886901855,4.87698888778687,4.74051952362061,9.0509614944458,6.25136566162109,2.48965764045715,28.3458518981934,27.2181835174561,22.9777526855469,-0.58704149723053,-0.53511798381805,-0.33964106440544,-1.05053555965424,-0.10919216275215,0.31108313798904,0.40940847992897,-0.07900865375996,-1.0414776802063,10.9130706787109,10.1804447174072,9.78540134429932,-3.30989694595337,-2.75645303726196,-1.78945338726044,0.79966336488724,-2.08534979820251,-2.92571449279785,-0.26328292489052,-0.36957347393036,-0.34452798962593,-0.01145372353494,-0.17516560852528,-0.07498370856047,0.18914192914963,1.28808057308197,1.85790050029755,8.53323459625244,9.80455493927002,10.518027305603,SWING_LEFT
-0.9250790476799,-0.84383398294449,-1.13032972812653,-3.1699230670929,-2.47081613540649,-1.80762231349945,0.15454891324043,0.40622538328171,0.38789942860603,-0.91370171308517,-0.7389942407608,-0.2105957865715,1.48201084136963,-0.79008656740189,-1.22104287147522,10.2690305709839,9.76385402679443,9.66329765319824,-0.63980495929718,-0.19265162944794,0.24472789466381,-5.4159836769104,-5.81581497192383,-6.95545530319214,1.30969512462616,1.64750361442566,1.15209186077118,-1.34497261047363,-2.18613409996033,-0.21303924918175,-2.88501310348511,-4.63278007507324,-16.6762142181396,8.90672969818115,9.0360164642334,13.0582752227783,7.29044771194458,13.1205453872681,17.5010604858398,-24.7856731414795,-17.478271484375,2.33913516998291,-1.53938043117523,0.71226888895035,0.84910267591476,0.33490687608719,-0.64247751235962,-0.10002918541431,-34.405876159668,-22.3241348266602,-17.1071701049805,17.3082828521729,11.8731451034546,7.94665479660034,10.7809314727783,8.22018432617188,6.37109565734863,24.7258186340332,22.1756954193115,21.1821002960205,-0.44715335965157,-0.19303341209888,0.23457226157188,-0.5661193728447,-0.37797287106514,-0.45372015237808,-2.65516972541809,-0.28490999341011,0.99838209152222,9.77343082427978,10.3049430847168,10.312126159668,-0.9250790476799,-1.50906622409821,-1.7411949634552,7.41274785995483,4.79558610916138,0.95528650283813,0.13011430203915,0.0226020142436,-0.0824668109417,0.39721512794495,0.46074512600899,0.55970525741577,1.05105459690094,1.21625447273254,1.01274728775024,9.08390045166016,9.53640460968018,8.99770927429199,SWING_LEFT
-1.02403926849365,-0.49747338891029,-0.29161179065704,-5.63385581970215,-4.21140098571777,-2.51391172409058,-0.6145304441452,-0.68416905403137,-0.4453207552433,0.25366178154945,0.45097127556801,0.58902680873871,0.40701428055763,0.85712420940399,0.87627780437469,9.50049209594727,10.6449203491211,11.0064449310303,-0.49930599331856,-0.48525607585907,-0.5322927236557,-4.03901815414429,-4.26167917251587,-5.86130523681641,0.15760323405266,0.19547687470913,0.21685716509819,0.15836681425571,0.29336804151535,0.34773504734039,-3.04542446136475,-5.0089693069458,-7.93468379974365,9.9865140914917,10.1181955337524,10.4701433181763,4.48657608032227,8.401611328125,12.5121240615845,-22.6066513061523,-20.7990283966064,-17.4303874969482,-4.64807367324829,-6.00114011764526,-4.04881477355957,2.67940759658813,1.9457585811615,1.23043537139893,-45.8241233825684,-35.5527000427246,-12.10777759552,7.17093324661255,21.8429012298584,22.9705696105957,10.7393932342529,7.86466073989868,6.67530632019043,20.6338291168213,15.160683631897,15.244481086731,-0.6450737118721,-0.5155702829361,-0.0500909499824,-1.99310052394867,-0.31383201479912,-0.61865377426147,-4.78840351104736,-0.64404028654099,0.45968672633171,11.669638633728,11.7127342224121,10.8843402862549,1.33817672729492,0.6405685544014,0.19708040356636,7.54442882537842,6.01692819595337,5.01854610443115,-0.25717425346375,-0.13011430203915,-0.00733038317412,0.14431691169739,0.23777928948402,0.14309518039227,0.5434837937355,0.33039984107018,0.14844051003456,10.0152454376221,9.62020206451416,9.00010299682617,SWING_LEFT
-4.87737703323364,-4.76619958877563,-4.62875509262085,-1.40300214290619,-2.19308876991272,-3.5314474105835,-1.22845005989075,-0.6267477273941,0.24740041792393,-0.59971696138382,-0.48853948712349,-0.08842274546623,0.99838209152222,0.94570964574814,0.88106620311737,10.2331171035767,12.0048265457153,10.7287168502808,-2.25493264198303,-2.03196692466736,-1.70209968090057,-4.9203839302063,-5.79666137695313,-7.19487524032593,-0.38362336158752,-0.62552601099014,-1.08184230327606,-0.3144428730011,-0.16172657907009,0.07162395119667,-2.72699570655823,-5.76553678512573,-10.3456449508667,9.36162757873535,9.61062526702881,10.601824760437,5.55253601074219,10.3123979568481,15.0753145217896,-27.6443500518799,-25.353099822998,-11.6073894500732,-3.71406078338623,-3.41840195655823,-2.82769513130188,-0.17333301901817,2.42223334312439,4.24383354187012,-53.9790725708008,-35.7250823974609,-20.2890644073486,17.0137958526611,24.8383464813232,21.7303733825684,13.0105895996094,8.74552822113037,5.27092695236206,27.4240837097168,25.1424102783203,21.5723552703857,-0.61941736936569,-0.27122417092323,0.11362093687057,-1.97294199466705,-1.13727831840515,-0.5355761051178,-2.16435837745667,-0.96965169906616,-0.53390699625015,13.1827735900879,12.7566061019897,11.3416328430176,-0.30627256631851,-0.67584604024887,-0.71310883760452,4.49391651153564,2.43250894546509,1.01753568649292,0.29626965522766,0.23457226157188,0.09529497474432,0.06246097013354,0.11621711403131,-0.00962112750858,0.03591302409768,0.72304892539978,1.13485157489777,8.70561695098877,8.30339050292969,8.2411413192749,SWING_LEFT
-7.08748769760132,-6.84863948822021,-6.31901931762695,3.19147086143494,2.04225397109985,0.73262572288513,-2.46361947059631,-2.80692577362061,-2.64077043533325,-1.38773310184479,0.49373182654381,1.37704300880432,-0.21308395266533,-0.18914192914963,0.70628952980042,6.92433071136475,7.27388381958008,7.81497383117676,-4.51574516296387,-4.11501741409302,-3.62999033927917,-3.76847338676453,-4.69981813430786,-5.50935745239258,0.30970868468285,-0.07574728876352,-1.0867292881012,-2.39382815361023,-1.53922772407532,-0.63209283351898,-1.21146607398987,-3.07654929161072,-6.95066690444946,9.10784244537354,7.6066780090332,7.49654483795166,0.63995772600174,10.1291379928589,15.0954732894897,-24.21555519104,-29.45436668396,-19.5947456359863,-4.99626684188843,-4.95961475372314,-2.38603973388672,2.13818097114563,2.69162487983704,1.79243135452271,-58.9590110778809,-53.9982261657715,-34.4106636047363,19.7647342681885,27.4576034545898,25.4680213928223,15.4180097579956,10.7393932342529,7.82800912857056,32.1262969970703,28.8270854949951,24.4741287231445,0.29077184200287,0.44776421785355,0.69149947166443,-2.7236955165863,-1.35047030448914,-1.27472305297852,-5.14065027236938,-2.71981310844421,-1.29765737056732,13.5419044494629,11.1692504882813,9.62977886199951,-0.27328583598137,-0.86521428823471,-0.96967220306396,6.12466716766357,2.96162748336792,0.98880529403687,0.37446039915085,0.26816985011101,0.05742133408785,0.28542679548264,0.33796119689941,0.20967949926853,0.62009823322296,1.27132105827332,1.01753568649292,7.55161142349243,7.02488708496094,6.59871912002563,SWING_LEFT
-6.37094259262085,-5.9384503364563,-5.49251842498779,-1.98958158493042,-2.22181916236877,-2.48278713226318,1.23516952991486,1.07878804206848,1.09711396694183,-0.83856528997421,-1.36207675933838,-0.8733845949173,-2.61446833610535,-1.59932672977448,-1.01514148712158,8.16213321685791,10.1397438049316,9.68723964691162,-3.98001623153687,-3.47116541862488,-2.52554607391357,-5.72244119644165,-6.13424396514893,-10.1684741973877,-0.11423180252314,-0.59986966848373,-1.26510190963745,-0.40546181797981,0.40821069478989,1.4479033946991,-7.03925228118896,-9.79018974304199,-14.102147102356,10.228328704834,11.2578353881836,12.4094467163086,8.35029888153076,12.7534151077271,16.0056629180908,-27.1319923400879,-19.8652896881104,-4.72376012802124,-2.75988912582397,-1.8924605846405,-2.25531458854675,-1.76952385902405,-2.74141049385071,-0.25091290473938,-42.80712890625,-37.5063667297363,-30.7951202392578,10.4222593307495,12.0431337356567,14.3798742294312,15.6202058792114,12.6397943496704,9.08455848693848,26.3802127838135,27.0146751403809,23.2530860900879,0.96761053800583,0.66645395755768,0.46242499351501,-3.34311270713806,-1.14338707923889,-0.92775160074234,-7.54682302474976,-5.15022706985474,-2.97599267959595,10.1924161911011,7.94186639785767,7.82933902740479,-0.2806162238121,-0.71188706159592,-0.71310883760452,6.92672491073608,4.39814853668213,3.23935484886169,0.01710422709584,-0.21319197118282,-0.43615779280663,0.50656002759933,0.46318855881691,0.25244006514549,-0.99359369277954,-0.64643448591232,-0.67995327711105,7.57315921783447,7.59470701217651,7.89637660980225,SWING_LEFT
-5.26222229003906,-4.89264869689941,-4.45404767990112,-4.39814853668213,-5.21487045288086,-6.6657567024231,1.0812314748764,0.88331115245819,0.75564032793045,-0.32788193225861,-0.18310685455799,-0.13118331134319,-3.38300704956055,-2.79882168769836,-2.85149431228638,9.30895519256592,9.17966842651367,8.8779993057251,-1.73386466503143,-0.52984923124313,0.12438743561506,-8.48295593261719,-9.12220764160156,-9.7087869644165,0.01527163106948,-0.2638937830925,-1.29442346096039,0.05940664559603,0.40271291136742,1.76372063159943,-4.41969633102417,-5.56442403793335,-11.2530469894409,8.64815616607666,8.94264221191406,8.32254409790039,7.23180437088013,10.84446144104,15.0105628967285,-21.9410629272461,-22.8748016357422,-16.5876274108887,-8.30959987640381,-7.08115005493164,-3.52652502059937,0.82420992851257,-0.61865377426147,-3.29851961135864,-57.3261680603027,-40.1806907653809,-19.6378402709961,16.4008808135986,20.6984729766846,22.1349925994873,11.9055347442627,7.65574502944946,4.66861391067505,29.0114402770996,25.3578872680664,22.1086578369141,-1.25288462638855,-0.73426002264023,-0.00122173049022,-1.83610820770264,-1.33397698402405,-0.88010412454605,-5.64822101593018,-3.11006808280945,-2.07816696166992,12.6057710647583,13.707103729248,13.7717475891113,-1.74974715709686,-2.01180839538574,-1.90307426452637,4.77403831481934,1.96563959121704,0.105344876647,0.96699970960617,0.47342056035995,-0.00183259579353,1.11437094211578,0.67088276147842,0.25121831893921,0.18674772977829,0.72304892539978,1.13485157489777,6.52928733825684,6.48379755020142,7.47739124298096,SWING_LEFT
-4.12112617492676,-4.01727914810181,-3.94519686698914,-1.20428347587585,-1.31441676616669,-1.35032975673676,0.98043870925903,0.74281215667725,0.7061602473259,0.7539604306221,0.36789360642433,0.15897768735886,-0.83557641506195,-0.75656771659851,-1.27371525764465,7.42471885681152,7.73357057571411,9.51725101470947,-3.35754442214966,-2.88656735420227,-2.5292112827301,-5.94989061355591,-6.9722146987915,-8.62900257110596,0.5711590051651,-0.24495697021484,-0.94134336709976,-1.41400027275085,-1.35047030448914,2.28723216056824,-4.74291372299194,-10.4653549194336,-17.4016571044922,6.7543420791626,12.1125659942627,12.0503168106079,10.2812442779541,13.5231056213379,15.6800708770752,-18.6753711700439,-8.93785381317139,1.0414776802063,-4.21252679824829,-3.78369927406311,-2.16307377815247,2.41612482070923,1.38254082202911,-0.84894996881485,-39.627628326416,-29.6052017211914,-15.6443128585815,15.3474311828613,16.3434200286865,17.8565540313721,11.1920442581177,6.87078332901001,3.85677409172058,29.571683883667,24.5749835968018,19.8413486480713,-0.02871066704392,0.14110986888409,0.31703907251358,-0.86605417728424,-0.4751004576683,-0.32666018605232,-1.6711528301239,-1.08217918872833,-0.70150107145309,10.6114015579224,9.99848556518555,8.93306541442871,-1.78700995445251,-2.01974964141846,-2.05517983436584,3.56017804145813,1.12048637866974,-0.7781155705452,-0.15149457752705,-0.2443460971117,-0.34086281061172,0.49189925193787,0.39293906092644,0.321467846632,0.98162269592285,0.43095630407333,0.3208230137825,8.65533828735352,8.83490371704102,8.98813247680664,SWING_LEFT
-5.10034322738647,-5.03314781188965,-4.64463758468628,-3.40216064453125,-5.52611684799194,-6.76631307601929,0.82588982582092,0.59559363126755,0.23884831368923,0.0282525178045,-0.24724771082401,-0.23380866646767,-3.51468801498413,-3.51468801498413,-3.2968156337738,7.42232465744019,7.42232465744019,7.944260597229,-2.00936484336853,-1.63001751899719,-1.20363366603851,-8.5787239074707,-8.82053852081299,-10.0152454376221,-0.32803463935852,-0.4202753007412,-0.65057146549225,-0.43600505590439,-0.29611691832542,0.00076358154183,-6.33296298980713,-8.736741065979,-15.6179761886597,8.64336776733398,8.97137260437012,10.8532152175903,7.47737216949463,10.7473344802856,14.2237682342529,-21.6106624603271,-18.158224105835,-10.9920797348022,-4.52773332595825,-4.5246787071228,-3.20093393325806,-0.50625455379486,-0.95829486846924,-2.23561406135559,-50.416202545166,-40.9037399291992,-23.3009700775146,9.76864242553711,12.7661828994751,17.310676574707,13.1455907821655,8.19758224487305,5.0424633026123,32.4183883666992,25.7505378723145,21.5053176879883,-0.38301250338554,-0.19425514340401,0.04703662544489,-1.14583051204681,-0.6345362663269,-0.44761151075363,-4.51307010650635,-3.00711727142334,-2.51870012283325,10.8316679000854,10.228328704834,10.0990419387817,-1.41254949569702,-1.58481347560883,-1.51212060451508,5.11431407928467,2.77009129524231,1.44609785079956,0.11056660860777,-0.06719517707825,-0.36774086952209,0.59513545036316,0.29214629530907,0.04413501545787,0.22266076505184,0.3016694188118,0.23223756253719,8.11903762817383,7.86046361923218,8.48056125640869,SWING_LEFT
-4.93907451629639,-4.42228269577026,-3.95985770225525,-5.32260942459106,-6.10311937332153,-5.82539224624634,0.41661009192467,0.56077426671982,0.79656827449799,0.06185010448098,0.21090123057365,0.0056505035609,-2.35828876495361,-2.11886858940125,-2.66474652290344,8.80856704711914,8.77025985717773,7.62822580337524,-2.62511706352234,-1.48524248600006,-0.80168426036835,-7.60188961029053,-8.91151809692383,-10.065523147583,-0.0500909499824,-0.05619960278273,0.56688296794891,0.61834836006165,-0.02061670273542,-1.54839062690735,-6.37366437911987,-8.29620838165283,-16.1854019165039,8.04002857208252,8.30339050292969,9.42627143859863,9.39915466308594,13.7026996612549,17.6989803314209,-20.8469123840332,-18.2492046356201,-4.07493114471436,-5.14165258407593,-3.63403725624084,-1.60962986946106,2.33182525634766,0.7228062748909,-2.02058959007263,-48.1105842590332,-38.2389907836914,-16.218921661377,17.7368450164795,15.450382232666,19.8126182556152,12.7595243453979,8.31303596496582,5.14569997787476,29.1167850494385,25.6020965576172,22.2738571166992,-1.27976274490356,-0.97982788085938,-0.49296826124191,-1.5422819852829,-0.99372506141663,-0.73655074834824,-2.74854350090027,-1.54904854297638,-1.18991827964783,11.7989253997803,11.9401826858521,12.0958061218262,-1.91956770420074,-1.85909199714661,-1.30320465564728,3.50750541687012,1.14203417301178,-0.78769236803055,-0.00366519158706,-0.30421090126038,-0.52106803655624,0.40637809038162,-0.04444044828415,-0.25457808375359,0.66319388151169,0.60573303699493,0.72304892539978,7.55639982223511,8.29381370544434,9.41669464111328,SWING_LEFT
-5.68310832977295,-5.83704662322998,-5.93906116485596,0.16041150689125,-0.73741412162781,-1.29286897182465,0.2553416788578,0.31826078891754,0.65668016672134,-0.28573220968246,-0.64308840036392,-0.48487427830696,-0.83557641506195,-0.66319388151169,-0.55545479059219,7.96820259094238,9.69921016693115,11.1213665008545,-6.51755046844482,-6.82481575012207,-7.01357316970825,-2.80600428581238,-3.16274046897888,-4.68066453933716,1.23578035831451,0.77640974521637,-0.40194934606552,0.11988230794668,-0.85017168521881,-1.53922772407532,-8.67449188232422,-10.9370126724243,-11.3344497680664,3.72298359870911,4.46997451782227,7.0919246673584,4.20618915557861,7.79135704040527,11.6587448120117,-26.3155689239502,-23.911491394043,-17.6386833190918,-0.70738196372986,-2.35244202613831,-0.93034774065018,-0.02977968007326,2.83884358406067,-0.84711736440659,-45.3620414733887,-32.554859161377,-15.3905267715454,10.0320043563843,14.102147102356,14.1428489685059,12.206690788269,7.60443258285522,1.58435535430908,30.443172454834,25.7361717224121,15.8957033157349,-0.24190263450146,-0.03176499158144,0.0824668109417,-0.22586742043495,-0.26068675518036,-0.14217889308929,-1.79565131664276,-1.54186594486237,-1.07020819187164,10.8388500213623,10.0056686401367,9.79258441925049,-1.21096396446228,-1.07107579708099,-0.98066776990891,1.13485157489777,0.54587799310684,0.37828385829926,0.18570303916931,0.04886921867728,-0.17470745742321,0.46318855881691,0.25121831893921,-0.00534507073462,1.38145434856415,1.21625447273254,1.03429508209229,8.25550651550293,8.31536197662354,8.91870021820068,SWING_LEFT
-5.66356086730957,-5.5548267364502,-5.18403148651123,-3.22259545326233,-4.32392835617065,-5.69610500335693,0.42088615894318,0.08552113175392,-0.13011430203915,0.41126501560211,0.1718058437109,0.06673702597618,-3.15076947212219,-2.64080452919006,-2.11886858940125,6.45027875900269,6.76631307601929,7.19726943969727,-1.65750646591187,-1.06863236427307,-0.48281261324883,-9.70399856567383,-10.0990419387817,-11.8037137985229,-0.4416555762291,-0.6023131608963,-0.78923791646957,-0.49037206172943,-1.30221199989319,-2.30769610404968,-8.53562831878662,-12.1484785079956,-16.3194770812988,6.04087018966675,5.63385581970215,6.70885229110718,8.77668285369873,11.9189739227295,15.838285446167,-22.3935661315918,-16.7217025756836,-2.40856695175171,-3.4214563369751,-3.16611456871033,-2.24187541007996,1.92865431308746,1.95431065559387,0.79549926519394,-41.0569686889649,-29.6052017211914,-16.5349559783936,15.3737678527832,17.7559986114502,15.8238773345947,11.552453994751,7.33565187454224,4.24650621414185,27.7520904541016,23.3033638000488,18.5149612426758,-0.22235494852066,-0.01893682219088,0.17715092003345,-1.5123496055603,-0.65713828802109,-0.43356159329414,-1.81241071224213,-1.20188927650452,-0.8451532125473,13.8507556915283,12.3448028564453,10.6856212615967,-0.32459852099419,-0.16821701824665,0.00282525178045,1.09175598621368,0.25139117240906,0.70868372917175,0.11606439948082,-0.00122173049022,-0.13744467496872,-0.06459899991751,-0.08659014850855,-0.19715675711632,1.82198750972748,1.94888019561768,2.0973207950592,8.73434734344482,8.51168632507324,8.51408004760742,SWING_LEFT
-5.95860862731934,-5.00871324539185,-4.37402439117432,-3.31836366653442,-5.08797788619995,-6.12945556640625,-0.70432764291763,-0.69333207607269,-0.45937067270279,1.26464378833771,1.48394441604614,1.56580030918121,-3.58651423454285,-3.07654929161072,-2.94965648651123,8.73434734344482,9.66808605194092,9.17727470397949,-2.04662775993347,-1.69660186767578,-1.36612379550934,-7.676109790802,-7.95383739471436,-8.99770927429199,-0.13927727937698,-0.19364428520203,-0.37323865294456,-0.67179906368256,-1.08352220058441,-1.17759549617767,-6.82138013839722,-9.81173801422119,-13.2019271850586,7.34810447692871,8.3800048828125,9.3927526473999,5.57513809204102,10.0118522644043,14.4168014526367,-24.9772090911865,-21.4646167755127,-11.9330005645752,-2.44773697853088,-2.99385046958923,-2.03357028961182,1.57740676403046,0.38255435228348,-1.68400275707245,-44.3899955749512,-33.9291305541992,-16.7719821929932,6.97460889816284,11.5954179763794,11.3990936279297,12.709433555603,8.56287956237793,5.13592576980591,28.0753078460693,25.5829429626465,19.6905136108398,-0.77579885721207,-0.49663344025612,-0.14966198801994,-1.8379408121109,-0.74632459878922,-0.2087631970644,-2.6934769153595,-1.36230075359344,-0.39983168244362,12.5339450836182,12.0574989318848,10.5276041030884,0.33024901151657,-0.20670153200626,-0.38201984763145,7.66413879394531,3.45962142944336,1.84832370281219,-0.38545596599579,-0.39217549562454,-0.41172316670418,-0.25518894195557,-0.21181751787663,-0.18066339194775,-0.18674772977829,0.14844051003456,0.5147533416748,9.07911205291748,9.30895519256592,9.50049209594727,SWING_LEFT
-8.39473915100098,-8.95062637329102,-9.02026557922363,2.99993467330933,0.62488663196564,-1.0414776802063,1.07267940044403,0.61819565296173,-0.0500909499824,2.21942615509033,0.79916447401047,-0.6088799238205,-9.78779602050781,-9.91229438781738,-9.63456726074219,2.14281058311462,1.7597382068634,4.69981813430786,-3.75460696220398,-1.31114590167999,0.53427803516388,-18.9363403320313,-18.2731456756592,-14.7560634613037,-0.81428337097168,-0.81794857978821,-1.01464712619781,-0.14950926601887,-0.74998980760574,-1.17881715297699,-8.05200004577637,-9.68005657196045,-11.0351753234863,6.6849102973938,6.26113653182983,7.33373928070068,4.34607696533203,7.60015630722046,12.1498804092407,-20.5356674194336,-23.5044765472412,-16.5445327758789,-0.49113565683365,-1.69881629943848,-1.44408547878265,-2.14581680297852,-1.46775650978088,-1.29976856708527,-48.5606956481934,-29.2867736816406,-16.3146896362305,3.75171399116516,10.0990419387817,11.1907978057861,12.6495685577393,8.65206623077393,5.18112993240356,28.9444026947021,26.0522060394287,21.4334926605225,-0.19181168079376,-0.03604105114937,-0.07574728876352,-0.92042118310928,-0.40729439258575,-0.1372919678688,-1.80283391475677,-1.45088624954224,-1.83156430721283,10.9777145385742,9.68484497070312,8.41352367401123,-0.4669301211834,-0.7045567035675,-0.63980495929718,4.64235687255859,2.63362193107605,1.66875863075256,-0.37507125735283,-0.28344148397446,-0.29993483424187,-0.3058907687664,-0.18066339194775,-0.14278975129128,-0.641646027565,-0.62967503070831,-0.78050976991653,9.95060157775879,9.66090297698975,9.5531644821167,SWING_LEFT
-4.34775686264038,-5.15593194961548,-5.88102865219116,6.20367574691772,5.12389087677002,4.43166732788086,0.89797192811966,1.06046211719513,1.37933373451233,1.53831136226654,1.40086674690247,1.40269935131073,-0.19871874153614,-0.90979665517807,-1.25456166267395,8.13579654693604,8.66012668609619,9.11023712158203,-8.71849822998047,-9.38983917236328,-8.71238899230957,-0.11971008777618,-2.60728573799133,-15.613187789917,-0.43737950921059,-0.97249746322632,-0.9517280459404,0.76556688547134,-1.05908763408661,-1.47691941261292,-14.6863327026367,-10.9250411987305,-12.5626754760742,-0.39504328370094,5.36331129074097,4.87220048904419,9.34295463562012,10.6660890579224,13.3111352920532,-12.8140668869019,-11.8563861846924,-4.35984134674072,-3.06532168388367,-1.56381499767303,0.33964106440544,-2.9570460319519,-2.14887118339539,-1.70049607753754,-41.255687713623,-31.1231250762939,-17.4662990570068,16.6067810058594,19.0057716369629,17.5453090667725,12.5225086212158,8.51156711578369,5.40409564971924,28.6834335327148,24.778491973877,20.8924026489258,1.16919612884521,0.97616267204285,0.79412484169006,-0.59483003616333,-0.00962112750858,-0.11041389405727,-0.48362874984741,-0.12210428714752,0.105344876647,9.79976654052734,8.09509563446045,7.38880586624146,-0.80596035718918,-0.9250790476799,-0.77541708946228,4.55855989456177,2.52588272094727,2.04464817047119,0.03787364438176,-0.31948253512383,-0.59315013885498,0.19074267148972,0.16691893339157,-0.21731531620026,1.62805712223053,2.04943656921387,2.22421336174011,6.73997688293457,6.77588987350464,7.54682302474976,SWING_LEFT
-6.94637775421143,-6.54259586334229,-6.09177732467651,-2.83952331542969,-3.39497804641724,-3.92170238494873,1.53082835674286,1.2046263217926,0.81061816215515,3.23651671409607,2.54684996604919,0.42775839567184,-4.75249052047729,-5.90440082550049,-7.56118822097778,4.58968448638916,1.6903064250946,3.10527968406677,-4.29461193084717,-2.245769739151,-0.03810271993279,-14.1931266784668,-16.8509902954102,-17.6075572967529,-0.76052725315094,-0.59070670604706,-0.22846360504627,-0.28206703066826,-0.73960506916046,-1.63513350486755,-9.32332038879394,-10.3049430847168,-13.5371160507202,9.8476505279541,9.34247398376465,8.46380233764648,8.74430656433105,12.0099925994873,15.8156833648682,-13.7980833053589,-11.1812210083008,-3.03345346450806,-3.05493712425232,-3.45261025428772,-2.33533787727356,1.94514763355255,1.73134481906891,0.26160302758217,-45.6158256530762,-34.2020683288574,-9.52682781219482,10.4318361282349,15.0864639282227,20.2459678649902,10.9684677124023,6.67652797698975,3.92458009719849,26.8853893280029,20.6793193817139,16.5445327758789,-1.17469382286072,-0.99387776851654,-0.50823986530304,-1.58748602867126,-0.90759301185608,-0.80191332101822,-3.26569104194641,-2.72460150718689,-2.39420175552368,13.0391216278076,12.9074401855469,11.6911859512329,0.25022566318512,-0.07780896127224,-0.32032245397568,4.51067590713501,3.41413164138794,2.3511061668396,0.25045475363731,0.2229658216238,0.10934487730265,0.04963280260563,0.14370605349541,0.09728029370308,0.105344876647,0.37828385829926,0.59855043888092,9.23952388763428,8.66970348358154,8.34888076782227,SWING_LEFT
-7.58351039886475,-7.85534524917603,-7.5493016242981,1.67594122886658,-0.53390699625015,-2.76769709587097,0.47403141856194,0.39278635382652,0.02626720629632,1.00136089324951,0.95798939466476,0.88712906837463,-5.14065027236938,-4.79798030853271,-3.71580100059509,9.38796424865723,6.9530611038208,8.03763484954834,-3.62265992164612,-2.81143093109131,-2.02646899223328,-7.92750120162964,-8.41352367401123,-9.91229438781738,-0.39584067463875,-0.57421332597733,-0.56260687112808,-0.03711006417871,-0.4964807331562,-0.78664171695709,-7.40556526184082,-9.07911205291748,-11.4876794815063,7.80060863494873,9.15812110900879,9.93623638153076,5.83353424072266,9.58180332183838,13.3477878570557,-18.7160739898682,-16.410457611084,-9.12460231781006,-3.16977977752686,-3.50758814811707,-2.54303193092346,2.73866152763367,2.71972489356995,0.75151693820953,-40.3315238952637,-36.3356018066406,-23.4637756347656,11.3966989517212,16.3913040161133,14.2410106658936,14.5438613891602,10.6789169311523,6.99234533309937,23.9737396240234,24.5558300018311,22.1637229919434,-0.95294976234436,-0.59559363126755,-0.17470745742321,-1.641242146492,-1.06641805171967,-0.24908030033112,-1.41497325897217,-0.64882868528366,-0.43095630407333,12.78773021698,13.2593879699707,11.8444147109985,-0.45104762911797,-0.97272652387619,-1.17492294311523,6.61069011688232,4.26407337188721,2.73417830467224,0.30787608027458,0.31703907251358,0.23884831368923,0.4338670372963,0.48273625969887,0.51083606481552,0.80924016237259,1.16837048530579,1.32878196239471,8.80138492584229,8.48295593261719,8.12143135070801,SWING_LEFT
-6.50777673721313,-6.33795595169067,-5.63301753997803,-1.4867992401123,-5.1861400604248,-7.00094509124756,1.42575943470001,1.31274938583374,1.20401537418365,-0.96562522649765,-0.57344973087311,-0.34376442432404,-3.48835182189941,-2.75812029838562,-3.01429986953735,8.90672969818115,8.5787239074707,7.79342603683472,-2.42658591270447,-1.93728280067444,-1.28610038757324,-7.92989540100098,-8.88996982574463,-10.8484268188477,-0.06536258012056,-0.52167892456055,-0.79717916250229,-0.61376684904099,-0.72372257709503,-0.79641556739807,-8.17649841308594,-11.1596736907959,-14.5019788742065,7.01531028747559,8.13579654693604,10.1038303375244,7.82556581497192,10.4962682723999,14.5640201568604,-19.338565826416,-19.889232635498,-8.88996982574463,-3.98284149169922,-4.46053791046143,-3.68229579925537,1.59573268890381,0.64278292655945,0.09056077152491,-46.6836395263672,-36.6324844360351,-26.1048793792725,7.90355920791626,15.3450374603271,15.1056175231934,14.8150854110718,11.0888080596924,7.53418302536011,25.511116027832,25.0179119110107,21.6154518127441,-0.19792033731937,-0.05803219974041,0.1148426681757,-2.1079432964325,-0.96134918928146,-0.52396965026855,-2.08774399757385,-0.3016694188118,0.1723825186491,12.0551052093506,10.8651866912842,9.3544454574585,-1.14621222019196,-1.52433788776398,-1.54632902145386,5.93313121795654,3.39976644515991,1.85790050029755,-0.32620203495026,-0.41172316670418,-0.54550266265869,0.29153543710709,0.25121831893921,0.11499538272619,0.13886369764805,0.23942017555237,0.07182604819536,8.09988403320313,8.11424922943115,8.04242324829102,SWING_LEFT
-4.98061323165894,-4.95740032196045,-5.28360271453857,-0.34955343604088,-0.51235914230347,-2.11168599128723,1.08550751209259,0.75930547714233,0.46609017252922,1.43874037265778,0.69592821598053,0.02458732575178,-1.92972660064697,-2.56418991088867,-3.58172583580017,5.38725328445435,5.49259805679321,6.11748456954956,-4.46993017196655,-3.54630184173584,-2.73079681396484,-9.01446914672852,-9.888352394104,-10.8364562988281,0.02687807008624,-0.24129177629948,-0.50213122367859,-1.49158024787903,-2.08839559555054,-1.64857256412506,-7.44387245178223,-11.0375690460205,-13.8627271652222,6.46943235397339,8.14297962188721,11.4469776153564,6.7803750038147,10.9342584609985,15.2988910675049,-22.0655612945557,-19.3433532714844,-9.50288581848144,-1.67438161373138,-2.77638244628906,-2.38787221908569,0.78694713115692,2.66841220855713,0.62628960609436,-56.9407005310059,-45.3500709533691,-15.0673093795776,9.06714153289795,18.4144039154053,15.7496576309204,12.3019857406616,8.33014011383057,5.64416599273682,26.3323287963867,22.5228538513184,19.9059906005859,-0.46914452314377,-0.05681046843529,0.46486845612526,-1.53250813484192,-0.96562522649765,-0.67851859331131,-3.30160403251648,-1.41736745834351,-0.35673606395721,12.9625072479248,12.5650701522827,11.5403518676758,-0.67218083143234,-1.15842962265015,-1.43576240539551,7.05122327804565,4.9898157119751,3.51708221435547,0.67744958400726,0.38423424959183,-0.01527163106948,0.84131413698196,0.61040711402893,0.21273382008076,0.78769236803055,0.63446342945099,0.84275901317596,7.36725807189941,6.65617990493774,7.14220285415649,SWING_LEFT
-7.14063310623169,-7.34344005584717,-7.22615385055542,-1.92972660064697,-3.10527968406677,-4.27125597000122,1.05618596076965,0.95050632953644,0.86681777238846,-0.25396722555161,0.16752979159355,0.70631295442581,-5.46386766433716,-5.53329944610596,-4.74051952362061,8.08791255950928,7.98256778717041,7.53006362915039,-4.26467943191528,-3.70757031440735,-3.21215844154358,-8.79659652709961,-8.79659652709961,-9.64174938201904,0.86376345157623,0.43554693460464,-0.0500909499824,-2.14948201179504,-2.67665886878967,-2.28326153755188,-8.45422554016113,-10.5754880905151,-12.1341133117676,5.80384397506714,7.72878217697144,9.50528049468994,4.51895189285278,8.19086265563965,16.5352821350098,-22.7790336608887,-21.1054859161377,-5.14304447174072,-3.13740396499634,-4.48497247695923,-3.47643399238586,2.33487963676453,3.47169995307922,0.62812221050262,-50.5622482299805,-38.1791381835938,-17.3872909545898,10.9801082611084,17.0904102325439,22.2834339141846,7.81518077850342,4.32103157043457,1.9313268661499,25.841516494751,20.6410121917725,15.2660284042358,0.06230825558305,0.50029861927032,0.8472700715065,-0.79519385099411,-0.46777006983757,-0.14706580340862,-1.11330378055573,-0.45729252696037,0.06703764945269,12.3112840652466,11.217134475708,9.87638092041016,-1.16942512989044,-1.1889728307724,-1.12361025810242,1.62805712223053,0.46447512507439,-0.17477671802044,-0.20402899384499,-0.50090950727463,-0.62247169017792,0.04718933999538,-0.43295073509216,-0.61376684904099,1.4867992401123,1.30483996868134,1.48440504074097,7.31697988510132,8.70801067352295,10.0583410263062,SWING_LEFT
-6.82481575012207,-5.89874410629272,-4.64158344268799,-7.20205783843994,-8.82293224334717,-9.43584823608398,0.96761053800583,0.46609017252922,0.47830748558044,0.32940909266472,-0.55206948518753,-0.80741113424301,-2.86346530914307,-1.93930339813232,-1.69988322257996,5.93073701858521,7.65935039520264,8.16452693939209,-1.35329556465149,-1.18652939796448,-0.68989592790604,-8.23395919799805,-9.08150672912598,-10.9944734573364,-0.28344148397446,-1.21806526184082,-1.67071640491486,-1.3156510591507,-0.99555760622025,-1.02854430675507,-6.8644757270813,-10.1612911224365,-16.4703121185303,5.72483539581299,6.50534534454346,8.83250904083252,8.78462409973145,12.8981904983521,15.81751537323,-22.6832656860352,-14.1931266784668,-1.57777893543243,-3.82707071304321,-2.94070529937744,-1.61329507827759,3.38007020950317,0.33185255527496,-2.73530173301697,-38.4999618530273,-25.599702835083,-12.3543796539307,13.3886747360229,11.8683567047119,12.1556615829468,10.5830116271973,4.60080814361572,2.66680860519409,23.418285369873,17.916410446167,14.5235271453857,-0.91446524858475,-0.39156460762024,-0.11606439948082,-1.40666997432709,-0.82023930549622,-0.46105054020882,-0.36152446269989,0.42616790533066,0.93613284826279,11.7438583374023,10.4845085144043,9.26107120513916,-0.80107343196869,-1.08940184116364,-1.20668792724609,4.35744714736938,2.90416669845581,1.58256733417511,-0.80145519971848,-0.89919364452362,-0.9211847782135,-0.00901026278734,-0.14095716178417,-0.27229318022728,0.15322890877724,-0.19871874153614,-0.23942017555237,9.02165126800537,9.23712921142578,10.2450885772705,SWING_LEFT
-8.01355934143066,-8.10457801818848,-7.17178726196289,0.83318221569061,-2.48518133163452,-3.77565598487854,0.92729341983795,0.79534655809402,0.50274211168289,0.98853266239166,1.55113959312439,1.30068480968475,-6.54365253448486,-5.59794282913208,-4.10844993591309,9.78300762176514,8.12143135070801,8.40634155273438,-3.20177388191223,-2.63427996635437,-2.23233079910278,-6.2778959274292,-6.2587423324585,-6.15579175949097,0.52351152896881,0.47525316476822,0.30604347586632,0.16875152289867,-0.24480424821377,-0.19104810059071,-1.71903681755066,-3.03105926513672,-4.8602294921875,7.27867221832275,7.47020864486694,8.02087497711182,1.50860810279846,5.69059133529663,10.7326736450195,-24.21555519104,-29.1933994293213,-23.9378280639648,-1.02319931983948,-3.94496774673462,-3.70062160491943,0.64400470256805,1.47722482681274,-1.27411222457886,-36.7497978210449,-33.9554672241211,-22.6521415710449,5.3657054901123,7.6569561958313,11.6983690261841,14.5420293807983,10.6251611709595,6.85001373291016,26.8159561157227,25.1998710632324,22.0033130645752,-0.52106803655624,-0.33597588539124,-0.14660765230656,-2.39443898200989,-1.48608243465424,-0.52702397108078,-3.24414324760437,-1.61848032474518,-0.36152446269989,12.4046583175659,12.4908494949341,11.8156843185425,-0.96112012863159,-1.5579354763031,-1.70209968090057,7.29782629013062,3.98155736923218,1.84114110469818,0.31276300549507,0.17654006183147,0.01160643994808,0.68920868635178,0.64644813537598,0.40882155299187,0.29209262132645,0.65361708402634,0.70389527082443,8.58830070495605,8.21241092681885,8.00172138214111,SWING_LEFT
-3.43207001686096,-2.41375756263733,-1.57870483398438,-4.50588750839233,-3.72777199745178,-2.9161376953125,-0.01099557429552,-0.17898350954056,-0.06597344577312,-1.69255483150482,-0.0792597681284,1.45584464073181,-0.40222588181496,0.47405192255974,1.95366859436035,10.8460330963135,11.8276557922363,10.9729261398315,-1.62207627296448,-1.9812650680542,-2.09549689292908,-0.07422025501728,-1.20907187461853,-2.89458990097046,-0.18997909128666,-1.09161615371704,-1.59557998180389,-0.4011857509613,0.65988719463348,1.83397018909454,-0.92895025014877,-1.87226569652557,-2.78685069084167,7.96820259094238,9.45260715484619,10.3552217483521,1.70775020122528,3.56844568252563,7.12123775482178,-15.3019418716431,-22.8628311157227,-25.3938007354736,-1.51433491706848,-1.91689515113831,-1.70920097827911,0.14737124741077,0.66294151544571,0.35078936815262,-33.1677742004395,-36.2948989868164,-27.515064239502,10.0559463500977,11.4374008178711,14.5522575378418,16.7099895477295,12.6587314605713,9.14381313323975,26.9356670379639,25.9396781921387,25.049036026001,-1.42881381511688,-1.41598558425903,-1.0067058801651,-2.70598030090332,-2.67238283157349,-1.83244299888611,-5.44710826873779,-2.38223075866699,-0.28251579403877,10.5467576980591,13.048698425293,14.1859445571899,0.25877779722214,-0.78824526071548,-1.35268473625183,9.47654914855957,5.90679502487183,2.10689759254456,0.49174651503563,0.30298915505409,0.14538592100143,-0.10308351367712,0.23167064785957,0.26221391558647,-0.21308395266533,-0.11492168158293,0.28490999341011,9.69442176818848,9.00967979431152,8.79420185089111,SWING_LEFT
-5.39050388336182,-4.84133625030518,-3.63182306289673,-2.03746557235718,-2.16435837745667,-5.38485908508301,-0.24373523890972,-0.01954768784344,-0.08674286305904,2.20110011100769,2.46743750572205,2.11435723304749,-0.03351882472634,0.53151279687881,0.0454898327589,10.6784391403198,7.85088682174683,5.05685329437256,-0.76319974660873,-0.39179369807243,0.13538300991058,-4.87459468841553,-6.24437713623047,-7.08234786987305,-0.79351395368576,-1.08428585529327,-1.69515109062195,0.75518214702606,1.63910412788391,2.56212162971497,0.17717093229294,-0.47884035110474,-2.78445649147034,8.5404167175293,7.46542024612427,6.04805278778076,1.89467489719391,3.37846660614014,7.33809518814087,-15.3977098464966,-23.0902805328369,-29.5429534912109,-2.64199209213257,-0.6872233748436,0.35124751925468,-3.35105395317078,-2.34862422943115,-0.00045814894838,-36.0315399169922,-39.5270729064941,-35.3228530883789,17.6841716766357,17.9475345611572,14.4445180892944,17.0850601196289,14.108925819397,10.3178958892822,27.0194644927979,29.1910057067871,26.1431865692139,0.10018189996481,0.28344148397446,0.23029619455338,-2.15497994422913,-2.58502888679504,-1.18614757061005,-6.26592493057251,-1.14442837238312,2.26730895042419,8.14776802062988,10.4581718444824,10.8771572113037,0.36629006266594,-0.85971647500992,-1.35634994506836,11.4374008178711,6.70166969299316,3.16274046897888,-0.06047565862536,-0.41722095012665,-0.6750060915947,0.00320704258047,-0.21365012228489,-0.46715918183327,0.75656771659851,0.68953007459641,1.10133278369904,7.69526338577271,7.95144319534302,8.60984897613525,SWING_LEFT
-9.69160652160644,-9.52728366851807,-9.1564884185791,3.03584766387939,0.35913026332855,-2.18830037117004,1.75318324565887,0.39645153284073,-1.39277279376984,1.18889653682709,1.62077820301056,0.84925538301468,-8.92348861694336,-8.37761116027832,-7.0224928855896,3.44046783447266,0.33518823981285,3.86424160003662,-2.81020927429199,0.34368807077408,0.33269247412682,-16.1566715240479,-4.25210237503052,-3.24414324760437,0.00122173049022,-0.41355577111244,-0.94195419549942,1.03251492977142,1.23410046100616,0.82054471969604,-0.105344876647,-3.43807363510132,-8.99052619934082,6.74955368041992,5.40401268005371,4.69742393493652,3.90747594833374,9.94038105010986,15.1993198394775,-29.674633026123,-27.455207824707,-6.9530611038208,-4.18076181411743,-0.68905597925186,-0.44898596405983,3.65495944023132,-1.46286952495575,-0.11530081182718,-43.8055114746094,-12.4286003112793,-2.35828876495361,16.4990425109863,17.2101211547852,16.7983169555664,5.52382516860962,2.63565444946289,0.8439866900444,22.2044258117676,15.6826200485229,10.2498769760132,0.09468411654234,0.30237829685211,0.41416662931442,0.2652682363987,0.76556688547134,0.65194594860077,-0.09097966551781,0.69192427396774,0.7182605266571,11.4302177429199,10.3719806671143,8.93306541442871,-1.4412602186203,-1.65200865268707,-1.82060754299164,0.17956513166428,-0.651222884655,-1.64960491657257,-0.47219884395599,-0.87414819002151,-1.23028254508972,-0.14156801998615,-0.64308840036392,-1.03465306758881,0.41419690847397,-0.34237083792686,-0.39743748307228,7.31219148635864,7.84849262237549,8.92109489440918,SWING_LEFT
-5.65439796447754,-5.7729058265686,-6.18585062026978,-1.61608612537384,-0.31124621629715,0.09576806426048,0.51068335771561,0.02076941914856,-0.06963863968849,0.58963769674301,1.05023002624512,0.82176649570465,-4.12281513214111,-6.34493398666382,-10.5132389068604,6.84771633148193,6.36648178100586,7.98256778717041,-5.01665449142456,-3.16939806938171,-2.68620347976685,-17.198148727417,-13.8363904953003,-14.835072517395,-0.93523466587067,-1.54854345321655,-2.15268921852112,1.84557664394379,1.90299797058105,2.50347852706909,-14.6432371139526,-22.1756954193115,-29.212553024292,9.84286212921143,12.5411281585693,14.7608518600464,13.1193237304688,16.9677753448486,20.0166034698486,-25.9181308746338,-6.40478897094727,19.889232635498,-4.55827665328979,-6.17462587356567,-3.26079869270325,4.57492256164551,6.97440099716187,2.29578423500061,-55.8992233276367,-29.9308128356934,-18.2731456756592,19.1542129516602,25.8391227722168,23.6529178619385,9.86157989501953,7.04426908493042,4.67716598510742,27.072135925293,23.3871612548828,20.7463569641113,-0.19486601650715,0.15332718193531,0.57665681838989,-0.44455718994141,-0.10674870014191,-0.07009678333998,-0.67755907773972,1.0486603975296,1.75734400749207,12.7757596969604,12.0574989318848,10.489296913147,-1.19935750961304,-1.29892861843109,-1.32397401332855,3.57214903831482,1.84592950344086,0.85233581066132,0.08063421398401,-0.21258109807968,-0.56443947553635,0.858418405056,0.75884735584259,0.61468315124512,1.91296720504761,2.3056161403656,2.05183076858521,7.48696804046631,7.39838266372681,7.61625480651855,SWING_LEFT
-7.041672706604,-6.01175403594971,-5.479079246521,-4.85783529281616,-5.3250036239624,-5.24599504470825,1.0445796251297,1.45813536643982,1.96209919452667,0.73868882656097,0.46929723024368,-0.17088955640793,-4.54419469833374,-4.82431650161743,-5.41119527816772,10.434229850769,9.73751735687256,8.81814384460449,-3.73078322410584,-2.73079681396484,-1.62696325778961,-10.3288850784302,-11.5259866714478,-12.4214172363281,-0.32620203495026,-0.61941736936569,-1.28953647613525,0.67149364948273,0.53710329532623,0.27382034063339,-7.16614484786987,-10.9992618560791,-17.8996505737305,7.35289287567139,6.69448709487915,6.92433071136475,7.58855009078979,12.799840927124,16.9964847564697,-31.7216758728027,-21.0025367736816,-4.20900678634644,-3.4080171585083,-2.27425122261047,-1.19546329975128,0.80893832445145,2.34465360641479,2.21759366989136,-55.0085792541504,-33.213264465332,-19.8126182556152,24.7808856964111,22.7239665985107,15.7999353408813,8.53600215911865,6.32344818115234,4.29354286193848,26.7297649383545,22.5084896087646,17.0688629150391,0.60720002651215,0.09407325088978,0.03787364438176,0.16875152289867,0.87796604633331,0.43203443288803,3.38540124893188,3.9576153755188,3.9576153755188,8.35845756530762,8.26987171173096,8.69125175476074,-0.45715627074242,-0.69417196512222,-0.78213655948639,2.93050289154053,1.34314715862274,0.93373864889145,-0.02138028293848,-0.13744467496872,-0.21135938167572,0.17363844811916,-0.09086620807648,-0.20998492836952,2.85867691040039,2.56897830963135,2.12126278877258,7.96580839157104,8.30817890167236,8.5619649887085,SWING_LEFT
-3.74544382095337,-3.46078062057495,-3.31967091560364,-4.08929634094238,-4.47476291656494,-4.77882671356201,1.40437924861908,1.48990035057068,1.33168625831604,0.20112738013268,-0.06337726861238,-0.06765332818031,-2.06859016418457,-2.56658411026001,-2.90895509719849,8.45183086395264,8.04721164703369,7.98017358779907,-2.17613101005554,-1.74486017227173,-1.16514909267426,-9.78540134429932,-9.41429996490478,-10.4677486419678,0.42882740497589,-0.26939156651497,-0.92851519584656,-0.35170567035675,0.09666942805052,0.54626625776291,-8.2411413192749,-11.3296613693237,-14.9332342147827,7.26670122146606,8.72477054595947,10.0918598175049,6.94530868530273,10.4315166473389,13.1626949310303,-20.89479637146,-18.1462535858154,-10.7861776351929,-1.92605817317963,-1.49600899219513,-0.58459806442261,0.09666942805052,0.68554353713989,1.5279266834259,-58.0827331542969,-28.6810398101807,-15.2564516067505,9.20600509643555,17.9499282836914,14.5666227340698,11.1095771789551,8.09251403808594,3.10296630859375,28.3506393432617,24.3041400909424,17.6458644866943,0.69027775526047,0.67928212881088,0.41722095012665,-0.19288070499897,0.35750889778137,0.48945578932762,4.04859495162964,3.85227060317993,3.6343982219696,9.53640460968018,8.31296730041504,8.12621974945068,-1.16026222705841,-1.30625891685486,-1.32153058052063,2.95205068588257,1.86029469966888,0.95768070220947,-0.6884451508522,-0.85643309354782,-1.02075576782227,0.41309762001038,0.10583240538836,-0.23991732299328,2.00394678115845,1.60890352725983,1.47243404388428,7.15896224975586,7.26430702209473,8.11664295196533,SWING_LEFT
-4.59210300445557,-3.84379315376282,-3.47360897064209,-2.39659595489502,-2.26252055168152,-2.51870012283325,0.10384709388018,0.13988813757896,0.08491026610136,1.22738099098206,0.840092420578,1.17362487316132,-1.45088624954224,-1.90099620819092,-2.88261890411377,6.93151330947876,8.736741065979,8.06636524200439,-2.16574645042419,-1.59703087806702,-0.94157242774963,-7.90355920791626,-8.48534965515137,-10.0535526275635,0.01527163106948,0.20769418776035,0.11056660860777,-0.12324206531048,-0.15928311645985,-0.23625212907791,-7.71681118011475,-10.956166267395,-16.4415817260742,9.67526817321777,9.06474685668945,6.64420890808105,7.6551342010498,12.5793190002441,16.8675937652588,-24.4741287231445,-15.0649156570435,3.28484463691711,-5.73235940933228,-4.2027530670166,-0.16615535318851,0.89934635162354,1.82419633865356,0.03191770985723,-51.2326240539551,-26.8087749481201,-10.6712560653687,25.6763172149658,30.1510791778564,22.2068195343018,7.72843790054321,6.39186477661133,4.8793625831604,16.1782188415527,15.9914712905884,14.6839380264282,0.68111473321915,0.71715581417084,0.60720002651215,-1.68400275707245,-1.07985699176788,-0.77503526210785,2.47321033477783,4.21379518508911,4.16112232208252,8.95221900939941,7.95862579345703,7.02967548370361,0.16103935241699,-0.39118283987045,-0.81634503602982,5.66976881027222,4.35505294799805,2.37744235992432,-0.75380772352219,-0.92607170343399,-1.10810959339142,-0.24174992740154,-0.24969117343426,-0.37430769205093,2.166752576828,1.59693253040314,1.0414776802063,7.51569843292236,7.61625480651855,8.14776802062988,SWING_LEFT
-3.82485628128052,-3.05944228172302,-2.63183665275574,-2.11886858940125,-1.74537301063538,-0.86430680751801,0.19853121042252,-0.38728857040405,-0.47708576917648,1.14919018745422,1.13208603858948,1.56091344356537,-0.47405192255974,-0.46686932444572,-0.61770403385162,5.53090524673462,8.23635292053223,9.59386539459228,-2.64099955558777,-2.42475318908691,-2.0179169178009,-4.97305631637573,-5.80623817443848,-8.71519374847412,-0.94684112071991,-1.25654983520508,-1.80021989345551,0.19685132801533,0.73135840892792,1.24631786346436,-7.03206968307495,-10.434229850769,-15.4384107589722,9.89314079284668,10.8987054824829,11.734281539917,7.45110511779785,11.6373643875122,15.4858160018921,-23.1118278503418,-16.9587287902832,-3.77086758613586,-3.28340077400208,-1.31763637065887,1.87963235378265,2.99033808708191,1.39170372486115,-1.46470212936401,-45.3213386535645,-35.2749710083008,-11.8875102996826,24.7018775939941,21.3113880157471,7.92271280288696,9.84447479248047,6.93125867843628,4.10783958435059,26.8686294555664,24.2538623809814,19.8652896881104,-0.22540926933289,-0.37262779474258,-0.33536502718925,-0.88438016176224,-0.32482758164406,-0.33460143208504,3.53623580932617,3.63918662071228,3.06218385696411,7.94904899597168,8.34648609161377,8.25071811676025,-0.56772291660309,-0.57077723741531,-0.53412532806396,2.43729734420776,1.61608612537384,1.41257905960083,-0.75991636514664,-0.87414819002151,-0.90041536092758,-0.53313267230988,-0.60826909542084,-0.83245658874512,2.65038132667542,2.10689759254456,1.62805712223053,8.5404167175293,8.69125175476074,9.0168628692627,SWING_LEFT
-1.8090010881424,-1.92873060703278,-2.0246365070343,-0.33518823981285,-0.74220252037048,-1.27371525764465,0.3072652220726,0.28038713335991,0.09224065393209,1.35077571868896,1.8223637342453,2.43200731277466,-0.10295066982508,-0.66079968214035,-1.26653265953064,10.0056686401367,9.50049209594727,8.49971485137939,-2.6568820476532,-3.09120726585388,-2.66971015930176,-3.15795207023621,-6.23958873748779,-10.956166267395,-0.37934732437134,-0.54305922985077,-0.91935217380524,0.18952094018459,0.05207626149058,0.65377855300903,-11.3248729705811,-14.8638029098511,-17.8637371063232,9.66808605194092,11.9234237670898,11.8300495147705,8.48102378845215,12.5115127563477,15.7332162857056,-18.8285999298096,-9.75188255310059,3.5960910320282,-4.07691478729248,-2.40131139755249,-0.6872233748436,2.15223097801209,0.73319101333618,0.37216964364052,-42.5198249816895,-42.5198249816895,-20.047248840332,19.8102226257324,19.8102226257324,13.6424608230591,11.9953317642212,7.95812320709229,5.09866333007813,27.98193359375,22.6162281036377,18.3377895355225,-0.12095131725073,-0.64201939105988,-0.58215457201004,-2.90878748893738,-1.41827642917633,-0.90331697463989,2.13802218437195,3.48595762252808,4.42448472976685,8.74392414093018,9.56513500213623,9.85243892669678,-0.79129958152771,-1.20363366603851,-1.32763922214508,3.77805018424988,1.70706582069397,0.64404028654099,-0.51373767852783,-0.69944071769714,-0.82222461700439,0.39049559831619,0.34773504734039,0.05940664559603,2.93768548965454,2.45166254043579,2.12365698814392,7.91792440414429,7.70962858200073,8.15734481811523,SWING_LEFT
-6.31657552719116,-6.67393207550049,-6.90606069564819,2.46602773666382,1.84114110469818,-0.23702596127987,0.19547687470913,0.84543752670288,1.30053210258484,-2.3834433555603,0.22128593921661,2.36175775527954,-5.51175165176392,-2.9855694770813,-1.43412685394287,12.7111158370972,16.2069492340088,12.4549369812012,-2.11626625061035,-2.43513798713684,-2.96536898612976,-1.43891525268555,-0.24181437492371,-3.48356342315674,-1.00059723854065,-1.08978354930878,-1.29869949817657,1.34466707706451,0.50411653518677,0.54137933254242,-6.12466716766357,-8.29141998291016,-12.3328323364258,8.16452693939209,11.039963722229,13.5730285644531,3.56844568252563,7.34970140457153,11.6886777877808,-21.2730808258057,-21.7998046875,-15.6921968460083,-2.14291524887085,-2.37076807022095,-0.68966686725616,3.72643065452576,5.93104314804077,4.27071142196655,-46.243106842041,-38.4975662231445,-30.0265808105469,24.0120468139648,26.0641784667969,12.8140668869019,14.7271213531494,10.1535730361938,6.40591478347778,32.4327545166016,29.2364940643311,24.2754096984863,0.09590584039688,0.12400564551353,0.08735372871161,-1.94300961494446,-0.61132341623306,0.38316521048546,2.70784211158752,3.48595762252808,3.49314022064209,10.340856552124,10.000880241394,8.52126312255859,-1.18469679355621,-1.69110405445099,-1.72225821018219,4.37660074234009,0.81163436174393,-1.12048637866974,-0.60658919811249,-0.67744958400726,-0.62980204820633,0.11621711403131,0.01175915636122,-0.12202033400536,1.9943699836731,2.28406834602356,2.04464817047119,7.73835897445679,8.49492645263672,8.62421417236328,SWING_LEFT
-4.74543046951294,-4.71061086654663,-4.12173700332642,0.3016694188118,-0.85951840877533,-3.49792861938477,0.55222219228745,0.29932397603989,-0.2101376503706,0.10705413669348,1.26158940792084,2.74599194526672,-2.97838687896729,-2.38223075866699,-1.90339040756226,11.3559980392456,10.695198059082,9.82370853424072,-2.01425170898438,-2.42108798027039,-2.63672351837158,-0.75896191596985,-2.2553379535675,-4.81234550476074,0.18448130786419,0.34758231043816,0.18631389737129,1.00991296768188,0.20357084274292,-0.24480424821377,-7.39838266372681,-9.90511131286621,-13.9177942276001,9.93623638153076,10.7478704452515,12.1532669067383,5.42730855941772,10.8426294326782,14.7900400161743,-27.1487503051758,-22.1876659393311,-4.74291372299194,-1.07084679603577,-1.31580376625061,-0.020158553496,1.04961919784546,2.32999277114868,0.70570206642151,-47.3588066101074,-35.0451278686523,-17.3585605621338,16.4679183959961,17.5189723968506,11.4517660140991,13.237832069397,8.92329025268555,5.5671968460083,30.7616004943848,26.6268157958984,20.923526763916,0.33841934800148,0.29871311783791,0.37629300355911,-1.60520112514496,-0.49586987495422,0.31291571259499,-0.42377370595932,0.76135611534119,2.16196417808533,9.46936702728272,9.62738418579102,9.15572643280029,-0.00694859214127,-0.64041584730148,-1.01487624645233,5.52132844924927,3.47638082504272,1.91775560379028,-0.01588249579072,-0.15760323405266,-0.33475416898727,0.39965859055519,0.33612859249115,0.2328923791647,2.30322194099426,1.90578460693359,1.36469495296478,7.38880586624146,7.45105504989624,7.57794761657715,SWING_LEFT
-5.48640966415405,-4.35325479507446,-3.24331259727478,-2.16196417808533,-2.97120428085327,-2.83952331542969,-0.09040805697441,-0.9639453291893,-1.45141577720642,0.86574876308441,3.08013534545898,4.58897256851196,-2.27688574790955,-1.82677590847015,-1.36708915233612,10.4366245269775,10.6880159378052,10.3456449508667,-1.22928988933563,-1.33985650539398,-1.4534775018692,-2.86107110977173,-3.47877502441406,-3.87381839752197,-0.56688296794891,-0.45142942667007,-0.34636059403419,2.42773127555847,0.82970774173737,-0.24663683772087,-4.9898157119751,-6.9530611038208,-10.6736507415771,6.01692819595337,7.88440561294556,9.72315216064453,2.05411076545715,5.7125825881958,10.130970954895,-20.4973602294922,-22.3432884216309,-13.9513130187988,0.45998153090477,1.08734011650085,1.68354463577271,-0.37614026665688,1.35993874073029,1.2634220123291,-33.9770126342773,-33.1629867553711,-30.7400531768799,19.2882881164551,14.9236574172974,9.88356399536133,15.6397533416748,13.0435762405396,9.96786975860596,23.9210681915283,23.9210681915283,25.9971389770508,-0.80328780412674,-1.08306407928467,-1.09589219093323,-1.44881963729858,-1.27838826179504,-0.70173144340515,-1.07978498935699,-0.31603461503983,1.02711248397827,7.68568658828735,9.38317584991455,10.3312797546387,0.5666538476944,-0.89514666795731,-1.64284574985504,13.5419044494629,8.97376728057861,5.57878923416138,-0.34025195240974,-0.3371976017952,-0.36651915311813,0.35506543517113,0.49984049797058,0.46379944682121,0.67516487836838,0.33039984107018,-0.03830722719431,9.36881065368652,8.97137260437012,8.90433502197266,SWING_LEFT
-6.93660402297974,-5.9903736114502,-5.01970863342285,-2.97120428085327,-4.51067590713501,-5.78469038009644,-0.27427849173546,-0.75197511911392,-0.64751714468002,-0.27595838904381,0.66355234384537,1.32084333896637,-1.32399356365204,-1.38624274730682,-1.09175598621368,9.43824195861816,10.8795518875122,12.4405708312988,-3.02828812599182,-2.38443613052368,-1.75157976150513,-6.92911911010742,-8.6984338760376,-11.9521541595459,0.06169738993049,-0.25167647004128,-0.50274211168289,0.18157969415188,0.16386459767818,0.14126259088516,-8.42549514770508,-11.980884552002,-19.6785430908203,11.1979808807373,13.0319395065308,12.8547677993774,8.64901161193848,13.5243272781372,17.4863986968994,-21.9027557373047,-9.52682781219482,10.2977609634399,0.38851028680801,0.99815380573273,0.73914694786072,0.02397646009922,2.24996948242188,2.86388897895813,-41.3466644287109,-26.0091114044189,-13.9225826263428,15.3354606628418,12.2418527603149,5.55963563919067,9.71008491516113,6.9294261932373,4.78040218353271,23.0471839904785,19.4008140563965,17.0784397125244,-0.58704149723053,-0.74830991029739,-0.60414570569992,-0.92103207111359,-0.63026022911072,-0.71639221906662,-1.24737906455994,-0.69910687208176,-0.79248076677322,7.35768127441406,8.36803436279297,9.26107120513916,-0.22197316586971,-0.74304121732712,-1.08146059513092,5.97622680664063,4.60165548324585,3.43807363510132,-0.26755899190903,-0.22785273194313,-0.24495697021484,0.24816401302814,0.22189679741859,0.09789115190506,0.20350714027882,-0.04788403213024,0.01436521019787,9.65372085571289,9.32092666625977,9.73991203308106,SWING_LEFT
-2.51455044746399,-2.69597744941711,-2.70941638946533,-1.64242231845856,-2.20984816551209,-3.1890766620636,0.57360243797302,0.879035115242,0.92668259143829,-0.96196001768112,-0.81535238027573,-0.59849524497986,0.85233581066132,1.20188927650452,0.56263738870621,11.054328918457,10.4007110595703,9.59626007080078,-2.02341485023499,-1.99653673171997,-1.91590249538422,-5.20768785476685,-5.95467901229858,-6.53886413574219,0.34391713142395,-0.3683517575264,-0.98104959726334,0.96959584951401,1.88039588928223,2.18399596214294,-2.96402168273926,-5.6937108039856,-11.1117897033691,10.3887405395508,9.85483360290527,12.3711395263672,2.02906537055969,7.83900451660156,18.1088714599609,-30.1319255828857,-31.0417232513428,12.6153478622437,-0.01282817032188,1.10566604137421,1.80938291549683,1.37032341957092,3.16565632820129,2.46865916252136,-32.3226203918457,-12.284948348999,-9.29219627380371,23.8300876617432,15.9244337081909,6.60590171813965,8.12916564941406,6.90376996994019,5.20251035690308,21.5555973052979,20.4087734222412,18.1247062683105,-0.13927727937698,-0.27977627515793,-0.25106561183929,0.63178735971451,1.16690528392792,0.91217452287674,0.11492168158293,2.13323378562927,3.30399823188782,8.5188684463501,8.01848030090332,7.87961721420288,0.61674481630325,-0.03627012297511,-0.34048101305962,5.14065027236938,3.19386506080627,2.14520478248596,-0.43004912137985,-0.66034531593323,-0.75747293233871,0.14126259088516,0.24388794600964,0.1809688359499,1.81241071224213,1.48440504074097,1.62566292285919,8.68167495727539,8.88039302825928,9.44063663482666,SWING_LEFT
-4.9225811958313,-5.02093029022217,-5.04597616195679,-0.04309562966228,-1.12048637866974,-2.37265396118164,-0.28160887956619,0.19792033731937,0.79045963287354,-0.44394633173943,-0.20448714494705,0.12660181522369,-1.8674772977829,-2.28406834602356,-2.16196417808533,11.9713077545166,13.3264255523682,12.2298812866211,-3.10953307151794,-2.52615690231323,-1.88780272006989,-7.4678144454956,-8.28423690795898,-8.63857936859131,1.34817957878113,0.91080009937286,0.2229658216238,-1.52334523200989,-0.83917611837387,-0.04627304151654,-3.77565598487854,-6.83335113525391,-11.3966989517212,10.1134071350098,10.3815574645996,10.1900215148926,4.80850219726563,8.94344902038574,12.9256792068481,-16.8581733703613,-17.1550540924072,-7.02009868621826,-0.89003068208694,0.74708819389343,2.67375707626343,0.26832255721092,0.43142357468605,1.32389771938324,-39.1487884521484,-28.5756950378418,-17.1885719299316,19.333776473999,22.316951751709,14.3655090332031,11.4559373855591,9.82309532165527,8.45842170715332,21.115062713623,22.4941234588623,22.5994682312012,0.27488934993744,0.51801371574402,0.38179078698158,-0.53007829189301,-1.0089967250824,-0.78542000055313,0.58179098367691,2.3056161403656,2.5091233253479,7.01291608810425,7.28346061706543,7.93947219848633,0.58742326498032,-0.36430475115776,-0.82367545366287,9.09108352661133,5.47823286056519,2.94247388839722,-0.04642575979233,-0.13439035415649,-0.18570303916931,0.64644813537598,0.83459466695786,0.80893832445145,2.36547136306763,2.18830037117004,2.14999318122864,9.13178443908691,8.83490371704102,8.65533828735352,SWING_LEFT
-4.3104944229126,-4.22558403015137,-4.11013031005859,0.09337386488914,-0.81163436174393,-1.88423669338226,-1.19424152374268,-0.37690386176109,0.07696902006865,0.4381431043148,0.5933028459549,0.68737614154816,-0.21068975329399,-0.87867200374603,-1.32638776302338,12.1604499816895,11.832444190979,10.3312797546387,-2.9959123134613,-2.71613597869873,-2.63305830955505,-5.59076023101807,-5.49738645553589,-6.72321748733521,-1.30908417701721,-1.07084679603577,-0.94928461313248,0.96470892429352,0.95798939466476,0.78633630275726,-6.71124649047852,-7.94665479660034,-14.8829565048218,10.434229850769,9.97693729400635,12.5387334823608,5.66860055923462,11.4370012283325,16.6403503417969,-28.2931785583496,-20.7511444091797,-1.03190088272095,-3.4324517250061,-0.97310835123062,2.92848801612854,0.1718058437109,1.42652308940887,1.13941645622253,-52.0490455627441,-22.2594909667969,-16.8701438903809,26.2341651916504,32.4016304016113,14.0351095199585,11.2427453994751,9.55248165130615,6.77182292938232,27.4719676971436,28.3937358856201,26.145580291748,1.00242984294891,0.72937309741974,0.32681289315224,-1.75180876255035,-0.8434522151947,0.05207626149058,2.26970314979553,3.4117374420166,3.46680402755737,8.59308910369873,8.32015037536621,7.76230096817017,-0.39423716068268,-0.47487136721611,-0.48220175504684,2.55221891403198,1.89620769023895,1.71424841880798,-0.67683869600296,-0.80023348331451,-0.80267691612244,-0.50320023298264,-0.49586987495422,-0.58139097690582,2.41574954986572,2.29603934288025,2.14281058311462,7.81976222991943,8.19804573059082,8.40634155273438,SWING_LEFT
-4.16877365112305,-3.8046977519989,-3.18039345741272,-1.28568625450134,-2.0326771736145,-2.61925673484802,0.36041048169136,0.34636059403419,0.18081611394882,-2.32418942451477,-1.26617097854614,-0.53435438871384,-1.14682257175446,-0.3016694188118,0.22505496442318,13.1157360076904,11.6768207550049,10.778995513916,-0.93363118171692,-0.74487382173538,-0.85605126619339,-1.01274728775024,-0.73501992225647,-0.70628952980042,-0.13744467496872,-0.27000242471695,-0.59315013885498,1.12597739696503,2.49798059463501,3.72704148292542,0.0526724383235,-2.73896670341492,-7.81976222991943,13.9776487350464,13.4221935272217,12.4118404388428,0.83909976482391,5.99296998977661,12.1553783416748,-22.9825401306152,-30.8406105041504,-16.0561141967773,-0.601702272892,-0.02382374368608,1.258993268013,0.88468557596207,1.94759106636047,2.8913779258728,-42.0433807373047,-34.0272941589355,-19.6354465484619,19.6378402709961,21.6393928527832,14.3798742294312,12.6544551849365,10.3453845977783,7.97217321395874,26.4855575561523,27.2110004425049,26.475980758667,0.70493847131729,0.40683624148369,-0.0372627787292,-1.11406552791595,-0.75487673282623,-0.2393064647913,2.57137250900269,4.37420654296875,4.12042093276978,7.37444067001343,7.70005178451538,8.02805709838867,-0.6789003610611,-1.41926908493042,-1.57748317718506,5.92594861984253,2.30322194099426,-1.01035308837891,-0.59131753444672,-0.50213122367859,-0.37384954094887,0.16875152289867,0.12171489745378,-0.08781187981367,2.2170307636261,1.97521638870239,1.65918183326721,9.33050346374512,9.31374359130859,8.81575012207031,SWING_LEFT
-5.48518800735474,-4.85477495193481,-3.87861251831055,-3.07654929161072,-5.12389087677002,-5.81342077255249,1.14415061473846,0.71715581417084,-0.23823744058609,-1.50624096393585,-0.82085019350052,0.60979622602463,-2.59292054176331,-2.58334374427795,-1.92733240127563,10.149320602417,9.71357536315918,10.434229850769,-1.74363851547241,-1.67216730117798,-1.41132783889771,-5.50935745239258,-6.36648178100586,-8.49253273010254,-1.14292883872986,-0.32620203495026,0.28405234217644,2.13512682914734,0.55848354101181,-1.12445020675659,-7.84609842300415,-11.2602300643921,-18.5269317626953,10.6640739440918,9.76145935058594,13.1516494750977,7.13467693328857,11.2537412643433,14.8841133117676,-20.1549892425537,-11.7582235336304,3.02387666702271,-0.8784242272377,0.06047565862536,1.00365161895752,1.39170372486115,2.38374900817871,1.46073150634766,-38.6244583129883,-22.8580417633057,-11.8061075210571,21.2275905609131,16.3458137512207,10.1062250137329,10.4620599746704,8.05952739715576,3.67840147018433,25.8941898345947,23.4374389648438,16.6977615356445,-0.25961771607399,-0.42455133795738,-0.45326200127602,-0.38713586330414,-0.15073099732399,-0.18371772766113,3.45722723007202,3.58412003517151,2.8467059135437,7.98735618591309,8.65294456481934,8.85405731201172,-0.89392495155334,-1.04297602176666,-0.98188954591751,3.03105926513672,1.44130945205688,0.87388360500336,-0.65606927871704,-0.64140850305557,-0.56199604272842,0.0649044290185,0.12232576310635,-0.02000583708286,1.29286897182465,0.97444009780884,0.89543145895004,9.30416679382324,9.32092666625977,9.4717607498169,SWING_LEFT
