gyro_x_0,gyro_y_0,gyro_z_0,acc_x_0,acc_y_0,acc_z_0,gyro_x_1,gyro_y_1,gyro_z_1,acc_x_1,acc_y_1,acc_z_1,gyro_x_2,gyro_y_2,gyro_z_2,acc_x_2,acc_y_2,acc_z_2,gyro_x_3,gyro_y_3,gyro_z_3,acc_x_3,acc_y_3,acc_z_3,gyro_x_4,gyro_y_4,gyro_z_4,acc_x_4,acc_y_4,acc_z_4,gyro_x_5,gyro_y_5,gyro_z_5,acc_x_5,acc_y_5,acc_z_5,gyro_x_6,gyro_y_6,gyro_z_6,acc_x_6,acc_y_6,acc_z_6,gyro_x_7,gyro_y_7,gyro_z_7,acc_x_7,acc_y_7,acc_z_7,gyro_x_8,gyro_y_8,gyro_z_8,acc_x_8,acc_y_8,acc_z_8,gyro_x_9,gyro_y_9,gyro_z_9,acc_x_9,acc_y_9,acc_z_9,gyro_x_10,gyro_y_10,gyro_z_10,acc_x_10,acc_y_10,acc_z_10,gyro_x_11,gyro_y_11,gyro_z_11,acc_x_11,acc_y_11,acc_z_11,gyro_x_12,gyro_y_12,gyro_z_12,acc_x_12,acc_y_12,acc_z_12,gyro_x_13,gyro_y_13,gyro_z_13,acc_x_13,acc_y_13,acc_z_13,gyro_x_14,gyro_y_14,gyro_z_14,acc_x_14,acc_y_14,acc_z_14,motion_type
0.47297742962837,-0.1352885812521,-1.25488150119781,3.86424160003662,9.74918937683106,13.2495126724243,2.93000984191895,4.52737379074097,4.96359968185425,-2.19018363952637,-2.63439893722534,-2.44424939155579,14.0874824523926,12.7251815795898,10.6541976928711,21.8039951324463,21.8399085998535,15.0236158370972,-6.88160848617554,-8.10506439208984,-7.99161386489868,17.1017818450928,9.10275459289551,1.0989385843277,2.48899030685425,1.84290754795074,0.9544769525528,-0.7472830414772,-1.10467922687531,0.92624741792679,-20.8247661590576,-29.240385055542,-31.6633167266846,2.65995812416077,2.51151752471924,1.78128612041473,13.2854452133179,11.555456161499,6.7218189239502,-11.9997386932373,28.3665008544922,46.6270790100098,-1.17551934719086,-1.07538449764252,-1.04662227630615,-0.47564056515694,0.9353021979332,1.53824186325073,51.1233901977539,25.1846084594727,0.70389527082443,12.9143238067627,10.5751886367798,12.7299699783325,-10.3724803924561,-4.48369789123535,4.99715566635132,9.45949077606201,-59.0266494750977,-63.194953918457,-1.68098735809326,-3.16277027130127,-1.44982492923737,1.64370310306549,0.19068233668804,-2.01761078834534,-36.4517211914063,-21.4113464355469,2.40617275238037,-11.2168350219727,-6.43561410903931,3.64636921882629,-4.11511659622192,-7.30824661254883,-9.53837776184082,48.3317489624023,33.0735015869141,8.46350288391113,2.81442880630493,0.90707266330719,-0.53263223171234,-0.42077946662903,1.94144451618195,1.5201324224472,-41.2999801635742,-41.2999801635742,-22.7760410308838,5.38934803009033,5.38934803009033,-3.68228220939636,SHAKE
-9.53837776184082,-5.09356212615967,2.67860746383667,8.46350288391113,-44.6590461730957,-44.6590461730957,-0.53263223171234,-0.37976679205894,0.78190410137177,1.5201324224472,-0.20186761021614,-0.29561087489128,-22.7760410308838,3.49792861938477,28.9363212585449,-3.68228220939636,1.48440504074097,5.43244361877441,2.81549406051636,-2.92628145217896,-8.51519107818604,56.8072242736816,49.2894287109375,21.0905227661133,-1.64956200122833,0.6934871673584,1.69377052783966,1.83012437820435,1.27192580699921,1.30814480781555,-9.56723022460938,-9.56723022460938,-39.3295516967773,13.2638778686523,13.2638778686523,4.90571928024292,8.4395580291748,10.1828632354736,9.73705005645752,-35.259407043457,0.79008656740189,19.3810634613037,-0.5438175201416,0.84635263681412,0.25300031900406,-1.39230060577393,-1.12012553215027,-0.47883638739586,43.4356079101563,48.6741218566895,35.427001953125,19.361909866333,14.1018476486206,6.84502267837524,-8.01558208465576,-8.06724739074707,-5.33644247055054,24.5956344604492,9.77073669433594,-35.5515022277832,1.20800983905792,-3.11430072784424,-2.85970234870911,0.75900089740753,-0.64821344614029,-1.83704853057861,-35.903450012207,-25.543737411499,-4.00789356231689,-8.65982723236084,-4.97993946075439,4.09169054031372,3.74387192726135,-2.37713766098022,-5.9159460067749,53.2254981994629,53.0267791748047,33.0567436218262,0.85807049274445,3.15744376182556,3.49300217628479,1.23517417907715,0.80906838178635,0.96939063072205,-8.02775859832764,-26.3194599151611,-36.4301719665527,19.1296710968018,16.5343570709229,2.39899015426636,SHAKE
-7.93515491485596,-5.42113065719604,7.11277055740356,-5.87776517868042,-34.792537689209,-38.3718719482422,-2.48632717132568,-2.07939624786377,-1.39869225025177,-1.40135538578033,-1.27725207805634,-0.03515372797847,-6.91445446014404,19.0674228668213,40.476375579834,3.35906505584717,10.5727949142456,17.4728832244873,-5.3598780632019,-7.26190757751465,-7.97723293304443,32.7215538024902,22.2086143493652,10.5081510543823,1.42532384395599,-0.02343581803143,-1.29323101043701,0.79468727111816,2.18858575820923,1.27139317989349,-17.4441528320313,-34.6704330444336,-34.3903121948242,7.97747993469238,-4.96796846389771,-7.60398483276367,9.17938423156738,8.0885534286499,6.48746061325073,-15.1265659332275,21.9931373596191,39.556999206543,-1.0956244468689,0.77178412675858,1.08177602291107,0.83143889904022,0.09374327212572,-0.1336906850338,41.141960144043,43.6558723449707,14.8727807998657,21.9955310821533,17.8056774139404,8.30787944793701,-7.44779634475708,-7.2597770690918,-3.33907151222229,10.4937858581543,2.94007968902588,-47.3788566589355,-0.62584286928177,-2.11188673973084,-2.81655931472778,0.70573770999908,0.15073491632938,-0.97738015651703,-32.1924362182617,-30.2938346862793,-20.0897464752197,-6.22492456436157,-5.67904663085938,-2.01591777801514,8.36605453491211,7.07016038894653,-0.95660746097565,17.9325714111328,17.9325714111328,45.2599906921387,1.5883092880249,1.00454437732697,1.53877449035645,-0.93476957082748,-0.20772656798363,-0.90227901935577,36.2338485717773,2.89937829971313,-10.7068700790405,13.4697790145874,12.0787477493286,15.0068559646606,SHAKE
8.28456211090088,8.82038974761963,8.36605453491211,-21.9715881347656,4.69263553619385,17.9325714111328,-2.78779697418213,0.69029134511948,1.5883092880249,-0.46605318784714,-0.45540055632591,-0.93476957082748,-5.52102899551392,44.2209053039551,36.2338485717773,5.03500604629517,20.3650798797607,13.4697790145874,-7.80146408081055,-7.86538028717041,-7.62409782409668,15.0044622421265,5.48990440368652,-4.98712205886841,1.92333495616913,0.09427590668201,-1.53611135482788,0.93210637569427,1.78272008895874,0.77338200807571,-35.1947631835938,-35.2019462585449,-31.1078624725342,3.59369683265686,-5.30315685272217,-4.42687892913818,7.97350454330444,7.44193744659424,5.67200040817261,13.6493434906006,22.1367893218994,43.2225227355957,0.17949706315994,0.69934612512589,0.60347229242325,0.07137271761894,-0.12942963838577,0.05805691331625,47.175350189209,28.280309677124,7.88889455795288,14.6860332489014,9.2416181564331,12.1864862442017,-8.04327964782715,-7.07974767684937,-2.26635003089905,8.59518432617188,-19.8670864105225,-50.5607528686523,-1.42372596263886,-2.10602784156799,-2.54172110557556,1.51853454113007,-0.09534116834402,-1.00933802127838,-35.9130249023438,-31.2515144348145,-19.9891891479492,-3.12203907966614,-4.14675712585449,-0.71586632728577,7.09466123580933,5.41420650482178,-2.91136765480042,25.3929023742676,42.3749771118164,40.0573883056641,3.5191011428833,3.51803588867188,3.06316804885864,-1.24050045013428,-1.19096565246582,-1.33903741836548,24.284387588501,24.284387588501,-6.11479091644287,16.9006690979004,16.9006690979004,11.3030261993408,SHAKE
4.99449253082275,9.41427421569824,9.21666812896728,-48.4754028320313,-17.1281185150146,11.0061454772949,-4.34521389007568,-3.12974691390991,2.13638782501221,0.06498113274574,1.08390653133392,-0.72491246461868,10.7810897827148,33.1022338867188,40.1435813903809,15.5072441101074,26.5133895874023,23.3721961975098,-6.01874399185181,-7.62995672225952,-7.6107816696167,31.431079864502,31.431079864502,7.42202520370483,1.66873681545258,0.43462789058685,-0.2577939927578,0.39095205068588,1.54143762588501,1.36087536811829,-35.1684303283691,-40.7708625793457,-40.4189147949219,5.03500604629517,3.36864185333252,-1.14682257175446,9.83505439758301,7.92929601669312,6.36175918579102,-15.4785137176514,16.261417388916,41.3933525085449,-1.63997459411621,0.59601545333862,2.55769991874695,1.25541412830353,0.71159666776657,-0.81972098350525,46.8473434448242,46.5456733703613,11.0707883834839,21.4999313354492,21.9189167022705,9.0644474029541,-7.5942702293396,-7.38388061523438,-7.18201303482056,9.75876617431641,4.2760443687439,-11.3197860717773,-0.46552056074142,-0.64182186126709,-1.52279555797577,0.96033591032028,0.05113269388676,-0.82185155153275,-36.1692047119141,-33.0998382568359,-22.0912990570068,2.64080452919006,-3.01669406890869,-2.97120428085327,7.95060110092163,4.77025413513184,-0.20612867176533,20.424934387207,44.4579315185547,50.8336906433105,1.98245716094971,2.22267436981201,0.32224249839783,-0.82504731416702,-1.27458894252777,0.15126755833626,39.6360092163086,22.6252059936523,-8.7077112197876,14.238317489624,6.67264032363892,7.99184513092041,SHAKE
3.53508019447327,8.56472587585449,9.29549789428711,-54.0802268981934,-25.3282604217529,3.7038300037384,-2.31428694725037,-1.84024429321289,0.01278317347169,-2.07673311233521,1.35182058811188,0.44741106033325,-6.78995609283447,36.9856262207031,45.9758567810059,2.782062292099,18.8232135772705,19.4002170562744,-4.16784715652466,-6.90131568908691,-8.13276195526123,38.7357902526855,29.4917774200439,7.15866327285767,0.78403460979462,1.40188801288605,0.98590224981308,0.36858150362968,0.20879183709621,-0.31105720996857,-22.2517108917236,-38.5466461181641,-41.8889541625977,12.4139356613159,8.30548572540283,3.64397501945496,10.0763368606567,9.14369773864746,7.96285200119019,-11.757924079895,20.4081745147705,25.2971343994141,-2.31268906593323,-1.57392823696136,0.17683389782906,0.74248933792114,1.03650236129761,0.3914846777916,50.5056838989258,47.1322555541992,28.5676155090332,10.1945104598999,15.4880905151367,16.9198226928711,-8.66059970855713,-8.60786914825439,-6.91622924804688,20.5757694244385,8.94234371185303,-13.6948337554932,0.93690007925034,2.02293729782104,-0.19813919067383,1.20428144931793,0.49907639622688,0.8431568145752,-35.8914794921875,-41.4196891784668,-24.7775936126709,7.63032102584839,9.85692882537842,-7.53455257415771,9.6726016998291,6.62008619308472,2.01068663597107,29.6881008148193,43.6654510498047,50.5535697937012,-1.33903741836548,-0.17044231295586,0.71745562553406,1.55102503299713,1.29429626464844,0.5118595957756,47.8026313781738,35.2953224182129,16.5032329559326,13.3740110397339,13.0675525665283,10.0269165039063,SHAKE
9.68165588378906,8.51252841949463,7.87230443954468,12.6701154708862,19.6300601959229,31.4023494720459,-0.1384843736887,1.3358416557312,1.53877449035645,0.34727621078491,-0.52837115526199,-1.19735729694366,21.8806095123291,52.8759460449219,52.8759460449219,12.2128229141235,9.31105041503906,9.31105041503906,-7.72636318206787,-8.74901676177979,-8.38043594360352,27.5524730682373,16.6516723632813,5.92564916610718,3.16756391525269,1.77473056316376,-0.93743270635605,0.40213733911514,-0.04420847445726,1.27405631542206,-43.8402290344238,-44.6662254333496,-41.4795455932617,12.816162109375,-1.83395850658417,-5.29118585586548,9.3258581161499,8.7474193572998,6.57747554779053,20.1735439300537,26.4128322601318,49.3014030456543,0.50759851932526,0.67537766695023,0.34780883789063,-0.07882957160473,-0.00852211564779,0.07510114461184,52.3779487609863,46.8856506347656,27.2795333862305,11.6741275787354,7.15866327285767,7.28795003890991,-8.44275379180908,-8.2366247177124,-8.00865840911865,16.5678749084473,7.61595582962036,1.02711248397827,2.43040084838867,1.25221836566925,-1.82746112346649,0.8777779340744,2.03092670440674,0.48576059937477,-42.5066566467285,-43.0501403808594,-31.627405166626,8.81545066833496,1.59693253040314,0.57221418619156,9.38498020172119,8.51572418212891,1.74170744419098,15.7586355209351,29.3960075378418,46.7779121398926,1.98512029647827,2.20563006401062,-0.47457531094551,0.01651159860194,-1.08017814159393,-0.18429075181484,45.3749122619629,30.5859260559082,-1.48919343948364,13.4003467559814,3.96958637237549,10.9391078948975,SHAKE
-3.07435321807861,8.11678218841553,8.85501098632813,-40.9695777893066,-24.2724170684814,8.80587387084961,-2.77075290679932,-2.79099297523499,-0.79255676269531,-0.68762820959091,0.93956327438354,1.41839957237244,1.00317049026489,20.592529296875,20.592529296875,8.1139497756958,15.7730007171631,15.7730007171631,-3.45305466651917,-5.06746292114258,-6.09384536743164,29.0105419158936,19.4792251586914,12.816162109375,-0.4772384762764,1.63464832305908,0.50440269708633,0.16085493564606,-0.4516721367836,0.56672066450119,-4.065354347229,-16.6540660858154,-34.1508941650391,13.0292453765869,19.8910274505615,-5.94959115982056,4.40220546722412,8.09920597076416,7.18148040771484,-41.4053230285645,5.02542924880981,32.9825210571289,0.04793690145016,2.84159302711487,3.37209463119507,0.74621772766113,0.04900216311216,-0.75101143121719,38.6567802429199,43.3087158203125,34.2203254699707,29.1015224456787,21.626823425293,7.70454120635986,-5.49889516830444,-6.6051721572876,-6.78786516189575,21.4376811981201,12.5480108261108,4.32871675491333,2.59232115745544,0.77018618583679,-1.71294522285461,-1.47326076030731,-0.26631611585617,1.86261487007141,-30.1669406890869,-32.0846977233887,-29.4223442077637,5.64073944091797,-2.33434677124023,-3.12203907966614,7.78655052185059,7.33967208862305,6.48799324035645,-15.6628675460815,10.9055891036987,15.2343053817749,-0.42983421683311,1.30761206150055,0.80054622888565,0.79149150848389,0.42823630571365,0.3595267534256,39.6671333312988,43.5050392150879,16.8264503479004,23.21657371521,16.9365825653076,7.12514448165894,SHAKE
7.33967208862305,6.48799324035645,2.49431681632996,10.9055891036987,15.2343053817749,49.5456085205078,1.30761206150055,0.80054622888565,0.33129724860191,0.42823630571365,0.3595267534256,0.72065138816833,43.5050392150879,16.8264503479004,2.07577276229858,16.9365825653076,7.12514448165894,11.8848171234131,-6.71968841552734,-6.08212757110596,-3.95852279663086,0.8451532125473,-7.64229202270508,-27.5405025482178,1.91481280326843,-1.46580386161804,-3.70712041854858,0.3339604139328,1.70016205310822,1.60375559329987,-34.1963844299316,-31.2251777648926,-25.902868270874,-8.15225696563721,-11.2144403457642,-3.69904160499573,8.08216190338135,7.37961959838867,5.41314125061035,14.923059463501,23.0944690704346,43.011833190918,0.33822146058083,1.30814480781555,1.94890129566193,0.71479243040085,1.00827276706696,0.65194183588028,47.9486770629883,44.163444519043,27.0688438415527,18.6915321350098,15.7131462097168,10.1059255599976,-7.3418025970459,-7.48508071899414,-5.58092069625854,6.84262847900391,-1.721431016922,-29.6210632324219,-1.70655369758606,-2.5598304271698,-1.94250977039337,1.41786694526672,-1.20161831378937,-1.65488839149475,-40.2178001403809,-10.979808807373,14.2718362808228,0.03112462162971,5.78917980194092,13.7834196090698,5.29063606262207,-4.19820737838745,-6.83580207824707,51.0467758178711,38.7717018127441,27.133487701416,0.49055427312851,2.05010151863098,2.15183424949646,0.41225734353065,-0.15126755833626,-0.2514024078846,22.1918563842773,-28.4455108642578,-41.268856048584,6.01184034347534,13.4769611358643,2.99993467330933,SHAKE
-7.48508071899414,-5.58092069625854,7.01050519943237,-1.721431016922,-29.6210632324219,-50.8480567932129,-2.5598304271698,-1.94250977039337,-0.5502091050148,-1.20161831378937,-1.65488839149475,-0.66951870918274,-10.979808807373,14.2718362808228,39.707836151123,5.78917980194092,13.7834196090698,18.7178688049316,-4.19820737838745,-6.83580207824707,-7.75033140182495,38.7717018127441,27.133487701416,27.133487701416,2.05010151863098,2.15183424949646,0.57311224937439,-0.15126755833626,-0.2514024078846,0.2306297570467,-28.4455108642578,-41.268856048584,-39.6168556213379,13.4769611358643,2.99993467330933,-0.83318221569061,9.04356288909912,8.08322715759277,7.25924444198608,-32.9920997619629,16.9916496276855,33.4398155212402,-1.1430287361145,-0.37124466896057,-0.01597896590829,-0.30945932865143,0.4868258535862,1.03969812393188,42.2792091369629,47.5057487487793,15.5024557113647,17.9397525787354,13.3165502548218,12.9765729904175,-7.4749608039856,-6.83739995956421,-6.72661256790161,7.76439619064331,1.24737906455994,-8.66461563110352,-0.38456046581268,-2.63013792037964,-2.87940979003906,0.8303736448288,0.83090627193451,-0.65567028522491,-36.3511657714844,-33.3512306213379,-20.3555030822754,-9.41878986358643,-2.20266556739807,4.60404968261719,7.65072917938232,2.26848077774048,-2.62587690353394,8.73644161224365,51.2454948425293,41.4053230285645,-1.25488150119781,0.14434333145618,1.79656851291656,1.48018491268158,1.4471617937088,1.07272136211395,31.268274307251,15.5694932937622,0.48841714859009,14.9613666534424,18.1121349334717,17.3124732971191,SHAKE
3.31510305404663,8.42464351654053,8.5056037902832,-50.9557952880859,-21.9045505523682,8.73644161224365,-2.71269583702087,-1.96967399120331,-1.82106959819794,-1.35341846942902,0.1272991001606,0.91825795173645,-20.3555030822754,41.1275978088379,43.6079902648926,4.60404968261719,13.6038541793823,11.7196168899536,-5.32845258712769,-6.96629667282104,-7.55219221115112,27.925968170166,19.4265518188477,8.39646530151367,3.78967833518982,3.04878687858582,-0.27004453539848,-0.27537086606026,-0.22956448793411,0.108124345541,-22.3522663116455,-31.5483951568604,-33.0040702819824,10.6733512878418,-1.35990655422211,-8.10437297821045,8.36658668518066,7.5820198059082,6.18545818328857,-0.79966336488724,16.4218292236328,30.3441123962402,1.86740863323212,-0.81226414442062,0.16511599719524,-1.73478317260742,1.03810024261475,1.4599449634552,45.4060363769531,30.5093116760254,-7.64947462081909,13.6828622817993,1.98239898681641,19.7377986907959,-7.44193744659424,-5.44669723510742,0.19973708689213,-1.9943699836731,-26.0225791931152,-50.429069519043,-1.71134734153748,-2.92787933349609,-2.84372353553772,1.14515924453735,0.41971418261528,-0.96885800361633,-33.375171661377,-26.2117195129395,-11.5544176101685,-5.7436900138855,-0.96246910095215,4.50828170776367,5.18890333175659,0.1368864774704,-3.88395428657532,43.1602745056152,43.1602745056152,36.2553977966309,0.79735046625137,1.50415337085724,2.51615452766419,0.49854376912117,0.51292484998703,0.46179214119911,24.363395690918,-8.89206504821777,-22.7449169158936,12.2990140914917,16.2183227539063,13.0364284515381,SHAKE
6.26375484466553,8.77138710021973,8.35380363464355,-38.5873489379883,-7.58483076095581,11.0085391998291,-0.54328489303589,0.33449304103851,0.61891865730286,-1.47113025188446,-0.00159789668396,0.56885123252869,33.3416519165039,33.3416519165039,41.9583854675293,16.8432083129883,16.8432083129883,12.4450607299805,-6.46881818771362,-7.77536535263062,-7.40039205551147,26.1327114105225,6.50265169143677,-0.56981998682022,1.669802069664,0.15339808166027,0.2226402759552,1.30654680728912,1.01572966575623,-0.14434333145618,-39.6838912963867,-41.4891204833984,-39.832332611084,0.19871874153614,-1.0414776802063,0.58897364139557,9.42013359069824,8.56685638427734,6.94126319885254,19.333179473877,24.6195755004883,41.7644538879395,-0.21092236042023,2.33878803253174,2.63759469985962,0.52304482460022,-0.36165729165077,-0.70999878644943,45.3868827819824,43.5505294799805,27.7176723480225,27.9092082977295,19.4145812988281,9.2416181564331,-7.483482837677,-7.86538028717041,-5.09622526168823,17.5375270843506,9.35893440246582,-42.327091217041,1.65062725543976,1.29695951938629,-1.3401026725769,-0.15872439742088,-0.01970739290118,0.31851407885551,-42.0733070373535,-38.7956428527832,-28.9554748535156,9.48103904724121,-3.17231726646423,-8.63588523864746,10.3074989318848,4.46984958648682,-0.42876893281937,15.1576910018921,55.619701385498,49.1074714660645,1.24742472171783,1.83438539505005,1.82586324214935,-0.49801114201546,-1.0018812417984,-0.5310343503952,38.2593421936035,19.7354049682617,-9.16021537780762,17.5423164367676,15.128960609436,14.8799638748169,SHAKE
8.54981231689453,8.91306781768799,8.51306056976318,-23.4583873748779,6.009446144104,19.6013298034668,0.1416801661253,1.7853832244873,1.47485864162445,-1.45461857318878,-1.1259845495224,-0.35206991434097,30.6409931182861,47.4147720336914,46.775520324707,16.6277313232422,8.50420475006104,2.88501310348511,-5.93086004257202,-7.27948474884033,-7.71730852127075,29.0967330932617,17.0946006774902,9.68694019317627,2.68499898910522,4.18009757995605,0.42504051327705,-0.81386202573776,-0.79735046625137,1.58511352539063,-21.5382385253906,-21.5382385253906,-39.0973129272461,27.0592670440674,27.0592670440674,-1.32399356365204,8.99615859985352,9.32692337036133,7.34659624099732,-19.6180896759033,7.50103378295898,46.5265197753906,-0.61838603019714,1.3784521818161,2.96090245246887,0.9097358584404,-0.03781688958406,-1.38164794445038,48.3054122924805,49.5192718505859,34.8643646240234,14.9805202484131,16.1010055541992,11.0707883834839,-7.03766965866089,-7.09093284606934,-6.88054323196411,20.0897464752197,4.5418004989624,-11.5065336227417,-0.27430561184883,-0.42983421683311,-1.57765662670136,0.60720074176788,1.90682339668274,0.95341169834137,-30.121452331543,-32.4821357727051,-20.4153575897217,8.54490566253662,0.35434186458588,-3.4620156288147,8.30267143249512,6.98174333572388,2.75583910942078,21.1479835510254,39.3439178466797,55.025936126709,1.19362878799438,1.79443800449371,1.12864768505096,0.48309743404388,-0.4740426838398,-0.83143889904022,48.8872032165527,34.7446556091309,15.1050186157227,10.979808807373,5.95437955856323,3.12922167778015,SHAKE
8.65900230407715,9.31094360351562,8.30267143249512,-25.6299285888672,5.92564916610718,21.1479835510254,-1.84344017505646,-0.12303804606199,1.19362878799438,0.36964675784111,1.19309616088867,0.48309743404388,25.5581035614014,45.9830360412598,48.8872032165527,15.8328561782837,15.0786819458008,10.979808807373,-5.53990793228149,-7.53514814376831,-8.08535766601563,34.383129119873,21.5956993103027,11.3197860717773,2.28445959091187,1.31347107887268,0.32969933748245,-0.64128917455673,-0.41065946221352,1.05834019184113,-31.4215030670166,-39.2792739868164,-39.2218132019043,12.4618196487427,4.82431650161743,3.1196448802948,9.1964282989502,8.53756237030029,6.9188928604126,-29.4343166351318,24.1455249786377,41.6136207580566,-1.4040185213089,0.92305165529251,1.72359788417816,1.1558119058609,0.51931643486023,-0.42823630571365,48.0037422180176,36.6264991760254,15.8567981719971,15.2821893692017,14.1832504272461,12.0500173568726,-8.0438117980957,-7.66138219833374,-7.33434581756592,10.060435295105,3.79959797859192,-7.92720174789429,1.00933802127838,-1.20747721195221,-2.09750580787659,-0.04474110901356,2.36328911781311,1.38857221603394,-40.0980911254883,-35.8651428222656,-25.0888404846191,2.45645093917847,-1.48201084136963,-4.34308195114136,8.78736686706543,3.24745869636536,-1.66926944255829,6.3781533241272,56.9963645935059,46.2511901855469,0.7536746263504,1.53664398193359,1.71827161312103,0.29454562067986,-1.24902260303497,-1.02584969997406,36.2434234619141,-0.72783732414246,-30.0975093841553,11.2910556793213,11.3509101867676,6.42843151092529,SHAKE
-6.75164604187012,-2.99232792854309,3.7284255027771,-13.8504571914673,-41.9320487976074,-47.7595367431641,-0.8586031794548,-1.37578904628754,-2.16355204582214,1.88871383666992,0.27750140428543,-1.24263095855713,-30.2698917388916,-18.4281711578369,2.46363353729248,-0.20829555392265,-3.39018964767456,1.09415018558502,6.31328964233398,2.59019041061401,-4.71699094772339,36.2170906066895,47.9103698730469,29.8317527770996,3.72469711303711,3.63095378875732,0.16245283186436,-1.26766467094421,-1.99737083911896,-1.05088341236115,14.4585838317871,1.55623114109039,-21.4712009429932,10.3764705657959,4.97993946075439,-1.08936178684235,2.59338641166687,8.19561195373535,8.50666904449463,-49.0188865661621,-49.0188865661621,19.548656463623,-1.17924773693085,-1.91641080379486,-1.36247324943542,0.25939190387726,1.20374882221222,0.89588743448257,48.3078079223633,45.4299774169922,28.9722347259521,0.63446342945099,3.82593441009521,10.8409452438354,-7.54473543167114,-7.42542600631714,-3.83441948890686,5.216965675354,-8.46589756011963,-40.1292152404785,1.57978713512421,0.74834829568863,0.16511599719524,1.30175316333771,1.93025922775269,1.57978713512421,-35.5515022277832,-18.0259437561035,0.57221418619156,15.4018993377686,-2.04943656921387,-4.35265874862671,6.24244976043701,-1.50468599796295,-5.64004278182983,42.69580078125,35.8531723022461,18.2821235656738,0.02609897963703,1.51054501533508,-0.84209156036377,-1.51853454113007,-1.74809896945953,-0.14594122767448,5.34625244140625,-5.13077402114868,-25.8478012084961,14.7147636413574,16.6660385131836,3.82832860946655,SHAKE
0.41758367419243,5.17026090621948,6.59132385253906,-40.8019866943359,-28.6274700164795,9.24640655517578,-1.1941614151001,-0.324373036623,0.46498793363571,-0.01757686398923,-0.42024683952332,-1.12864768505096,37.995979309082,44.979866027832,37.0646362304688,5.52342319488525,8.60715484619141,7.1012020111084,-5.98199272155762,-6.95031785964966,-7.06110525131226,31.9290733337402,13.0747356414795,3.23935484886169,0.96406435966492,-0.4420847594738,-1.11959290504456,-1.14249610900879,0.34088462591171,2.25516486167908,-22.8789920806885,-22.8789920806885,-31.2060241699219,11.142614364624,11.142614364624,8.57363605499268,9.08510780334473,8.79801940917969,6.63872814178467,1.04626619815826,20.5661926269531,43.8521995544434,1.24369621276855,-0.81439465284348,-1.60748410224915,-0.1193096190691,-0.80161148309708,-0.77870833873749,48.8129844665527,31.7183837890625,9.93114852905273,-0.50038814544678,-2.68629431724548,7.19936466217041,-7.74234199523926,-7.29120254516602,-4.24987268447876,6.88572406768799,-7.68059921264648,-7.68059921264648,-0.15659387409687,-0.989098072052,-1.53611135482788,2.07833099365234,2.58592939376831,0.85966843366623,-37.253776550293,-37.253776550293,-21.6172466278076,6.34463453292847,6.34463453292847,-1.43412685394287,6.44218683242798,2.49804520606995,-2.0160129070282,38.7118453979492,49.5408210754395,43.8833236694336,0.99868541955948,-0.07190535217524,0.81812310218811,-1.17445409297943,-0.74248933792114,-0.26152241230011,33.1908187866211,14.3149318695068,-15.3923225402832,4.25928497314453,3.21780705451965,17.5614700317383,SHAKE
-4.24987268447876,1.87646329402924,7.44353532791138,-7.68059921264648,-49.3780174255371,-49.3780174255371,-1.53611135482788,-1.84024429321289,-0.81972098350525,0.85966843366623,0.56352490186691,1.07325398921967,-21.6172466278076,26.7647800445557,45.3964576721191,-1.43412685394287,10.350133895874,12.3349275588989,-2.0160129070282,-5.30235385894775,-7.08826971054077,43.8833236694336,31.1557464599609,18.839973449707,0.81812310218811,1.92653071880341,2.04104661941528,-0.26152241230011,-0.70413982868195,-0.1161138266325,-15.3923225402832,-28.881254196167,-31.6130390167236,17.5614700317383,14.5280160903931,9.5815954208374,8.05073642730713,8.20573234558105,7.65978384017944,-16.6947689056396,5.45638561248779,15.2510652542114,2.16355204582214,4.76279735565186,4.24028539657593,-0.32597091794014,-1.36779952049255,-2.05862355232239,47.5751838684082,46.8641052246094,29.9227333068848,25.3474140167236,9.58398914337158,-5.82269859313965,-7.75192928314209,-8.3516731262207,-5.37425899505615,18.9620780944824,-1.80043971538544,-38.0271072387695,0.53689330816269,1.76567578315735,0.38402783870697,0.97098857164383,0.31638354063034,0.68762820959091,-38.055835723877,-33.039981842041,-20.3842334747314,18.4473247528076,3.94564437866211,-7.6183500289917,8.36765193939209,7.06003999710083,2.44424939155579,15.1265659332275,34.7326850891113,51.8775634765625,-0.39041942358017,-0.7190535068512,-1.50841450691223,-0.15872439742088,-0.09587380290031,0.7664577960968,47.2783012390137,33.9282341003418,14.4466133117676,5.72693061828613,2.99514627456665,4.17788219451904,SHAKE
-7.21716690063477,-5.34496450424194,-0.10705907642841,-0.85951840877533,-24.5381736755371,-24.5381736755371,-0.85380947589874,-2.5086977481842,-2.75637173652649,2.24131631851196,0.20559604465961,-0.64448499679565,-37.7805023193359,-11.063606262207,15.0260095596313,3.48835182189941,-3.40934324264526,8.00621032714844,4.33828926086426,-4.08901739120483,-6.47893857955933,55.5119590759277,33.8923187255859,22.8718090057373,0.70680296421051,1.34702694416046,0.3946804702282,-1.03969812393188,-0.324373036623,0.53849118947983,1.92733240127563,-29.9993476867676,-36.0111885070801,10.5392761230469,10.7236289978027,6.95276165008545,3.72576236724854,8.98710346221924,8.09867286682129,-46.141056060791,6.94079065322876,23.1495361328125,0.33609092235565,1.85728859901428,1.02904546260834,0.14647386968136,-0.65673553943634,-1.49403345584869,47.5656051635742,46.8353729248047,11.417947769165,15.9166526794434,10.2280292510986,2.09253239631653,-8.00386428833008,-7.72423267364502,-5.20861053466797,7.96790313720703,-3.57214903831482,-30.5188884735107,0.40000680088997,-0.70041137933731,-1.51640391349792,1.19096565246582,1.74596846103668,0.61678814888,-36.2075119018555,-24.1886196136475,-9.16739845275879,11.6837043762207,-1.54665434360504,-3.22498965263367,7.46484088897705,0.29028457403183,-2.9364013671875,25.9507522583008,42.7412872314453,35.618537902832,1.42905223369598,1.19149827957153,1.19469404220581,-0.73769563436508,-1.0657970905304,-1.05514442920685,26.4583225250244,10.3142213821411,-2.20745396614075,8.66940402984619,6.89530086517334,11.6118783950806,SHAKE
-5.20861053466797,0.52038168907166,8.5748462677002,-30.5188884735107,-47.5751838684082,-6.7348895072937,-1.51640391349792,-1.99364244937897,-0.72011876106262,0.61678814888,0.02503371424973,0.60613548755646,-9.16739845275879,11.2910556793213,45.623908996582,-3.22498965263367,2.53067111968994,11.5831480026245,-2.9364013671875,-5.59263849258423,-6.60836791992188,35.618537902832,24.8613910675049,11.9638261795044,1.19469404220581,0.94968324899673,1.25328361988068,-1.05514442920685,-0.14860439300537,0.71479243040085,-2.20745396614075,-29.9514636993408,-34.8835182189941,11.6118783950806,9.73482418060303,14.1353664398193,6.81662702560425,8.09174919128418,7.08507394790649,-26.7695693969727,8.89685344696045,32.7095832824707,-0.07723167538643,1.17125821113586,-1.06739497184753,0.34141725301743,-1.21120572090149,-0.50227218866348,41.151538848877,41.151538848877,18.5239391326904,11.8800287246704,11.8800287246704,0.4716577231884,-6.85977029800415,-6.57534503936768,-5.85682392120361,9.95509052276611,1.38384854793549,-14.5759000778198,-0.680703997612,-1.13610458374023,-1.38218069076538,2.57367897033691,2.14277935028076,0.52304482460022,-31.7375373840332,-25.5341606140137,-11.4969568252563,6.39491271972656,2.34631776809692,1.42694425582886,6.9561767578125,4.9614691734314,-4.55720138549805,22.857442855835,42.4875030517578,36.6097373962402,-1.59257030487061,-0.84848314523697,1.84290754795074,0.04580637067556,-0.3371562063694,-1.26659941673279,23.0489807128906,3.92888498306274,3.92888498306274,3.52426481246948,17.8966579437256,17.8966579437256,SHAKE
-5.85682392120361,3.82749509811401,7.3375415802002,-14.5759000778198,-40.7373428344727,-15.1600847244263,-1.38218069076538,-1.2628710269928,-0.06711166352034,0.52304482460022,0.07084008306265,0.28975194692612,-11.4969568252563,11.2982378005981,38.0965385437012,1.42694425582886,6.42843151092529,8.2312650680542,-4.55720138549805,-6.71382904052734,-7.57456302642822,36.6097373962402,22.4647941589355,11.8441162109375,1.84290754795074,1.49669659137726,-0.19281286001205,-1.26659941673279,0.69668292999268,2.49857783317566,3.92888498306274,-35.5538940429688,-33.8995018005371,17.8966579437256,6.6271505355835,1.76452660560608,7.8813591003418,7.66084957122803,5.06799554824829,-14.8177146911621,22.6299953460693,44.6255264282227,0.57630807161331,0.86552739143372,-0.2242381721735,-0.58376491069794,-1.41200804710388,-1.28630685806274,49.0500106811523,46.8234024047851,30.0496253967285,7.71651220321655,1.1947066783905,0.33997663855553,-7.89041376113892,-7.31996488571167,-4.32870197296143,6.34463453292847,-6.12197351455688,-34.6895866394043,-0.9997506737709,-1.14782249927521,-1.46154284477234,2.62481164932251,1.15368139743805,-0.23968450725079,-33.0687141418457,-22.1272125244141,-3.50271701812744,3.39497804641724,-0.47405192255974,-0.36152446269989,7.07442140579224,-1.73265266418457,-5.008873462677,32.1325798034668,43.8928985595703,30.5619850158691,-0.30945932865143,-0.24873925745487,2.15396475791931,-0.61199444532394,-0.3659183382988,-0.87831056118011,17.5925941467285,1.40060794353485,-13.3883762359619,3.56257224082947,15.2845840454102,23.3314952850342,SHAKE
7.49626588821411,7.30078983306885,6.90344619750977,-18.4664783477783,-18.4664783477783,13.7834196090698,-1.77313268184662,-0.40533313155174,0.59601545333862,0.42290997505188,0.18269285559654,0.10865697264671,29.0273017883301,43.8689575195313,43.7899475097656,10.1514148712158,13.4338655471802,9.23682975769043,-5.01846075057983,-6.31648540496826,-6.79958295822144,26.0776443481445,16.4314060211182,7.57046556472778,1.60748410224915,0.40373522043228,-0.69295454025269,-1.21919512748718,-1.03863286972046,2.01761078834534,-16.5032329559326,-31.651346206665,-34.7159233093262,8.66461563110352,3.91930818557739,9.01895809173584,8.84915161132813,8.14075088500977,6.99026536941528,-4.24970817565918,11.6358203887939,30.7894344329834,-0.99762016534805,-1.35608160495758,-1.09935295581818,0.09587380290031,0.73503249883652,0.81812310218811,49.1457786560059,36.1907539367676,16.3116970062256,3.82593441009521,5.65031623840332,8.78911399841309,-7.25551605224609,-6.65204381942749,-4.88477039337158,7.44357299804688,-2.88261890411377,-20.6021060943604,0.77018618583679,-0.53689330816269,-0.556600689888,0.40320259332657,1.73904418945313,1.64263784885406,-32.0080833435059,-32.0775146484375,-27.89723777771,2.48039293289185,4.05338335037231,4.85065269470215,8.12264156341553,7.76790857315063,5.78172302246094,4.86262369155884,15.9597482681274,38.522705078125,0.02556634694338,-0.42184472084045,-0.61572283506393,0.51239222288132,1.07698237895966,1.1259845495224,43.9240226745605,41.5034866333008,41.5034866333008,4.90571928024292,2.39659595489502,2.39659595489502,SHAKE
-7.47336292266846,-5.49676465988159,0.7254450917244,-2.30801033973694,-29.953857421875,-51.2957725524902,0.15446335077286,-0.01278317347169,0.35047200322151,1.44023752212524,-0.97098857164383,-1.27032780647278,-33.1285705566406,-3.85466480255127,23.5278205871582,1.82917010784149,0.01915361359715,4.71657752990723,3.12761640548706,-1.92706334590912,-7.25764656066895,53.6373023986816,45.8944511413574,21.1982612609863,0.04687163606286,1.20960783958435,-1.52279555797577,-0.63116919994354,-0.28602349758148,2.13478994369507,-2.56418991088867,-34.0718841552734,-38.0079536437988,12.9430541992188,4.771644115448,-0.22744916379452,9.55435657501221,8.86672878265381,4.5327000617981,-10.0628299713135,13.7834196090698,50.8360862731934,-0.63170182704926,-0.43036684393883,0.5028048157692,0.62690812349319,0.93849796056747,-0.24234765768051,52.6556777954102,42.2409019470215,21.4520473480225,7.15387487411499,9.07163047790527,8.53772354125977,-7.50638580322266,-6.87894535064697,-4.57424545288086,1.96563959121704,-9.90960121154785,-32.1158218383789,-1.05141603946686,-1.69909679889679,-1.90842127799988,2.31535220146179,1.12491929531097,-1.31560158729553,-32.5874786376953,-24.9571590423584,-6.60081386566162,-5.69580602645874,-4.78840351104736,0.21547815203667,7.40784883499146,-0.91346424818039,-4.69462060928345,26.9491348266602,49.7850303649902,33.9617500305176,0.98057591915131,0.89961582422256,2.13905096054077,0.39627838134766,-0.14966966211796,-0.06764429062605,21.8446960449219,4.36941814422607,-23.0274314880371,7.41244840621948,8.26717853546143,8.91600704193115,SHAKE
8.86939144134521,9.75782203674316,8.52424621582031,-30.5859260559082,8.03494071960449,22.9915180206299,-1.35395109653473,-0.13262543082237,2.19977116584778,-0.81545996665955,0.11345066130161,-0.86978840827942,29.6881008148193,49.5695533752441,35.6831817626953,13.2566947937012,15.1983919143677,7.56088876724243,-8.04487705230713,-8.73942947387695,-8.32078075408936,31.7878150939941,12.7395467758179,3.15316367149353,1.75342524051666,-0.77125144004822,-2.22001123428345,0.37763625383377,1.42212808132172,1.25275099277496,-30.6553592681885,-42.4491958618164,-39.9376792907715,13.3787994384766,-2.59531474113464,-0.9720458984375,10.4822025299072,9.48618030548096,8.26751708984375,6.52898788452148,6.52898788452148,40.7038230895996,0.10492854565382,1.65648627281189,0.46818372607231,0.48629322648048,-0.16458335518837,-0.83303678035736,49.9478340148926,54.1376876831055,37.0143585205078,18.3300075531006,6.52419948577881,-1.40060794353485,-7.83661794662476,-7.87976121902466,-7.04672431945801,21.2437515258789,-0.70868372917175,-17.2574062347412,0.7920241355896,-4.80327749252319,-4.81073427200317,2.55397152900696,0.71852087974548,-0.864994764328,-43.3422317504883,-35.8627471923828,-24.643518447876,-12.3588695526123,-4.38857173919678,1.81480491161346,8.69202518463135,7.28161525726318,3.20591330528259,25.6514778137207,38.872257232666,57.6404075622559,2.60616946220398,2.73240327835083,0.89588743448257,-0.32224249839783,-1.4727281332016,-0.98164117336273,44.3908920288086,19.7377986907959,2.3511061668396,36.0351295471191,6.29914474487305,9.00698661804199,SHAKE
8.73250579833984,9.76474666595459,8.69202518463135,-20.0179195404053,10.2759132385254,25.6514778137207,-4.84695339202881,-0.95820540189743,2.60616946220398,-1.47858703136444,-0.61891865730286,-0.32224249839783,24.9691295623779,44.3908920288086,44.3908920288086,25.2253093719482,36.0351295471191,36.0351295471191,-7.07761716842651,-8.29414939880371,-7.43448066711426,22.7975883483887,13.8169384002686,-2.32716393470764,5.14576005935669,2.0634171962738,-2.55397152900696,-0.40053942799568,0.76699042320251,2.42720508575439,-41.9727516174316,-42.7795944213867,-38.2090644836426,8.89924812316895,-11.3580932617188,-14.0300216674805,8.90827369689941,7.82649803161621,6.93487167358398,-15.4042940139771,18.5335159301758,35.427001953125,0.67804080247879,3.61923599243164,0.15126755833626,0.85647261142731,-1.17818248271942,-0.71692299842834,50.3931579589844,35.6951522827148,-1.49158763885498,28.0744094848633,3.67270541191101,10.5751886367798,-7.03127813339233,-6.31648540496826,-2.80856966972351,-0.39025488495827,-11.9159421920776,-42.0493659973145,-1.29695951938629,-3.85146355628967,-4.62857389450073,1.58990716934204,0.35153725743294,-0.94329166412354,-39.5426368713379,-33.2363090515137,-22.9963073730469,-13.7953901290894,-7.30949783325195,-0.86430680751801,8.03369235992432,3.4850127696991,-1.42532384395599,14.6668796539307,53.8264427185059,43.8186798095703,3.93189120292664,-0.2466087192297,-0.30519825220108,-0.97578221559525,-0.21678131818771,-0.09480853378773,37.7110710144043,1.38863694667816,-15.1050186157227,5.68622922897339,3.46919822692871,16.7067394256592,SHAKE
3.4850127696991,-1.42532384395599,-4.57104969024658,53.8264427185059,43.8186798095703,30.6170520782471,-0.2466087192297,-0.30519825220108,1.22984778881073,-0.21678131818771,-0.09480853378773,0.47297742962837,1.38863694667816,-15.1050186157227,-36.7246589660645,3.46919822692871,16.7067394256592,13.7427177429199,-2.67860746383667,7.60545539855957,7.67842626571655,-46.8904418945313,-17.1257247924805,6.39251852035522,-2.27860069274902,-0.33875408768654,5.07332181930542,-0.63223445415497,-0.16085493564606,-2.15396475791931,3.9384617805481,29.9562511444092,41.702205657959,8.63588523864746,21.5166912078857,-3.33991146087646,-5.50155830383301,-8.79482364654541,-8.76233291625977,27.4064273834229,10.8217916488647,-3.99113416671753,1.64210510253906,1.41041016578674,-1.58351564407349,0.47777110338211,-0.61252707242966,-0.21678131818771,-42.6598854064941,-36.387077331543,-20.4416942596436,14.7482824325562,-1.55383694171906,-9.2631664276123,7.44832897186279,6.27067899703979,4.26212310791016,15.4186592102051,21.9380702972412,40.2465324401855,3.771568775177,3.67782545089722,-4.41871690750122,-1.38750696182251,-1.93292236328125,1.08656978607178,41.4867286682129,35.7502212524414,3.47877502441406,21.143196105957,-2.26491475105286,-2.00394678115845,-8.69309043884277,-7.73328733444214,-0.86179894208908,4.11323833465576,-19.8838443756104,-58.8039894104004,1.08497190475464,-1.77100217342377,-2.32121133804321,-1.86581075191498,-0.75047880411148,-0.14114753901958,-26.8773078918457,-10.886435508728,8.91840171813965,-7.29034423828125,-4.88895988464355,7.81946277618408,SHAKE
6.46029615402222,1.9989687204361,-2.29031848907471,35.3910903930664,50.2830238342285,38.3335647583008,-3.82536458969116,-4.64029216766357,4.79262495040894,0.76166409254074,1.89137709140778,0.94488954544067,12.2319765090942,-7.37174701690674,-26.2260856628418,-0.56742578744888,18.3012771606445,37.8834533691406,0.67484503984451,8.02996349334717,7.4446005821228,-54.0634689331055,-6.52419948577881,20.5470390319824,0.81812310218811,3.32415771484375,0.4580637216568,-1.65329039096832,-2.40323662757874,-0.88523477315903,32.9130897521973,38.6567802429199,24.480712890625,20.8008251190186,-0.85233581066132,-3.58651423454285,-7.59746599197388,-7.94793796539307,-4.68236970901489,27.9187850952148,1.48201084136963,-37.1627998352051,1.0061422586441,-1.5536881685257,-2.14757323265076,1.19256353378296,1.57872188091278,0.43835631012917,-41.4053230285645,-37.0670318603516,-37.0670318603516,-4.25210237503052,-0.94092124700546,-0.94092124700546,8.71066761016846,8.23502731323242,4.74681854248047,14.2478942871094,30.3465061187744,52.7969360351563,3.57609272003174,3.07435321807861,-1.77206742763519,0.03249056637287,-0.19174760580063,0.83356940746307,46.3756866455078,38.0175285339355,4.69742393493652,11.7651071548462,-2.67192912101746,0.44771572947502,-8.33036804199219,-8.06991100311279,6.39265203475952,4.79798030853271,-18.1983280181885,-52.1744422912598,-1.26500153541565,-1.59363567829132,-1.7853832244873,-0.95714008808136,-2.10123419761658,-1.82426536083221,-35.3240509033203,-18.2486057281494,5.05655384063721,-2.67192912101746,-0.45489832758904,7.46272659301758,SHAKE
4.99981880187988,-3.18833661079407,-5.51434135437012,43.2919540405273,28.172571182251,17.9828491210938,-2.34358191490173,-5.59583425521851,-7.27362585067749,-2.5896577835083,-1.24742472171783,-0.14381070435047,9.47385597229004,-6.83784008026123,-24.1072177886963,-22.3067779541016,-12.7108163833618,2.45645093917847,-4.09807252883911,7.71198225021362,9.74077796936035,-26.5469093322754,-29.6043033599854,-29.6043033599854,-1.9004317522049,1.21014046669006,2.95131516456604,6.61262893676758,4.03788471221924,0.83463472127914,26.8725204467773,39.1284370422363,39.1284370422363,16.7498359680176,9.98382091522217,9.98382091522217,-5.24216651916504,-6.00276517868042,-6.8533787727356,16.187198638916,10.8696756362915,3.01190567016602,1.11959290504456,4.83896398544312,0.30999195575714,-1.21866250038147,0.11238539963961,2.14597535133362,-30.779857635498,-30.779857635498,-3.61045622825623,36.7605743408203,36.7605743408203,-4.82671070098877,7.38707637786865,4.02297115325928,-1.31240582466125,25.2468566894531,46.3182258605957,41.2018165588379,-3.66237926483154,-4.54228782653809,-2.78300333023071,-0.39947417378426,0.47351005673409,0.66419237852097,17.1041774749756,-1.97521638870239,-22.6706962585449,-8.54251194000244,8.64785671234131,23.1088352203369,-4.87411737442017,7.67576313018799,8.62757682800293,-34.0120277404785,-26.0728569030762,5.04458284378052,-1.9222697019577,-0.95128113031387,0.09427590668201,2.24824070930481,0.6785734295845,-0.46285739541054,0.18674772977829,24.4615592956543,43.3350524902344,-2.69826531410217,5.19541788101196,0.57221418619156,SHAKE
-4.91299962997437,-7.04459381103516,-7.38228273391724,30.3153820037842,18.1911449432373,6.42124891281128,3.42535781860352,0.82025361061096,-0.59281969070435,-0.26365295052528,3.84134364128113,3.68155384063721,-21.5956993103027,-32.0248413085938,-26.341007232666,24.6099987030029,3.21301865577698,3.22259545326233,7.05098533630371,6.93860006332397,2.46022820472717,1.24259066581726,12.1098718643188,42.5138397216797,2.12200689315796,-2.44424939155579,-5.4067497253418,-2.46289134025574,-1.15208351612091,-0.05592638254166,43.0094375610351,33.6145935058594,15.0954418182373,-22.2349510192871,-22.8406848907471,-3.9073371887207,-7.20757913589478,-6.53646278381348,-2.7957866191864,5.78917980194092,-9.17936897277832,-38.355110168457,-0.17150758206844,-2.52947044372559,-2.14863848686218,1.49243545532227,0.81545996665955,0.1416801661253,-33.9473876953125,-15.5551280975342,5.04697704315186,2.86346530914307,-0.97444009780884,4.17069959640503,6.18971920013428,-3.33747363090515,-5.79397344589233,38.1061134338379,33.157299041748,26.5516967773438,-4.05492925643921,-1.16220355033875,3.99793744087219,1.02265381813049,0.58429753780365,-0.1129180341959,7.79312658309937,-7.7763671875,-35.0942077636719,14.0491752624512,29.2978458404541,11.841721534729,7.53088712692261,8.58709716796875,6.16575050354004,-29.9730110168457,1.26653265953064,24.9427928924561,-0.5028048157692,-4.19234848022461,-2.97048997879028,-0.04527373984456,2.56622219085693,1.69377052783966,22.0242614746094,22.2948055267334,13.7594776153564,-4.41251373291016,-2.53067111968994,17.1400890350342,SHAKE
8.33942317962646,5.52126550674438,5.74284076690674,12.1457853317261,20.5614032745361,10.4530849456787,-4.85334491729736,-4.90767335891724,-2.37340927124023,0.45380264520645,1.11692976951599,1.19096565246582,54.3028869628906,47.6781311035156,32.1325798034668,-3.09091448783875,13.5583639144897,19.1488246917725,-7.06163787841797,-6.69998073577881,-6.68613243103027,16.1680431365967,10.690110206604,10.690110206604,1.02105593681335,2.84159302711487,3.71244668960571,-1.10414659976959,-1.56700396537781,0.25300031900406,-36.1093482971191,-40.2465324401855,-29.1063098907471,6.99106884002686,3.44046783447266,6.892906665802,8.79908466339111,8.64249038696289,8.233962059021,7.01979923248291,7.01979923248291,34.5195999145508,-3.09885430335999,-1.07751500606537,0.65460503101349,1.19735729694366,1.57339560985565,0.99655491113663,49.945442199707,38.7166366577149,24.2173500061035,-9.00459289550781,21.9668006896973,5.65031623840332,-6.50770044326782,-6.18386030197144,-5.10847568511963,13.977349281311,7.37414121627808,-2.24336695671082,1.78857898712158,3.14785647392273,1.91161704063416,-0.86020106077194,-0.92571479082108,0.25672873854637,-31.9889297485352,-38.2354011535645,-29.0153312683105,7.90804815292358,-0.87627780437469,11.403582572937,10.7149629592896,10.6009788513184,6.12793397903442,5.59764337539673,33.1429328918457,33.1429328918457,-0.16724652051926,-0.67963874340057,-1.36194062232971,1.00401175022125,0.8239820599556,0.58589547872543,48.061206817627,35.9944267272949,22.6970329284668,5.77242040634155,-0.59376204013824,-2.40856695175171,SHAKE
9.98099517822266,9.78019332885742,6.71542692184448,8.59757804870605,29.9562511444092,51.2694358825684,-2.57847261428833,2.35636496543884,1.78485059738159,0.86179894208908,0.15765914320946,-0.28975194692612,50.2255630493164,47.2328109741211,21.543025970459,2.3319525718689,22.5533790588379,-7.61116743087768,-5.9548282623291,-5.83924722671509,-5.09409475326538,9.76834297180176,7.71651220321655,0.05985504388809,-2.08845090866089,1.83385276794434,3.82536458969116,-1.04875290393829,-1.14569187164307,-1.19362878799438,-28.8453426361084,-31.572338104248,-27.3609371185303,1.30483996868134,10.405200958252,6.82586908340454,8.33889007568359,9.2337121963501,10.2265386581421,-12.3756284713745,4.29040956497192,21.0977058410645,-2.40536713600159,-1.8796591758728,0.61092919111252,0.82877576351166,1.02638232707977,0.82078623771667,49.8089714050293,46.7587585449219,34.4501686096191,-0.96725749969482,15.7203283309937,14.5495634078979,-5.49676465988159,-5.89410829544067,-6.4080982208252,16.7139225006104,16.7139225006104,12.0643825531006,-1.7427726984024,-1.06686234474182,-0.33342778682709,1.40508377552032,0.46605318784714,0.46445530653,0.28012159466743,-18.1504440307617,-26.2739696502686,-4.97515106201172,0.92895025014877,1.47482824325562,1.54676401615143,5.79716920852661,8.55141067504883,-31.4215030670166,-29.2810859680176,-11.2216234207153,0.59122174978256,-2.10602784156799,-0.90387690067291,-0.71159666776657,0.40906155109406,0.09267801046371,10.4171714782715,48.8465042114258,48.1833076477051,-17.8344078063965,1.90817880630493,11.7698955535889,SHAKE
5.98412322998047,8.23129844665527,8.98337554931641,-17.2382526397705,9.26556015014648,25.5652866363525,-2.14171409606934,-1.42745435237885,1.30867743492126,1.04289388656616,1.06366658210754,0.70520508289337,36.853946685791,46.6677780151367,34.802116394043,-0.45729252696037,10.7499656677246,3.9576153755188,-5.37106323242188,-5.81847429275513,-6.00276517868042,9.51934623718262,5.50666379928589,2.75812029838562,0.42876893281937,0.89642006158829,2.09058141708374,-0.248206615448,-0.69455242156982,0.81812310218811,-25.0289840698242,-27.2867164611816,-20.6188659667969,2.80361008644104,2.77487969398499,4.97754526138306,7.68694829940796,7.84780311584473,7.88934850692749,9.16021537780762,13.7187757492065,38.4628486633301,-2.55503678321838,-0.18695391714573,0.33023199439049,1.77366530895233,1.37632167339325,0.7707188129425,48.1090888977051,34.634521484375,21.1791076660156,-7.9343843460083,9.25598335266113,-2.53545951843262,-6.43259954452515,-6.39105415344238,-5.66880464553833,8.80108547210693,4.35744714736938,4.35744714736938,-1.30441629886627,0.38562572002411,4.28342819213867,-0.24128240346909,-0.32011196017265,-0.86392945051193,-13.5368165969849,-26.2787570953369,-23.8701915740967,-3.41652584075928,5.64073944091797,3.41892004013062,8.79961681365967,9.48724555969238,9.20441722869873,-26.8892784118652,13.6684970855713,34.043155670166,-1.47326076030731,3.07541847229004,4.4650559425354,2.61309361457825,2.59125590324402,1.54889452457428,41.6686859130859,36.3942604064941,28.4790287017822,34.4645347595215,25.8406181335449,3.32794046401978,SHAKE
8.79961681365967,9.48724555969238,9.20441722869873,-26.8892784118652,13.6684970855713,34.043155670166,-1.47326076030731,3.07541847229004,4.4650559425354,2.61309361457825,2.59125590324402,1.54889452457428,41.6686859130859,36.3942604064941,28.4790287017822,34.4645347595215,25.8406181335449,3.32794046401978,-6.4224796295166,-6.54445219039917,-6.23126459121704,4.52504110336304,2.2864625453949,-2.42772054672241,0.03462109342217,1.2287825345993,1.72146737575531,-2.72867488861084,-2.33878803253174,-1.35608160495758,-22.345085144043,-30.42551612854,-26.862943649292,0.59615623950958,2.60249733924866,6.80671548843384,9.72586441040039,10.7506484985352,10.1668844223022,-3.5314474105835,12.7347583770752,37.7733192443848,-3.0397322177887,-0.11504855751991,1.9222697019577,0.26205506920815,1.83864641189575,1.50947976112366,36.3391952514649,38.6352310180664,28.3425598144531,0.83797061443329,22.6371765136719,10.8744640350342,-6.59824800491333,-7.04619169235229,-7.12715196609497,12.7347583770752,6.8234748840332,-2.61446833610535,0.33449304103851,0.95767277479172,0.05432848632336,0.10918960720301,-1.41626906394959,-0.82131892442703,-15.4737253189087,-30.3297462463379,-28.5843734741211,3.78044438362122,-5.48032760620117,2.80600428581238,10.4758110046387,10.5711517333984,6.78413677215576,1.4484920501709,17.3675384521484,43.552921295166,0.48895639181137,1.12438666820526,2.32121133804321,0.47191214561462,1.34915745258331,1.27938258647919,44.9966278076172,38.6998748779297,27.5644435882568,10.223240852356,12.8975648880005,8.25999546051025,SHAKE
10.4758110046387,10.5711517333984,6.78413677215576,1.4484920501709,17.3675384521484,43.552921295166,0.48895639181137,1.12438666820526,2.32121133804321,0.47191214561462,1.34915745258331,1.27938258647919,44.9966278076172,38.6998748779297,27.5644435882568,10.223240852356,12.8975648880005,8.25999546051025,-6.74312400817871,-7.1489896774292,-7.34553098678589,8.78193187713623,5.28400325775146,0.74220252037048,1.57925450801849,0.32916671037674,-1.79443800449371,0.30945932865143,-1.99204456806183,-1.63518095016479,-21.7800521850586,-26.3434009552002,-26.0225791931152,0.75177931785583,-8.56884765625,-1.99676418304443,11.4100475311279,11.5416078567505,8.59135818481445,-7.15626907348633,27.9379386901855,45.7053108215332,1.46580386161804,1.47645652294159,1.85995173454285,0.60240703821182,1.22558677196503,0.64555025100708,43.6415100097656,32.1182174682617,21.2030506134033,7.96072053909302,10.3405570983887,2.63122773170471,-6.33725833892822,-7.00198316574097,-7.22888469696045,12.9837560653687,10.8050327301025,-3.91451978683472,0.67591029405594,1.59949457645416,3.09512591362,-0.07456851005554,0.09853696078062,1.25807726383209,-27.9858245849609,-30.3776302337646,-30.4087562561035,5.6335563659668,11.7866554260254,12.7730665206909,11.2097778320313,11.1016530990601,5.83232307434082,-13.254301071167,28.6418342590332,45.1283073425293,-1.99204456806183,-0.22796659171581,0.87404948472977,1.17232358455658,1.09615707397461,0.35899412631989,40.3351173400879,43.4332122802734,38.8507118225098,0.74459671974182,7.86016416549683,0.13168109953403,SHAKE
8.03315925598145,6.8885326385498,5.14735794067383,25.273193359375,19.1344604492188,28.0791969299316,0.15819177031517,-0.69188928604126,-2.07353734970093,-0.2290318608284,-0.82238417863846,-1.35182058811188,39.7030448913574,39.7030448913574,19.9532775878906,-6.31350994110107,-6.31350994110107,-7.57046556472778,-5.88824939727783,-6.18705606460571,-6.30050659179688,10.0939540863037,8.54730033874512,8.54730033874512,-3.08820176124573,-3.29166722297669,-0.91559481620789,-1.54569876194,-1.52332818508148,-0.37017938494682,-17.2454357147217,-27.7464027404785,-30.3465061187744,-0.18435353040695,7.2304892539978,22.3259315490723,9.11813068389893,9.41161155700684,8.07523727416992,-6.56729507446289,16.9341888427734,24.835054397583,1.03543710708618,0.19228023290634,0.05379585549235,1.12971293926239,0.54168695211411,0.24288029968739,38.6256561279297,42.7963562011719,37.6368522644043,-8.4132251739502,-4.69263553619385,-1.44609785079956,-4.08955001831055,-5.34709501266479,-5.17452192306519,16.7618064880371,13.7259578704834,1.91775560379028,-3.39659571647644,-2.20989108085632,2.95078253746033,0.60986387729645,0.06338323652744,0.10120012611151,-6.91924285888672,-18.7681465148926,-20.3626861572266,5.24330186843872,4.43645572662354,18.0642509460449,8.00759315490723,6.53166913986206,4.58489799499512,-39.5881233215332,30.0280780792236,18.8375797271729,0.29614353179932,-0.78403460979462,-1.52492606639862,0.19707392156124,-0.29507824778557,-0.77338200807571,36.57861328125,32.5802955627441,23.9084987640381,-8.25999546051025,-5.5138463973999,-4.40772533416748,SHAKE
-0.17097494006157,-1.08497190475464,-2.38086605072021,14.0276279449463,11.5592060089111,14.563928604126,-0.99069595336914,-1.66287779808044,-1.85249483585358,0.07723167538643,0.06231797114015,0.53263223171234,19.519926071167,14.3987293243408,9.91678333282471,-3.0550012588501,-0.63685762882233,1.74776721000671,-4.28183031082153,-4.46186017990112,-4.14867258071899,3.33512306213379,3.4811692237854,-4.12999773025513,-0.09693906456232,-0.36645096540451,1.16007304191589,-0.14860439300537,-0.80747044086456,0.13795174658298,-10.5320930480957,-13.5655469894409,-11.8824234008789,0.45729252696037,-0.42377370595932,3.05021286010742,7.3764238357544,5.36893272399902,5.07758283615112,-4.24013137817383,15.9046821594238,18.1169242858887,-1.48923969268799,-1.07218861579895,0.36538571119308,0.61465758085251,0.96193379163742,0.30839407444,40.5194702148438,37.4285545349121,18.7681465148926,3.29442143440247,3.06218385696411,0.56024318933487,-6.56575727462769,-6.72075366973877,-6.11941146850586,13.0531873703003,9.31344413757324,1.20188927650452,-1.99737083911896,0.46179214119911,3.25491547584534,-0.15606124699116,-0.6934871673584,-2.0250678062439,-23.3267078399658,-29.3074226379395,-29.3792495727539,3.42131423950195,12.8137674331665,10.0700120925903,8.5833683013916,10.2265386581421,8.963134765625,-16.4337997436523,18.2964897155762,25.5868339538574,-2.86236548423767,-0.64182186126709,-0.87511473894119,1.23517417907715,1.2069445848465,1.26340365409851,31.8740081787109,34.6177635192871,28.6011333465576,6.13873338699341,6.83544588088989,5.19541788101196,SHAKE
-3.13454055786133,4.05173349380493,9.97513675689697,-34.0144233703613,-45.5425033569336,-26.3984680175781,1.98512029647827,0.58483016490936,-1.39496386051178,0.51079428195953,-0.58429753780365,-0.29294773936272,-20.5901336669922,9.76355457305908,25.2923469543457,1.62087452411652,-7.63989782333374,-7.35738182067871,5.50368881225586,3.09832167625427,-4.1406831741333,33.7534561157227,28.4550876617432,30.3776302337646,2.41601967811584,2.50230622291565,1.26340365409851,-0.04154531285167,0.36059200763702,-0.22477079927921,14.5280160903931,6.49786329269409,-7.55610036849976,8.95192050933838,2.83952331542969,-2.95923328399658,-8.53117084503174,-9.36367416381836,-4.63390016555786,6.94079065322876,1.70467162132263,-34.4860801696777,1.99204456806183,3.80459189414978,2.85011506080627,0.8841695189476,1.2197277545929,1.52279555797577,-22.3211421966553,-25.7783699035645,-26.4774761199951,20.3339557647705,4.96557426452637,-6.74207210540771,13.8878526687622,7.08454132080078,5.55428886413574,-7.35738182067871,27.9786415100098,30.6194458007813,0.21891184151173,1.54889452457428,1.00667488574982,0.97684752941132,0.20719394087791,1.00081598758698,34.3328514099121,28.2898864746094,10.0388879776001,24.6602783203125,11.6214551925659,2.25294375419617,-7.13407611846924,-7.65072917938232,-8.22171115875244,12.7658834457397,10.6015253067017,7.19936466217041,1.19682466983795,1.14143085479736,1.57339560985565,-1.17019295692444,-2.12999629974365,-0.79362201690674,-21.3275489807129,-30.3824195861816,-25.1199645996094,-0.34237083792686,0.82839381694794,7.0126166343689,SHAKE
8.77671432495117,6.89385890960693,4.93164157867432,38.3000450134277,31.5124835968018,32.1301879882813,-1.36779952049255,2.8378643989563,2.20243430137634,1.15368139743805,0.09906959533691,-0.15393070876598,39.8562774658203,23.9132862091064,13.1513500213623,25.2181262969971,4.13239192962646,-2.2553379535675,-7.6288914680481,-7.68375253677368,-7.85632514953613,12.3277444839478,9.21288776397705,5.78439140319824,-1.04928553104401,-1.45568382740021,-2.80111289024353,-0.26152241230011,-0.99655491113663,0.13262543082237,-17.6739978790283,-31.1270160675049,-37.9409141540527,-1.57059633731842,-4.25689077377319,-5.63116216659546,8.6179895401001,14.9866733551025,17.4415740966797,-56.9724235534668,-27.8613243103027,5.54736518859863,0.44155210256577,-7.21716690063477,-1.60588622093201,-0.23435817658901,0.34940674901009,-1.15208351612091,-10.2016935348511,28.1007461547852,31.5244541168213,-27.5596561431885,22.9627876281738,41.0102806091309,-0.17789916694164,-7.71837377548218,-8.14714241027832,44.5944023132324,21.2317810058594,14.0036859512329,2.57101583480835,1.39496386051178,-0.70840084552765,-0.76699042320251,-1.35075533390045,-2.4911208152771,-2.30082774162292,-9.86889934539795,-24.4639530181885,-4.01986455917358,-5.32709884643555,-3.30160403251648,-7.33221530914307,-3.18141222000122,5.47812223434448,-10.251971244812,-36.0111885070801,-53.1009979248047,3.98195862770081,2.59764742851257,-2.84319090843201,0.33555829524994,0.3179814517498,2.1321268081665,-27.8493537902832,-16.1704387664795,13.5511817932129,8.47786808013916,-17.7793426513672,-29.2020778656006,SHAKE
7.29226779937744,5.08823585510254,1.31932997703552,44.979866027832,29.2212314605713,31.1820831298828,0.73503249883652,0.93423694372177,1.04182863235474,0.3755057156086,-0.01012001186609,-0.21411815285683,31.7495079040527,21.4137401580811,12.1481790542603,9.67018032073975,6.11239671707153,3.76607918739319,-6.91090297698975,-7.60332489013672,-7.88615274429321,10.237606048584,8.21450614929199,-6.44040250778198,1.28151309490204,1.54676401615143,0.4708468914032,-1.18297612667084,2.20722794532776,2.48366403579712,-21.492748260498,-23.3003711700439,-26.4583225250244,7.19697046279907,4.21379518508911,-1.65678763389587,14.0343265533447,8.09814071655273,4.82085418701172,30.4087562561035,48.6382064819336,32.9968872070313,-0.3946804702282,0.73556512594223,2.53799247741699,2.04211187362671,1.1345067024231,-0.37976679205894,38.1396331787109,31.8404884338379,21.3203659057617,11.7890491485596,12.2511301040649,9.10993766784668,-7.9287633895874,-8.76393032073975,-8.8480863571167,17.0108032226563,11.4155540466309,5.69820022583008,-0.87245160341263,-1.7209347486496,-2.16408467292786,-1.42532384395599,-1.29909002780914,-1.99577295780182,-12.1697273254395,-22.6132354736328,-28.368896484375,-3.99352836608887,-1.1372457742691,4.76924991607666,-2.29351449012756,4.08955001831055,9.80575942993164,-30.5619850158691,-40.3446922302246,-27.4950122833252,4.70420789718628,2.62534427642822,-1.92653071880341,2.33665752410889,1.33051526546478,1.5840482711792,-25.1558780670166,-15.0738935470581,9.30147361755371,0.19153612852097,-18.2007217407227,-20.5661926269531,SHAKE
13.2524223327637,12.1892881393433,7.86165189743042,-3.73016619682312,30.6122627258301,41.1970291137695,-3.47808837890625,-1.83438539505005,-0.10279802232981,2.3116238117218,2.23652267456055,0.82664519548416,29.1589832305908,36.3391952514649,37.3758811950684,3.71340680122375,12.8041906356812,8.38928318023682,-6.38626050949097,-7.34286785125732,-7.59533548355103,21.0570030212402,14.1784620285034,14.1784620285034,-0.94382429122925,-0.83783048391342,-1.45515120029449,-1.14675724506378,-2.09430980682373,-1.93824863433838,-10.4578733444214,-19.8048362731934,-22.8263187408447,1.75255560874939,0.60812723636627,3.74692559242249,-0.19867181777954,12.8529481887817,14.1845293045044,-37.4094009399414,-17.8487739562988,21.2557220458984,3.55425477027893,-2.48153352737427,0.10226538777351,0.2306297570467,3.69167399406433,1.20747721195221,-7.78833818435669,34.8595771789551,37.6320610046387,-25.2229156494141,8.40125370025635,8.15704536437988,-2.12733316421509,-5.33377933502197,-7.24273300170898,33.7989463806152,27.4112148284912,20.9396877288818,-2.46395659446716,-2.87781190872192,-2.40323662757874,-0.43356263637543,-0.372309923172,-0.17736652493477,-1.43412685394287,-6.65348672866821,-9.9000244140625,-2.78445649147034,0.16041150689125,2.64080452919006,-6.87788009643555,-4.31432104110718,0.74888092279434,-0.10773907601833,-7.57285976409912,-39.1858978271484,3.25385022163391,3.97876262664795,0.91879057884216,1.70122730731964,1.98831605911255,0.67697554826736,-19.0243263244629,-23.3482551574707,-14.0491752624512,13.5152683258057,2.69108271598816,-14.3508453369141,SHAKE
-8.98071193695068,-9.02864933013916,-5.07225656509399,5.82030439376831,-8.45871448516846,-36.1428680419922,5.95802402496338,5.77692937850952,4.18542385101318,1.61174511909485,2.35103869438171,1.62399566173553,-24.1574954986572,-27.0042018890381,-27.0042018890381,10.6230726242065,-0.6033388376236,-0.6033388376236,5.01100397109985,3.47489261627197,0.66845345497131,28.117504119873,25.3306541442871,28.9722347259521,-2.01867604255676,-2.15556263923645,-1.58245038986206,-1.55155766010284,-1.60375559329987,-1.49722921848297,40.023868560791,20.8654670715332,0.07900865375996,0.03830722719431,3.21541285514832,6.48110389709473,-8.19081878662109,-7.06643199920654,-4.30473375320435,4.99430465698242,2.11886858940125,-23.2620639801025,1.62932193279266,4.57158231735229,5.81794166564941,1.05567705631256,2.18219423294067,1.39176797866821,-24.9164562225342,-28.4670581817627,-31.6920471191406,23.5134544372559,16.6827983856201,4.98472785949707,10.1365242004395,6.09597587585449,5.23843812942505,45.2168922424316,32.4462203979492,19.6180896759033,-0.78723043203354,-2.12253952026367,-2.52787256240845,-0.3211772441864,-0.81332939863205,-0.51505535840988,40.3111724853516,32.5970573425293,20.9325046539307,4.19464159011841,-4.2066125869751,2.68629431724548,-6.34684562683105,-6.82621479034424,-7.05418109893799,11.9997386932373,9.89044761657715,3.57214903831482,-1.92013919353485,-2.2695460319519,2.07087421417236,-1.78218746185303,-0.4580637216568,2.7015106678009,-14.5399866104126,-19.6803379058838,-14.6956100463867,3.12682747840881,8.77235507965088,20.0538330078125,SHAKE
5.23843812942505,3.43228197097778,-3.771568775177,19.6180896759033,26.4295921325684,28.3401660919189,-2.52787256240845,-2.00429511070251,-1.42905223369598,-0.51505535840988,-0.60293966531754,-1.04822027683258,20.9325046539307,12.1912746429443,5.04458284378052,2.68629431724548,5.49229860305786,4.64475107192993,-7.05418109893799,-6.71702480316162,-5.44030570983887,3.57214903831482,1.72382521629334,-8.62152004241943,2.07087421417236,4.25253582000732,5.12818288803101,2.7015106678009,1.83172225952148,0.78882831335068,-14.6956100463867,-18.1312885284424,-19.3068428039551,20.0538330078125,10.5392761230469,1.88423669338226,9.32106399536133,5.49090576171875,3.80832052230835,21.9548301696777,11.2000751495361,31.6417694091797,-1.64530098438263,-2.42933559417725,-1.98245716094971,0.25619611144066,0.67111659049988,0.35420042276382,36.2865219116211,30.2411613464355,30.2411613464355,-6.46195030212402,1.70706582069397,1.70706582069397,-6.69891548156738,-6.64618492126465,-6.09331274032593,12.131420135498,6.59123706817627,2.46123933792114,-0.8303736448288,-1.793905377388,-2.226402759552,-0.27909928560257,-0.37763625383377,0.20506340265274,-5.60961437225342,-10.3908357620239,-12.6150484085083,-0.41419690847397,-0.28730419278145,2.76530289649963,-3.61817073822021,2.6839337348938,6.5108962059021,-12.7156047821045,-21.7968120574951,-18.1695976257324,3.01682901382446,1.57872188091278,0.10492854565382,1.76620841026306,-0.83356940746307,-0.37337517738342,-15.2319116592407,-9.74200630187988,-1.11090958118439,2.14999318122864,-9.14824485778809,-6.35899972915649,SHAKE
-6.69891548156738,-6.64618492126465,-6.09331274032593,12.131420135498,6.59123706817627,2.46123933792114,-0.8303736448288,-1.793905377388,-2.226402759552,-0.27909928560257,-0.37763625383377,0.20506340265274,-5.60961437225342,-10.3908357620239,-12.6150484085083,-0.41419690847397,-0.28730419278145,2.76530289649963,-3.61817073822021,2.6839337348938,6.5108962059021,-12.7156047821045,-21.7968120574951,-18.1695976257324,3.01682901382446,1.57872188091278,0.10492854565382,1.76620841026306,-0.83356940746307,-0.37337517738342,-15.2319116592407,-9.74200630187988,-1.11090958118439,2.14999318122864,-9.14824485778809,-6.35899972915649,6.4001088142395,6.86882543563843,5.31140851974487,13.8265151977539,16.5774517059326,30.0855388641357,-2.70257592201233,-3.80512452125549,-3.04346060752869,0.49161955714226,1.21386885643005,1.10201609134674,35.3336296081543,24.5022602081299,15.9382009506226,-12.294225692749,2.89458990097046,10.3860473632813,-7.12395620346069,-7.8035945892334,-8.06458473205566,17.2334632873535,13.0029096603394,8.95431423187256,1.1941614151001,0.62477761507034,-1.70708632469177,-0.3467435836792,-0.25033715367317,-0.25406557321548,-6.04296493530273,-6.04296493530273,-13.8289089202881,1.24019646644592,1.24019646644592,-1.83874690532684,-3.73801302909851,-0.61625546216965,3.72576236724854,-10.9151659011841,-21.7273807525635,-25.543737411499,2.72601175308228,4.41445589065552,4.64082479476929,1.60908198356628,0.66099661588669,-1.24795734882355,-18.8998279571533,-22.2756519317627,-19.0913639068604,12.3684463500977,6.88093566894531,-7.99184513092041,SHAKE
-7.12395620346069,-7.8035945892334,-8.06458473205566,17.2334632873535,13.0029096603394,8.95431423187256,1.1941614151001,0.62477761507034,-1.70708632469177,-0.3467435836792,-0.25033715367317,-0.25406557321548,-6.04296493530273,-6.04296493530273,-13.8289089202881,1.24019646644592,1.24019646644592,-1.83874690532684,-3.73801302909851,-0.61625546216965,3.72576236724854,-10.9151659011841,-21.7273807525635,-25.543737411499,2.72601175308228,4.41445589065552,4.64082479476929,1.60908198356628,0.66099661588669,-1.24795734882355,-18.8998279571533,-22.2756519317627,-19.0913639068604,12.3684463500977,6.88093566894531,-7.99184513092041,8.36925029754639,9.24116897583008,5.137770652771,21.7968120574951,19.2206516265869,32.7191619873047,1.07644975185394,0.40799629688263,0.82664519548416,-0.35420042276382,0.30892670154572,-0.55287224054337,27.1933422088623,28.6083164215088,24.6698551177979,1.8171991109848,1.34554135799408,4.30956315994263,-4.79582071304321,-5.71620893478394,-6.17746877670288,26.0034255981445,20.2429752349854,15.4138708114624,-0.30945932865143,-0.46445530653,-0.55606806278229,-0.33182987570763,-0.49055427312851,-0.42024683952332,4.85065269470215,1.24977326393127,-1.68551802635193,-1.74537301063538,-0.62728083133698,-0.59376204013824,-5.71407842636108,-4.73669862747192,-4.45813179016113,1.01514148712158,-1.40300214290619,-1.30005156993866,-0.27856665849686,1.22185838222504,1.7209347486496,1.03383910655975,1.23410892486572,0.62744075059891,-10.9175596237183,-13.2950019836426,-14.6525144577026,7.08923101425171,4.9296612739563,4.15872812271118,SHAKE
-6.86509656906128,-6.8144965171814,-5.71407842636108,10.1274728775024,6.41167211532593,1.01514148712158,-0.90600740909576,-0.87298423051834,-0.27856665849686,0.01917476020753,-0.06657902896404,1.03383910655975,-8.02297019958496,-11.0085391998291,-10.9175596237183,0.9528923034668,0.3208230137825,7.08923101425171,3.78914570808411,6.54072380065918,11.1650371551514,-16.8192672729492,-13.1274080276489,-0.49320554733276,1.43224811553955,0.17843179404736,-2.0804615020752,0.40746363997459,0.75740301609039,1.50468599796295,-18.0043964385986,-14.8129262924194,-5.89931297302246,-3.09570288658142,-6.07169532775879,-11.32457447052,8.04008388519287,5.10527992248535,3.62935590744019,34.8428192138672,28.6250762939453,31.464599609375,1.14249610900879,1.68844413757324,1.33211314678192,-1.38005006313324,-1.12704980373383,-0.76113146543503,19.4840126037598,21.2293872833252,20.779275894165,11.0683946609497,8.01099872589111,0.38067805767059,-3.53508019447327,-4.41924953460693,-6.04271268844604,26.2236919403076,25.4527587890625,27.0975742340088,0.61305969953537,1.30228579044342,2.04317712783813,0.73130404949188,1.06952548027039,0.6998787522316,8.92079544067383,3.74692559242249,-2.87064790725708,8.18816947937012,6.85699367523193,5.05415964126587,-9.77220344543457,-9.24969100952148,-8.40280628204346,9.75637149810791,4.58729028701782,0.18195933103561,2.01867604255676,1.74010944366455,0.72065138816833,0.6295713186264,-0.16511599719524,-2.34358191490173,-11.743558883667,-11.2790842056274,-12.8544692993164,-2.59770894050598,-4.20900678634644,-4.97275686264038,SHAKE
-9.24969100952148,-8.40280628204346,-7.13727188110352,4.58729028701782,0.18195933103561,-3.92409658432007,1.74010944366455,0.72065138816833,-0.08468852192163,-0.16511599719524,-2.34358191490173,-2.32973337173462,-11.2790842056274,-12.8544692993164,-13.4506254196167,-4.20900678634644,-4.97275686264038,-4.3454761505127,-0.67910611629486,1.14356136322021,3.05571103096008,-9.37808799743652,-11.063606262207,-10.8002443313599,-0.77657777070999,0.21252025663853,1.71614098548889,-1.15527927875519,-0.70413982868195,-0.51558798551559,-14.5495634078979,-16.2015628814697,-17.7266693115234,5.03261184692383,6.20577096939087,1.45088624954224,11.4830179214478,12.8348388671875,11.1581125259399,6.67982292175293,18.3515567779541,32.6353645324707,-0.88310420513153,-0.1368864774704,-0.84581995010376,-2.40004086494446,-1.9691413640976,-0.5374259352684,10.3190097808838,10.3190097808838,22.8215312957764,9.84495735168457,9.84495735168457,10.0676183700562,0.69881349802017,-1.1558119058609,-3.29912400245667,33.2554626464844,32.7071876525879,25.3258647918701,-0.66206187009811,-0.71159666776657,2.06714558601379,0.51718586683273,1.81840646266937,1.41254067420959,14.4083061218262,14.4083061218262,-0.62009823322296,0.46208092570305,0.46208092570305,4.64953947067261,-8.67018699645996,-8.94289493560791,-8.93543815612793,22.8646259307861,18.3587379455566,13.5009031295776,0.78137147426605,1.00134861469269,1.05194866657257,1.49243545532227,0.96939063072205,0.60613548755646,-9.16500377655029,-10.1849336624146,-10.1849336624146,-1.17315888404846,-1.60172092914581,-1.60172092914581,SHAKE
-6.36548757553101,-5.6592173576355,-3.46424007415771,1.32399356365204,1.32399356365204,-6.03099393844604,-0.58376491069794,-0.29081720113754,0.84901577234268,-1.53025233745575,-0.864994764328,-0.48842376470566,-14.867992401123,-14.5351982116699,-15.0691051483154,-3.87381839752197,5.13556241989136,4.66390514373779,4.89648818969727,6.55457210540771,7.95166635513306,-9.0668420791626,-4.56574249267578,-0.02394201606512,0.42344263195992,0.51771855354309,-0.35899412631989,0.45433530211449,0.04101268202066,-0.09214537590742,-15.7849721908569,-16.237476348877,-13.9462251663208,-0.68234747648239,-2.93768548965454,-7.54412937164307,11.4388093948364,9.75249576568604,8.62704372406006,25.5724678039551,31.8716125488281,30.2842578887939,-1.30654680728912,-3.46583795547485,-1.69696629047394,-0.38669100403786,0.37816888093948,-0.75473988056183,14.1090307235718,16.3404273986816,16.3404273986816,-14.7794075012207,1.85071790218353,1.85071790218353,-0.24607609212399,-2.13478994369507,-3.18727135658264,38.7046661376953,30.9809703826904,28.7471790313721,2.42187881469727,1.85995173454285,1.11160349845886,-1.02212119102478,-1.40188801288605,-1.21014046669006,19.8192024230957,13.8169384002686,9.91199493408203,-3.14598107337952,-3.49314022064209,-3.06218385696411,-6.84485673904419,-7.06110525131226,-7.44193744659424,24.7297096252441,25.2588272094727,22.0218677520752,-0.71106404066086,0.03355583176017,0.68017137050629,1.23144567012787,1.13184344768524,1.05194866657257,-3.73256039619446,-5.72453641891479,-7.84819316864014,3.08133769035339,2.03746557235718,1.08696758747101,SHAKE
-3.88182377815247,-3.04718899726868,-1.93132448196411,-3.33751726150513,-2.80600428581238,-3.7349545955658,-1.78698110580444,-1.53344821929932,0.4580637216568,-0.48735848069191,-0.40373522043228,-0.35526570677757,-15.2055749893188,-15.3635921478271,-14.9757318496704,0.32800564169884,2.53067111968994,4.71418333053589,6.70530700683594,7.66084957122803,8.80387783050537,-3.08373188972473,0.5746083855629,2.56418991088867,1.08390653133392,0.5054680109024,-0.72278195619583,-0.85008102655411,-0.31691616773605,0.00266316113994,-15.4162645339966,-10.5009689331055,-0.56503158807755,-1.6136919260025,-7.9343843460083,-5.46356821060181,9.13038158416748,7.45045948028564,5.62406349182129,33.1860313415527,36.1692047119141,52.5144195556641,-1.1515508890152,-0.65886604785919,-0.07403588294983,-0.17257283627987,0.66365975141525,1.54143762588501,35.235466003418,35.8004989624023,35.8004989624023,1.9632453918457,8.31745624542236,8.31745624542236,-4.81659317016602,-5.55854988098145,-6.55616998672485,27.7487983703613,30.4303035736084,30.4303035736084,-0.01438106968999,0.41545313596725,0.69295454025269,1.70175993442535,1.14143085479736,0.57897120714188,1.45567464828491,-4.83628749847412,-10.1538095474243,-1.83156430721283,-1.38145434856415,-2.06859016418457,-9.15807819366455,-8.42997074127197,-7.42649126052856,10.2136640548706,5.38216543197632,0.60812723636627,0.56512278318405,0.60027652978897,0.30679616332054,0.02343581803143,-0.496413230896,-0.3147856593132,-11.2886610031128,-12.2247934341431,-12.2247934341431,-1.6448165178299,-1.91296720504761,-1.91296720504761,SHAKE
-5.28530979156494,-4.75427532196045,-3.91910791397095,-1.35751235485077,-1.35751235485077,-6.88572406768799,-0.50120693445206,-0.29188245534897,-0.07084008306265,-0.38136467337608,-1.27032780647278,-1.0317085981369,-14.8129262924194,-15.4809083938599,-15.2678241729736,-4.32153415679932,-1.10133278369904,0.27054479718208,5.67945766448975,7.42702388763428,8.42144775390625,-10.8912239074707,-5.10443782806396,1.3407529592514,0.05858954414725,-0.25513082742691,-1.06739497184753,-1.32625424861908,-0.4612595140934,-0.03408846259117,-13.9294652938843,-12.0715646743774,-9.11711978912354,-2.44447994232178,-3.48356342315674,-2.55700731277466,11.0553140640259,9.14742565155029,8.50400638580322,28.2252445220947,37.9528846740723,31.3448886871338,-2.78726434707642,-3.63468241691589,-1.64157247543335,-1.0956244468689,0.20559604465961,2.17793321609497,23.8606147766113,23.8606147766113,25.8262538909912,-0.12928688526154,-0.12928688526154,15.7586355209351,-3.31350517272949,-5.03124380111694,-5.67839241027832,36.2745513916016,32.3360862731934,29.7671089172363,2.32600498199463,0.69774824380875,0.66738820075989,1.9691413640976,1.95689082145691,2.28232908248901,9.81622695922852,-1.41497325897217,-6.54095888137817,0.73501992225647,-2.61446833610535,-0.33279404044151,-9.7919111251831,-9.35781574249268,-7.9575252532959,18.0594635009766,12.8640460968018,5.61919116973877,1.32838475704193,1.08603715896606,1.04662227630615,1.05354654788971,1.15687716007233,-0.17896443605423,-12.7778549194336,-13.2566947937012,-13.3740110397339,-3.25132584571838,-3.4308910369873,-1.55144274234772,SHAKE
-6.39478254318237,-4.75747108459473,-3.94467425346375,0.18914192914963,-5.28160905838013,-5.48990440368652,1.52066504955292,0.51132690906525,-0.17097494006157,-1.82959175109863,-0.27270770072937,-0.42237734794617,-15.6149835586548,-16.4337997436523,-15.7107515335083,-1.17076468467712,-2.13562798500061,0.11492168158293,6.47041606903076,8.10027122497559,9.8451738357544,-9.51695156097412,-4.07493114471436,7.14908647537231,-0.77018618583679,-0.57044911384583,0.29987195134163,0.45220476388931,0.16405072808266,-0.62051653862,-16.2494468688965,-16.5750579833984,-8.81305599212646,0.68474167585373,-0.07661445438862,3.73734879493713,8.36126041412354,6.39744567871094,5.34816026687622,36.8228225708008,38.8124046325684,33.6241683959961,-1.84130966663361,-2.70257592201233,-2.5475800037384,0.5438175201416,0.46072688698769,0.93050849437714,26.1422882080078,27.4375514984131,27.1287002563477,-9.51934623718262,-4.50588750839233,2.66953492164612,-3.51856851577759,-5.46161079406738,-6.4389910697937,31.2826385498047,31.2203903198242,31.9961109161377,-0.02290318533778,0.29294773936272,0.54115432500839,1.88125705718994,1.87060439586639,1.64902937412262,-1.79086291790009,-5.84424638748169,-8.30309104919434,-2.22900176048279,-2.4205379486084,-3.71819519996643,-8.47897243499756,-7.09412860870361,-5.73804712295532,9.77073669433594,3.1196448802948,-1.31681096553802,0.65833342075348,0.07243798673153,-0.52890378236771,0.48576059937477,-0.00798948295414,-0.25406557321548,-9.19373416900635,-8.84896945953369,-10.8529167175293,-0.85473001003265,-3.28723883628845,-2.49236392974854,SHAKE
-7.09412860870361,-5.73804712295532,-5.10474729537964,3.1196448802948,-1.31681096553802,-1.31681096553802,0.07243798673153,-0.52890378236771,-0.59015649557114,-0.00798948295414,-0.25406557321548,-0.52890378236771,-8.84896945953369,-10.8529167175293,-10.4602670669556,-3.28723883628845,-2.49236392974854,-1.45088624954224,3.46956634521484,6.58546495437622,7.69813346862793,-12.3253507614136,-7.06050062179565,-1.944091796875,0.88363689184189,0.2705771625042,0.07030745595694,-1.18990039825439,-0.89855057001114,0.73343455791473,-10.4291429519653,-6.80192708969116,-1.94888019561768,-3.26808524131775,-4.99430465698242,-1.02950668334961,8.4683198928833,7.20118761062622,6.24404764175415,17.3364143371582,31.4526271820068,31.4526271820068,0.96885800361633,0.12357068061829,-0.1336906850338,1.47752177715302,1.01359915733337,0.44155210256577,20.3267726898193,24.1048221588135,26.5588798522949,-7.55131196975708,-6.79474449157715,-5.35343503952026,-0.79948097467422,-2.21947860717773,-2.93959736824036,21.464017868042,20.592529296875,19.3379669189453,-0.64714813232422,-2.31109118461609,-2.87727928161621,-1.33264589309692,0.62690812349319,1.75342524051666,19.1464309692383,11.9662199020386,8.35815811157227,-1.87226569652557,-4.23055458068848,0.52672439813614,-6.8533787727356,-7.46217727661133,-7.71890640258789,22.6898498535156,17.9014453887939,13.431471824646,1.44503128528595,1.56753659248352,1.42692172527313,1.65275776386261,1.26233839988709,1.01572966575623,-5.54736518859863,-7.80270338058472,-8.75080680847168,-0.43574470281601,-2.78924489021301,-3.11485648155212,SHAKE
-3.60698533058167,-2.38086605072021,-0.82611256837845,-6.07169532775879,-11.1785278320313,-13.6206130981445,-0.38669100403786,-0.37390783429146,-0.15073491632938,-1.0231865644455,-0.54115432500839,-0.19174760580063,-13.977349281311,-13.7977848052979,-14.8751754760742,-1.08936178684235,0.21308395266533,0.98880529403687,9.5229320526123,9.31360721588135,8.58975982666016,3.56257224082947,3.56257224082947,14.5950536727905,1.27458894252777,3.50471997261047,3.32309246063232,0.62211441993713,-1.85622334480286,-1.22185838222504,0.27293899655342,11.9159421920776,15.1864213943481,0.33279404044151,-1.17315888404846,-5.09486103057861,5.99530839920044,4.84002923965454,3.59313702583313,16.1991691589355,24.5621147155762,25.0936279296875,-2.52094841003418,-3.01895952224731,-2.61842012405396,0.51878380775452,1.39656174182892,1.21280360221863,28.4933948516846,26.2476329803467,23.7361164093018,-5.32949304580688,-2.02070617675781,4.33350515365601,-4.29408121109009,-4.90660810470581,-5.08717060089111,23.3506488800049,20.3531093597412,19.5151386260986,-0.51345747709274,0.42184472084045,1.40561640262604,2.8852686882019,2.64079070091248,2.07140684127808,2.8467059135437,-0.69910687208176,-4.00071096420288,1.37666594982147,1.34554135799408,0.18914192914963,-6.65097856521606,-5.76095008850098,-4.74362277984619,5.18584108352661,-2.71023631095886,-7.3190746307373,0.03675162419677,-0.72331458330154,-1.33690690994263,0.8175904750824,-0.04314320906997,-0.42237734794617,-10.1514148712158,-9.79228496551514,-9.8401689529419,-7.15626907348633,-7.44596719741821,-1.52989482879639,SHAKE
-6.72501468658447,-6.65097856521606,-5.76095008850098,8.94234371185303,5.18584108352661,-2.71023631095886,0.80853569507599,0.03675162419677,-0.72331458330154,1.16699719429016,0.8175904750824,-0.04314320906997,-10.3716821670532,-10.1514148712158,-9.79228496551514,-7.57046556472778,-7.15626907348633,-7.44596719741821,-0.46605318784714,1.28896999359131,2.9321403503418,-11.6430025100708,-14.0060796737671,-9.82819843292236,-0.15233281254768,0.41012680530548,1.41307330131531,-1.13077819347382,-0.30360037088394,-0.38296258449554,-8.86812305450439,-7.62074422836304,-6.72531270980835,-2.17393517494202,3.6343982219696,1.86987149715424,7.84993362426758,8.2036018371582,6.87415170669556,6.01902294158936,6.86896467208862,28.3521366119385,-1.33637428283691,-2.73080539703369,-2.54811263084412,-0.54275226593018,0.38669100403786,0.21997711062431,25.2157325744629,29.2834815979004,29.8868198394775,-17.1951560974121,-4.62559747695923,2.06380176544189,-1.67086732387543,-3.90046572685242,-4.45333814620972,25.2444629669189,20.3100128173828,19.4935894012451,-0.81439465284348,0.38669100403786,1.40987753868103,2.15503001213074,1.86261487007141,1.20428144931793,11.9973449707031,3.665522813797,-0.33279404044151,1.55383694171906,2.95683908462524,1.6136919260025,-6.94712209701538,-6.69838285446167,-6.28026676177979,5.12359142303467,5.12359142303467,-1.31441676616669,0.21837921440601,-0.23489081859589,-0.55180698633194,-0.72384721040726,-0.56459015607834,-1.10627710819244,-9.73721790313721,-11.0731830596924,-10.3908357620239,-5.12837982177734,-4.60165548324585,-3.72298359870911,SHAKE
-6.28026676177979,-4.91299962997437,-4.0405478477478,-1.31441676616669,-6.11957931518555,-9.184157371521,-0.55180698633194,-0.57098174095154,-0.3595267534256,-1.10627710819244,-1.67246520519257,-1.76993691921234,-10.3908357620239,-10.5775833129883,-10.7092638015747,-3.72298359870911,-1.85311210155487,-1.35990655422211,2.82721185684204,6.06774616241455,7.89201164245605,-11.7627124786377,-9.5815954208374,-5.2672438621521,2.44957566261292,2.85437607765198,1.95316243171692,-2.07833099365234,-1.68737888336182,-0.44155210256577,-15.1624794006348,-12.7970085144043,-9.07163047790527,4.13239192962646,-3.03824186325073,-7.27358484268188,8.66752433776855,6.79851770401001,5.31620216369629,33.6169853210449,30.9450569152832,28.3760776519775,0.98430436849594,-1.44077014923096,-1.0189254283905,0.00319579336792,1.1941614151001,1.03383910655975,24.1431293487549,25.869348526001,24.667459487915,-5.70059442520142,-0.56742578744888,3.55538964271545,-3.48075151443481,-5.07918071746826,-7.00198316574097,30.7702808380127,30.2172203063965,20.6571731567383,1.38324594497681,2.42454195022583,2.23226165771484,2.56782007217407,1.5110776424408,1.32998263835907,4.25689077377319,-7.11317348480225,-9.13148498535156,5.73171901702881,-1.52510643005371,-3.30399823188782,-7.54100704193115,-6.85284614562988,-4.73616600036621,1.65678763389587,-2.54503631591797,-6.59123706817627,0.51718586683273,-0.31957933306694,-1.04875290393829,-0.48309743404388,-0.69934612512589,-0.65034395456314,-12.8257389068604,-11.3078145980835,-11.1689510345459,-6.41885471343994,-6.24647235870361,-4.49631071090698,SHAKE
-7.54100704193115,-6.85284614562988,-4.73616600036621,1.65678763389587,-2.54503631591797,-6.59123706817627,0.51718586683273,-0.31957933306694,-1.04875290393829,-0.48309743404388,-0.69934612512589,-0.65034395456314,-12.8257389068604,-11.3078145980835,-11.1689510345459,-6.41885471343994,-6.24647235870361,-4.49631071090698,1.8492990732193,3.51164436340332,5.74017763137817,-10.2447891235352,-11.374852180481,-12.6988458633423,0.30892670154572,0.53369748592377,1.85569071769714,-0.8884305357933,-1.01839280128479,-1.92120444774628,-13.7594776153564,-16.6397018432617,-16.3284549713135,1.6136919260025,-0.641646027565,-0.38786068558693,8.82891178131104,8.57058525085449,7.31996488571167,22.6970329284668,27.0089893341064,36.5379104614258,2.70470643043518,2.11401724815369,0.50706589221954,-2.10602784156799,-0.27324032783508,0.78403460979462,18.2605762481689,24.5621147155762,26.5253601074219,3.23935484886169,-4.86501789093018,-8.21450614929199,-1.25861001014709,-2.69245600700378,-3.42908620834351,28.1462345123291,24.5908451080322,22.3833923339844,-0.41545313596725,-1.51693654060364,-0.81226414442062,0.836765229702,2.52627468109131,3.02694892883301,14.6692733764648,7.5465235710144,4.30956315994263,2.45645093917847,2.92092609405518,5.75805521011353,-7.26244020462036,-7.81584548950195,-7.42009973526001,13.7475061416626,5.84185218811035,1.58256733417511,2.18006372451782,0.29081720113754,-0.32650354504585,0.88683265447617,1.02371919155121,0.69508504867554,-8.66222190856934,-8.42759037017822,-8.45871448516846,-6.13633918762207,-6.16746377944946,-5.14035081863403,SHAKE
-7.42009973526001,-6.65577220916748,-4.41498851776123,1.58256733417511,-1.7980455160141,-6.65827512741089,-0.32650354504585,-0.74515247344971,-1.03330647945404,0.69508504867554,0.49055427312851,0.60666811466217,-8.45871448516846,-9.78270816802978,-11.0157222747803,-5.14035081863403,-4.57771348953247,-4.26167917251587,1.28683948516846,3.59846329689026,5.92819690704346,-13.9821376800537,-13.9988975524902,-11.5855417251587,-2.33559226989746,-2.24131631851196,-1.79923164844513,-0.40639838576317,-0.71319454908371,-0.64555025100708,-16.1704387664795,-15.8544034957886,-10.3190097808838,-0.05985504388809,1.00317049026489,2.19069457054138,8.82571601867676,9.03237724304199,9.11386966705322,24.5453567504883,20.9779949188232,31.1653232574463,-1.57872188091278,0.42823630571365,1.42798697948456,-1.0748518705368,-1.08550453186035,-0.8713863492012,18.1983280181885,22.9484233856201,24.1407356262207,15.8448266983032,15.8831338882446,11.1067018508911,-0.33129724860191,-3.83708262443542,-4.4096622467041,32.5276260375977,23.9731407165527,21.7896289825439,-0.46392267942429,-0.06764429062605,0.77870833873749,2.5774073600769,2.91030240058899,2.58326625823975,6.13633918762207,2.12126278877258,-1.36948335170746,6.24168395996094,6.16267538070679,6.35899972915649,-7.07069301605225,-6.98600435256958,-6.5455174446106,9.99100399017334,8.31266784667969,1.94888019561768,2.98220777511597,2.25676274299622,1.62772405147552,0.75580513477325,0.78936094045639,0.90867060422897,-10.5847654342651,-10.7906675338745,-9.85692882537842,-4.16830539703369,-5.86818838119507,-5.16429328918457,SHAKE
-7.08400869369507,-7.07069301605225,-6.98600435256958,12.7802486419678,9.99100399017334,8.31266784667969,3.34066939353943,2.98220777511597,2.25676274299622,1.13397395610809,0.75580513477325,0.78936094045639,-9.61271953582764,-10.5847654342651,-10.7906675338745,-1.86508309841156,-4.16830539703369,-5.86818838119507,-3.75186133384705,-2.39151859283447,2.31695008277893,-11.3006324768066,-12.1745157241821,-22.7951946258545,-3.40991163253784,-3.88075852394104,-3.28261232376099,0.71053141355515,-0.04367584362626,-0.21198762953281,-15.2343053817749,-16.6373081207275,-13.7355356216431,-4.44842672348022,0.67995327711105,7.96790313720703,8.95408058166504,7.60598802566528,6.59025859832764,22.3905735015869,26.6067638397217,25.953145980835,3.00990462303162,4.49914455413818,3.52975368499756,0.30040457844734,-0.77178412675858,-0.97684752941132,30.7295780181885,32.5372009277344,30.6888771057129,14.1210012435913,3.20344185829163,-9.62947940826416,-3.81258153915405,-5.42379379272461,-6.5375280380249,25.9507522583008,22.0194721221924,18.4066219329834,-3.0871365070343,-1.84610331058502,1.11000561714172,1.76567578315735,2.21415209770203,1.34383106231689,2.34871196746826,-3.2968156337738,-12.9598140716553,6.05014753341675,7.99184513092041,2.79163908958435,-5.1462926864624,-2.42933559417725,2.90444350242615,-3.21780705451965,-25.1343288421631,-25.1343288421631,-1.62612617015839,-1.21227097511292,-1.26446890830994,-0.59761333465576,-1.03703498840332,0.05858954414725,-19.5342922210693,-8.10197830200195,9.68215179443359,-1.67594122886658,5.18584108352661,7.66144561767578,SHAKE
0.3467435836792,-1.84450542926788,-3.81258153915405,32.5994491577148,28.206090927124,25.9507522583008,-2.00109934806824,-3.26982927322388,-3.0871365070343,0.09001484513283,0.85114628076553,1.76567578315735,17.5279502868652,9.3828763961792,2.34871196746826,-8.39407157897949,-0.428562104702,6.05014753341675,-7.47975444793701,-6.07946443557739,-5.1462926864624,9.39963626861572,-3.21780705451965,-3.21780705451965,0.66472500562668,-0.08948221802711,-1.62612617015839,0.62637549638748,1.16007304191589,-0.59761333465576,-22.2493171691895,-22.2493171691895,-19.5342922210693,-5.50187540054321,-5.50187540054321,-1.67594122886658,7.850998878479,7.73222208023071,7.23421096801758,20.9349002838135,15.6963863372803,32.0320243835449,2.59711480140686,2.94332575798035,1.00347912311554,0.30306774377823,-0.52517539262772,-0.89269161224365,44.522575378418,34.1484985351563,21.1120700836182,11.7722902297974,-0.83797061443329,-8.95192050933838,-7.82276964187622,-8.31598663330078,-7.979896068573,20.4536647796631,13.5847005844116,4.28801536560059,-0.4388889670372,0.25353294610977,0.07084008306265,1.47539126873016,1.34436368942261,0.54541540145874,-25.6155643463135,-31.184476852417,-30.3560829162598,5.216965675354,-0.83557641506195,-4.51067590713501,10.325608253479,8.59615135192871,7.75352716445923,6.82826328277588,22.857442855835,22.2086143493652,-1.02798020839691,3.28847146034241,3.35078930854797,-0.10279802232981,-0.19281286001205,-1.03224122524261,29.2595386505127,40.6774864196777,31.0934982299805,18.2318458557129,10.9582614898682,-2.11647439002991,SHAKE
8.59615135192871,7.75352716445923,5.91860914230347,22.857442855835,22.2086143493652,37.5865707397461,3.28847146034241,3.35078930854797,1.01519703865051,-0.19281286001205,-1.03224122524261,-1.03383910655975,40.6774864196777,31.0934982299805,19.7737121582031,10.9582614898682,-2.11647439002991,-11.0324811935425,-7.48614597320557,-7.93462228775024,-7.93515491485596,16.9701023101807,11.6932811737061,4.41251373291016,-0.83623260259628,0.66951870918274,1.27405631542206,1.62878930568695,1.43970489501953,0.02130528911948,-25.7352733612061,-29.2020778656006,-28.6298637390137,6.715735912323,2.09971499443054,-4.59447288513184,10.3059005737305,8.25739765167236,5.81261539459229,10.9822034835815,23.6499252319336,29.3505191802979,1.08550453186035,4.40806436538696,4.99875354766846,0.12676647305489,-0.76219671964645,-1.28364372253418,37.7685317993164,37.7254371643066,29.7096481323242,30.0855388641357,19.0674228668213,2.01112937927246,-5.91008710861206,-7.0728235244751,-7.62782621383667,21.6076698303223,17.02516746521,12.088324546814,-2.34784293174744,-0.55873119831085,1.05940544605255,1.32572162151337,0.90068107843399,0.5091964006424,-11.4825916290283,-21.9620113372803,-25.1917896270752,6.32069253921509,6.86657047271729,3.95522117614746,0.94861799478531,10.2941827774048,9.57992362976074,-40.5027084350586,-8.94952583312988,15.2079696655273,-2.55769991874695,-1.91161704063416,0.25353294610977,-0.79788309335709,-0.86233156919479,-0.80960100889206,-1.0989385843277,16.9629192352295,30.3153820037842,3.41892004013062,15.7370882034302,19.6276664733887,SHAKE
-7.7828221321106,-7.53568077087402,-4.80381011962891,6.77798509597778,-4.46039772033691,-26.5804271697998,2.28712272644043,0.09960222989321,-1.40295326709747,-0.63915866613388,-0.93743270635605,-1.0444917678833,-25.5628910064697,-22.6012649536133,-14.6716680526733,-0.96246910095215,-7.21612405776978,-3.39737224578857,7.34925937652588,6.34151935577393,4.6536078453064,23.7935771942139,23.6858367919922,36.7126884460449,2.45969557762146,2.58379888534546,-0.01012001186609,-0.62903863191605,-1.59150505065918,-1.35022270679474,38.3910255432129,27.1981315612793,17.413028717041,14.9326362609863,-5.78917980194092,-9.84974575042725,-8.74582099914551,-8.59508609771729,-7.63954401016235,12.4043588638306,4.30477476119995,-9.77313137054443,2.23758792877197,0.9097358584404,-1.0700581073761,-0.68496507406235,-2.13692045211792,-1.42798697948456,-29.9801940917969,-26.61155128479,-9.80665016174316,0.68234747648239,-7.15148067474365,-4.35265874862671,6.60783529281616,4.88050889968872,-2.22427225112915,25.9148387908936,36.4996032714844,34.1532859802246,4.60354042053223,-2.50390410423279,-4.59128999710083,-1.93771600723267,-0.46605318784714,1.05567705631256,26.4511394500732,7.24246025085449,-3.77086758613586,-9.73482418060303,-12.3684463500977,-4.96318006515503,-8.04274654388428,-7.672034740448,-5.87440061569214,5.20978307723999,-3.55299520492554,-22.7305507659912,1.29802477359772,2.71109795570374,2.01334977149963,-0.42983421683311,-0.48203217983246,-1.11373400688171,-26.2476329803467,-26.7264728546143,-24.3274841308594,9.0859956741333,2.18351197242737,-3.57214903831482,SHAKE
7.52928924560547,7.1143684387207,5.31993055343628,19.5103492736816,23.4488105773926,36.57861328125,4.46718645095825,2.61149573326111,-2.36328911781311,-0.72597771883011,-2.05329728126526,-1.16593194007874,28.9458980560303,30.6793003082275,20.480001449585,17.5782279968262,-24.0665149688721,-19.6587905883789,-9.03184509277344,-8.64195823669434,-7.13460874557495,12.7682781219482,1.53707754611969,-14.4250650405884,2.7095000743866,0.66365975141525,-3.28101444244385,0.43675842881203,0.03941478580236,-1.91907393932343,-31.0025177001953,-31.0025177001953,-12.6988458633423,-6.12436771392822,-6.12436771392822,-3.62960982322693,6.67388200759888,7.34766149520874,6.07839918136597,21.0402450561523,18.1049537658691,36.2913093566895,3.16490077972412,5.38757514953613,-0.41438788175583,-1.25807726383209,-1.75715374946594,-0.57417756319046,38.6639633178711,39.5354537963867,23.2692470550537,28.4933948516846,11.6214551925659,-11.8824234008789,-7.97403717041016,-8.86726093292236,-7.61131477355957,22.2349510192871,16.069881439209,3.44765043258667,4.4773063659668,3.02961206436157,0.79575252532959,1.30974268913269,1.16273617744446,0.35100463032722,-33.9569625854492,-35.0463256835938,-30.554801940918,2.24097275733948,-12.5336456298828,-12.9215068817139,10.1940479278564,8.52264785766602,7.35192251205444,-24.7488632202148,30.2124309539795,22.5845050811768,-2.26315426826477,4.45067501068115,6.30476760864258,0.65726816654205,0.2673813700676,-1.42266070842743,24.9380054473877,39.2888488769531,33.1309623718262,15.1864213943481,21.7896289825439,3.89297199249268,SHAKE
7.11117267608643,0.06870955973864,-2.59178853034973,30.1238460540771,34.7326850891113,25.7185153961182,4.34734439849854,-3.76091623306274,-4.67810869216919,-1.8748654127121,0.28762140870094,1.56487345695496,25.0337734222412,5.52342319488525,-4.36941814422607,-14.9039058685303,-6.39012432098389,3.90254878997803,-7.69813346862793,-6.95990514755249,-1.04342651367188,4.88895988464355,4.88895988464355,-37.3447570800781,-1.8620822429657,-2.82295083999634,-2.00589299201965,-0.3275688290596,-2.29564499855042,-3.98462176322937,-26.4104385375977,-25.7161197662354,-20.8965930938721,-12.8520746231079,-7.58722496032715,1.77649760246277,7.96391725540161,7.10637903213501,6.16361999511719,29.6665534973145,22.1319999694824,34.8978843688965,-0.52570801973343,3.29592823982239,5.21606731414795,0.3211772441864,-0.54168695211411,-1.30867743492126,37.6512145996094,37.5362930297851,28.4694519042969,33.1165962219238,28.2228488922119,13.1465616226196,-5.78811454772949,-6.85018301010132,-7.40305519104004,21.3323364257813,16.7282867431641,12.3804168701172,-1.18990039825439,-0.06178534030914,0.93210637569427,1.71560835838318,1.57179772853851,0.95980328321457,-7.75003099441528,-17.8439846038818,-27.3369941711426,5.37737703323364,5.18584108352661,0.66079968214035,4.13535642623901,10.3751430511475,12.3591985702515,-41.608829498291,-25.0505332946777,11.5687828063965,-0.61838603019714,-0.80054622888565,-0.75687038898468,-2.02879619598389,-0.17789916694164,1.09083080291748,17.6428718566895,33.8444366455078,43.1890029907227,9.60553741455078,9.95030212402344,12.018892288208,SHAKE
11.9069938659668,9.4366455078125,7.46324300765991,12.6054716110229,31.4478397369385,32.6162109375,2.23172903060913,4.13216066360474,1.8237327337265,0.24234765768051,-2.39577984809875,-2.85331082344055,41.967960357666,30.7774620056152,19.436128616333,12.9071416854858,-3.74931979179382,-11.9973449707031,-7.0935959815979,-7.27788686752319,-7.12395620346069,16.7354698181152,5.97353315353394,-3.7038300037384,-0.3659183382988,1.43011748790741,0.25939190387726,-0.02396845072508,0.27909928560257,0.53529536724091,-20.5398559570313,-27.9834289550781,-27.813440322876,8.98543930053711,-0.33997663855553,-6.23450136184692,10.52001953125,7.91384983062744,5.8909125328064,18.9333477020264,29.1110992431641,42.2409019470215,-2.39737772941589,-0.82930839061737,0.62584286928177,1.09935295581818,1.361407995224,0.3914846777916,39.8012084960938,38.3958129882813,28.7495746612549,17.4034519195557,19.5151386260986,15.2151517868042,-7.59746599197388,-7.88029384613037,-7.54633331298828,18.3850746154785,3.99352836608887,-5.86339998245239,1.06100344657898,1.1685950756073,0.05113269388676,0.50440269708633,0.08202536404133,-0.08202536404133,-32.1756782531738,-31.1126518249512,-29.7982349395752,1.30244576931,-3.55538964271545,-6.92163705825806,10.3016395568848,6.31435489654541,2.39524722099304,24.0593338012695,37.7326202392578,47.4147720336914,-2.32440710067749,0.61252707242966,3.90419411659241,2.30576491355896,1.07431924343109,-1.30335104465485,42.5473594665527,34.9290084838867,9.73003578186035,19.3714866638184,24.7105560302734,7.76200199127197,SHAKE
9.89950275421143,13.2545528411865,5.36041069030762,-36.061466217041,35.1157569885254,39.2457542419434,-1.69483578205109,-0.01012001186609,1.70868420600891,0.47883638739586,0.72437983751297,0.0,43.0501403808594,36.7677536010742,22.1104526519775,4.66151094436646,17.1400890350342,15.4713315963745,-8.13862037658691,-8.49388599395752,-7.84833574295044,18.7394161224365,15.4473896026611,-1.90339040756226,0.47830373048782,0.38988679647446,-0.19228023290634,0.40426784753799,-0.25353294610977,1.34489631652832,-30.6912708282471,-35.4054565429688,-32.5300178527832,0.00957680679858,0.97922849655151,-4.3646297454834,9.12185955047607,7.55698585510254,6.89918518066406,36.5666427612305,27.739221572876,36.5690383911133,-2.1789984703064,3.76464462280273,3.96704483032227,1.17125821113586,-0.95287907123566,-1.421595454216,43.0094375610351,37.9576721191406,22.6683025360107,23.491907119751,15.9382009506226,3.79720377922058,-8.69042778015137,-8.79482364654541,-8.27444171905518,18.3300075531006,11.8656635284424,3.11485648155212,2.57527685165405,0.70200926065445,-0.19654129445553,-0.01864212751389,-0.77497988939285,-0.05699164792895,-28.8190059661865,-33.9689331054688,-33.3033447265625,5.95198535919189,-5.30794525146484,-3.10527968406677,12.8284473419189,12.9397668838501,7.69600296020508,-14.0970592498779,22.0529918670654,31.4238967895508,-1.8967033624649,0.3147856593132,2.88739919662476,1.14409399032593,0.08735168725252,-0.40693101286888,42.8610000610351,45.5329284667969,21.5119018554688,20.9229278564453,21.1024932861328,8.66222190856934,SHAKE
7.69600296020508,3.00883936882019,-0.86819052696228,31.4238967895508,45.1426734924316,42.2145652770996,2.88739919662476,2.25995850563049,1.23251092433929,-0.40693101286888,-0.58589547872543,-0.13156016170979,21.5119018554688,9.70609378814697,0.57221418619156,8.66222190856934,4.10366153717041,3.48835182189941,-8.05979061126709,-8.55407333374023,-7.78761577606201,12.4330892562866,7.31428623199463,-13.1465616226196,2.13798570632935,3.30125451087952,2.15183424949646,-1.30814480781555,-1.13237607479095,1.15368139743805,-37.6583976745605,-38.7573356628418,-37.562629699707,5.89691877365112,3.60566782951355,-6.73967790603638,12.4630613327026,10.3623600006104,8.73942947387695,8.77953720092773,26.6738014221191,49.552791595459,-2.51722002029419,1.27778470516205,3.13134479522705,0.79948097467422,0.42823630571365,-0.40266996622086,41.4436302185059,41.9104995727539,12.471396446228,16.0148143768311,20.8199787139893,9.63666152954102,-9.03344249725342,-8.90933895111084,-8.37191295623779,21.8279361724854,10.0364933013916,1.23061966896057,0.74408721923828,-0.88523477315903,0.32011196017265,0.41758367419243,-0.42184472084045,-0.29720878601074,-37.6583976745605,-40.5649604797363,-36.7677536010742,-6.88572406768799,-3.02148246765137,8.49702167510986,12.143482208252,11.5991315841675,8.79056262969971,-32.0368118286133,40.5817184448242,37.6536102294922,-1.62293040752411,0.04846953228116,2.37713766098022,1.72732627391815,1.17285621166229,-0.18162758648396,49.5073013305664,53.4218215942383,24.6267585754395,15.2558536529541,18.9620780944824,3.76368498802185,SHAKE
6.61582469940186,-0.94222640991211,-3.33587574958801,37.337574005127,33.9976654052734,28.0025825500488,2.93107509613037,3.22295761108398,2.38459444046021,-0.56672066450119,-1.27139317989349,-1.14622449874878,25.6083812713623,13.6254014968872,5.29836845397949,11.113883972168,4.73094272613525,1.21386027336121,-7.10691165924072,-7.16017484664917,0.14753912389278,5.47793340682983,0.99598789215088,-42.7819900512695,-1.54569876194,-1.47059762477875,-1.44130277633667,-0.07563377916813,-0.81332939863205,-1.66021466255188,-32.6186027526855,-34.7446556091309,-26.2045383453369,-0.02873042039573,-1.07260239124298,-0.53390699625015,9.79830265045166,8.38735961914063,4.87944364547729,29.5061416625977,35.4916458129883,51.2359161376953,0.6593986749649,2.34091854095459,3.18354272842407,1.67992210388184,0.91346424818039,-0.86446207761765,46.0644416809082,40.9169082641602,29.2930583953857,16.7402591705322,11.2886610031128,2.99035787582397,-7.49520063400268,-7.95592737197876,-8.21425437927246,16.4601364135742,12.6246252059937,8.26239013671875,-0.57204699516296,0.15552860498428,-0.46179214119911,2.041579246521,1.75342524051666,-0.34141725301743,-31.8859786987305,-30.662540435791,-30.6146564483643,3.09570288658142,0.16519992053509,-4.19942998886108,11.6870164871216,8.43316650390625,4.90927124023438,17.5973815917969,30.4877643585205,51.697998046875,0.17630127072334,2.9411952495575,1.65808415412903,1.18191087245941,-0.64341974258423,-1.78911161422729,43.3589935302734,28.5221252441406,5.84664058685303,16.4912605285645,6.54814147949219,-1.24019646644592,SHAKE
-7.72263479232788,-5.05414724349976,9.37965393066406,-3.67509961128235,-28.1701774597168,-36.0949859619141,-0.44421526789665,0.13156016170979,0.71852087974548,-0.91026848554611,-1.77046954631805,-0.95554220676422,-27.9331512451172,-27.9331512451172,5.69580602645874,-0.68474167585373,-0.68474167585373,4.6303858757019,5.96175241470337,3.00564360618591,-1.12545192241669,31.5220603942871,42.0709114074707,38.0342864990234,0.02716424316168,0.04740426689386,-1.03969812393188,0.23968450725079,-0.68656295537949,-0.77178412675858,32.9226684570313,21.9476470947266,2.68390011787415,3.18428826332092,1.66636443138123,2.64559292793274,-7.84034633636475,-8.26805019378662,-4.43629360198975,9.62947940826416,-5.76523780822754,-37.4860153198242,1.06047081947327,0.54062169790268,-0.38722363114357,0.09214537590742,-0.69188928604126,-1.13290870189667,-26.8509712219238,-30.4350929260254,-29.0991268157959,-3.15076947212219,-5.13556241989136,-5.09486103057861,7.71571063995361,4.88636827468872,1.67086732387543,39.2768783569336,38.872257232666,39.7557182312012,0.15073491632938,1.38218069076538,0.59708070755005,1.50734925270081,-1.03916549682617,-0.91666007041931,39.8036041259766,18.6915321350098,8.35097599029541,7.91044235229492,2.46363353729248,-0.1963245421648,-7.35138988494873,-7.41903448104858,-7.62569570541382,10.2208471298218,6.49068069458008,6.49068069458008,-0.25406557321548,0.5480785369873,0.33289512991905,0.15446335077286,0.88683265447617,0.20186761021614,-24.835054397583,-24.3322715759277,-24.1910133361816,3.23456645011902,1.31202256679535,-2.91134929656982,SHAKE
9.25927829742432,6.46988344192505,4.01338386535645,28.526912689209,34.5770606994629,36.4397506713867,0.17683389782906,0.98803275823593,0.83623260259628,0.89535474777222,-0.17949706315994,-0.79415464401245,36.3104629516602,26.0249729156494,14.923059463501,8.93994903564453,6.39491271972656,2.29364514350891,-6.73300409317017,-6.85977029800415,-7.1670994758606,12.9622077941895,8.47786808013916,-11.6956748962402,0.00585895450786,1.21599936485291,-0.81545996665955,0.77125144004822,0.16192018985748,-0.2194444835186,-26.9587116241455,-23.6140117645264,-20.4153575897217,3.76607918739319,0.3687070608139,-6.85938787460327,8.44701480865479,6.14391279220581,4.53483057022095,31.1341991424561,28.7016906738281,34.1317405700684,-1.10947299003601,1.22771728038788,3.32895135879517,1.15954041481018,0.46498793363571,-1.32891738414764,35.7502212524414,34.3424301147461,15.5934352874756,20.149600982666,18.9453182220459,3.44525623321533,-7.00943994522095,-7.34712886810303,-7.32369327545166,14.8201084136963,10.4674501419067,6.72770690917969,-0.47351005673409,-0.33768883347511,0.11398329585791,-0.3371562063694,-0.54062169790268,0.35846149921417,-13.1321964263916,-22.9053268432617,-25.5796508789063,3.5960910320282,3.85227060317993,4.46758031845093,2.68926000595093,9.5042896270752,12.6798429489136,-48.0085334777832,-32.0607566833496,-4.71897172927856,-1.17392146587372,-1.07218861579895,-0.13741911947727,-0.53263223171234,-0.01597896590829,0.92837798595428,-15.7801837921143,4.90811347961426,35.5658645629883,1.76931500434875,6.39491271972656,9.30865573883057,SHAKE
7.98362445831299,6.20250225067139,4.67065191268921,19.5893573760986,22.2828350067139,29.6809177398682,-0.13582122325897,1.1084076166153,1.57765662670136,0.80161148309708,0.00958738010377,-1.52865445613861,33.1142044067383,33.1142044067383,21.1455898284912,9.39724159240723,9.39724159240723,-2.03985977172852,-6.17533826828003,-7.02328872680664,-7.52715873718262,16.0004501342773,6.43561410903931,1.63763391971588,-1.21599936485291,-0.06391586363316,0.41811630129814,0.40533313155174,0.34887412190437,0.588558614254,-27.3202362060547,-27.3202362060547,-27.1287002563477,4.45560932159424,4.45560932159424,-2.27209734916687,11.76478099823,8.53170299530029,6.16148948669434,14.9206647872925,32.7885932922363,30.662540435791,0.42184472084045,1.65062725543976,2.37500715255737,0.89961582422256,0.37763625383377,-0.6615292429924,39.2673034667969,36.3152503967285,25.823860168457,13.2782430648804,9.5408935546875,4.13718032836914,-6.44591522216797,-7.20544862747192,-7.74979877471924,19.3499374389648,15.3875341415405,12.088324546814,-1.16646456718445,-1.00454437732697,0.42717105150223,-0.43942159414291,-0.32064458727837,-0.25885927677155,-14.6453313827515,-24.7105560302734,-26.0608863830566,3.07415509223938,5.70538282394409,8.33421611785889,8.86459827423096,13.0287170410156,12.2260398864746,-36.4900283813477,-10.5368814468384,25.1750316619873,-0.9033442735672,-0.03781688958406,0.14487597346306,-0.67750817537308,0.34567832946777,1.10254871845245,5.68383502960205,27.930757522583,35.8316230773926,6.95515584945679,10.4219598770142,6.56250667572021,SHAKE
10.7937917709351,13.4537572860718,5.39929294586182,-25.7783699035645,3.36864185333252,39.3726463317871,-0.47936901450157,0.14594122767448,1.65808415412903,0.80374205112457,2.47194623947144,1.4471617937088,31.6633167266846,34.7853546142578,32.0200538635254,13.141773223877,10.6948986053467,9.47146224975586,-5.80728912353516,-6.67121887207031,-7.12182569503784,17.9589061737061,14.6237840652466,10.3022499084473,-2.83946251869202,-2.26688265800476,-0.10546118021011,-0.36005938053131,0.09161274135113,-0.34780883789063,-19.5965404510498,-23.6954135894775,-22.890962600708,-0.59615623950958,6.75164890289307,9.95748519897461,4.76546049118042,10.4619617462158,11.954930305481,-38.7884635925293,-24.0689105987549,34.442985534668,-2.33505964279175,-2.12413740158081,-0.00532632227987,-1.09988558292389,1.65169250965118,1.50894713401794,14.5040740966797,28.7806987762451,33.2458839416504,11.197681427002,12.6413850784302,16.4026756286621,-4.27117776870728,-6.10982418060303,-7.08880233764648,30.8133754730225,22.886173248291,17.3914813995361,1.70655369758606,0.74568510055542,-0.21678131818771,-1.07218861579895,-0.78083884716034,-0.21145498752594,0.11013327538967,-7.3693528175354,-16.4481658935547,0.72065472602844,0.30885201692581,-1.13963997364044,-7.44673109054565,-3.92336893081665,9.16393756866455,-8.99022769927979,-31.5843086242676,-30.9211158752441,0.20240025222301,-1.80562329292297,-2.0889835357666,1.05035078525543,0.48522797226906,-0.63223445415497,-24.0569381713867,-16.6325187683105,4.67827033996582,-7.54891777038574,-5.52342319488525,7.4196310043335,SHAKE
3.47222948074341,-1.23570680618286,-4.27117776870728,38.6519927978516,35.9848518371582,30.8133754730225,3.21177244186401,2.69991278648376,1.70655369758606,-1.64530098438263,-1.47911965847015,-1.07218861579895,15.9501714706421,7.17781686782837,0.11013327538967,7.18499946594238,2.49954652786255,0.72065472602844,-7.73275470733643,-7.920241355896,-7.44673109054565,7.99423933029175,2.63122773170471,-8.99022769927979,-0.52624064683914,1.66447567939758,0.20240025222301,0.46871635317802,0.4356931746006,1.05035078525543,-23.7528743743896,-23.795970916748,-24.0569381713867,3.89297199249268,-0.51235914230347,-7.54891777038574,11.891547203064,7.72689580917358,2.31748270988464,22.0577793121338,43.9862747192383,35.8771133422852,0.51345747709274,1.85142958164215,2.59072303771973,1.72785890102386,0.34887412190437,-0.84368944168091,37.4213714599609,29.6737365722656,19.1200942993164,10.9055891036987,8.64546203613281,3.80917501449585,-6.80011558532715,-7.26670169830322,-7.80732297897339,17.2837429046631,12.9023532867432,4.77882671356201,-1.52226293087006,0.9416937828064,1.57286298274994,-0.45220476388931,-0.87404948472977,-0.02716424316168,-25.356990814209,-22.5270442962646,-23.683443069458,-0.98880529403687,5.86818838119507,1.31920516490936,12.5317707061768,12.2105941772461,4.66585826873779,-32.6952171325684,22.285228729248,38.122875213623,-1.62346303462982,0.34194988012314,2.23758792877197,2.49911046028137,0.93317168951035,-1.49882709980011,37.3399696350098,32.1852531433105,12.526463508606,11.4825916290283,12.7227878570557,3.57933163642883,SHAKE
12.2105941772461,4.66585826873779,0.37071204185486,22.285228729248,38.122875213623,37.5195350646973,0.34194988012314,2.23758792877197,1.71560835838318,0.93317168951035,-1.49882709980011,-1.41946494579315,32.1852531433105,12.526463508606,4.15154552459717,12.7227878570557,3.57933163642883,1.15879356861115,-7.32582378387451,-7.30025720596313,-5.73005771636963,9.79707336425781,3.73734879493713,-17.329231262207,0.23169502615929,2.03998136520386,1.56860196590424,-0.92464953660965,-0.43036684393883,1.18031299114227,-24.9116687774658,-24.0665149688721,-26.7168960571289,9.47625064849854,4.89614248275757,-3.41892004013062,9.7013635635376,5.43710994720459,3.12708377838135,45.5856018066406,44.4076538085938,39.7844505310059,-1.72466313838959,2.40909552574158,2.74731707572937,2.70790219306946,-0.89215898513794,-1.65169250965118,38.6855125427246,20.1663608551025,9.77073669433594,10.2064819335938,10.7667245864868,3.56017804145813,-7.5942702293396,-8.55939960479736,-2.87621402740479,13.8097553253174,3.19147086143494,-38.7381820678711,2.48792505264282,0.84209156036377,-0.65886604785919,0.11664646118879,2.47247886657715,1.03064334392548,-25.2277030944824,-27.9475154876709,-13.1226196289063,12.0548057556152,-6.28717374801636,-9.20809936523438,7.34659624099732,4.69462060928345,-2.01867604255676,41.819522857666,43.4667320251465,36.4373550415039,2.01334977149963,2.16941118240356,-0.10599381476641,-1.18563938140869,-1.64370310306549,-0.32969933748245,15.660472869873,5.60961437225342,-11.6142721176147,9.25119495391846,4.2257661819458,-1.31920516490936,SHAKE
11.297661781311,7.34659624099732,4.69462060928345,35.1827926635742,41.819522857666,43.4667320251465,-1.80082952976227,2.01334977149963,2.16941118240356,1.70175993442535,-1.18563938140869,-1.64370310306549,37.3902473449707,15.660472869873,5.60961437225342,11.6118783950806,9.25119495391846,4.2257661819458,-8.23183155059814,-7.97670030593872,-6.20516538619995,7.21372985839844,-2.96402168273926,-17.738639831543,-0.90547478199005,2.06661295890808,1.07165598869324,-0.12996226549149,-0.18482337892056,1.60854935646057,-25.7783699035645,-22.5701389312744,-23.1710834503174,11.7459535598755,12.1362085342407,-7.42681360244751,10.3485116958618,6.63127136230469,4.6786413192749,32.448616027832,36.2649726867676,34.4597434997559,0.41545313596725,1.98458766937256,2.34464716911316,0.2418150305748,-0.79362201690674,-1.3741911649704,38.1755447387695,29.5516319274902,18.0043964385986,12.8137674331665,9.37090587615967,3.04303026199341,-6.93114328384399,-7.66351270675659,-7.5346155166626,15.9717197418213,6.70615911483765,-1.32638776302338,-1.17871510982513,2.54065561294556,0.34621095657349,0.07510114461184,-0.36804887652397,2.88846468925476,-25.0601100921631,-24.1143989562988,-26.8964614868164,8.7077112197876,8.7077112197876,-5.11162042617798,13.9597578048706,3.28793883323669,-0.25086978077888,30.9306926727295,44.8697357177734,35.9082374572754,0.81386202573776,0.9954896569252,0.18162758648396,0.16138756275177,-1.3230584859848,-1.20108568668365,29.4462871551514,9.85453414916992,2.55700731277466,6.80671548843384,0.97444009780884,1.18512988090515,SHAKE
14.3054361343384,10.3991117477417,4.39048767089844,10.0556468963623,45.6334838867188,47.9343109130859,-1.71454310417175,-1.43597650527954,1.50681662559509,3.35238718986511,3.38434529304504,-0.92784535884857,30.9833641052246,34.1700477600098,27.5285320281982,9.30386734008789,8.2504186630249,8.52335834503174,-6.49651527404785,-7.06483364105225,-7.31783437728882,17.8320140838623,12.7419414520264,4.73094272613525,-0.31851407885551,-0.77551251649857,-0.04101268202066,-0.52411013841629,0.07243798673153,-0.27004453539848,-21.5262680053711,-25.4695167541504,-24.7321033477783,-0.65840548276901,0.66798228025436,6.93600225448608,12.848687171936,14.9568452835083,10.6110992431641,-23.9156799316406,8.64546203613281,48.3245658874512,-1.41893219947815,-0.38349521160126,0.89801794290543,-0.15286545455456,3.3087112903595,0.26951190829277,15.3659868240356,34.7159233093262,35.3671493530273,13.4673843383789,9.50498104095459,11.4203424453735,-3.74387192726135,-6.62701034545898,-6.88480424880981,31.0049114227295,14.8847522735596,10.3477401733398,0.98057591915131,-0.62158179283142,-2.83679914474487,-2.4192156791687,-2.01441502571106,-0.18109495937824,-3.30399823188782,-11.8512983322144,-25.6778125762939,0.76853877305984,-2.45405673980713,-3.51708221435547,2.58592939376831,9.4265251159668,13.2998266220093,-28.6681709289551,-33.3488349914551,-9.20091724395752,0.09906959533691,-0.2434129267931,-0.19441075623035,-0.07776430249214,1.18350875377655,3.32682085037231,-18.9429244995117,10.5847654342651,27.8517475128174,-2.84910011291504,5.73890161514282,10.4866037368774,SHAKE
2.80217814445496,3.66717290878296,0.46232476830482,17.9014453887939,23.1351718902588,38.9249305725098,3.27568817138672,1.98298978805542,-1.95156443119049,-1.8796591758728,-2.00003409385681,-1.20428144931793,34.1461029052734,25.2181262969971,5.66468143463135,-0.55306059122086,-12.9717845916748,-0.58657944202423,-7.99960327148438,-7.82276964187622,-5.28530979156494,11.3317565917969,-4.37181234359741,-23.3219184875488,0.51878380775452,0.65726816654205,-0.5757754445076,1.39762699604034,-0.2210423797369,-0.28708878159523,-25.8549842834473,-25.5676803588867,-25.5676803588867,-0.1268926858902,-5.32709884643555,-5.32709884643555,12.498215675354,5.53564691543579,5.34602975845337,19.3690910339355,26.9682884216309,31.790210723877,-1.93238973617554,-1.03810024261475,0.8431568145752,0.63063657283783,1.60002720355988,0.648746073246,37.6655807495117,38.3096199035645,29.6976776123047,12.5504055023193,14.6189956665039,13.2519063949585,-5.35188865661621,-6.27653837203979,-6.83207368850708,18.3300075531006,14.662091255188,11.389217376709,0.77444726228714,-0.73663038015366,-2.19817328453064,-1.47379338741302,-0.70413982868195,0.32543829083443,-4.27125597000122,-4.27125597000122,-21.4257106781006,0.01436521019787,0.01436521019787,-0.86430680751801,-5.87812948226929,-0.45433530211449,6.10662841796875,-19.9341239929199,-38.2449760437012,-36.1261100769043,1.21440148353577,-0.35153725743294,-0.86978840827942,1.1558119058609,1.16326880455017,0.28762140870094,-23.6235885620117,-24.3035411834717,-12.1697273254395,-3.11725068092346,-4.45800352096558,2.72220730781555,SHAKE
-7.63155460357666,-6.44804573059082,7.79081153869629,5.07091903686523,-20.4991550445557,-39.999927520752,-0.83197152614594,-0.76379460096359,-0.02982740476727,0.82557994127274,-0.65620291233063,-0.07084008306265,-27.1191234588623,-19.519926071167,16.2590236663818,-2.827552318573,0.59615623950958,4.20900678634644,3.64853072166443,1.05887281894684,-4.51086235046387,42.7221336364746,37.2729339599609,29.2332019805908,1.71720635890961,0.90387690067291,0.19281286001205,-2.04477500915527,-1.95103180408478,-1.50521862506866,18.0690402984619,8.49223327636719,0.23702596127987,0.61530983448029,-0.08379705995321,0.95528650283813,-8.0768346786499,-8.49335384368896,-5.11646509170532,9.87368774414062,-5.46356821060181,-34.5483322143555,0.43143209815025,1.44662916660309,0.67164921760559,-0.33502566814423,0.92624741792679,1.69270527362823,-25.239673614502,-27.2244682312012,-28.6466236114502,10.5584297180176,3.97437477111816,-2.58813214302063,12.7597379684448,8.47204780578613,5.09569263458252,27.1239109039307,41.0509834289551,41.0509834289551,-1.6996294260025,-0.07084008306265,1.56114506721497,1.63411569595337,0.48842376470566,-0.61359232664108,37.7924728393555,33.1189918518066,23.3841686248779,8.0540943145752,12.2271881103516,8.42759037017822,-6.67175149917603,-7.25338554382324,-7.68694829940796,14.1233959197998,6.24407815933228,2.63841032981873,-1.72040212154388,0.6743124127388,1.39176797866821,0.91879057884216,-0.28495824337006,0.41811630129814,-24.6243648529053,-21.9093399047852,-24.1167945861816,0.14125789701939,6.04296493530273,-1.02950668334961,SHAKE
13.2625427246094,12.1717119216919,2.92042255401611,-3.80199241638184,30.3177757263184,37.8690872192383,-0.24394555389881,0.05113269388676,0.94702011346817,3.0397322177887,1.5840482711792,-0.24927188456059,37.2082901000977,35.9106330871582,27.6985187530518,4.45082092285156,4.83628749847412,4.23055458068848,-5.52925539016724,-7.00198316574097,-7.16337060928345,21.1982612609863,10.7284173965454,10.7284173965454,-1.74010944366455,-0.47617322206497,1.53983974456787,0.38935416936874,1.53131771087646,-0.6423544883728,-21.8638496398926,-20.475212097168,-20.475212097168,2.39899015426636,6.23210716247559,6.23210716247559,7.6107816696167,12.0417490005493,13.4809217453003,-34.8715476989746,-16.699556350708,12.6581439971924,-1.5281218290329,-0.53263223171234,1.31986260414124,1.0402307510376,2.7393274307251,1.64743149280548,24.7129497528076,39.240966796875,37.921760559082,11.0803651809692,14.499285697937,10.9319248199463,-4.05120086669922,-5.70129537582397,-6.10556316375732,32.2690505981445,19.0530567169189,12.9646024703979,1.09722244739532,-0.77391463518143,-3.12335538864136,-2.86236548423767,-2.534264087677,-1.41946494579315,0.78050976991653,-5.22175407409668,-15.454571723938,-4.7213659286499,-2.65756392478943,-1.84592950344086,-8.75061511993408,-4.42244529724121,3.01576375961304,-2.782062292099,-38.4006004333496,-44.187385559082,0.04154531285167,-1.99524033069611,-2.90018248558044,1.60215771198273,1.26926255226135,0.3371562063694,-22.6132354736328,-18.4066219329834,16.6923751831055,-4.12999773025513,-5.68144083023071,14.1521263122559,SHAKE
